loggingTime,loggingSample,locationTimestamp_since1970,locationLatitude,locationLongitude,locationAltitude,locationSpeed,locationCourse,locationVerticalAccuracy,locationHorizontalAccuracy,locationFloor,locationHeadingTimestamp_since1970,locationHeadingX,locationHeadingY,locationHeadingZ,locationTrueHeading,locationMagneticHeading,locationHeadingAccuracy,accelerometerTimestamp_sinceReboot,accelerometerAccelerationX,accelerometerAccelerationY,accelerometerAccelerationZ,gyroTimestamp_sinceReboot,gyroRotationX,gyroRotationY,gyroRotationZ,motionTimestamp_sinceReboot,motionYaw,motionRoll,motionPitch,motionRotationRateX,motionRotationRateY,motionRotationRateZ,motionUserAccelerationX,motionUserAccelerationY,motionUserAccelerationZ,motionAttitudeReferenceFrame,motionQuaternionX,motionQuaternionY,motionQuaternionZ,motionQuaternionW,motionGravityX,motionGravityY,motionGravityZ,motionMagneticFieldX,motionMagneticFieldY,motionMagneticFieldZ,motionMagneticFieldCalibrationAccuracy,IP_en0,IP_pdp_ip0,deviceOrientation
2015-02-09 13:27:59.352,1,1423517276.553496,37.78888644910438,-122.3987894700533,13.79177,-1,-1,10,65,-9999,1423517279.308134,-80.48459625244141,264.5165100097656,-68.03102874755859,32.25229644775391,18.47336578369141,-1,28413.548954625,0.0662841796875,-0.66656494140625,-0.745361328125,28413.5327525,0.02600763225738682,-0.01966344990860006,0.1594666239645277,28413.5327525,0.06974475393879245,0.05920249633035247,0.7174976805465308,0.009572590701282024,-0.004907527938485146,0.198454961180687,0.04337139427661896,-0.03738390281796455,0.03550431877374649,XTrueNorthZVertical,0.3497696069369979,0.03993179499386187,0.04301662366471363,0.934995317581964,0.04458026587963104,-0.6575013399124146,-0.7521333694458008,0,0,0,-1,0.0.0.0,10.227.79.254,1
2015-02-09 13:27:59.444,2,1423517276.553496,37.78888644910438,-122.3987894700533,13.79177,-1,-1,10,65,-9999,1423517279.412397,-81.01319885253906,264.3975524902344,-68.28066253662109,32.31571960449219,18.53678703308105,-1,28413.64722154167,0.0133209228515625,-0.649566650390625,-0.7681427001953125,28413.6363045,-0.1553874601228533,-0.2830660606839772,0.1321915933443722,28413.6363045,0.09718717274856267,0.01122071639388609,0.7054298297549757,-0.1718132197856903,-0.2683055996894836,0.1711759269237518,0.01561214122921228,-0.03553779423236847,0.02510947361588478,XTrueNorthZVertical,0.3447779074242977,0.02203836451017439,0.04751920366324878,0.9372216548528171,0.008542521856725216,-0.6483611464500427,-0.7612850069999695,0,0,0,-1,0.0.0.0,10.227.79.254,1
2015-02-09 13:27:59.540,3,1423517276.553496,37.78888644910438,-122.3987894700533,13.79177,-1,-1,10,65,-9999,1423517279.516888,-81.81462097167969,264.75439453125,-68.23072814941406,32.44682312011719,18.66789245605469,-1,28413.74521320833,-0.0218658447265625,-0.6038665771484375,-0.80267333984375,28413.73985633333,-0.1620384386292172,-0.2120297007155306,0.009312808015898087,28413.6363045,0.09718717274856267,0.01122071639388609,0.7054298297549757,-0.1718132197856903,-0.2683055996894836,0.1711759269237518,0.01561214122921228,-0.03553779423236847,0.02510947361588478,XTrueNorthZVertical,0.3447779074242977,0.02203836451017439,0.04751920366324878,0.9372216548528171,0.008542521856725216,-0.6483611464500427,-0.7612850069999695,0,0,0,-1,0.0.0.0,10.227.79.254,1
2015-02-09 13:27:59.641,4,1423517276.553496,37.78888644910438,-122.3987894700533,13.79177,-1,-1,10,65,-9999,1423517279.619944,-82.29205322265625,264.6524353027344,-68.39714813232422,32.4801139831543,18.70118141174316,-1,28413.84332295834,-0.02276611328125,-0.60723876953125,-0.7592010498046875,28413.84340920833,0.1990923304560347,-0.2263702905533893,-0.04724128194469759,28413.73985633333,0.11701380726469,-0.01322380964624031,0.6903091438132113,-0.1784716695547104,-0.1972725838422775,0.04829810559749603,-0.01246339082717896,0.02671393193304539,-0.01739407330751419,XTrueNorthZVertical,0.3381196539022578,0.01357236251815669,0.05279050210900468,0.9395233118490331,-0.01019591093063354,-0.6367755532264709,-0.7709817886352539,0,0,0,-1,0.0.0.0,10.227.79.254,1
2015-02-09 13:27:59.737,5,1423517276.553496,37.78888644910438,-122.3987894700533,13.79177,-1,-1,10,65,-9999,1423517279.723306,-83.33222961425781,264.0917053222656,-68.94631958007812,32.79220962524414,19.01327705383301,-1,28413.94144708334,-0.035491943359375,-0.633270263671875,-0.7051239013671875,28413.946961125,0.01313550944459783,-0.1541030175291081,-0.1502579455472517,28413.84340920833,0.1207426500471291,-0.03249926601030954,0.6951006035856403,0.1826234310865402,-0.2116291224956512,-0.00824662484228611,0.002188581041991711,0.03322393447160721,0.00838268268853426,XTrueNorthZVertical,0.3408519778638485,0.005297445475339309,0.05119552639322626,0.938707027956573,-0.02495469339191914,-0.6404626965522766,-0.7675837278366089,0,0,0,-1,0.0.0.0,10.227.79.254,1
2015-02-09 13:27:59.835,6,1423517276.553496,37.78888644910438,-122.3987894700533,13.79177,-1,-1,10,65,-9999,1423517279.828153,-84.69637298583984,264.2955932617188,-69.01289367675781,33.28053283691406,19.50160026550293,-1,28414.03958191667,-0.0477142333984375,-0.619659423828125,-0.7264404296875,28413.946961125,0.01313550944459783,-0.1541030175291081,-0.1502579455472517,28413.946961125,0.1192315971715202,-0.06379970323678195,0.7049202370577835,-0.003316937247291207,-0.139358326792717,-0.1112660467624664,0.01306898612529039,0.01470281556248665,0.05498972535133362,XTrueNorthZVertical,0.3462026297115475,-0.009323412383503536,0.0448987618047545,0.9370383740011611,-0.04856092855334282,-0.6479730606079102,-0.7601135969161987,0,0,0,-1,0.0.0.0,10.227.79.254,1
2015-02-09 13:27:59.933,7,1423517276.553496,37.78888644910438,-122.3987894700533,13.79177,-1,-1,10,65,-9999,1423517279.828153,-84.69637298583984,264.2955932617188,-69.01289367675781,33.28053283691406,19.50160026550293,-1,28414.13770558334,-0.0016632080078125,-0.6280517578125,-0.7952728271484375,28414.05051308333,-0.5537446938735598,-0.2652396592953138,-0.4057554952589466,28414.05051308333,0.08976954850040526,-0.06010539995250272,0.6852935148886862,-0.5704424381256104,-0.2502354085445404,-0.366703987121582,0.02981447242200375,0.0247765090316534,0.06559034436941147,XTrueNorthZVertical,0.3367610979962966,-0.01320436482236666,0.03215683407931313,0.9409482162414494,-0.0465075895190239,-0.6329002976417542,-0.7728351950645447,0,0,0,-1,0.0.0.0,10.227.79.254,1
2015-02-09 13:28:00.049,8,1423517276.553496,37.78888644910438,-122.3987894700533,13.79177,-1,-1,10,65,-9999,1423517279.931423,-84.81573486328125,266.0119323730469,-69.96146392822266,33.17423248291016,19.39530181884766,-1,28414.23583383334,-0.0629119873046875,-0.5788116455078125,-0.7792816162109375,28414.15406625,0.2534948525719554,0.3368416746792932,0.1745225388711817,28414.15406625,0.07959518862593332,-0.04419492944331752,0.6680189249637974,0.2368122190237045,0.3518632054328918,0.2135586738586426,0.00309825805015862,0.04101704433560371,-0.02644618600606918,XTrueNorthZVertical,0.3283245142520231,-0.007817673877325253,0.03034113466517582,0.9440451858166293,-0.0346839502453804,-0.6194319725036621,-0.7842838168144226,0,0,0,-1,0.0.0.0,10.227.79.254,1
2015-02-09 13:28:00.136,9,1423517276.553496,37.78888644910438,-122.3987894700533,13.79177,-1,-1,10,65,-9999,1423517280.058154,-83.98020172119141,265.62109375,-69.61198425292969,32.9881477355957,19.2092170715332,-1,28414.33400029167,-0.043121337890625,-0.6059112548828125,-0.739715576171875,28414.25761825,-0.1199314649500834,-0.05885239798133406,0.1105661926607107,28414.25761825,0.107407292999606,-0.04073582633862924,0.6710722926707005,-0.1366367638111115,-0.04384748265147209,0.1496144533157349,-0.04032619297504425,0.04200739040970802,-0.001277319388464093,XTrueNorthZVertical,0.3297648154697415,-0.001531891338891261,0.04397739766895395,0.9430370132086034,-0.03189365565776825,-0.6218261122703552,-0.7825056314468384,0,0,0,-1,0.0.0.0,10.227.79.254,1
2015-02-09 13:28:00.229,10,1423517276.553496,37.78888644910438,-122.3987894700533,13.79177,-1,-1,10,65,-9999,1423517280.189129,-83.80967712402344,264.9754028320312,-69.31243896484375,32.79583358764648,19.01690292358398,-1,28414.432129125,-0.025543212890625,-0.637176513671875,-0.7627105712890625,28414.36117025,0.08706752446628756,0.02005253774386063,-0.01289475968205466,28414.36117025,0.1214484346021244,-0.04660292727996189,0.6794783113941217,0.07034323364496231,0.03504675254225731,0.02616077475249767,-0.002365410095080733,0.01904280483722687,0.03848489746451378,XTrueNorthZVertical,0.3338698041252967,-0.001709227068547316,0.04945261335561791,0.9413195373880577,-0.03623932600021362,-0.6283872723579407,-0.7770560383796692,0,0,0,-1,0.0.0.0,10.227.79.254,1
2015-02-09 13:28:00.325,11,1423517276.553496,37.78888644910438,-122.3987894700533,13.79177,-1,-1,10,65,-9999,1423517280.293276,-83.31517791748047,264.3126220703125,-68.96295166015625,32.73402786254883,18.95509719848633,-1,28414.530252875,0.0069580078125,-0.64678955078125,-0.791168212890625,28414.46472345834,0.2370540938984602,0.404020712124869,0.0713295740044643,28414.46472345834,0.1299258520787372,-0.04071834622079131,0.6858811391153119,0.2203526794910431,0.4190321564674377,0.110370010137558,0.003776425030082464,0.009072300046682358,0.02303673140704632,XTrueNorthZVertical,0.3367236724318167,0.002692519088240064,0.05429341859647401,0.9400330544518635,-0.0315016433596611,-0.6333551406860352,-0.7732198238372803,0,0,0,-1,0.0.0.0,10.227.79.254,1
2015-02-09 13:28:00.426,12,1423517276.553496,37.78888644910438,-122.3987894700533,13.79177,-1,-1,10,65,-9999,1423517280.402033,-82.80362701416016,264.1766967773438,-69.49547576904297,32.65032196044922,18.87139129638672,-1,28414.62838341667,-0.006744384765625,-0.6626129150390625,-0.7083282470703125,28414.56827558334,0.2247207285741942,0.003209641745763498,-0.01883280996460434,28414.56827558334,0.1349511177848149,-0.03628681385081828,0.6999135998175614,0.207998663187027,0.01822816021740437,0.02020013332366943,0.001672344515100121,0.009569082409143448,0.01555398479104042,XTrueNorthZVertical,0.3431698116883154,0.006109154807958756,0.05712108401013479,0.9375149813922161,-0.02774961479008198,-0.6441516280174255,-0.7643943428993225,0,0,0,-1,0.0.0.0,10.227.79.254,1
2015-02-09 13:28:00.524,13,1423517276.553496,37.78888644910438,-122.3987894700533,13.79177,-1,-1,10,65,-9999,1423517280.402033,-82.80362701416016,264.1766967773438,-69.49547576904297,32.65032196044922,18.87139129638672,-1,28414.72649970834,-0.0438995361328125,-0.63458251953125,-0.6717529296875,28414.67182770833,0.1274064254977178,0.05329038604470357,0.009434248161605702,28414.67182770833,0.1376573409763746,-0.03108867102863721,0.7132857908174127,0.1107065603137016,0.06831485033035278,0.04846156015992165,-0.0002672298869583756,0.01113358978182077,0.008841305039823055,XTrueNorthZVertical,0.3492633556676332,0.009477187306456429,0.0590249389828094,0.9351156869000858,-0.02350596338510513,-0.65432208776474,-0.7558505535125732,0,0,0,-1,0.0.0.0,10.227.79.254,1
2015-02-09 13:28:00.621,14,1423517276.553496,37.78888644910438,-122.3987894700533,13.79177,-1,-1,10,65,-9999,1423517280.551666,-83.28105926513672,263.3270568847656,-69.09608459472656,32.81742095947266,19.03848838806152,-1,28414.82464170834,-0.0591278076171875,-0.61309814453125,-0.68267822265625,28414.775381125,-0.0004980111238448176,-0.7208226322335339,-0.01238263380443243,28414.775381125,0.1415415735385483,-0.05419222299130334,0.7129498078597218,-0.01717825420200825,-0.7057871222496033,0.02663453482091427,-0.0187958013266325,0.05264278128743172,-0.0742034912109375,XTrueNorthZVertical,0.3497669330736986,-0.0006585730711549562,0.05681096773754705,0.9351123850930718,-0.04097287729382515,-0.6540679335594177,-0.7553253173828125,0,0,0,-1,0.0.0.0,10.227.79.254,1
2015-02-09 13:28:00.719,15,1423517276.553496,37.78888644910438,-122.3987894700533,13.79177,-1,-1,10,65,-9999,1423517280.655491,-85.12266540527344,262.9871826171875,-69.19593811035156,33.44678115844727,19.66784858703613,-1,28414.92278383334,-0.0925750732421875,-0.6903533935546875,-0.66802978515625,28414.878933375,-0.09726956197016311,-0.9885014807712513,-0.2794505531880856,28414.878933375,0.13277954938405,-0.1201685110251494,0.7311112226957248,-0.1139461025595665,-0.9734652638435364,-0.240435004234314,0.017434386536479,-0.02964464202523232,0.02165715955197811,XTrueNorthZVertical,0.3597575473485999,-0.03228489114335943,0.04042774392489396,0.9316103211379341,-0.08924224972724915,-0.6676972508430481,-0.7390643954277039,0,0,0,-1,0.0.0.0,10.227.79.254,1
2015-02-09 13:28:00.816,16,1423517276.553496,37.78888644910438,-122.3987894700533,13.79177,-1,-1,10,65,-9999,1423517280.758259,-88.22609710693359,263.2930603027344,-70.02803039550781,34.53364562988281,20.75471496582031,-1,28415.02091575,-0.1071624755859375,-0.67474365234375,-0.725067138671875,28414.98248558334,0.1008232841287648,-0.4461916016701648,-0.2739252928744982,28414.98248558334,0.0801528625184524,-0.1339275554434469,0.7202994990511538,0.08415871858596802,-0.4311215579509735,-0.2349403202533722,0.06108427792787552,-0.03605364635586739,-0.08411711454391479,XTrueNorthZVertical,0.3538511453522661,-0.04848246277375871,0.01384878507452057,0.9339416624651895,-0.1003604009747505,-0.6596097946166992,-0.7448776364326477,0,0,0,-1,0.0.0.0,10.227.79.254,1
2015-02-09 13:28:00.916,17,1423517276.553496,37.78888644910438,-122.3987894700533,13.79177,-1,-1,10,65,-9999,1423517280.862357,-88.60123443603516,263.6669006347656,-70.72697448730469,34.91034317016602,21.13141250610352,-1,28415.11904183334,-0.09136962890625,-0.669036865234375,-0.7640228271484375,28415.08603875,0.1140333620838849,0.01266812467328892,-0.1766669161809135,28415.08603875,0.06519601622659013,-0.1488774369507045,0.7260114634604032,0.09723759442567825,0.02787641622126102,-0.1376473605632782,0.03568284958600998,-0.03598269447684288,0.01908173784613609,XTrueNorthZVertical,0.3561801655662892,-0.0579456557512557,0.003990255732200338,0.9326103519133382,-0.1109239384531975,-0.6638922095298767,-0.7395559549331665,0,0,0,-1,0.0.0.0,10.227.79.254,1
2015-02-09 13:28:01.014,18,1423517276.553496,37.78888644910438,-122.3987894700533,13.79177,-1,-1,10,65,-9999,1423517280.96554,-89.99948120117188,263.4629821777344,-70.76026153564453,35.39491653442383,21.61598587036133,-1,28415.217172375,-0.154327392578125,-0.6581878662109375,-0.694000244140625,28415.18959120833,0.06946802440249891,-0.5267903078486498,-0.138504350392296,28415.18959120833,0.05338652675076581,-0.1948795075989734,0.728732976087859,0.05266212299466133,-0.5115572214126587,-0.09950763732194901,0.01021845359355211,-0.0009756885701790452,0.03269387036561966,XTrueNorthZVertical,0.3569668131341992,-0.0814003266399287,-0.009836522159141778,0.9305116463406257,-0.1444652825593948,-0.6659249663352966,-0.7318973541259766,0,0,0,-1,0.0.0.0,10.227.79.254,1
2015-02-09 13:28:01.113,19,1423517276.553496,37.78888644910438,-122.3987894700533,13.79177,-1,-1,10,65,-9999,1423517281.070067,-92.45494079589844,264.1087341308594,-71.25951385498047,36.13538360595703,22.35645294189453,-1,28415.315305375,-0.183868408203125,-0.6610565185546875,-0.79376220703125,28415.293143375,-0.4558756543420199,-0.3810051413521862,-0.1840539924125753,28415.293143375,0.03326284489576747,-0.2228365048808859,0.7189015865728439,-0.4726674258708954,-0.3657793700695038,-0.1450519412755966,-0.004820636473596096,-0.02025926858186722,0.03316300734877586,XTrueNorthZVertical,0.3512616603119429,-0.098253747560353,-0.02363479272817569,0.9308076297806879,-0.1663066893815994,-0.6585584878921509,-0.7339228987693787,0,0,0,-1,0.0.0.0,10.227.79.254,1
2015-02-09 13:28:01.231,20,1423517276.553496,37.78888644910438,-122.3987894700533,13.79177,-1,-1,10,65,-9999,1423517281.172543,-93.58036804199219,264.8564147949219,-72.29129028320312,36.31744003295898,22.53850746154785,-1,28415.41343495834,-0.1775665283203125,-0.6624298095703125,-0.7450714111328125,28415.39669679167,-0.02915335813698841,0.1490736378104935,0.01463673335107549,28415.39669679167,0.02684043016865674,-0.2249633642695647,0.7133023577962829,-0.04597619920969009,0.1642961055040359,0.05364139005541801,-0.004545856732875109,0.01831774786114693,-0.05241553112864494,XTrueNorthZVertical,0.3483120415848641,-0.1005160005152447,-0.02668950184424819,0.9315916089245931,-0.168687179684639,-0.6543346047401428,-0.7371504902839661,0,0,0,-1,0.0.0.0,10.227.79.254,1
2015-02-09 13:28:01.344,21,1423517276.553496,37.78888644910438,-122.3987894700533,13.79177,-1,-1,10,65,-9999,1423517281.282267,-92.77893829345703,264.7034606933594,-72.07495880126953,36.23590087890625,22.45697021484375,-1,28415.511557875,-0.1353912353515625,-0.6675567626953125,-0.711669921875,28415.50024920834,0.2998088218250873,1.002944335994969,0.2518112021308073,28415.50024920834,0.04548906094113567,-0.1966938066526587,0.7233572247107464,0.2830101549625397,1.018143534660339,0.2908335328102112,0.01100762654095888,-0.03043210320174694,0.01247803680598736,XTrueNorthZVertical,0.3541324195793054,-0.08380385478278168,-0.01356604397758291,0.9313340462891143,-0.1464904099702835,-0.6619049310684204,-0.7351343035697937,0,0,0,-1,0.0.0.0,10.227.79.254,1
2015-02-09 13:28:01.424,22,1423517276.553496,37.78888644910438,-122.3987894700533,13.79177,-1,-1,10,65,-9999,1423517281.282267,-92.77893829345703,264.7034606933594,-72.07495880126953,36.23590087890625,22.45697021484375,-1,28415.609688875,-0.0763092041015625,-0.672576904296875,-0.8072662353515625,28415.60380154167,-0.1335202444122127,-0.276876075362306,-0.200716858720983,28415.50024920834,0.04548906094113567,-0.1966938066526587,0.7233572247107464,0.2830101549625397,1.018143534660339,0.2908335328102112,0.01100762654095888,-0.03043210320174694,0.01247803680598736,XTrueNorthZVertical,0.3541324195793054,-0.08380385478278168,-0.01356604397758291,0.9313340462891143,-0.1464904099702835,-0.6619049310684204,-0.7351343035697937,0,0,0,-1,0.0.0.0,10.227.79.254,1
2015-02-09 13:28:01.548,23,1423517276.553496,37.78888644910438,-122.3987894700533,13.79177,-1,-1,10,65,-9999,1423517281.432615,-89.86308288574219,263.3610229492188,-71.259521484375,35.54536819458008,21.76643753051758,-1,28415.70783545834,-0.11102294921875,-0.6906890869140625,-0.6882781982421875,28415.70735508333,0.04354055329392348,-0.3089455948929312,-0.1843229716826733,28415.60380154167,0.06995425753911699,-0.1618499578322595,0.7313704231207248,-0.1503394246101379,-0.2616818249225616,-0.1616897433996201,0.01939303614199162,0.01144184824079275,-0.05690989643335342,XTrueNorthZVertical,0.3588409666642041,-0.06298152873004915,0.003662217288413427,0.9312642352452182,-0.119933195412159,-0.667890191078186,-0.7345329523086548,0,0,0,-1,0.0.0.0,10.227.79.254,1
2015-02-09 13:28:01.626,24,1423517276.553496,37.78888644910438,-122.3987894700533,13.79177,-1,-1,10,65,-9999,1423517281.550852,-91.72173309326172,263.1061401367188,-72.274658203125,36.19511032104492,22.41617965698242,-1,28415.80597766667,-0.1612091064453125,-0.692840576171875,-0.6961669921875,28415.8109075,0.1821658111997091,-0.4614661621023142,0.04067925301874235,28415.70735508333,0.04977534415527987,-0.1854682526209582,0.7411944378497679,0.02671501599252224,-0.2937061190605164,-0.1453347653150558,-0.004289835691452026,-0.002610666211694479,0.06545057147741318,XTrueNorthZVertical,0.362652288890994,-0.07731398598857203,-0.01043119915741682,0.9286533556805919,-0.136029988527298,-0.6751694679260254,-0.7250117063522339,0,0,0,-1,0.0.0.0,10.227.79.254,1
2015-02-09 13:28:01.728,25,1423517276.553496,37.78888644910438,-122.3987894700533,13.79177,-1,-1,10,65,-9999,1423517281.69123,-94.84222412109375,262.6133728027344,-72.92368316650391,37.16650009155273,23.3875675201416,-1,28415.90412641667,-0.2010345458984375,-0.692230224609375,-0.595123291015625,28415.8109075,0.1821658111997091,-0.4614661621023142,0.04067925301874235,28415.8109075,0.05685569722472783,-0.2274326191056721,0.7537589672098807,0.1653640270233154,-0.4462147057056427,0.07965447753667831,0.00319101195782423,-0.008456244133412838,0.01417847815901041,XTrueNorthZVertical,0.3684950227734087,-0.09507198950987288,-0.01548449686573117,0.9246258515522258,-0.164400115609169,-0.6843843460083008,-0.710345447063446,0,0,0,-1,0.0.0.0,10.227.79.254,1
2015-02-09 13:28:01.825,26,1423517276.553496,37.78888644910438,-122.3987894700533,13.79177,-1,-1,10,65,-9999,1423517281.802584,-97.22947692871094,261.1858825683594,-72.92369079589844,37.93093490600586,24.15200424194336,-1,28416.00228175,-0.1954803466796875,-0.698699951171875,-0.6287841796875,28415.91446008334,0.2464382746315724,-0.5317206179747135,0.003194994359768062,28415.91446008334,0.06772490068617437,-0.2872700604837447,0.767882896098329,0.2296340614557266,-0.5164654850959778,0.04216610640287399,0.002852983772754669,-0.0002409481239737943,0.08934779465198517,XTrueNorthZVertical,0.3750013881407853,-0.1200930957485246,-0.02251910406213526,0.918936612176412,-0.2038265019655228,-0.6946138143539429,-0.689903199672699,0,0,0,-1,0.0.0.0,10.227.79.254,1
2015-02-09 13:28:01.943,27,1423517276.553496,37.78888644910438,-122.3987894700533,13.79177,-1,-1,10,65,-9999,1423517281.802584,-97.22947692871094,261.1858825683594,-72.92369079589844,37.93093490600586,24.15200424194336,-1,28416.10042791667,-0.23687744140625,-0.7641143798828125,-0.6528472900390625,28416.01801358334,-0.07241907320641572,-1.008670398654749,-0.008656605123302564,28416.01801358334,0.06981534373753114,-0.3613192318314451,0.7759424131359487,-0.08928322046995163,-0.9933356642723083,0.0303235687315464,0.05302570760250092,-0.02447973005473614,0.05890999361872673,XTrueNorthZVertical,0.3777324188498462,-0.153234785298985,-0.03615203375708179,0.9124310115178287,-0.2523207366466522,-0.70038902759552,-0.6676746606826782,0,0,0,-1,0.0.0.0,10.227.79.254,1
2015-02-09 13:28:02.000,28,1423517281.986172,37.78886706451737,-122.3987480862095,13.7744,-1,-1,10,65,-9999,1423517281.950704,-100.1623687744141,259.7924194335938,-72.49101257324219,39.03853988647461,25.25960922241211,-1,28416.198548375,-0.3625640869140625,-0.6548004150390625,-0.483489990234375,28416.12156616667,0.6197375593696143,-0.07351443136276531,0.490027233212869,28416.12156616667,0.108108897385751,-0.4084298721618354,0.7971060095916103,0.6028921604156494,-0.05818255618214607,0.5290068387985229,0.08634094148874283,-0.07491585612297058,0.01843829825520515,XTrueNorthZVertical,0.389563958580765,-0.1660990307094538,-0.02982921753263632,0.9054066776612915,-0.2775335609912872,-0.715336799621582,-0.6413020491600037,0,0,0,-1,0.0.0.0,10.227.79.254,1
2015-02-09 13:28:02.115,29,1423517281.986172,37.78886706451737,-122.3987480862095,13.7744,-1,-1,10,65,-9999,1423517282.053709,-101.0831680297852,258.1610717773438,-71.05982971191406,38.08935928344727,24.31042861938477,-1,28416.29670545834,-0.3984832763671875,-0.7222900390625,-0.6030120849609375,28416.22511870833,-0.278992223164483,-0.1034076156505777,0.6489652197010159,28416.22511870833,0.2662173933044056,-0.5246573630363635,0.7876245214726939,-0.2958298325538635,-0.08807306736707687,0.6879404783248901,-0.08715502917766571,0.02323923632502556,0.1055983826518059,XTrueNorthZVertical,0.3990889454264601,-0.1881784309024633,0.01973632433867669,0.8971774458172057,-0.3534119725227356,-0.7086793184280396,-0.6106337904930115,0,0,0,-1,0.0.0.0,10.227.79.254,1
2015-02-09 13:28:02.212,30,1423517281.986172,37.78886706451737,-122.3987480862095,13.7744,-1,-1,10,65,-9999,1423517282.157092,-27.58096313476562,-33.55902099609375,-11.81888580322266,144.47509765625,130.6961669921875,25,28416.39484958334,-0.45184326171875,-0.6988677978515625,-0.6403045654296875,28416.328672375,0.2636010162765881,-0.1207205595810738,0.05884174533697374,28416.328672375,0.29600666097753,-0.5816043159373082,0.7736376616221869,0.2467333227396011,-0.1053957119584084,0.09782956540584564,-0.05789585784077644,-0.02191520482301712,0.04520231485366821,XTrueNorthZVertical,0.3966111359051268,-0.20933899300976,0.02385288823264144,0.8934807399181419,-0.3930013477802277,-0.698742151260376,-0.5977535843849182,0,0,0,-1,0.0.0.0,10.227.79.254,1
2015-02-09 13:28:02.291,31,1423517281.986172,37.78886706451737,-122.3987480862095,13.7744,-1,-1,10,65,-9999,1423517282.286376,-29.90001678466797,-34.78253173828125,-10.75382232666016,136.24169921875,122.4627685546875,25,28416.49301458334,-0.39044189453125,-0.764556884765625,-0.3101654052734375,28416.432225,0.5121266765705645,-0.400322380319076,-0.02139370566882454,28416.432225,2.82522018664101,-0.6400495208674769,0.7915919069795538,0.4952716827392578,-0.385013222694397,0.01760530099272728,0.05664816498756409,-0.04821650311350822,-0.01680625416338444,XTrueNorthZVertical,0.3442949199017564,0.3156732441736789,0.8458014367651471,0.2577427823327822,-0.4196852743625641,-0.7114728093147278,-0.5636228322982788,-29.54861068725586,-34.28199005126953,-10.36595439910889,1,0.0.0.0,10.227.79.254,1
2015-02-09 13:28:02.400,32,1423517281.986172,37.78886706451737,-122.3987480862095,13.7744,-1,-1,10,65,-9999,1423517282.391287,-29.83180236816406,-35.7001953125,-10.78710174560547,135.9342346191406,122.1553039550781,25,28416.59116620833,-0.4804229736328125,-0.7442779541015625,-0.313934326171875,28416.53577766667,0.1268482269332372,0.5441511886787673,0.00438303052205241,28416.53577766667,2.864416497770667,-0.6705594643416983,0.8124627783650169,0.1100734770298004,0.559440016746521,0.04338131099939346,-0.003180604195222259,0.005279933102428913,-0.07719229906797409,XTrueNorthZVertical,0.3509058679706245,0.3278148319699324,0.8411878836553455,0.248607026030382,-0.427361398935318,-0.7259830832481384,-0.5388050079345703,-29.97349166870117,-34.46623611450195,-8.336460113525391,1,0.0.0.0,10.227.79.254,1
2015-02-09 13:28:02.491,33,1423517281.986172,37.78886706451737,-122.3987480862095,13.7744,-1,-1,10,65,-9999,1423517282.391287,-29.83180236816406,-35.7001953125,-10.78710174560547,135.9342346191406,122.1553039550781,25,28416.68930958334,-0.3551177978515625,-0.648773193359375,-0.6235198974609375,28416.639331375,-0.3132806885153622,2.02527515314517,0.07175541346276797,28416.639331375,2.880427600433363,-0.6081800060815851,0.8031172044469813,-0.330033004283905,2.040545225143433,0.1107658445835114,-0.04712293297052383,-0.003864292521029711,0.1626541763544083,XTrueNorthZVertical,0.3218189000192282,0.3338588189914075,0.8555065348283591,0.2303897885627159,-0.3968010246753693,-0.7195243835449219,-0.5699417591094971,-30.0097599029541,-34.10487365722656,-9.596879005432129,1,0.0.0.0,10.227.79.254,1
2015-02-09 13:28:02.590,34,1423517281.986172,37.78886706451737,-122.3987480862095,13.7744,-1,-1,10,65,-9999,1423517282.500021,-24.28996276855469,-35.51327514648438,-11.26970672607422,143.4018249511719,129.6228942871094,25,28416.78743991667,-0.2383880615234375,-0.6979217529296875,-0.7793121337890625,28416.74288404167,-0.3636037804734994,1.405124004858266,-0.07518583126289903,28416.74288404167,2.876731754619129,-0.3925381653411841,0.7800221511394463,-0.3803563714027405,1.420393824577332,-0.0361761599779129,0.05735883116722107,-0.02369458042085171,-0.08387955278158188,XTrueNorthZVertical,0.2280266772025487,0.3458177449290203,0.8894143730547273,0.1932769929809553,-0.2719431817531586,-0.7032951712608337,-0.6568278670310974,-27.4686107635498,-33.46960067749023,-16.76572036743164,1,0.0.0.0,10.227.79.254,1
2015-02-09 13:28:02.692,35,1423517281.986172,37.78886706451737,-122.3987480862095,13.7744,-1,-1,10,65,-9999,1423517282.600603,-17.07704162597656,-34.68060302734375,-11.91873931884766,151.7751617431641,137.9962310791016,25,28416.88559320834,-0.2533111572265625,-0.7128448486328125,-0.6445159912109375,28416.84643683333,0.1553911885483794,-0.1149012862831417,-0.1001281990842542,28416.84643683333,2.857044676637641,-0.3499933038219658,0.7626615931328743,0.1386373788118362,-0.09961428493261337,-0.06113738939166069,0.0359964407980442,-0.0315181128680706,-0.01069715246558189,XTrueNorthZVertical,0.2119298736194792,0.3398554820370672,0.8955720167017923,0.1937388555081069,-0.2479104995727539,-0.6908482313156128,-0.6791679859161377,-26.23832130432129,-32.99713897705078,-19.45681762695312,1,0.0.0.0,10.227.79.254,1
2015-02-09 13:28:02.791,36,1423517281.986172,37.78886706451737,-122.3987480862095,13.7744,-1,-1,10,65,-9999,1423517282.703136,-16.15624237060547,-34.27279663085938,-11.88545989990234,153.7373199462891,139.9583892822266,25,28416.983730375,-0.2239990234375,-0.7166748046875,-0.666595458984375,28416.94999054167,0.2830783112249916,-0.09923444222242357,-0.009012137128828143,28416.94999054167,2.855842359779497,-0.3588708676286056,0.783386960207318,0.266351580619812,-0.08393417298793793,0.02995461225509644,0.03272159397602081,-0.02809669077396393,0.01266370993107557,XTrueNorthZVertical,0.216761438644561,0.3483094382529794,0.8904566138323092,0.1969315466319535,-0.2488470822572708,-0.7056832313537598,-0.663390040397644,-25.99621963500977,-33.62091445922852,-18.69916725158691,1,0.0.0.0,10.227.79.254,1
2015-02-09 13:28:02.891,37,1423517281.986172,37.78886706451737,-122.3987480862095,13.7744,-1,-1,10,65,-9999,1423517282.806148,-16.9747314453125,-34.98651123046875,-12.05186462402344,151.8835144042969,138.1045837402344,25,28417.08187216667,-0.234527587890625,-0.7370147705078125,-0.6385498046875,28417.05354333334,0.3027628001062032,-0.3001110906088114,0.0400592691169719,28417.05354333334,2.871722995636099,-0.3942099062360628,0.8091502771385564,0.2862018346786499,-0.2848465144634247,0.07905609160661697,-0.006136433687061071,0.003226787317544222,0.06732738763093948,XTrueNorthZVertical,0.2303131078315315,0.3582803493962819,0.8829063268160458,0.1976549592132169,-0.2650580108165741,-0.7237010598182678,-0.6371821165084839,-26.31702041625977,-34.1407585144043,-17.2525749206543,1,0.0.0.0,10.227.79.254,1
2015-02-09 13:28:02.989,38,1423517281.986172,37.78886706451737,-122.3987480862095,13.7744,-1,-1,10,65,-9999,1423517282.907402,-17.48628234863281,-36.14204406738281,-11.58590698242188,152.9806518554688,139.2017211914062,25,28417.17999179167,-0.2628326416015625,-0.7440338134765625,-0.6769561767578125,28417.15709608333,0.1457619969949799,-0.1422101390491412,-0.05293964772914014,28417.15709608333,2.892474107146762,-0.4468682847417679,0.8276703439844521,0.1292424499988556,-0.1269519478082657,-0.01394963264465332,0.0003015243855770677,-0.01045377179980278,0.08331470191478729,XTrueNorthZVertical,0.2500203091334969,0.3638851309202994,0.8748389566831843,0.1993345369505894,-0.2923852503299713,-0.7363571524620056,-0.610154926776886,-27.10895919799805,-34.30824661254883,-15.61655044555664,1,0.0.0.0,10.227.79.254,1
2015-02-09 13:28:03.073,39,1423517281.986172,37.78886706451737,-122.3987480862095,13.7744,-1,-1,10,65,-9999,1423517283.024987,-18.61170959472656,-37.33154296875,-11.9520263671875,152.7235260009766,138.9445953369141,25,28417.27810654167,-0.3778228759765625,-0.7220001220703125,-0.7564849853515625,28417.26064995833,-0.2348034564612342,0.04757923708702864,0.1093086479939753,28417.26064995833,2.917815708409125,-0.4816766267917647,0.8433559939598479,-0.25130495429039,0.06282693892717361,0.1483036875724792,-0.04701884463429451,-0.01374119333922863,0.05567016080021858,XTrueNorthZVertical,0.2606433806791971,0.3706949726284882,0.8696292787604136,0.1959468911073804,-0.3080531656742096,-0.7468789219856262,-0.5893005132675171,-27.49316024780273,-34.60276794433594,-14.23386001586914,1,0.0.0.0,10.227.79.254,1
2015-02-09 13:28:03.172,40,1423517281.986172,37.78886706451737,-122.3987480862095,13.7744,-1,-1,10,65,-9999,1423517283.024987,-18.61170959472656,-37.33154296875,-11.9520263671875,152.7235260009766,138.9445953369141,25,28417.376224375,-0.178863525390625,-0.7533416748046875,-0.4526214599609375,28417.36420275,-0.9653588772145717,1.403454202854787,-0.02513544700038587,28417.36420275,2.895088239380128,-0.4221921289736762,0.8331478992387455,-0.9818787574768066,1.418684363365173,0.01388616114854813,0.06228199228644371,-0.04305941984057426,0.2786254584789276,XTrueNorthZVertical,0.2388002497118895,0.36908943720221,0.8769743693971964,0.1940705663917261,-0.2755846083164215,-0.7400521636009216,-0.613494873046875,-27.2274227142334,-34.71842193603516,-14.46121215820312,1,0.0.0.0,10.227.79.254,1
2015-02-09 13:28:03.270,41,1423517281.986172,37.78886706451737,-122.3987480862095,13.7744,-1,-1,10,65,-9999,1423517283.183893,-19.32787322998047,-38.35111999511719,-11.25307464599609,153.2515563964844,139.4726257324219,25,28417.47434008334,-0.0837249755859375,-0.4825897216796875,-0.68505859375,28417.46775566667,-1.738186920266846,1.483268874408352,0.2567979712719806,28417.36420275,2.895088239380128,-0.4221921289736762,0.8331478992387455,-0.9818787574768066,1.418684363365173,0.01388616114854813,0.06228199228644371,-0.04305941984057426,0.2786254584789276,XTrueNorthZVertical,0.2388002497118895,0.36908943720221,0.8769743693971964,0.1940705663917261,-0.2755846083164215,-0.7400521636009216,-0.613494873046875,-27.2274227142334,-34.71842193603516,-14.46121215820312,1,0.0.0.0,10.227.79.254,1
2015-02-09 13:28:03.369,42,1423517281.986172,37.78886706451737,-122.3987480862095,13.7744,-1,-1,10,65,-9999,1423517283.299298,-11.39878845214844,-31.536865234375,-12.56776428222656,158.2902679443359,144.5113372802734,25,28417.57246804167,0.028900146484375,-0.5511474609375,-0.67877197265625,28417.57130958333,-0.04052718652049882,0.8954218701441099,-1.064707302731651,28417.46775566667,2.871003686732411,-0.2304538738767163,0.6838109099139517,-1.754706382751465,1.498498916625977,0.2958184778690338,0.06059373170137405,0.1583477854728699,0.09008091688156128,XTrueNorthZVertical,0.1522511788081347,0.3154058345076712,0.9221182991407761,0.1644280442494408,-0.177064061164856,-0.6317517161369324,-0.7546774744987488,-13.75198364257812,-34.08578109741211,-12.46791076660156,1,0.0.0.0,10.227.79.254,1
2015-02-09 13:28:03.466,43,1423517281.986172,37.78886706451737,-122.3987480862095,13.7744,-1,-1,10,65,-9999,1423517283.401278,-7.47686767578125,-27.35653686523438,-11.86881256103516,173.5474090576172,159.7684783935547,25,28417.67060375,-0.4004364013671875,-0.6280517578125,-1.021484375,28417.67486245833,-2.685537502190302,-1.092288330561056,-2.23299106552699,28417.57130958333,2.806331299917486,-0.1241149267620616,0.6039978859009244,-0.05704635754227638,0.9106516242027283,-1.025687456130981,0.07287118583917618,0.1336266398429871,0.1344892978668213,XTrueNorthZVertical,0.1079105608523619,0.2828165026016313,0.9364713626563573,0.1771765358990206,-0.1018934026360512,-0.5679375529289246,-0.8167402744293213,-12.25185394287109,-32.0435905456543,-18.15232086181641,1,0.0.0.0,10.227.79.254,1
2015-02-09 13:28:03.564,44,1423517281.986172,37.78886706451737,-122.3987480862095,13.7744,-1,-1,10,65,-9999,1423517283.502302,-5.925148010253906,-17.41546630859375,-11.68575286865234,170.0666809082031,156.2877502441406,25,28417.76871483334,0.06982421875,-0.390411376953125,-0.874755859375,28417.67486245833,-2.685537502190302,-1.092288330561056,-2.23299106552699,28417.67486245833,2.679691787530778,0.007940497845518004,0.4196056081662817,-2.702054262161255,-1.077056765556335,-2.193975210189819,-0.4076879918575287,-0.2206514477729797,-0.1082634776830673,XTrueNorthZVertical,0.04389245842231974,0.2036246646588719,0.9522852546736381,0.2230767648216467,0.00725158117711544,-0.4074003100395203,-0.9132208824157715,-7.585965156555176,-30.1202564239502,-23.2729377746582,1,0.0.0.0,10.227.79.254,1
2015-02-09 13:28:03.670,45,1423517281.986172,37.78886706451737,-122.3987480862095,13.7744,-1,-1,10,65,-9999,1423517283.605575,-7.937263488769531,-10.95806884765625,-11.68575286865234,155.2932586669922,141.5143280029297,25,28417.86683204167,-0.068023681640625,-0.3212890625,-0.915863037109375,28417.77841545834,0.3192317882872532,-0.0004162520783793849,-0.1497940228853599,28417.77841545834,2.589567832234617,-0.02832663075987775,0.3296616871573835,0.3027154803276062,0.01481510512530804,-0.1107790768146515,0.09662193059921265,-0.0666884258389473,0.07101649045944214,XTrueNorthZVertical,0.0581543583952745,0.15405160442265,0.9483804203016317,0.271036442935011,-0.02679771184921265,-0.3237229585647583,-0.9457723498344421,-6.208249092102051,-26.87041473388672,-27.31016159057617,1,0.0.0.0,10.227.79.254,1
2015-02-09 13:28:03.952,46,1423517281.986172,37.78886706451737,-122.3987480862095,13.7744,-1,-1,10,65,-9999,1423517283.792153,-7.800849914550781,-11.63775634765625,-11.31963348388672,156.9878540039062,143.2089233398438,25,28417.96496670834,-0.04974365234375,-0.27972412109375,-0.7561492919921875,28417.881969375,0.1132008579271261,0.6111709690911564,0.4565265309124352,28417.881969375,2.625228719287176,-0.03504607979871775,0.325490978884214,0.09668488800525665,0.6264020204544067,0.4955406785011292,-0.08073823153972626,0.01243149489164352,0.03905985504388809,XTrueNorthZVertical,0.05808068670856129,0.1522189850257764,0.9532085245446035,0.2546556977579848,-0.03319914638996124,-0.3197740316390991,-0.9469120502471924,-6.685199737548828,-27.0192928314209,-27.04944229125977,1,0.0.0.0,10.227.79.254,1
2015-02-09 13:28:03.963,47,1423517281.986172,37.78886706451737,-122.3987480862095,13.7744,-1,-1,10,65,-9999,1423517283.792153,-7.800849914550781,-11.63775634765625,-11.31963348388672,156.9878540039062,143.2089233398438,25,28418.06310554167,0.3262481689453125,-0.1566162109375,-1.188262939453125,28417.985522375,-1.014598595241265,0.9728764483396474,-0.5193630178845279,28417.985522375,2.633170651268185,0.05633583271725859,0.3202070459236871,-1.031114935874939,0.9881054162979126,-0.4803477823734283,-0.1121445819735527,0.06506826728582382,0.299638956785202,XTrueNorthZVertical,0.01316500476309031,0.1612279474932884,0.9562339306343299,0.2438214566772788,0.05344401672482491,-0.3147630989551544,-0.9476644396781921,-5.102977752685547,-27.12417602539062,-27.28818893432617,1,0.0.0.0,10.227.79.254,1
2015-02-09 13:28:03.967,48,1423517281.986172,37.78886706451737,-122.3987480862095,13.7744,-1,-1,10,65,-9999,1423517283.792153,-7.800849914550781,-11.63775634765625,-11.31963348388672,156.9878540039062,143.2089233398438,25,28418.1612505,0.375335693359375,-0.0125732421875,-0.8041534423828125,28418.08907541667,0.1257840277616415,1.267128051918066,-0.5117125550210572,28418.08907541667,2.587918018758951,0.2764874823233162,0.2068888400804212,0.1094001233577728,1.282306551933289,-0.472668468952179,-0.02081900276243687,0.1305564641952515,-0.06388147920370102,XTrueNorthZVertical,-0.1038950651165082,0.135843213787076,0.9515436109237647,0.2555722881270993,0.2671568989753723,-0.2054160833358765,-0.9415048956871033,1.665185928344727,-23.86212921142578,-30.56521415710449,1,0.0.0.0,10.227.79.254,1
2015-02-09 13:28:04.500,49,1423517281.986172,37.78886706451737,-122.3987480862095,13.7744,-1,-1,10,65,-9999,1423517284.048073,5.618934631347656,-4.959503173828125,-2.083522796630859,218.4987487792969,204.7198181152344,25,28418.259397,0.4304046630859375,-0.043121337890625,-0.663238525390625,28418.19262945834,0.04714381024880069,1.220391971632157,-1.048603966568268,28418.19262945834,2.494712679555759,0.4221190701086772,0.2051618867149489,0.03076025098562241,1.235570192337036,-1.009560704231262,0.09450313448905945,0.0291040726006031,0.3712411224842072,XTrueNorthZVertical,-0.1657650703674768,0.161171006134116,0.9290524820491968,0.2888032809057606,0.4011023342609406,-0.2037256509065628,-0.8930916786193848,7.48276948928833,-23.99319458007812,-29.57602500915527,1,0.0.0.0,10.227.79.254,1
2015-02-09 13:28:04.553,50,1423517281.986172,37.78886706451737,-122.3987480862095,13.7744,-1,-1,10,65,-9999,1423517284.152844,10.93910217285156,1.56585693359375,10.46427536010742,246.672119140625,232.8931884765625,25,28418.35753758334,0.9467315673828125,0.1788330078125,-0.653594970703125,28418.2961825,0.38913257636689,3.042874331986627,-1.936794289088377,28418.2961825,2.398176130381829,0.6896954972117888,0.1221017503394432,0.3727492988109589,3.05805230140686,-1.897751808166504,-0.05391295626759529,0.3156004548072815,0.3501384556293488,XTrueNorthZVertical,-0.2935246252087725,0.1760543612896564,0.8827135121283586,0.3219705157446603,0.6315649151802063,-0.121798574924469,-0.7656962871551514,16.51931190490723,-22.17537879943848,-27.2354793548584,1,0.0.0.0,10.227.79.254,1
2015-02-09 13:28:04.555,51,1423517281.986172,37.78886706451737,-122.3987480862095,13.7744,-1,-1,10,65,-9999,1423517284.152844,10.93910217285156,1.56585693359375,10.46427536010742,246.672119140625,232.8931884765625,25,28418.45569845834,1.03778076171875,-0.0682525634765625,-0.43072509765625,28418.39973558333,3.541977618194486,4.754755079637889,-0.5324953315358175,28418.39973558333,2.24624821733711,1.08183573440587,0.09128504029443366,3.525597333908081,4.769937038421631,-0.4934573769569397,-0.1789810508489609,0.3337272703647614,-0.0283256322145462,XTrueNorthZVertical,-0.4467669341375301,0.2579202923814381,0.7821270288503356,0.349504994695206,0.8791458606719971,-0.09115831553936005,-0.4677528440952301,26.66011428833008,-19.6311149597168,-20.25497817993164,1,0.0.0.0,10.227.79.254,1
2015-02-09 13:28:04.557,52,1423517281.986172,37.78886706451737,-122.3987480862095,13.7744,-1,-1,10,65,-9999,1423517284.152844,10.93910217285156,1.56585693359375,10.46427536010742,246.672119140625,232.8931884765625,25,28418.55383525,1.001205444335938,-0.0251922607421875,0.234344482421875,28418.50328970834,7.158659035494567,2.404584127199084,-0.3928085376195264,28418.50328970834,1.614733382893217,1.582586903438685,0.160075515368614,7.142279148101807,2.419765710830688,-0.3537713289260864,0.1702630370855331,0.2782281935214996,-0.1163453757762909,XTrueNorthZVertical,-0.4733632183101585,0.5307984996646693,0.5455345564441653,0.443364709089456,0.9871466159820557,-0.1593927592039108,0.01163956709206104,32.30030059814453,-20.87234306335449,5.23855447769165,1,0.0.0.0,10.227.79.254,1
2015-02-09 13:28:04.560,53,1423517281.986172,37.78886706451737,-122.3987480862095,13.7744,-1,-1,10,65,-9999,1423517284.253506,14.8951301574707,4.114898681640625,20.5823974609375,246.7829437255859,233.0040130615234,25,28418.65196970833,0.969512939453125,0.3659210205078125,0.130889892578125,28418.60684283333,1.587071436848589,-2.35214488743877,-3.06143097214619,28418.60684283333,1.216096088517445,1.496362099909369,-0.1187320770789323,1.570691823959351,-2.336963653564453,-3.02239465713501,-0.1741243600845337,0.00390692288056016,0.3256119787693024,XTrueNorthZVertical,-0.4236430924900786,0.532546293197272,0.3848304620428901,0.6235595340519368,0.9902101755142212,0.1184533089399338,-0.07384195178747177,35.32268905639648,-7.061205387115479,14.45175743103027,1,0.0.0.0,10.227.79.254,1
2015-02-09 13:28:04.562,54,1423517281.986172,37.78886706451737,-122.3987480862095,13.7744,-1,-1,10,65,-9999,1423517284.253506,14.8951301574707,4.114898681640625,20.5823974609375,246.7829437255859,233.0040130615234,25,28418.75008716667,1.645553588867188,0.5175323486328125,0.0919036865234375,28418.710396,-0.2635397635715162,0.3412862242225264,-1.77812767871531,28418.710396,1.194461027104818,1.423650049440759,-0.4105216424630685,-0.2799189984798431,0.3564671576023102,-1.739091992378235,0.679513156414032,0.09256576001644135,-0.3706167042255402,XTrueNorthZVertical,-0.4872418025961009,0.4420163500108936,0.3067669497988477,0.6878306563922444,0.907004177570343,0.3990876972675323,-0.1344339400529861,37.38945770263672,3.6714186668396,9.744514465332031,1,0.0.0.0,10.227.79.254,1
2015-02-09 13:28:04.643,55,1423517281.986172,37.78886706451737,-122.3987480862095,13.7744,-1,-1,10,65,-9999,1423517284.563111,-6.487861633300781,18.96694946289062,6.470287322998047,317.8650207519531,304.0860900878906,25,28418.84821445834,0.6707000732421875,0.8729705810546875,-0.2516937255859375,28418.813950125,-0.7920486092715942,-3.710291263300257,1.126252422891164,28418.813950125,1.394921796491705,1.278157584636201,-0.4453042358240805,-0.8084274530410767,-3.695110559463501,1.165287256240845,0.5869839787483215,0.3129504024982452,-0.3246748447418213,XTrueNorthZVertical,-0.5094801342335028,0.3320488262988409,0.4018418849509178,0.6846142494207904,0.864111602306366,0.4307324588298798,-0.2603471279144287,37.93506240844727,5.535246849060059,6.05794095993042,1,0.0.0.0,10.227.79.254,1
2015-02-09 13:28:04.769,56,1423517281.986172,37.78886706451737,-122.3987480862095,13.7744,-1,-1,10,65,-9999,1423517284.66745,-11.79097747802734,22.722412109375,7.385574340820312,308.9432983398438,295.1643676757812,25,28418.94634183334,0.6433868408203125,0.661224365234375,-0.387298583984375,28418.91750333333,0.5563601843801266,0.01981471745851656,0.2113394093609821,28418.91750333333,1.395523047621095,1.098655832649514,-0.4229941242181026,0.5399816036224365,0.03499504923820496,0.2503734529018402,-0.2204283624887466,0.1858209520578384,0.3079899549484253,XTrueNorthZVertical,-0.4651799707011313,0.2761387832164944,0.451778082456853,0.709402236188851,0.8121031522750854,0.4104925096035004,-0.4147099256515503,38.39004135131836,4.196328163146973,-3.873234748840332,1,0.0.0.0,10.227.79.254,1
2015-02-09 13:28:04.840,57,1423517281.986172,37.78886706451737,-122.3987480862095,13.7744,-1,-1,10,65,-9999,1423517284.770245,-14.62158203125,22.14462280273438,5.787975311279297,310.9374389648438,297.1585083007812,25,28419.04447458333,0.7535858154296875,0.7304840087890625,-0.6270751953125,28419.02105658334,1.13837380059266,-1.491380064140407,-1.120326889465738,28419.02105658334,1.253268092286904,0.9735745709490617,-0.4041077623030468,1.122127771377563,-1.476254343986511,-1.081279158592224,-0.07017271220684052,0.2223257422447205,0.008919321931898594,XTrueNorthZVertical,-0.4124121254558057,0.2671892786751714,0.4317182574190309,0.756402984912848,0.7602972388267517,0.393198549747467,-0.5170522332191467,38.12001800537109,4.611265182495117,-5.657458305358887,1,0.0.0.0,10.227.79.254,1
2015-02-09 13:28:04.940,58,1423517281.986172,37.78886706451737,-122.3987480862095,13.7744,-1,-1,10,65,-9999,1423517284.872838,-19.56660461425781,18.81396484375,0.7954826354980469,198.6774291992188,184.8984985351562,25,28419.14261325,0.394378662109375,0.3302764892578125,-0.32342529296875,28419.12461075,0.6757315865529664,0.1130546503832808,-0.4750030099231869,28419.12461075,1.060907115941181,0.8771442693997775,-0.3833173731195894,0.659485936164856,0.1281800866127014,-0.4359561204910278,-0.09429503232240677,-0.1153474152088165,0.2470651268959045,XTrueNorthZVertical,-0.3596654126906823,0.2723327224775799,0.3798825472731162,0.8075672917442878,0.7131152153015137,0.373999148607254,-0.5929513573646545,37.07185363769531,7.259571552276611,-8.909692764282227,1,0.0.0.0,10.227.79.254,1
2015-02-09 13:28:05.036,59,1423517281.986172,37.78886706451737,-122.3987480862095,13.7744,-1,-1,10,65,-9999,1423517284.978214,-22.48247528076172,15.19442749023438,-2.449634552001953,205.8056793212891,192.0267486572266,25,28419.24076066667,0.4930267333984375,0.5862274169921875,-0.39776611328125,28419.228164,-1.715490396192755,0.8512323044925341,-1.116853328455947,28419.228164,1.139742263538507,1.00760315084262,-0.5369748691766598,-1.731735706329346,0.8663574457168579,-1.077807188034058,-0.2223093956708908,-0.001910666236653924,-0.3241637647151947,XTrueNorthZVertical,-0.446729670653837,0.2665668440400666,0.3477367522502486,0.7800345321755994,0.726551353931427,0.5115389823913574,-0.4587494432926178,37.05053329467773,10.36219787597656,-5.12729549407959,1,0.0.0.0,10.227.79.254,1
2015-02-09 13:28:05.137,60,1423517281.986172,37.78886706451737,-122.3987480862095,13.7744,-1,-1,10,65,-9999,1423517285.079919,-23.35212707519531,19.8675537109375,2.226665496826172,204.3406677246094,190.5617370605469,25,28419.33889833334,0.5685882568359375,0.71356201171875,-0.180633544921875,28419.33171729167,-0.7650263126388872,0.1738069474862773,-0.07885406934837418,28419.228164,1.139742263538507,1.00760315084262,-0.5369748691766598,-1.731735706329346,0.8663574457168579,-1.077807188034058,-0.2223093956708908,-0.001910666236653924,-0.3241637647151947,XTrueNorthZVertical,-0.446729670653837,0.2665668440400666,0.3477367522502486,0.7800345321755994,0.726551353931427,0.5115389823913574,-0.4587494432926178,37.05053329467773,10.36219787597656,-5.12729549407959,1,0.0.0.0,10.227.79.254,1
2015-02-09 13:28:05.241,61,1423517281.986172,37.78886706451737,-122.3987480862095,13.7744,-1,-1,10,65,-9999,1423517285.184955,-23.04518127441406,21.15902709960938,2.958885192871094,205.9680328369141,192.1891021728516,25,28419.437032,0.6504058837890625,0.7783355712890625,-0.4158172607421875,28419.4352715,0.05271913799088158,0.1754181599457753,-0.4008432946282955,28419.4352715,1.105463352632037,1.098134333941929,-0.5374341099187168,0.03647446259856224,0.1905426979064941,-0.3617987036705017,-0.1126652732491493,0.2473438233137131,0.1274672150611877,XTrueNorthZVertical,-0.4569145419995456,0.3093381183640371,0.3138440148305242,0.7726842598547766,0.7648411989212036,0.5119335055351257,-0.3910780549049377,36.93401718139648,11.92214965820312,-0.3836507797241211,1,0.0.0.0,10.227.79.254,1
2015-02-09 13:28:05.331,62,1423517281.986172,37.78886706451737,-122.3987480862095,13.7744,-1,-1,10,65,-9999,1423517285.287983,-19.95880889892578,18.83099365234375,1.411216735839844,194.6830444335938,180.9041137695312,25,28419.535258,0.2064056396484375,0.547637939453125,-0.2920989990234375,28419.538825,0.2063723476118753,0.668629202241834,-1.267370665893373,28419.4352715,1.105463352632037,1.098134333941929,-0.5374341099187168,0.03647446259856224,0.1905426979064941,-0.3617987036705017,-0.1126652732491493,0.2473438233137131,0.1274672150611877,XTrueNorthZVertical,-0.4569145419995456,0.3093381183640371,0.3138440148305242,0.7726842598547766,0.7648411989212036,0.5119335055351257,-0.3910780549049377,36.93401718139648,11.92214965820312,-0.3836507797241211,1,0.0.0.0,10.227.79.254,1
2015-02-09 13:28:05.431,63,1423517281.986172,37.78886706451737,-122.3987480862095,13.7744,-1,-1,10,65,-9999,1423517285.389628,-21.01602172851562,17.70944213867188,0.2462882995605469,172.8115081787109,159.0325775146484,25,28419.633293375,0.58544921875,0.3663177490234375,-0.081390380859375,28419.538825,0.2063723476118753,0.668629202241834,-1.267370665893373,28419.538825,1.043750739691839,1.134108198585969,-0.5471628282735148,0.1901280134916306,0.6837533712387085,-1.228326916694641,-0.5674564242362976,0.02737156860530376,0.06909407675266266,XTrueNorthZVertical,-0.4553725610328778,0.3347227078580357,0.2790366971902548,0.7763601370238041,0.7738620638847351,0.5202663540840149,-0.3611930906772614,36.79169464111328,12.30961990356445,1.118457794189453,1,0.0.0.0,10.227.79.254,1
2015-02-09 13:28:05.528,64,1423517281.986172,37.78886706451737,-122.3987480862095,13.7744,-1,-1,10,65,-9999,1423517285.494208,-33.89015197753906,19.69769287109375,2.39306640625,182.3840637207031,168.6051330566406,25,28419.73144145833,0.946533203125,1.10894775390625,-1.018890380859375,28419.642378125,-1.32223045276846,-1.234529095962734,-3.582270446539058,28419.642378125,0.94036503629929,1.037124695364224,-0.804925964591356,-1.33847451210022,-1.219405174255371,-3.543227434158325,-0.01132746692746878,-0.3544615805149078,0.2712209522724152,XTrueNorthZVertical,-0.5098802997197482,0.2524211036802946,0.1889819338258782,0.8003695998086615,0.5967766642570496,0.7207792997360229,-0.3526113331317902,33.98702621459961,18.68670082092285,1.44767951965332,1,0.0.0.0,10.227.79.254,1
2015-02-09 13:28:05.627,65,1423517281.986172,37.78886706451737,-122.3987480862095,13.7744,-1,-1,10,65,-9999,1423517285.59763,-45.21257019042969,19.83364868164062,6.586753845214844,195.7646484375,181.9857177734375,25,28419.82957433334,-0.1361236572265625,0.797149658203125,0.1315460205078125,28419.74593241667,-0.477288534770693,-0.07796617144094176,-2.052168020148899,28419.74593241667,0.7558065109181731,0.884199474922359,-1.100913302213542,-0.4935322403907776,-0.06284254789352417,-2.013125658035278,0.5396464467048645,0.2750199735164642,-0.1908369958400726,XTrueNorthZVertical,-0.5739681568154231,0.1644667194456922,0.07623393619136412,0.7985609816196713,0.3501851260662079,0.8916212320327759,-0.2870225012302399,25.77295875549316,28.8958625793457,2.681417465209961,1,0.0.0.0,10.227.79.254,1
2015-02-09 13:28:05.727,66,1423517281.986172,37.78886706451737,-122.3987480862095,13.7744,-1,-1,10,65,-9999,1423517285.700785,-53.926025390625,19.9185791015625,26.93947601318359,198.0589599609375,184.280029296875,25,28419.927700375,-0.0443267822265625,0.800811767578125,0.6964263916015625,28419.849485875,-4.886348793317538,-3.092354533459754,-2.147969647726211,28419.849485875,1.43293835585636,1.353417012085858,-1.413022133448394,-4.902592182159424,-3.077231168746948,-2.108928203582764,-0.2663530707359314,-0.4015046060085297,0.2499660849571228,XTrueNorthZVertical,-0.6945049532283352,0.02682685705107132,0.08286729579792555,0.7141961930766173,0.1534227728843689,0.9875794649124146,-0.0338863804936409,20.19122123718262,32.22879028320312,7.747650146484375,1,0.0.0.0,10.227.79.254,1
2015-02-09 13:28:05.827,67,1423517281.986172,37.78886706451737,-122.3987480862095,13.7744,-1,-1,10,65,-9999,1423517285.80476,-56.75663757324219,18.69512939453125,37.8231086730957,214.8572845458984,201.0783538818359,25,28420.02583116667,0.098419189453125,0.550262451171875,-0.0358123779296875,28419.95303920834,1.589770550613384,3.89939247861075,1.864405309602279,28419.95303920834,3.109738437404102,2.7590722702019,-1.215285049276697,1.573527455329895,3.914515495300293,1.903445959091187,-0.3848185241222382,1.139756083488464,-0.3746866881847382,XTrueNorthZVertical,-0.8076520715106044,-0.09568145314245882,0.1471213924249532,0.5629373748793417,0.1299204677343369,0.9374686479568481,0.3229136168956757,20.79878997802734,29.4874095916748,14.29368209838867,1,0.0.0.0,10.227.79.254,1
2015-02-09 13:28:05.920,68,1423517281.986172,37.78886706451737,-122.3987480862095,13.7744,-1,-1,10,65,-9999,1423517285.908625,-59.26325988769531,18.06640625,29.31922721862793,229.9724731445312,216.1935424804688,25,28420.12395641667,0.175994873046875,0.824310302734375,0.6699676513671875,28420.0565935,2.848569566222228,-0.2683776620077541,0.1007425903477354,28420.0565935,0.5528396800293498,0.3782081401487147,-1.529311913971508,2.83245849609375,-0.2533111870288849,0.1397858411073685,-0.145776629447937,0.1344968229532242,-0.02324124984443188,XTrueNorthZVertical,-0.6911561969139075,-0.05506648663870887,0.0682332802244844,0.7173667222714641,0.01531397923827171,0.999139666557312,-0.03854158520698547,15.88636684417725,33.92060089111328,10.16969394683838,1,0.0.0.0,10.227.79.254,1
2015-02-09 13:28:06.021,69,1423517281.986172,37.78886706451737,-122.3987480862095,13.7744,-1,-1,10,65,-9999,1423517285.908625,-59.26325988769531,18.06640625,29.31922721862793,229.9724731445312,216.1935424804688,25,28420.22208783334,-0.1743011474609375,1.058120727539062,0.02313232421875,28420.160146875,-0.2794521510847396,1.326524533710104,0.1798515242124302,28420.160146875,2.269498812475192,1.816335243200078,-1.507037805539609,-0.2955630123615265,1.341590642929077,0.2188940197229385,-0.06265879422426224,-0.1562780439853668,0.3239744007587433,XTrueNorthZVertical,-0.6989328667413518,-0.1386967316325963,0.1788420912354322,0.6784331743522076,0.06180430203676224,0.9979681372642517,0.01548787113279104,19.23466491699219,33.41879653930664,4.429244995117188,1,0.0.0.0,10.227.79.254,1
2015-02-09 13:28:06.129,70,1423517281.986172,37.78886706451737,-122.3987480862095,13.7744,-1,-1,10,65,-9999,1423517286.115455,-58.4788818359375,20.513427734375,33.08024215698242,225.4437561035156,211.6648254394531,25,28420.320218625,0.0404205322265625,1.020751953125,0.330291748046875,28420.26370025,-0.173795229577481,-0.2968641646077868,0.016368054375736,28420.26370025,2.353971733952452,2.00451859382926,-1.477180226906559,-0.1899057626724243,-0.2817982733249664,0.0554097443819046,-0.1903690099716187,0.1153407022356987,-0.2276698648929596,XTrueNorthZVertical,-0.71448967412395,-0.09563959910801884,0.1499364272824656,0.6766658271720268,0.08482395857572556,0.9956212043762207,0.03928485512733459,19.38044738769531,32.83799362182617,7.243685722351074,1,0.0.0.0,10.227.79.254,1
2015-02-09 13:28:06.229,71,1423517281.986172,37.78886706451737,-122.3987480862095,13.7744,-1,-1,10,65,-9999,1423517286.115455,-58.4788818359375,20.513427734375,33.08024215698242,225.4437561035156,211.6648254394531,25,28420.41834558333,0.00323486328125,1.008636474609375,0.1467437744140625,28420.36725458334,0.05062589337407929,0.7390575625334155,-0.1753190903532243,28420.36725458334,2.41548081817931,2.035380068887859,-1.474189016899969,0.03451566025614738,0.7541231513023376,-0.1362781375646591,-0.03409416973590851,0.03600440919399261,0.2116956561803818,XTrueNorthZVertical,-0.7143535611928401,-0.1063382811940994,0.1605068794786969,0.6727768593224117,0.08623345196247101,0.9953371286392212,0.04321768134832382,19.84857940673828,32.60367965698242,7.031393051147461,1,0.0.0.0,10.227.79.254,1
2015-02-09 13:28:06.325,72,1423517281.986172,37.78886706451737,-122.3987480862095,13.7744,-1,-1,10,65,-9999,1423517286.218115,-58.71760559082031,20.07162475585938,33.21337127685547,225.5816955566406,211.8027648925781,25,28420.51646370834,0.0230560302734375,1.001388549804688,0.11077880859375,28420.47080795834,-0.08666671872223063,1.10285069376042,-0.1157569599413842,28420.47080795834,2.502861424016254,2.238308499826223,-1.484620413639132,-0.1027766168117523,1.117915987968445,-0.0767168328166008,-0.04522636160254478,-0.04240121319890022,-0.01220317184925079,XTrueNorthZVertical,-0.7221240951044722,-0.07194933786156345,0.1143996677569136,0.6784340802936292,0.06759575009346008,0.9962891340255737,0.05327983200550079,18.52685165405273,32.8724365234375,9.086538314819336,1,0.0.0.0,10.227.79.254,1
2015-02-09 13:28:06.424,73,1423517281.986172,37.78886706451737,-122.3987480862095,13.7744,-1,-1,10,65,-9999,1423517286.322051,-59.14390563964844,19.95269775390625,29.86840057373047,232.6205444335938,218.8416137695312,25,28420.61460304167,-0.0836181640625,1.026809692382812,0.0764312744140625,28420.57436141667,-0.2961395184751762,1.031673985202526,0.05766489445126773,28420.57436141667,2.667927755745333,2.511752467175489,-1.462825268098921,-0.312249094247818,1.046738982200623,0.09670428186655045,-0.1261104792356491,0.005807955749332905,-0.0333733893930912,XTrueNorthZVertical,-0.7364180717288837,-0.03507973761691066,0.07507995092961448,0.6714319309089886,0.06347315013408661,0.9941768050193787,0.0870843306183815,17.45532989501953,32.69365692138672,11.52572917938232,1,0.0.0.0,10.227.79.254,1
2015-02-09 13:28:06.524,74,1423517281.986172,37.78886706451737,-122.3987480862095,13.7744,-1,-1,10,65,-9999,1423517286.425728,-58.87107849121094,20.22454833984375,27.87140274047852,237.1818542480469,223.4029235839844,25,28420.712742375,-0.016937255859375,0.935028076171875,0.085052490234375,28420.67791570834,-0.3059998724111945,1.040905566805177,0.09292248412282676,28420.67791570834,2.728326091955684,2.663939623489748,-1.436294757941616,-0.3221140503883362,1.055973529815674,0.1319521814584732,-0.07215690612792969,-0.01251370273530483,-0.01723542064428329,XTrueNorthZVertical,-0.7480233452672325,-0.002234607155790908,0.04318274017028671,0.662262284637581,0.06164360418915749,0.9909682869911194,0.1190878376364708,16.44849586486816,32.18710708618164,14.13660430908203,1,0.0.0.0,10.227.79.254,1
2015-02-09 13:28:06.619,75,1423517281.986172,37.78886706451737,-122.3987480862095,13.7744,-1,-1,10,65,-9999,1423517286.529701,-58.00140380859375,20.58139038085938,25.65806198120117,230.376708984375,216.5977783203125,25,28420.81087391667,0.034088134765625,1.010299682617188,0.0624237060546875,28420.78146916667,-0.257784672455855,1.009439519577563,0.2979065258584437,28420.78146916667,2.669838848704678,2.723177244367341,-1.402544552339116,-0.273904025554657,1.024502992630005,0.3369296193122864,-0.06862064450979233,0.009665404446423054,-0.1340158432722092,XTrueNorthZVertical,-0.7579827551380931,0.04436960940152788,0.006791505061350392,0.650728328390388,0.06804081052541733,0.9858790040016174,0.1530130356550217,15.34632587432861,31.52723503112793,16.6412181854248,1,0.0.0.0,10.227.79.254,1
2015-02-09 13:28:06.725,76,1423517281.986172,37.78886706451737,-122.3987480862095,13.7744,-1,-1,10,65,-9999,1423517286.633499,-56.24508666992188,22.12774658203125,23.44472503662109,226.3544464111328,212.5755157470703,25,28420.90899075,-0.0810699462890625,0.881195068359375,0.0932464599609375,28420.885022625,-0.1978385142148254,0.8414081695473408,0.2384338776592302,28420.885022625,2.55186899335814,2.699587607842931,-1.357193195071957,-0.2139592170715332,0.8564698100090027,0.2774543762207031,-0.2064292579889297,0.06491709500551224,-0.121236577630043,XTrueNorthZVertical,-0.7667285513043661,0.08906393920904604,-0.01469933529375044,0.6355933244812462,0.09067609161138535,0.9772734642028809,0.191610112786293,14.65452289581299,30.4355354309082,19.11359596252441,1,0.0.0.0,10.227.79.254,1
2015-02-09 13:28:06.824,77,1423517281.986172,37.78886706451737,-122.3987480862095,13.7744,-1,-1,10,65,-9999,1423517286.73777,-54.30116271972656,23.62313842773438,21.41445159912109,208.3155822753906,194.5366516113281,25,28421.00711458334,-0.167510986328125,1.279342651367188,0.4662628173828125,28420.98857691667,0.4621407408064312,0.5498964260983953,0.07335916907121369,28420.98857691667,2.463440810043052,2.706546069339532,-1.388506999968953,0.445983350276947,0.5649698972702026,0.1123125925660133,-0.1972969323396683,0.2180915623903275,0.128131091594696,XTrueNorthZVertical,-0.7536211709346359,0.1193847116337703,-0.0513818985740029,0.6443309111645095,0.07640154659748077,0.9834312796592712,0.1643951535224915,12.98943519592285,30.49674034118652,20.18984222412109,1,0.0.0.0,10.227.79.254,1
2015-02-09 13:28:06.926,78,1423517281.986172,37.78886706451737,-122.3987480862095,13.7744,-1,-1,10,65,-9999,1423517286.841189,-52.95404052734375,24.08197021484375,18.56872940063477,187.2448120117188,173.4658813476562,25,28421.10522858334,-0.0181427001953125,1.079193115234375,0.54522705078125,28421.092130375,-0.4366953018551602,0.7359592409212173,0.2158369558099079,28421.092130375,2.464226171555024,2.780209034952441,-1.357128528716094,-0.452717661857605,0.7509742379188538,0.2547915875911713,-0.1320558786392212,0.1190995052456856,0.3363643884658813,XTrueNorthZVertical,-0.7597751541729206,0.1480418842135443,-0.0731947972327628,0.6288623366954004,0.07497275620698929,0.9772597551345825,0.1983493715524673,11.68905544281006,30.17587852478027,21.42868804931641,1,0.0.0.0,10.227.79.254,1
2015-02-09 13:28:07.020,79,1423517281.986172,37.78886706451737,-122.3987480862095,13.7744,-1,-1,10,65,-9999,1423517286.944743,-51.12950897216797,25.4583740234375,18.08612060546875,326.8432312011719,313.0643005371094,26,28421.203370625,-0.1177520751953125,0.8661956787109375,0.24468994140625,28421.19568379167,-0.4286959648888892,1.431791568433775,0.1945867945238386,28421.092130375,2.464226171555024,2.780209034952441,-1.357128528716094,-0.452717661857605,0.7509742379188538,0.2547915875911713,-0.1320558786392212,0.1190995052456856,0.3363643884658813,XTrueNorthZVertical,-0.7597751541729206,0.1480418842135443,-0.0731947972327628,0.6288623366954004,0.07497275620698929,0.9772597551345825,0.1983493715524673,11.68905544281006,30.17587852478027,21.42868804931641,1,0.0.0.0,10.227.79.254,1
2015-02-09 13:28:07.129,80,1423517281.986172,37.78886706451737,-122.3987480862095,13.7744,-1,-1,10,65,-9999,1423517287.048211,-47.42926788330078,27.17471313476562,17.63680267333984,358.7899475097656,345.0110168457031,26,28421.3015095,0.0166015625,0.9118499755859375,0.357177734375,28421.29923804167,-0.2960292636060469,0.395787016982671,-0.1183263777610926,28421.29923804167,2.435680973433319,2.982919164601463,-1.241043053367301,-0.3120509684085846,0.4108013808727264,-0.07937329262495041,-0.04736523330211639,-0.03592023998498917,0.02092589065432549,XTrueNorthZVertical,-0.776950719406491,0.2371043993907031,-0.1398586596434169,0.5661878133287428,0.05116467177867889,0.9461222887039185,0.3197418451309204,7.30338716506958,27.13609504699707,26.77123832702637,1,0.0.0.0,10.227.79.254,1
2015-02-09 13:28:07.225,81,1423517281.986172,37.78886706451737,-122.3987480862095,13.7744,-1,-1,10,65,-9999,1423517287.151998,-46.62783813476562,28.00738525390625,18.11940765380859,4.456665992736816,350.677734375,26,28421.399653125,0.0161285400390625,0.863800048828125,0.32086181640625,28421.40279166667,-0.185624192191286,0.02823936125087322,0.0008428904850100789,28421.29923804167,2.435680973433319,2.982919164601463,-1.241043053367301,-0.3120509684085846,0.4108013808727264,-0.07937329262495041,-0.04736523330211639,-0.03592023998498917,0.02092589065432549,XTrueNorthZVertical,-0.776950719406491,0.2371043993907031,-0.1398586596434169,0.5661878133287428,0.05116467177867889,0.9461222887039185,0.3197418451309204,7.30338716506958,27.13609504699707,26.77123832702637,1,0.0.0.0,10.227.79.254,1
2015-02-09 13:28:07.295,82,1423517281.986172,37.78886706451737,-122.3987480862095,13.7744,-1,-1,10,65,-9999,1423517287.255424,-46.69606018066406,28.38119506835938,19.38417053222656,4.731690406799316,350.9527587890625,26,28421.497790875,0.0262451171875,1.045242309570312,0.389434814453125,28421.40279166667,-0.185624192191286,0.02823936125087322,0.0008428904850100789,28421.40279166667,2.454165354493266,3.024352947653361,-1.210181891464485,-0.2016455680131912,0.04325342923402786,0.03979514911770821,-0.02514469623565674,-0.07188014686107635,-0.02956519648432732,XTrueNorthZVertical,-0.7842453598830418,0.2453012886598481,-0.1459947206089809,0.5508829604135246,0.04127323627471924,0.9356802105903625,0.3504270017147064,-18.45289421081543,43.32148361206055,-10.60045337677002,1,0.0.0.0,10.227.79.254,1
2015-02-09 13:28:07.434,83,1423517281.986172,37.78886706451737,-122.3987480862095,13.7744,-1,-1,10,65,-9999,1423517287.359306,-45.67294311523438,29.43475341796875,20.18296813964844,3.842957496643066,350.0640258789062,26,28421.5960535,0.4057464599609375,0.9474945068359375,0.433868408203125,28421.60989954167,0.1776400352432284,-0.2710647915476441,0.5802090582578953,28421.506345,2.43010704141756,3.013072675178416,-1.19125362481587,-0.02475916966795921,0.04961410537362099,0.156744197010994,-0.02124001644551754,0.11640814691782,0.02199465781450272,XTrueNorthZVertical,-0.786913109679938,0.2539445541564601,-0.1451659159640337,0.5433293469953351,0.04748513177037239,0.9288341403007507,0.3674401640892029,-18.08719444274902,43.63136291503906,-9.939192771911621,1,0.0.0.0,10.227.79.254,1
2015-02-09 13:28:07.494,84,1423517281.986172,37.78886706451737,-122.3987480862095,13.7744,-1,-1,10,65,-9999,1423517287.462804,-43.71199035644531,30.40338134765625,20.29946136474609,0.7680368423461914,346.9891052246094,26,28421.69415116667,-0.6417236328125,0.7474212646484375,-0.0387725830078125,28421.60989954167,0.1776400352432284,-0.2710647915476441,0.5802090582578953,28421.60989954167,2.316262449829114,2.895337974595393,-1.196724855115338,0.16164530813694,-0.2560936212539673,0.6192286610603333,0.321262538433075,0.1796110570430756,0.3138891160488129,XTrueNorthZVertical,-0.778914151438805,0.2654904021294822,-0.1312387949485885,0.5527965005333,0.08907682448625565,0.9308472871780396,0.3543848097324371,-16.71305274963379,44.1613655090332,-10.00387191772461,1,0.0.0.0,10.227.79.254,1
2015-02-09 13:28:07.591,85,1423517281.986172,37.78886706451737,-122.3987480862095,13.7744,-1,-1,10,65,-9999,1423517287.565844,-15.34684753417969,47.371826171875,-9.31573486328125,156.7126312255859,142.9337005615234,25,28421.79218716667,-0.1020965576171875,0.9901123046875,0.3227386474609375,28421.71345295833,0.5100488782880848,-0.8924175581183915,-0.325778370878886,28421.71345295833,2.263700388092199,2.887341266421533,-1.186406633433423,0.4940544366836548,-0.8774466514587402,-0.2867595255374908,-0.765583336353302,-0.1694896221160889,-0.2717058062553406,XTrueNorthZVertical,-0.7746144655669435,0.2853795345280334,-0.1405009059582319,0.546617277139907,0.0943187028169632,0.9270274639129639,0.3629381060600281,-14.4962272644043,44.87125396728516,-10.29853057861328,1,0.0.0.0,10.227.79.254,1
2015-02-09 13:28:07.693,86,1423517281.986172,37.78886706451737,-122.3987480862095,13.7744,-1,-1,10,65,-9999,1423517287.671017,-15.46619415283203,46.13113403320312,-10.63046646118164,162.48193359375,148.7030029296875,25,28421.890319375,-0.2114715576171875,0.8295135498046875,0.1596221923828125,28421.81700641667,0.2930630347839167,0.461492793713215,-0.1491761695124615,28421.81700641667,2.285535338026592,2.932721200320773,-1.211710203804865,0.2770689427852631,0.4764633774757385,-0.1101580932736397,-0.2394032180309296,-0.004577743355184793,-0.07659950852394104,XTrueNorthZVertical,-0.7684241815051939,0.285332662191686,-0.1571234793669813,0.5508373286481411,0.07286880165338516,0.9362183809280396,0.343780905008316,-15.11895370483398,44.39715194702148,-11.39911079406738,1,0.0.0.0,10.227.79.254,1
2015-02-09 13:28:07.795,87,1423517281.986172,37.78886706451737,-122.3987480862095,13.7744,-1,-1,10,65,-9999,1423517287.773669,-16.67667388916016,44.85647583007812,-12.57760238647461,162.7627258300781,148.9837951660156,25,28421.98846054167,-0.180206298828125,0.8889007568359375,0.18597412109375,28421.92056083334,0.8405671432750937,-0.3211780264118831,-0.3836046528922126,28421.92056083334,2.305393838386215,2.960331612596179,-1.275578650580697,0.8245733380317688,-0.3062077462673187,-0.3445873856544495,-0.2644701302051544,-0.1246465444564819,-0.1082183048129082,XTrueNorthZVertical,-0.7530768821853947,0.2756192849544966,-0.1743123713319538,0.5714231511897787,0.05244924500584602,0.9567388296127319,0.2861815690994263,-16.37216758728027,45.25595855712891,-9.859894752502441,1,0.0.0.0,10.227.79.254,1
2015-02-09 13:28:07.893,88,1423517281.986172,37.78886706451737,-122.3987480862095,13.7744,-1,-1,10,65,-9999,1423517287.877314,-20.23989105224609,43.47982788085938,-13.02693939208984,157.0739898681641,143.2950592041016,25,28422.08658070834,0.134185791015625,0.9509124755859375,0.2998504638671875,28422.024114375,0.5649291715035656,-1.029778879770825,-0.3285254215433028,28422.024114375,2.430212494006482,3.007208419429689,-1.347072770807749,0.5490662455558777,-1.014864087104797,-0.2895195484161377,0.0527334101498127,-0.03785275295376778,0.009966266341507435,XTrueNorthZVertical,-0.7456270287217258,0.2323168986075718,-0.1675298971999902,0.6016667910405726,0.0297250859439373,0.9750781059265137,0.2198616117238998,-18.99300384521484,43.65074920654297,-12.13444232940674,1,0.0.0.0,10.227.79.254,1
2015-02-09 13:28:07.993,89,1423517281.986172,37.78886706451737,-122.3987480862095,13.7744,-1,-1,10,65,-9999,1423517287.981174,-20.23989868164062,42.39215087890625,-11.66228485107422,150.4641418457031,136.6852111816406,25,28422.18469441667,0.1404571533203125,1.048080444335938,0.375335693359375,28422.127667875,0.3548792647423999,-0.5772239209920254,0.142371260295091,28422.127667875,2.450218567362614,2.939440727038574,-1.377714954664418,0.3390166461467743,-0.5623094439506531,0.1813762933015823,0.06166315823793411,0.1291170418262482,0.1889155358076096,XTrueNorthZVertical,-0.7443315996581986,0.1998968334963176,-0.1410012003641847,0.6213939076304181,0.03852605074644089,0.9814176559448242,0.1879765540361404,-20.83955955505371,42.94297409057617,-11.61812114715576,1,0.0.0.0,10.227.79.254,1
2015-02-09 13:28:08.098,90,1423517281.986172,37.78886706451737,-122.3987480862095,13.7744,-1,-1,10,65,-9999,1423517288.083949,-19.18286895751953,41.78033447265625,-9.931488037109375,146.3092346191406,132.5303039550781,25,28422.28283383333,-0.4665374755859375,0.5730133056640625,0.0051422119140625,28422.231222375,0.6455105671349651,-0.5528530675406013,-0.3394864599578509,28422.231222375,2.30407875413039,2.761769016514119,-1.360735845066191,0.6296482086181641,-0.5379388928413391,-0.3004821538925171,-0.7082149982452393,0.8548674583435059,-0.29071906208992,XTrueNorthZVertical,-0.7456947331460461,0.2019116687507092,-0.1171388970905632,0.6240589098834232,0.07730983197689056,0.9780182838439941,0.1936579197645187,-20.03483581542969,43.58414077758789,-10.60165023803711,1,0.0.0.0,10.227.79.254,1
2015-02-09 13:28:08.190,91,1423517281.986172,37.78886706451737,-122.3987480862095,13.7744,-1,-1,10,65,-9999,1423517288.083949,-19.18286895751953,41.78033447265625,-9.931488037109375,146.3092346191406,132.5303039550781,25,28422.38095129167,0.0670166015625,0.85089111328125,0.1772003173828125,28422.334775875,-0.6053181399634893,-1.658609003734188,-0.3117736056544864,28422.334775875,2.421772151292845,2.796496764019367,-1.370792825316413,-0.6211801171302795,-1.64369523525238,-0.27277010679245,-0.5732356309890747,0.04913944005966187,0.2773042917251587,XTrueNorthZVertical,-0.7520819928089387,0.1668906457483801,-0.09521604572337181,0.6304396040279814,0.06720840185880661,0.9800658822059631,0.1869596242904663,-21.41021537780762,43.08978271484375,-9.911605834960938,1,0.0.0.0,10.227.79.254,1
2015-02-09 13:28:08.275,92,1423517288.245527,37.78880015801066,-122.3988760657732,14.13958,-1,-1,10,65,-9999,1423517288.189241,-20.18875122070312,40.47174072265625,-7.551647186279297,141.2418060302734,127.4628677368164,25,28422.47920679167,-0.1116790771484375,0.6676025390625,0.3076629638671875,28422.43832945833,-1.009160686611432,-0.04601436363049809,0.1656592724472889,28422.43832945833,2.443556848385824,2.70824169774192,-1.314139271950072,-1.025022268295288,-0.03110081143677235,0.2046620100736618,-0.09313639253377914,-0.1436813622713089,-0.0445316769182682,XTrueNorthZVertical,-0.7715557781226027,0.1410444787900585,-0.04403561798840484,0.6187640922296433,0.1065946444869041,0.9672439694404602,0.2303837239742279,-22.36124801635742,43.38303756713867,-5.590481758117676,1,0.0.0.0,10.227.79.254,1
2015-02-09 13:28:08.372,93,1423517288.245527,37.78880015801066,-122.3988760657732,14.13958,-1,-1,10,65,-9999,1423517288.292244,-20.05236053466797,40.09786987304688,-2.92510986328125,132.7805786132812,119.0016479492188,25,28422.5772355,0.1619720458984375,0.795074462890625,0.3213348388671875,28422.54188391667,-0.200816194629643,-0.1165460545723746,-0.1875184986746593,28422.54188391667,2.534511163188629,2.740293824165671,-1.257825289163367,-0.2166775465011597,-0.1016328185796738,-0.1485165655612946,-0.008479067124426365,-0.2276376336812973,0.07536869496107101,XTrueNorthZVertical,-0.7912609570832716,0.1249773381784767,-0.01850152976060434,0.5982845956314894,0.1202649548649788,0.9514230489730835,0.2834264636039734,-21.81949806213379,44.00803756713867,-0.7542009353637695,1,0.0.0.0,10.227.79.254,1
2015-02-09 13:28:08.471,94,1423517288.245527,37.78880015801066,-122.3988760657732,14.13958,-1,-1,10,65,-9999,1423517288.395375,-19.28516387939453,39.1971435546875,0.6196804046630859,128.4479064941406,114.6689682006836,25,28422.67536466667,0.0171661376953125,1.151397705078125,0.375152587890625,28422.645437625,-0.3629465123164679,-0.07524415449077178,0.2080493401502982,28422.645437625,2.549127741008572,2.742395224297639,-1.23784105229815,-0.378807544708252,-0.06033119559288025,0.2470505237579346,0.04171210154891014,-0.003414928214624524,0.3414693772792816,XTrueNorthZVertical,-0.79714096135387,0.1230281149418027,-0.01153358735634808,0.591013830857042,0.1270348429679871,0.945080578327179,0.3011392652988434,-22.02970695495605,43.90744400024414,0.4416980743408203,1,0.0.0.0,10.227.79.254,1
2015-02-09 13:28:08.569,95,1423517288.245527,37.78880015801066,-122.3988760657732,14.13958,-1,-1,10,65,-9999,1423517288.499254,-19.57498931884766,37.71853637695312,2.134126663208008,125.3897171020508,111.6107864379883,25,28422.773605875,-0.3874359130859375,1.375778198242188,-0.4417877197265625,28422.74899116667,-1.004388568254119,1.19147696641273,0.3032131406465357,28422.74899116667,2.498825254043515,2.708562008525776,-1.190828179189896,-1.020249247550964,1.206389546394348,0.34221351146698,-0.3447062373161316,0.57025545835495,0.7379584908485413,XTrueNorthZVertical,-0.8052451184598677,0.1410985312403191,-0.004272519377184749,0.5758934367506532,0.1556345820426941,0.928676426410675,0.3366569876670837,-21.00196266174316,44.3769645690918,1.723214149475098,1,0.0.0.0,10.227.79.254,1
2015-02-09 13:28:08.668,96,1423517288.245527,37.78880015801066,-122.3988760657732,14.13958,-1,-1,10,65,-9999,1423517288.602846,-17.69960784912109,36.29098510742188,3.99806022644043,124.1623687744141,110.3834381103516,25,28422.87160479167,-0.160369873046875,1.78363037109375,0.138519287109375,28422.852545625,0.04724953774407684,2.133141965724976,0.261652381306977,28422.852545625,2.448291337650942,2.681777921615669,-1.180795327631243,0.03138913959264755,2.148054361343384,0.3006519675254822,-0.1421556621789932,0.4632138907909393,0.2569553852081299,XTrueNorthZVertical,-0.8038483474879226,0.1554936395112665,-0.00610959691702207,0.5741186605344885,0.1687212139368057,0.9249086976051331,0.3407008647918701,-19.72467422485352,44.91806030273438,2.583026885986328,1,0.0.0.0,10.227.79.254,1
2015-02-09 13:28:08.766,97,1423517288.245527,37.78880015801066,-122.3988760657732,14.13958,-1,-1,10,65,-9999,1423517288.70643,-17.93829345703125,34.99929809570312,2.866386413574219,122.4100646972656,108.6311340332031,25,28422.96984416667,-0.2089996337890625,0.900604248046875,0.2097320556640625,28422.95609925,0.7196207476335812,1.40668541620538,-0.07227659408809647,28422.95609925,2.382985758482765,2.761665858684831,-1.205607055292655,0.7037606835365295,1.421597361564636,-0.03327774628996849,-0.3533578515052795,-0.1569107919931412,0.08920785039663315,XTrueNorthZVertical,-0.7910737431435484,0.2000809056185446,-0.06166448335478118,0.5747760058007236,0.1324411034584045,0.9340561628341675,0.3316600620746613,-18.4575023651123,34.12770080566406,3.671706199645996,1,0.0.0.0,10.227.79.254,1
2015-02-09 13:28:08.863,98,1423517288.245527,37.78880015801066,-122.3988760657732,14.13958,-1,-1,10,65,-9999,1423517288.809919,-19.28513336181641,33.41876220703125,-1.477237701416016,132.3378753662109,118.5589370727539,25,28423.06785579167,-0.234283447265625,0.7299957275390625,0.0937347412109375,28423.05965283333,0.3376544714439854,0.1784712078194421,-0.3647353576206741,28422.95609925,2.382985758482765,2.761665858684831,-1.205607055292655,0.7037606835365295,1.421597361564636,-0.03327774628996849,-0.3533578515052795,-0.1569107919931412,0.08920785039663315,XTrueNorthZVertical,-0.7910737431435484,0.2000809056185446,-0.06166448335478118,0.5747760058007236,0.1324411034584045,0.9340561628341675,0.3316600620746613,-18.4575023651123,34.12770080566406,3.671706199645996,1,0.0.0.0,10.227.79.254,1
2015-02-09 13:28:08.961,99,1423517288.245527,37.78880015801066,-122.3988760657732,14.13958,-1,-1,10,65,-9999,1423517288.913441,-21.39919281005859,31.95718383789062,-5.038673400878906,138.5982513427734,124.8193206787109,25,28423.16597341667,0.0598907470703125,0.9601898193359375,0.285919189453125,28423.16320733333,-0.08630479513008886,-0.3573690540455149,-0.1155910450054722,28423.16320733333,2.440162750988451,2.903896107066337,-1.291381444752491,-0.1020352989435196,-0.3425135314464569,-0.07660915702581406,0.07702822983264923,-0.02107720449566841,-0.03642562031745911,XTrueNorthZVertical,-0.7692884191230422,0.2054622044861799,-0.1163501636223223,0.5936693114789047,0.06493954360485077,0.9612169861793518,0.2680387794971466,-19.94009780883789,33.44363403320312,-1.666316986083984,1,0.0.0.0,10.227.79.254,1
2015-02-09 13:28:09.059,100,1423517288.245527,37.78880015801066,-122.3988760657732,14.13958,-1,-1,10,65,-9999,1423517289.017368,-23.30865478515625,31.27734375,-5.171821594238281,135.4370269775391,121.6580963134766,25,28423.264216,0.5007171630859375,1.100997924804688,0.421295166015625,28423.26676091667,-0.2953807838806126,-1.002708379922388,0.9799460757693718,28423.16320733333,2.440162750988451,2.903896107066337,-1.291381444752491,-0.1020352989435196,-0.3425135314464569,-0.07660915702581406,0.07702822983264923,-0.02107720449566841,-0.03642562031745911,XTrueNorthZVertical,-0.7692884191230422,0.2054622044861799,-0.1163501636223223,0.5936693114789047,0.06493954360485077,0.9612169861793518,0.2680387794971466,-19.94009780883789,33.44363403320312,-1.666316986083984,1,0.0.0.0,10.227.79.254,1
2015-02-09 13:28:09.158,101,1423517288.245527,37.78880015801066,-122.3988760657732,14.13958,-1,-1,10,65,-9999,1423517289.123109,-24.09291076660156,32.02511596679688,-4.273139953613281,126.8207778930664,113.0418472290039,25,28423.36230983333,-0.587860107421875,0.8970489501953125,0.03692626953125,28423.26676091667,-0.2953807838806126,-1.002708379922388,0.9799460757693718,28423.26676091667,2.34788675519723,2.762725350324266,-1.266610595063642,-0.3111109435558319,-0.9878531098365784,1.018927097320557,0.3899355232715607,0.1469067633152008,0.1430192291736603,XTrueNorthZVertical,-0.7732034738064211,0.2032101366570836,-0.0846642333779154,0.5947217814036669,0.1107816323637962,0.9540911316871643,0.2782759368419647,-19.51494979858398,33.73152923583984,-0.4599637985229492,1,0.0.0.0,10.227.79.254,1
2015-02-09 13:28:09.257,102,1423517288.245527,37.78880015801066,-122.3988760657732,14.13958,-1,-1,10,65,-9999,1423517289.225498,-25.45682525634766,33.21478271484375,-4.805683135986328,127.7960205078125,114.01708984375,25,28423.4604245,0.074798583984375,0.9730072021484375,0.287445068359375,28423.47386908334,0.07257406918185833,-0.984089155477208,0.3574255130606246,28423.37031458334,2.257939817997221,2.687415742930161,-1.254952941193715,-0.1044403091073036,0.4468654692173004,-0.1075428053736687,-0.7241353988647461,-0.05348579585552216,-0.2422022670507431,XTrueNorthZVertical,-0.7695081161241059,0.2177648410048708,-0.07984192689023067,0.5950302523297756,0.1362753212451935,0.9505347609519958,0.2791285216808319,-17.85032844543457,34.64163589477539,0.4285955429077148,1,0.0.0.0,10.227.79.254,1
2015-02-09 13:28:09.355,103,1423517288.245527,37.78880015801066,-122.3988760657732,14.13958,-1,-1,10,65,-9999,1423517289.329371,-25.98531341552734,35.20318603515625,-2.891822814941406,121.3196334838867,107.5407028198242,25,28423.55843454167,-0.040924072265625,0.6562652587890625,0.133026123046875,28423.47386908334,0.07257406918185833,-0.984089155477208,0.3574255130606246,28423.47386908334,2.262889909579734,2.633430222050634,-1.230905208982956,0.05684452131390572,-0.9692345261573792,0.3964050114154816,-0.0111232390627265,0.005893721710890532,0.004136879462748766,XTrueNorthZVertical,-0.7769664960647041,0.2048220521688273,-0.05194017244105746,0.5930204133594456,0.1622157692909241,0.9427909851074219,0.2912580072879791,-17.81474685668945,34.64256286621094,1.178306102752686,1,0.0.0.0,10.227.79.254,1
2015-02-09 13:28:09.453,104,1423517288.245527,37.78880015801066,-122.3988760657732,14.13958,-1,-1,10,65,-9999,1423517289.432925,-25.47385406494141,37.54855346679688,-1.493879318237305,119.557243347168,105.7783126831055,25,28423.65664733333,0.1758575439453125,0.6074676513671875,0.240753173828125,28423.57742270833,-0.4926634963759384,-0.3380161287200181,0.3457994833218837,28423.57742270833,2.237615850287596,2.601112057592776,-1.169239139720827,-0.5083927512168884,-0.323161780834198,0.38477823138237,-0.2108931243419647,-0.241116926074028,-0.103390172123909,XTrueNorthZVertical,-0.7873016174067391,0.2184639368349126,-0.03201902158518979,0.5756773879734901,0.2011122405529022,0.9204534888267517,0.3351406455039978,-16.49289321899414,35.18329620361328,2.996803283691406,1,0.0.0.0,10.227.79.254,1
2015-02-09 13:28:09.550,105,1423517288.245527,37.78880015801066,-122.3988760657732,14.13958,-1,-1,10,65,-9999,1423517289.5362,-25.45679473876953,39.74090576171875,-2.375919342041016,124.7904434204102,111.0115127563477,25,28423.754676625,0.0875091552734375,1.109909057617188,0.482421875,28423.68097633334,-0.4454112954707715,0.7554112358392651,0.2165850377601111,28423.68097633334,2.233170850155394,2.643975744352443,-1.126958181853297,-0.4611402153968811,0.7702652215957642,0.2555629909038544,-0.027480723336339,-0.1549412459135056,0.05629297718405724,XTrueNorthZVertical,-0.7940001416677814,0.2413077291375149,-0.04006334531789089,0.5565332734777927,0.2049709558486938,0.9031102061271667,0.3773312866687775,-15.73438835144043,35.43827438354492,3.926636219024658,1,0.0.0.0,10.227.79.254,1
2015-02-09 13:28:09.649,106,1423517288.245527,37.78880015801066,-122.3988760657732,14.13958,-1,-1,10,65,-9999,1423517289.64063,-24.55319976806641,42.103271484375,-2.692119598388672,127.2881240844727,113.5091934204102,25,28423.85279883333,-0.24261474609375,1.614822387695312,0.8508453369140625,28423.78453091667,-0.2715175289329576,0.03868294746561895,0.2343664317263522,28423.78453091667,2.23681580261081,2.704023535234843,-1.108609465524864,-0.2872461080551147,0.05353667959570885,0.2733435928821564,0.07499857991933823,0.2325907796621323,0.152318149805069,XTrueNorthZVertical,-0.7964413780906264,0.2600552774800731,-0.05861134014956453,0.542786418365149,0.1889479458332062,0.895079493522644,0.403895229101181,-15.70444488525391,35.48838424682617,3.578498840332031,1,0.0.0.0,10.227.79.254,1
2015-02-09 13:28:09.747,107,1423517288.245527,37.78880015801066,-122.3988760657732,14.13958,-1,-1,10,65,-9999,1423517289.64063,-24.55319976806641,42.103271484375,-2.692119598388672,127.2881240844727,113.5091934204102,25,28423.950951,-0.0587310791015625,1.182540893554688,0.5938720703125,28423.88808458333,-0.8823814355504279,0.5111871133379846,0.1880615172209265,28423.88808458333,2.19087009239084,2.748407042258271,-1.028562443833207,-0.8981097340583801,0.5260406136512756,0.2270379513502121,-0.5552904605865479,0.3234956860542297,-0.8495668768882751,XTrueNorthZVertical,-0.8031783440517132,0.3053536193168946,-0.06958338752202006,0.5067759546715984,0.1977159976959229,0.8565580248832703,0.4766725599765778,-14.07742691040039,36.08609771728516,4.298886299133301,1,0.0.0.0,10.227.79.254,1
2015-02-09 13:28:09.846,108,1423517288.245527,37.78880015801066,-122.3988760657732,14.13958,-1,-1,10,65,-9999,1423517289.74403,-22.33686065673828,44.5166015625,-2.059715270996094,130.1671142578125,116.38818359375,25,28424.04918483334,-0.2544708251953125,0.890716552734375,0.39483642578125,28423.99163804167,0.3032770565126975,1.798198592270692,-0.160921242551929,28423.99163804167,2.172136678556242,2.799959764952966,-1.060693091105477,0.2875490784645081,1.813051700592041,-0.1219456344842911,-0.2586750686168671,0.2341021597385406,-0.3858463168144226,XTrueNorthZVertical,-0.7922161000584497,0.3200290004088213,-0.1025272562738229,0.5093753553740128,0.1635822802782059,0.8726941347122192,0.4600498080253601,-14.01594829559326,36.18534851074219,3.61034107208252,1,0.0.0.0,10.227.79.254,1
2015-02-09 13:28:09.943,109,1423517288.245527,37.78880015801066,-122.3988760657732,14.13958,-1,-1,10,65,-9999,1423517289.84749,-21.02410125732422,45.7572021484375,-6.336769104003906,144.4819641113281,130.7030334472656,25,28424.14730391667,-0.17950439453125,0.7528839111328125,0.176971435546875,28424.09519279167,0.6257632276520276,1.059731186234838,-0.3862766024138891,28424.09519279167,2.172867290514202,2.918130223889231,-1.137736420699004,0.6101624965667725,1.074527859687805,-0.3473206460475922,-0.1691083759069443,-0.09179846197366714,-0.1857510507106781,XTrueNorthZVertical,-0.7689171618468192,0.3367111616990526,-0.1661353328297678,0.5174853082225414,0.09299754351377487,0.9076859354972839,0.4092160165309906,-14.90298748016357,36.00189590454102,-0.7906494140625,1,0.0.0.0,10.227.79.254,1
2015-02-09 13:28:10.042,110,1423517288.245527,37.78880015801066,-122.3988760657732,14.13958,-1,-1,10,65,-9999,1423517289.951047,-20.75131988525391,44.80551147460938,-11.56242752075195,156.8583221435547,143.0793914794922,25,28424.24544020833,0.0850982666015625,0.84893798828125,0.1344451904296875,28424.19874629167,0.1135052572397222,0.3039186120192977,-0.1253043924493182,28424.19874629167,2.219461010679821,3.015414273147162,-1.174593721586324,0.09790486842393875,0.3187150657176971,-0.08634926378726959,0.02327298931777477,-0.134553998708725,-0.2446357756853104,XTrueNorthZVertical,-0.7595766898087548,0.3383314921033644,-0.1990330781358003,0.5186143931612424,0.04856539145112038,0.9225331544876099,0.3828499019145966,-15.87536716461182,35.40743637084961,-3.625871658325195,1,0.0.0.0,10.227.79.254,1
2015-02-09 13:28:10.139,111,1423517288.245527,37.78880015801066,-122.3988760657732,14.13958,-1,-1,10,65,-9999,1423517290.054063,-20.39328765869141,44.38058471679688,-13.60941696166992,159.5492706298828,145.7703399658203,25,28424.343571625,0.1845855712890625,1.2694091796875,0.262786865234375,28424.30230004167,-0.4229922727822665,0.292875281927066,0.1022310310809807,28424.30230004167,2.208786482562018,3.03381559814154,-1.158389069114926,-0.4385923445224762,0.307671457529068,0.1411854177713394,-0.1300750225782394,0.1991978287696838,-0.2478097081184387,XTrueNorthZVertical,-0.7596874313614281,0.3494569140758009,-0.2055101222100991,0.5084490758583529,0.04311517626047134,0.9161586165428162,0.3984902501106262,-15.80993747711182,35.40874099731445,-3.889447212219238,1,0.0.0.0,10.227.79.254,1
2015-02-09 13:28:10.241,112,1423517288.245527,37.78880015801066,-122.3988760657732,14.13958,-1,-1,10,65,-9999,1423517290.157391,-18.70543670654297,44.90740966796875,-12.96037292480469,161.502685546875,147.7237548828125,25,28424.44158329167,-0.50836181640625,0.983154296875,0.0696868896484375,28424.40585479167,0.1343820433409623,0.946680796909301,0.2987872332309329,28424.40585479167,2.087346626833815,2.903819612497679,-1.111402131789615,0.1187822744250298,0.9614766240119934,0.3377408087253571,-0.2715076506137848,0.621272087097168,-0.3719547390937805,XTrueNorthZVertical,-0.7605067342046322,0.3702627243852724,-0.1764220959037261,0.5033987162012492,0.1044391766190529,0.8963212966918945,0.430929958820343,-14.2242431640625,36.22927474975586,-1.99282169342041,1,0.0.0.0,10.227.79.254,1
2015-02-09 13:28:10.336,113,1423517288.245527,37.78880015801066,-122.3988760657732,14.13958,-1,-1,10,65,-9999,1423517290.26094,-15.17633056640625,46.41995239257812,-12.81058883666992,161.0357360839844,147.2568054199219,25,28424.53983095834,-0.0147552490234375,1.090667724609375,0.3022613525390625,28424.509408375,0.5524264291339706,-0.1316879895822382,0.2934563836769213,28424.509408375,2.062919713427708,2.93898447496366,-1.155595701159837,0.5368269085884094,-0.1168924048542976,0.3324092030525208,-0.2882305383682251,0.1461523324251175,-0.09533312171697617,XTrueNorthZVertical,-0.7434425003583296,0.3805975870006594,-0.2063732354643711,0.509753680075119,0.0811687707901001,0.9150354266166687,0.3951225578784943,-15.84609508514404,45.42502593994141,-12.01954746246338,1,0.0.0.0,10.227.79.254,1
2015-02-09 13:28:10.434,114,1423517288.245527,37.78880015801066,-122.3988760657732,14.13958,-1,-1,10,65,-9999,1423517290.36429,-12.89179992675781,45.5362548828125,-15.80619049072266,164.6978454589844,150.9189147949219,25,28424.63801054167,-0.019012451171875,0.766082763671875,0.15643310546875,28424.61296204167,-1.054308457623218,1.17070777201953,0.8102358689879633,28424.61296204167,1.93386469313937,2.885271333421816,-1.122310826595306,-1.069907546043396,1.185503125190735,0.8491878509521484,0.01957309804856777,0.001528842374682426,-0.1072403639554977,XTrueNorthZVertical,-0.7298161884577854,0.4208157870998419,-0.2106272449830992,0.4959017738416041,0.1099282428622246,0.9011048078536987,0.4194352030754089,-13.66573905944824,45.789794921875,-13.24927425384521,1,0.0.0.0,10.227.79.254,1
2015-02-09 13:28:10.532,115,1423517288.245527,37.78880015801066,-122.3988760657732,14.13958,-1,-1,10,65,-9999,1423517290.467616,-7.436172485351562,46.99783325195312,-15.60647964477539,168.9606628417969,155.1817321777344,25,28424.73611575,-0.0820159912109375,0.71148681640625,0.1984710693359375,28424.71651666667,-0.7165940650547061,1.116469833258976,0.2140726115877304,28424.71651666667,1.861607100030327,2.930527264191878,-1.028654501735311,-0.7321928739547729,1.131264805793762,0.2530238330364227,-0.2086371779441833,-0.09629058092832565,-0.2312061339616776,XTrueNorthZVertical,-0.72538900990734,0.4754698391657575,-0.2185928796890293,0.4471648136140906,0.1080970168113708,0.8566055297851562,0.5045215487480164,-8.881319999694824,47.68147277832031,-10.32475471496582,1,0.0.0.0,10.227.79.254,1
2015-02-09 13:28:10.630,116,1423517288.245527,37.78880015801066,-122.3988760657732,14.13958,-1,-1,10,65,-9999,1423517290.571876,-1.997596740722656,48.27249145507812,-12.69408798217773,178.7530670166016,164.9741363525391,25,28424.83425604167,0.01641845703125,1.077957153320312,0.282928466796875,28424.82007045834,-0.1367104450820186,0.8576220268959612,-0.05932510907482313,28424.82007045834,1.857031966332018,3.04451230514,-0.9646425408587366,-0.1523089855909348,0.8724167346954346,-0.02037462033331394,-0.1567223370075226,0.2130515277385712,-0.2561913728713989,XTrueNorthZVertical,-0.7220308645492807,0.5120405332167683,-0.2431015275239742,0.3967210248181276,0.05522087961435318,0.8218452930450439,0.5670281648635864,-6.759088516235352,48.51857376098633,-7.698297500610352,1,0.0.0.0,10.227.79.254,1
2015-02-09 13:28:10.728,117,1423517288.245527,37.78880015801066,-122.3988760657732,14.13958,-1,-1,10,65,-9999,1423517290.674272,1.309883117675781,48.44241333007812,-10.26432800292969,192.6443634033203,178.8654327392578,25,28424.93228225,-0.6940155029296875,1.912490844726562,-0.1257476806640625,28424.92362425,-0.8695495264700991,1.807643493076658,0.03543495620015831,28424.82007045834,1.857031966332018,3.04451230514,-0.9646425408587366,-0.1523089855909348,0.8724167346954346,-0.02037462033331394,-0.1567223370075226,0.2130515277385712,-0.2561913728713989,XTrueNorthZVertical,-0.7220308645492807,0.5120405332167683,-0.2431015275239742,0.3967210248181276,0.05522087961435318,0.8218452930450439,0.5670281648635864,-6.759088516235352,48.51857376098633,-7.698297500610352,1,0.0.0.0,10.227.79.254,1
2015-02-09 13:28:10.825,118,1423517288.245527,37.78880015801066,-122.3988760657732,14.13958,-1,-1,10,65,-9999,1423517290.778157,4.310478210449219,47.04879760742188,-9.232509613037109,190.9184112548828,177.1394805908203,25,28425.03041395833,-0.1304168701171875,1.495010375976562,0.2203826904296875,28425.027178875,0.2525994978134707,2.064341329491651,-0.02565716025793239,28425.027178875,1.786694360123671,3.08568364148453,-0.9670063828661252,0.2370015978813171,2.079135417938232,0.01329177059233189,-0.3035010099411011,0.7713384628295898,-0.1217651218175888,XTrueNorthZVertical,-0.6977339478424184,0.5446163465854277,-0.2719965625810482,0.3775953445690216,0.03172672167420387,0.8231897354125977,0.5668792724609375,2.633950471878052,47.61111450195312,-7.891130447387695,1,0.0.0.0,10.227.79.254,1
2015-02-09 13:28:10.926,119,1423517288.245527,37.78880015801066,-122.3988760657732,14.13958,-1,-1,10,65,-9999,1423517290.881723,7.055343627929688,45.5701904296875,-9.581996917724609,202.1607971191406,188.3818664550781,25,28425.12854729167,-0.200286865234375,0.762359619140625,0.1727752685546875,28425.13073266667,1.051694298697196,1.910977072848931,-0.2678612750723878,28425.027178875,1.786694360123671,3.08568364148453,-0.9670063828661252,0.2370015978813171,2.079135417938232,0.01329177059233189,-0.3035010099411011,0.7713384628295898,-0.1217651218175888,XTrueNorthZVertical,-0.6977339478424184,0.5446163465854277,-0.2719965625810482,0.3775953445690216,0.03172672167420387,0.8231897354125977,0.5668792724609375,2.633950471878052,47.61111450195312,-7.891130447387695,1,0.0.0.0,10.227.79.254,1
2015-02-09 13:28:11.025,120,1423517288.245527,37.78880015801066,-122.3988760657732,14.13958,-1,-1,10,65,-9999,1423517290.985211,8.981864929199219,43.13992309570312,-11.49585342407227,219.2129974365234,205.4340667724609,25,28425.22667529167,-0.20098876953125,0.6209564208984375,-0.0402984619140625,28425.13073266667,1.051694298697196,1.910977072848931,-0.2678612750723878,28425.13073266667,1.767173197278512,-3.035269276135181,-1.034622811496093,1.036221861839294,1.925714612007141,-0.2289349287748337,-0.1460738182067871,-0.09731011092662811,-0.3351901769638062,XTrueNorthZVertical,-0.6542512834672124,0.5709097876484883,-0.3489886423136254,0.3524545378069129,-0.05421304330229759,0.8596697449684143,0.5079654455184937,5.171491622924805,47.00860595703125,-9.973583221435547,1,0.0.0.0,10.227.79.254,1
2015-02-09 13:28:11.139,121,1423517291.102762,37.78910754252019,-122.3986055330582,19.07394,-1,-1,12,30,-9999,1423517291.089354,9.322830200195312,41.78030395507812,-13.55948638916016,228.839111328125,215.0601806640625,25,28425.32480616667,0.0373382568359375,1.120330810546875,0.3500518798828125,28425.33784120834,-0.03857322522870769,-0.0943691132269578,0.2458696897388405,28425.2342865,1.887106448793799,-2.803832367369006,-1.105296435950912,0.6123939156532288,0.1232388094067574,-0.4285371899604797,-0.05224472656846046,-0.2726408839225769,-0.463806539773941,XTrueNorthZVertical,-0.6275340053985,0.5638750856607803,-0.4195404311952115,0.3350101306946227,-0.1487440466880798,0.8935973048210144,0.4235080778598785,5.435837268829346,46.22502136230469,-13.02783298492432,1,0.0.0.0,10.227.79.254,1
2015-02-09 13:28:11.233,122,1423517291.102762,37.78910754252019,-122.3986055330582,19.07394,-1,-1,12,30,-9999,1423517291.19303,8.299896240234375,40.59066772460938,-14.62458801269531,223.8157501220703,210.0368194580078,25,28425.4229535,-0.176483154296875,1.607513427734375,0.416229248046875,28425.33784120834,-0.03857322522870769,-0.0943691132269578,0.2458696897388405,28425.33784120834,1.91906361084804,-2.840163896883924,-1.116110108463407,-0.05404500290751457,-0.07963205873966217,0.2847944796085358,0.2075649797916412,0.3420796394348145,-0.001837732386775315,XTrueNorthZVertical,-0.6411771480155218,0.5464261002110712,-0.4047608392846545,0.355638926565012,-0.1303860247135162,0.8983988761901855,0.4193792343139648,8.225340843200684,40.65704727172852,-12.04853534698486,1,0.0.0.0,10.227.79.254,1
2015-02-09 13:28:11.326,123,1423517291.102762,37.78910754252019,-122.3986055330582,19.07394,-1,-1,12,30,-9999,1423517291.295631,9.47625732421875,38.97607421875,-14.94078063964844,225.7507476806641,211.9718170166016,25,28425.52108683333,-0.7604217529296875,1.052291870117188,-0.1493682861328125,28425.44139504167,0.1266799151523442,1.177125191298294,0.05568057312304969,28425.44139504167,1.845767499672071,-2.866267165266874,-1.130463513172709,0.1112084314227104,1.191861987113953,0.09460461884737015,-0.3795903027057648,0.9248579144477844,-0.2390443831682205,XTrueNorthZVertical,-0.6226001320742978,0.5634381556082664,-0.4125958333970906,0.3530880907721368,-0.1158778369426727,0.9046098589897156,0.4101869463920593,9.708733558654785,40.31841278076172,-12.08242702484131,1,0.0.0.0,10.227.79.254,1
2015-02-09 13:28:11.421,124,1423517291.102762,37.78910754252019,-122.3986055330582,19.07394,-1,-1,12,30,-9999,1423517291.399047,9.892288208007812,39.21307373046875,-18.15573120117188,223.0796508789062,209.3007202148438,25,28425.619221375,0.0383758544921875,0.91827392578125,0.3962860107421875,28425.544949,-0.01649695137249584,-0.9272783367875287,-0.1306861083801504,28425.544949,1.862916461542314,-2.802265032494711,-1.147248399278252,-0.03196810930967331,-0.9125418663024902,-0.09176287800073624,-0.6821069121360779,0.1584013551473618,-0.357090026140213,XTrueNorthZVertical,-0.6096921929601258,0.5675000882913098,-0.4329614400311824,0.3446207659368243,-0.1368017941713333,0.9116364717483521,0.3875618278980255,10.83346271514893,40.07982635498047,-11.91900157928467,1,0.0.0.0,10.227.79.254,1
2015-02-09 13:28:11.525,125,1423517291.102762,37.78910754252019,-122.3986055330582,19.07394,-1,-1,12,30,-9999,1423517291.503103,9.824119567871094,39.89276123046875,-17.55662536621094,210.8781280517578,197.0991973876953,25,28425.71735891667,-0.1544647216796875,0.48712158203125,0.1562652587890625,28425.64850375,-1.364242884228896,-0.7688615309247103,0.7141945569125447,28425.64850375,1.750341187829633,-3.023777656920112,-1.105909188518892,-1.379713773727417,-0.7541253566741943,0.7531170248985291,0.1300132274627686,-0.01037302426993847,-0.05710678547620773,XTrueNorthZVertical,-0.6323054813042639,0.5681521100987463,-0.3744607315243355,0.3703675470193301,-0.05269693955779076,0.8938721418380737,0.4452140927314758,10.52453422546387,40.1004524230957,-12.12464141845703,1,0.0.0.0,10.227.79.254,1
2015-02-09 13:28:11.612,126,1423517291.102762,37.78910754252019,-122.3986055330582,19.07394,-1,-1,12,30,-9999,1423517291.503103,9.824119567871094,39.89276123046875,-17.55662536621094,210.8781280517578,197.0991973876953,25,28425.81549783334,0.3212738037109375,0.988983154296875,0.509002685546875,28425.75205766667,-0.3621707334909278,-0.6525935103701399,-0.3045798749179643,28425.75205766667,1.714187150204535,-3.128638374952761,-1.011559882097468,-0.3776412904262543,-0.6378576159477234,-0.2656581699848175,0.06851806491613388,-0.3316844999790192,-0.2473830282688141,XTrueNorthZVertical,-0.6592284789973247,0.5750348817167464,-0.3214417836159829,0.3625298308685622,-0.006872559431940317,0.8476604819297791,0.5304946303367615,6.006692409515381,44.55062103271484,-13.34876251220703,1,0.0.0.0,10.227.79.254,1
2015-02-09 13:28:11.722,127,1423517291.102762,37.78910754252019,-122.3986055330582,19.07394,-1,-1,12,30,-9999,1423517291.710548,8.88665771484375,41.37106323242188,-14.5777702331543,206.6775512695312,192.8986206054688,25,28425.91362545834,0.6067352294921875,0.820556640625,0.429290771484375,28425.855611375,-0.3664605533748275,0.6654192941799615,-0.1188907015960804,28425.855611375,1.720198236646989,-3.121824608500824,-0.9551849864355948,-0.38193079829216,0.6801548600196838,-0.07996980845928192,-0.2097311615943909,0.3500528037548065,-0.105894111096859,XTrueNorthZVertical,-0.6701039190034398,0.5827805742017474,-0.306491576695718,0.3426229045464088,-0.01141446735709906,0.8164205551147461,0.5773448944091797,5.049505710601807,45.2284049987793,-11.31022262573242,1,0.0.0.0,10.227.79.254,1
2015-02-09 13:28:11.822,128,1423517291.102762,37.78910754252019,-122.3986055330582,19.07394,-1,-1,12,30,-9999,1423517291.814491,9.738906860351562,39.94375610351562,-13.84553527832031,201.5032958984375,187.724365234375,25,28426.01174416667,-0.4390106201171875,0.542083740234375,0.454925537109375,28425.95916629167,-1.334675937174618,1.733308541782039,-0.1490043956221514,28425.95916629167,1.656167050448926,3.09893603003682,-0.9325288326837953,-1.350145816802979,1.748043894767761,-0.110084243118763,-0.7506117820739746,1.592409133911133,0.6368079781532288,XTrueNorthZVertical,-0.6643377584497713,0.5968976551584717,-0.2899251799213744,0.343965002940333,0.02540731988847256,0.8031291961669922,0.5952629446983337,6.36130428314209,45.16046905517578,-10.9129810333252,1,0.0.0.0,10.227.79.254,1
2015-02-09 13:28:11.922,129,1423517291.102762,37.78910754252019,-122.3986055330582,19.07394,-1,-1,12,30,-9999,1423517291.814491,9.738906860351562,39.94375610351562,-13.84553527832031,201.5032958984375,187.724365234375,25,28426.10987841667,-0.12677001953125,0.580963134765625,0.1248016357421875,28426.06272025,0.09154642878758282,2.091177737480271,-0.02604544914486594,28426.06272025,1.643060026036115,-3.111183802377078,-0.9532027282926799,0.07619994878768921,2.105856895446777,0.01285002566874027,-0.05795523151755333,0.8171872496604919,-0.2635301649570465,XTrueNorthZVertical,-0.6457672446114539,0.610236258570019,-0.3223189567563285,0.3266601687761163,-0.01760629005730152,0.8152742981910706,0.5788072347640991,7.668193340301514,45.1097526550293,-10.26333999633789,1,0.0.0.0,10.227.79.254,1
2015-02-09 13:28:12.020,130,1423517291.102762,37.78910754252019,-122.3986055330582,19.07394,-1,-1,12,30,-9999,1423517291.917831,11.11955261230469,38.94119262695312,-14.16172790527344,210.9025573730469,197.1236267089844,25,28426.2080125,-0.18707275390625,0.503265380859375,0.13232421875,28426.166274125,1.184626250824611,1.467983661331843,-0.2189970627593959,28426.166274125,1.638121495869984,-2.944643714985889,-1.024943231932029,1.169280052185059,1.482662439346313,-0.1801023185253143,-0.2176433056592941,-0.268182635307312,-0.3841723799705505,XTrueNorthZVertical,-0.6006550914046155,0.6275102635175159,-0.3958233262947602,0.2979399703745286,-0.1015858128666878,0.8546847105026245,0.5091113448143005,10.85099792480469,38.6556510925293,-13.73430824279785,1,0.0.0.0,10.227.79.254,1
2015-02-09 13:28:12.131,131,1423517291.102762,37.78910754252019,-122.3986055330582,19.07394,-1,-1,12,30,-9999,1423517292.021505,12.78994750976562,37.853759765625,-15.9923095703125,224.3089447021484,210.5300140380859,25,28426.30615354167,0.0319671630859375,1.076629638671875,0.1731719970703125,28426.26982891667,0.6073314897475892,-0.12408786046337,-0.2266981256835781,28426.26982891667,1.811706003359548,-2.682063821244145,-1.1133081004231,0.5919856429100037,-0.10940932482481,-0.1878042072057724,0.1808737069368362,-0.3213590979576111,-0.4570934474468231,XTrueNorthZVertical,-0.5763394826419863,0.6047895424427098,-0.4695999088336559,0.2855491848338211,-0.1959036141633987,0.8971647620201111,0.3958751857280731,11.48192024230957,37.22972106933594,-16.81511688232422,1,0.0.0.0,10.227.79.254,1
2015-02-09 13:28:12.225,132,1423517292.105008,37.78915959413889,-122.3985334486909,15.37842,-1,-1,3,50,-9999,1423517292.125233,12.15928649902344,36.9871826171875,-19.30400466918945,230.2369384765625,216.4580078125,25,28426.40428379167,0.2418670654296875,1.302581787109375,0.4432220458984375,28426.37338291667,0.08434390961946352,-1.130938787461376,0.05286241605752784,28426.37338291667,1.775339010752998,-2.823298446023401,-1.127034690352066,0.06899833679199219,-1.116260528564453,0.09175559878349304,0.2898781299591064,0.5804537534713745,0.01686251722276211,XTrueNorthZVertical,-0.5939601021027148,0.5925357026580549,-0.4368237829828567,0.3244962589031448,-0.1343605667352676,0.903143048286438,0.4077743291854858,10.39278602600098,36.73124694824219,-18.53214645385742,1,0.0.0.0,10.227.79.254,1
2015-02-09 13:28:12.325,133,1423517292.105008,37.78915959413889,-122.3985334486909,15.37842,-1,-1,3,50,-9999,1423517292.229183,11.5968017578125,36.25656127929688,-21.21780014038086,220.1677856445312,206.3888549804688,25,28426.50240783333,-0.486572265625,0.647125244140625,0.080657958984375,28426.476936875,0.4193442747210759,0.4570176178174458,-0.5553953211171909,28426.476936875,1.752551390450202,-2.817703882535429,-1.15661279714335,0.4039990305900574,0.4716955423355103,-0.5165029168128967,-0.5119197964668274,0.445989727973938,-0.112993448972702,XTrueNorthZVertical,-0.5785915388787346,0.5966495114117241,-0.4490031097295377,0.3280813928878408,-0.1280795931816101,0.9154452085494995,0.381517618894577,11.072265625,36.18460083007812,-19.20193481445312,1,0.0.0.0,10.227.79.254,1
2015-02-09 13:28:12.433,134,1423517292.105008,37.78915959413889,-122.3985334486909,15.37842,-1,-1,3,50,-9999,1423517292.332899,12.34678649902344,35.746826171875,-21.01810455322266,223.7023315429688,209.9234008789062,25,28426.60054970834,-0.1765594482421875,0.900848388671875,0.261993408203125,28426.58049154167,-0.7236607630072314,-1.345395693194405,0.1074316520576875,28426.58049154167,1.741612874345462,-2.835507599692539,-1.139320807810082,-0.7390057444572449,-1.330718040466309,0.1463232785463333,-0.4007145464420319,-0.0780884325504303,0.05528247728943825,XTrueNorthZVertical,-0.5835714125448583,0.5990250919317133,-0.4415763627485669,0.3249979427539184,-0.1260188370943069,0.9083496332168579,0.3987733125686646,11.62798690795898,36.19200897216797,-18.85638618469238,1,0.0.0.0,10.227.79.254,1
2015-02-09 13:28:12.523,135,1423517292.105008,37.78915959413889,-122.3985334486909,15.37842,-1,-1,3,50,-9999,1423517292.43652,10.96614074707031,35.62786865234375,-21.33429718017578,217.6851348876953,203.9062042236328,25,28426.69868475,-0.0691375732421875,0.4907684326171875,0.002227783203125,28426.68404570833,-1.23996860248922,-0.4618544509892478,0.1496603321986379,28426.68404570833,1.631298728159654,-3.036566533716326,-1.056668484008516,-1.255313158035278,-0.4471770823001862,0.1885511428117752,0.01473492849618196,-0.303903728723526,-0.4939639270305634,XTrueNorthZVertical,-0.6098811634059258,0.6103915942444248,-0.3780379548898534,0.3354912429513052,-0.05155438557267189,0.8707219362258911,0.4890658557415009,10.30816841125488,37.284912109375,-17.44166564941406,1,0.0.0.0,10.227.79.254,1
2015-02-09 13:28:12.627,136,1423517292.105008,37.78915959413889,-122.3985334486909,15.37842,-1,-1,3,50,-9999,1423517292.540265,9.909355163574219,36.68133544921875,-18.80475997924805,208.4626617431641,194.6837310791016,25,28426.79682775,0.2732086181640625,0.7825469970703125,0.44580078125,28426.78759975,-0.03860331894902558,-0.5617277855571813,-0.4823738408721993,28426.68404570833,1.631298728159654,-3.036566533716326,-1.056668484008516,-1.255313158035278,-0.4471770823001862,0.1885511428117752,0.01473492849618196,-0.303903728723526,-0.4939639270305634,XTrueNorthZVertical,-0.6098811634059258,0.6103915942444248,-0.3780379548898534,0.3354912429513052,-0.05155438557267189,0.8707219362258911,0.4890658557415009,10.30816841125488,37.284912109375,-17.44166564941406,1,0.0.0.0,10.227.79.254,1
2015-02-09 13:28:12.722,137,1423517292.105008,37.78915959413889,-122.3985334486909,15.37842,-1,-1,3,50,-9999,1423517292.643675,7.352622985839844,37.56491088867188,-18.30550765991211,201.9520874023438,188.1731567382812,25,28426.894960875,0.2114410400390625,1.060012817382812,0.425140380859375,28426.891154625,-0.08592529467475257,-0.9929340460895792,0.1561035841399756,28426.891154625,1.659301140491767,-3.112829680959766,-0.9790374091032004,-0.1012693345546722,-0.9782572388648987,0.194992870092392,0.005696939770132303,0.3861799538135529,-0.1182904541492462,XTrueNorthZVertical,-0.6464274507510309,0.6007720423029927,-0.3267786569152309,0.3382605722268305,-0.01604239828884602,0.829960823059082,0.5575910210609436,8.209491729736328,38.98599243164062,-14.60587501525879,1,0.0.0.0,10.227.79.254,1
2015-02-09 13:28:12.823,138,1423517292.105008,37.78915959413889,-122.3985334486909,15.37842,-1,-1,3,50,-9999,1423517292.747336,7.131034851074219,38.363525390625,-18.42200469970703,197.8160400390625,184.037109375,25,28426.99308925,-0.414703369140625,0.6337127685546875,-0.30413818359375,28426.99470854167,0.9833008597945446,-1.540589422130673,-0.1280067020074216,28426.891154625,1.659301140491767,-3.112829680959766,-0.9790374091032004,-0.1012693345546722,-0.9782572388648987,0.194992870092392,0.005696939770132303,0.3861799538135529,-0.1182904541492462,XTrueNorthZVertical,-0.6464274507510309,0.6007720423029927,-0.3267786569152309,0.3382605722268305,-0.01604239828884602,0.829960823059082,0.5575910210609436,8.209491729736328,38.98599243164062,-14.60587501525879,1,0.0.0.0,10.227.79.254,1
2015-02-09 13:28:12.894,139,1423517292.105008,37.78915959413889,-122.3985334486909,15.37842,-1,-1,3,50,-9999,1423517292.851316,8.187812805175781,39.11117553710938,-19.25408554077148,199.3980102539062,185.6190795898438,25,28427.09121720833,-0.13555908203125,0.6679534912109375,0.0407867431640625,28426.99470854167,0.9833008597945446,-1.540589422130673,-0.1280067020074216,28426.99470854167,1.629666684976082,-3.119094977932383,-0.9448935012223396,0.9679571390151978,-1.525913000106812,-0.08911821991205215,-0.401524692773819,-0.1767217814922333,-0.8898191452026367,XTrueNorthZVertical,-0.644354463089718,0.6145305511693601,-0.3194391247463965,0.3242193306899361,-0.01317868381738663,0.8104345202445984,0.5856809616088867,9.245052337646484,39.50372314453125,-12.43461990356445,1,0.0.0.0,10.227.79.254,1
2015-02-09 13:28:13.024,140,1423517292.105008,37.78915959413889,-122.3985334486909,15.37842,-1,-1,3,50,-9999,1423517292.954964,12.19336700439453,39.29812622070312,-20.93489456176758,209.787109375,196.0081787109375,25,28427.189348125,-0.2514801025390625,0.444427490234375,-0.0118408203125,28427.20181754167,0.9460480298342981,0.3093570532813484,-0.3116407139160914,28427.09826283334,1.582610480912282,-3.071720117764932,-0.9807286914827535,0.5711643695831299,1.138104677200317,0.1733571290969849,-0.09671242535114288,-0.1629495620727539,-0.5142727494239807,XTrueNorthZVertical,-0.6155103544855427,0.6314085537467015,-0.3527516498708225,0.3131078352994752,-0.03884665668010712,0.8309030532836914,0.5550594925880432,10.89336109161377,38.73584365844727,-13.47234153747559,1,0.0.0.0,10.227.79.254,1
2015-02-09 13:28:13.095,141,1423517292.105008,37.78915959413889,-122.3985334486909,15.37842,-1,-1,3,50,-9999,1423517293.05872,14.18762969970703,38.36358642578125,-23.71406555175781,217.6172027587891,203.8382720947266,25,28427.28750145833,0.0121917724609375,1.076736450195312,0.3527374267578125,28427.20181754167,0.9460480298342981,0.3093570532813484,-0.3116407139160914,28427.20181754167,1.597473143889721,-2.964937532822657,-1.05470726585032,0.9308262467384338,0.3239773511886597,-0.2727793753147125,-0.1635359227657318,-0.4077196717262268,-0.501503586769104,XTrueNorthZVertical,-0.5857536333945974,0.632292522578209,-0.404319390607811,0.3059815002106689,-0.08672347664833069,0.8697558045387268,0.4858022928237915,10.38607978820801,38.50109481811523,-21.1143798828125,1,0.0.0.0,10.227.79.254,1
2015-02-09 13:28:13.194,142,1423517293.120578,37.78921378314289,-122.3985835724719,15.37881,0.57,-1,3,50,-9999,1423517293.162413,12.68767547607422,36.25662231445312,-26.70957183837891,211.5323486328125,197.75341796875,25,28427.38564458333,0.3394927978515625,1.297012329101562,0.38458251953125,28427.30537158333,-0.005616873055086121,-1.313000469062463,-0.268976606936913,28427.30537158333,1.663133571154023,-3.010603682717925,-1.121987852402635,-0.02083837613463402,-1.298380374908447,-0.230115994811058,0.08378758281469345,0.2637233734130859,0.01727347262203693,XTrueNorthZVertical,-0.6009203396930565,0.5949641786456065,-0.3986207494162591,0.3549843247841946,-0.05667271837592125,0.9009647369384766,0.430175244808197,8.254332542419434,36.66818237304688,-24.96662139892578,1,0.0.0.0,10.227.79.254,1
2015-02-09 13:28:13.290,143,1423517293.120578,37.78921378314289,-122.3985835724719,15.37881,0.57,-1,3,50,-9999,1423517293.266334,12.63653564453125,33.45294189453125,-27.25874710083008,209.5952758789062,195.8163452148438,25,28427.48377204167,-0.653076171875,1.06329345703125,0.3960723876953125,28427.40892575,-0.1141654548739528,0.4331346554777242,0.4198401553160487,28427.40892575,1.665320226701777,-3.040777979350959,-1.145682702272291,-0.1293866336345673,0.4477543830871582,0.4586999416351318,0.4401286244392395,0.3440740406513214,0.05140073969960213,XTrueNorthZVertical,-0.6024706526403983,0.5849736926041242,-0.3955907938531896,0.3719446420136753,-0.0415080264210701,0.910991907119751,0.410330206155777,6.182815551757812,36.07748413085938,-26.38578414916992,1,0.0.0.0,10.227.79.254,1
2015-02-09 13:28:13.388,144,1423517293.120578,37.78921378314289,-122.3985835724719,15.37881,0.57,-1,3,50,-9999,1423517293.370361,12.75585174560547,33.469970703125,-27.54165267944336,216.3052520751953,202.5263214111328,25,28427.581901125,-0.3953094482421875,0.849395751953125,0.3427886962890625,28427.51248066667,0.09054854232713012,0.8150218357829447,-0.4072721654997468,28427.51248066667,1.702734568787314,-2.930157733916352,-1.144495025097584,0.07532764971256256,0.8296412825584412,-0.368413120508194,-0.5659608244895935,-0.06481353938579559,-0.407120406627655,XTrueNorthZVertical,-0.5911647091866979,0.5938628176821203,-0.4215730517101913,0.3465940041237662,-0.0867796391248703,0.9105014204978943,0.4042975306510925,7.736021995544434,36.10040283203125,-25.94102478027344,1,0.0.0.0,10.227.79.254,1
2015-02-09 13:28:13.476,145,1423517293.120578,37.78921378314289,-122.3985835724719,15.37881,0.57,-1,3,50,-9999,1423517293.370361,12.75585174560547,33.469970703125,-27.54165267944336,216.3052520751953,202.5263214111328,25,28427.680037,-0.003814697265625,0.552825927734375,0.035491943359375,28427.616034875,-0.1785258026217887,-1.332157119415621,-0.03210334167646919,28427.616034875,1.776506273939757,-2.959881508484787,-1.135532124539925,-0.1937463730573654,-1.317538022994995,0.00675489567220211,0.1090192124247551,-0.1362508535385132,-0.04585719481110573,XTrueNorthZVertical,-0.6207507933325316,0.5674701791522696,-0.3971549162116627,0.3673064417006057,-0.0761975571513176,0.9067586660385132,0.4147078990936279,9.11965274810791,33.70149230957031,-27.24716377258301,1,0.0.0.0,10.227.79.254,1
2015-02-09 13:28:13.574,146,1423517293.120578,37.78921378314289,-122.3985835724719,15.37881,0.57,-1,3,50,-9999,1423517293.473936,10.64228057861328,34.353515625,-28.00761795043945,211.4856414794922,197.7067108154297,25,28427.77817004167,0.0093841552734375,0.665435791015625,0.3807373046875,28427.719589,-0.6110495289454488,-1.117965730843273,-0.2422334095864463,28427.719589,1.691531714341346,-3.08818445805796,-1.047318544316646,-0.6262698173522949,-1.103346824645996,-0.2033759504556656,0.02729616314172745,-0.3239105939865112,-0.4002902209758759,XTrueNorthZVertical,-0.6390938798665717,0.5840806675571093,-0.3488026246836681,0.3588112550531941,-0.02668581157922745,0.8660858869552612,0.4991824328899384,8.39627742767334,35.63667678833008,-24.91779518127441,1,0.0.0.0,10.227.79.254,1
2015-02-09 13:28:13.672,147,1423517293.120578,37.78921378314289,-122.3985835724719,15.37881,0.57,-1,3,50,-9999,1423517293.577515,8.528709411621094,36.63043212890625,-27.04240417480469,203.5855712890625,189.806640625,25,28427.87640075,-0.0040740966796875,1.236968994140625,0.455902099609375,28427.823144,-0.1301979509523388,-0.4039333604411144,-0.05806916230474176,28427.823144,1.749756729432487,-3.126496298019799,-1.033795892550378,-0.1454179435968399,-0.3893147706985474,-0.01921244151890278,0.2887130081653595,0.1929685771465302,-0.05407466366887093,XTrueNorthZVertical,-0.6647906515487231,0.5601827472404256,-0.3218447141164354,0.375052876990477,-0.00772241223603487,0.8592470288276672,0.5115026235580444,5.112995624542236,36.38267517089844,-24.72903060913086,1,0.0.0.0,10.227.79.254,1
2015-02-09 13:28:13.770,148,1423517293.120578,37.78921378314289,-122.3985835724719,15.37881,0.57,-1,3,50,-9999,1423517293.6819,5.579948425292969,37.15716552734375,-28.39038467407227,200.1247100830078,186.3457794189453,25,28427.97454466667,-0.46630859375,0.833831787109375,-0.486358642578125,28427.92669820834,-0.712218491383706,0.2205962909939885,0.3908055741636778,28427.92669820834,1.716165292559128,3.073471189755154,-1.021797331260457,-0.7274381518363953,0.2352145463228226,0.4296614825725555,-0.3906688988208771,0.9142714142799377,0.9348210692405701,XTrueNorthZVertical,-0.6704829905332936,0.5574622784112386,-0.2970661837437933,0.389152992107103,0.03552057966589928,0.8530473113059998,0.5206232666969299,3.773721218109131,36.63405990600586,-24.59819793701172,1,0.0.0.0,10.227.79.254,1
2015-02-09 13:28:13.869,149,1423517293.120578,37.78921378314289,-122.3985835724719,15.37881,0.57,-1,3,50,-9999,1423517293.785234,4.829971313476562,38.31256103515625,-29.42216491699219,195.9372863769531,182.1583557128906,25,28428.07269370833,-0.1300506591796875,0.897216796875,0.0330810546875,28428.030252375,-0.2679566162394126,2.079898717631567,0.431141812034018,28428.030252375,1.743653858476936,3.114453751639717,-0.9861306499316296,-0.2831759750843048,2.094516515731812,0.4699969887733459,-0.3049394488334656,0.1094016879796982,0.6718696355819702,XTrueNorthZVertical,-0.6783937504548641,0.5618190218313426,-0.2953752520889577,0.3699929293129416,0.01497668121010065,0.8338966369628906,0.5517174005508423,3.193462371826172,37.57290649414062,-23.22596168518066,1,0.0.0.0,10.227.79.254,1
2015-02-09 13:28:13.967,150,1423517293.120578,37.78921378314289,-122.3985835724719,15.37881,0.57,-1,3,50,-9999,1423517293.890688,5.869728088378906,39.04315185546875,-29.60522079467773,198.9505157470703,185.1715850830078,25,28428.17083929167,-0.2490081787109375,0.4066162109375,0.087066650390625,28428.13380745834,0.5210266946175003,0.9854210023383566,0.3215790984720491,28428.13380745834,1.67965992500902,-3.093067395583831,-1.027156112624365,0.5059268474578857,0.9999836087226868,0.3604066371917725,-0.2102920114994049,-0.3579981923103333,-0.2749009728431702,XTrueNorthZVertical,-0.6403316371063562,0.5901680877610712,-0.343620322122326,0.351570900629747,-0.02509007416665554,0.8558314442634583,0.5166459679603577,7.382907390594482,36.91061401367188,-23.33379364013672,1,0.0.0.0,10.227.79.254,1
2015-02-09 13:28:14.065,151,1423517293.120578,37.78921378314289,-122.3985835724719,15.37881,0.57,-1,3,50,-9999,1423517293.991605,9.108261108398438,37.92172241210938,-31.50237274169922,205.275634765625,191.4967041015625,25,28428.2689965,0.1042022705078125,0.911773681640625,0.4189300537109375,28428.23736166667,0.3580281864153096,-1.303508962937421,0.01146970218275326,28428.23736166667,1.73571079478398,-3.026345550869751,-1.070311240046536,0.3429286181926727,-1.288946628570557,0.05029651150107384,0.06109953299164772,-0.3126526176929474,-0.3839556574821472,XTrueNorthZVertical,-0.6362003670760552,0.5775665479219469,-0.3669294050814865,0.3564109826819218,-0.05517912283539772,0.8773499131202698,0.4766680598258972,8.453204154968262,35.67098236083984,-24.849365234375,1,0.0.0.0,10.227.79.254,1
