loggingTime,loggingSample,locationTimestamp_since1970,locationLatitude,locationLongitude,locationAltitude,locationSpeed,locationCourse,locationVerticalAccuracy,locationHorizontalAccuracy,locationFloor,locationHeadingTimestamp_since1970,locationHeadingX,locationHeadingY,locationHeadingZ,locationTrueHeading,locationMagneticHeading,locationHeadingAccuracy,accelerometerTimestamp_sinceReboot,accelerometerAccelerationX,accelerometerAccelerationY,accelerometerAccelerationZ,gyroTimestamp_sinceReboot,gyroRotationX,gyroRotationY,gyroRotationZ,motionTimestamp_sinceReboot,motionYaw,motionRoll,motionPitch,motionRotationRateX,motionRotationRateY,motionRotationRateZ,motionUserAccelerationX,motionUserAccelerationY,motionUserAccelerationZ,motionAttitudeReferenceFrame,motionQuaternionX,motionQuaternionY,motionQuaternionZ,motionQuaternionW,motionGravityX,motionGravityY,motionGravityZ,motionMagneticFieldX,motionMagneticFieldY,motionMagneticFieldZ,motionMagneticFieldCalibrationAccuracy,IP_en0,IP_pdp_ip0,deviceOrientation,state
2015-02-27 20:20:03.693,1,1425097203.092292,37.78675029989126,-122.3987305072345,15.28412,0.69,181.7578125,3,100,-9999,1425097203.644221,-17.76052093505859,-17.14096069335938,-26.89904022216797,24.58676338195801,10.81346893310547,10,139230.9615688333,-0.2905426025390625,-0.962066650390625,-0.0763397216796875,139230.9280784584,-0.06634759855325308,0.2010667980882194,-0.03553748790212636,139230.9280784584,-0.4971391225443943,-1.255469061140673,1.283238184777213,-0.07724728435277939,0.2132916152477264,-0.0003828459011856467,-0.003168633673340082,-0.02302483841776848,0.01926068402826786,XTrueNorthZVertical,0.353754434796609,-0.575221630033275,-0.5002175201877848,0.5419965946867564,-0.2696279883384705,-0.958939254283905,-0.08795575052499771,-18.2962474822998,-19.96396064758301,-24.9986743927002,2,10.3.35.51,10.83.46.32,1,0
2015-02-27 20:20:03.758,2,1425097203.092292,37.78675029989126,-122.3987305072345,15.28412,0.69,181.7578125,3,100,-9999,1425097203.715534,-17.55589294433594,-17.03898620605469,-27.23186492919922,24.02408599853516,10.25079250335693,10,139231.0105945417,-0.1865997314453125,-0.9502105712890625,-0.0852203369140625,139230.9798576667,-0.01446043208691225,0.3551666198240194,0.0008450210138821422,139230.9798576667,-0.4950014056157095,-1.242200668774245,1.279206552101491,-0.02534874342381954,0.3673901855945587,0.03600791469216347,-0.01881449669599533,0.009988382458686829,0.02900585159659386,XTrueNorthZVertical,0.3562299153953025,-0.5715890851208147,-0.496604197319398,0.5475129553756923,-0.2720943093299866,-0.9577880501747131,-0.09277232736349106,-18.10122680664062,-19.94506454467773,-25.15524101257324,2,10.3.35.51,10.83.46.32,1,0
2015-02-27 20:20:03.774,3,1425097203.092292,37.78675029989126,-122.3987305072345,15.28412,0.69,181.7578125,3,100,-9999,1425097203.715534,-17.55589294433594,-17.03898620605469,-27.23186492919922,24.02408599853516,10.25079250335693,10,139231.05964875,-0.294464111328125,-0.9836883544921875,-0.0814208984375,139231.0316368333,0.02558418964406422,0.03056217035364033,-0.03139787030370719,139231.0316368333,-0.4951137394586299,-1.232181076315217,1.282690587972182,0.01470321323722601,0.04278552904725075,0.003753877244889736,0.04941986128687859,-0.002229969715699553,-0.001318278606049716,XTrueNorthZVertical,0.3599339806603011,-0.5685552799590939,-0.4954185807401127,0.5493203555352566,-0.2680020034313202,-0.9587838053703308,-0.09438484907150269,-17.65087509155273,-19.92944717407227,-25.48548698425293,2,10.3.35.51,10.83.46.32,1,0
2015-02-27 20:20:03.824,4,1425097203.092292,37.78675029989126,-122.3987305072345,15.28412,0.69,181.7578125,3,100,-9999,1425097203.820686,-16.92497253417969,-16.95399475097656,-27.58134460449219,23.03759002685547,9.26429557800293,10,139231.1086655417,-0.245086669921875,-0.97698974609375,-0.0730743408203125,139231.083416,-0.00114036557877193,0.1844265686490773,-0.01443965943040963,139231.083416,-0.4896953210749194,-1.233073191531803,1.280784045720778,-0.01201926730573177,0.1966495662927628,0.02071534842252731,-0.06095444783568382,0.006427619606256485,0.03089319355785847,XTrueNorthZVertical,0.3605679094751087,-0.5679922271681855,-0.4937738070772478,0.5509655523977675,-0.2698103189468384,-0.9582403898239136,-0.09475122392177582,-17.21475219726562,-16.90275573730469,-27.56441497802734,2,10.3.35.51,10.83.46.32,1,0
2015-02-27 20:20:03.868,5,1425097203.092292,37.78675029989126,-122.3987305072345,15.28412,0.69,181.7578125,3,100,-9999,1425097203.820686,-16.92497253417969,-16.95399475097656,-27.58134460449219,23.03759002685547,9.26429557800293,10,139231.1577124583,-0.2166748046875,-0.9807891845703125,-0.1268768310546875,139231.1351950417,-0.02974378095065898,0.2364980258628516,-0.07441697665619317,139231.1351950417,-0.4981747555904091,-1.212253938970788,1.282211864442728,-0.040619857609272,0.2487207800149918,-0.03926431015133858,0.04935005679726601,-0.01411536987870932,0.01888892613351345,XTrueNorthZVertical,0.3638170960320999,-0.5636518965653335,-0.4925797200469182,0.5543454513954578,-0.2664978802204132,-0.9586476683616638,-0.0998673215508461,-17.05414962768555,-16.86643600463867,-27.68622779846191,2,10.3.35.51,10.83.46.32,1,0
2015-02-27 20:20:03.908,6,1425097203.092292,37.78675029989126,-122.3987305072345,15.28412,0.69,181.7578125,3,100,-9999,1425097203.871279,-16.51572418212891,-17.15789794921875,-27.74777221679688,22.23561859130859,8.462325096130371,10,139231.2067379583,-0.2798919677734375,-0.9675140380859375,-0.087860107421875,139231.1869744583,-0.01993083128204401,0.03881397499125085,-0.0694440559526882,139231.1869744583,-0.5087585413259369,-1.194940357014187,1.284705670509271,-0.03080749325454235,0.05103679373860359,-0.03429652750492096,0.02970100380480289,-0.02186199463903904,-0.01295834500342607,XTrueNorthZVertical,0.3660100433987312,-0.5605733716468003,-0.492752733658405,0.5558676879934906,-0.2625043392181396,-0.9593544602394104,-0.1035882830619812,-16.57335090637207,-16.88222885131836,-27.9671630859375,2,10.3.35.51,10.83.46.32,1,0
2015-02-27 20:20:03.969,7,1425097203.092292,37.78675029989126,-122.3987305072345,15.28412,0.69,181.7578125,3,100,-9999,1425097203.925881,-16.66919708251953,-17.54875183105469,-27.79769134521484,22.5893383026123,8.816043853759766,10,139231.2557915,-0.254364013671875,-0.977935791015625,-0.120819091796875,139231.23875325,-0.001675394641768849,0.06436221196059899,-0.08602356531897649,139231.23875325,-0.5153597583231976,-1.186833592513343,1.285981018484813,-0.01255006808787584,0.07658473402261734,-0.05087561905384064,-0.008048615418374538,0.007488832343369722,0.009993890300393105,XTrueNorthZVertical,0.3666232405253843,-0.5594284087460571,-0.4932998962730551,0.5561316995845285,-0.2605213224887848,-0.9597135782241821,-0.1052545085549355,-16.46696472167969,-16.86888885498047,-28.0379638671875,2,10.3.35.51,10.83.46.32,1,0
2015-02-27 20:20:04.008,8,1425097203.092292,37.78675029989126,-122.3987305072345,15.28412,0.69,181.7578125,3,100,-9999,1425097203.925881,-16.66919708251953,-17.54875183105469,-27.79769134521484,22.5893383026123,8.816043853759766,10,139231.3048177084,-0.2282867431640625,-0.9648590087890625,-0.1225433349609375,139231.2905324167,-0.02881993036851049,0.08304455332361386,-0.1035716663737266,139231.23875325,-0.5153597583231976,-1.186833592513343,1.285981018484813,-0.01255006808787584,0.07658473402261734,-0.05087561905384064,-0.008048615418374538,0.007488832343369722,0.009993890300393105,XTrueNorthZVertical,0.3666232405253843,-0.5594284087460571,-0.4932998962730551,0.5561316995845285,-0.2605213224887848,-0.9597135782241821,-0.1052545085549355,-16.46696472167969,-16.86888885498047,-28.0379638671875,2,10.3.35.51,10.83.46.32,1,0
2015-02-27 20:20:04.071,9,1425097203.092292,37.78675029989126,-122.3987305072345,15.28412,0.69,181.7578125,3,100,-9999,1425097204.008079,-16.36226654052734,-17.58273315429688,-27.76439666748047,22.67853927612305,8.905244827270508,10,139231.3538642917,-0.2293853759765625,-0.97723388671875,-0.1035919189453125,139231.3423116667,-0.002437058713531511,-0.009845440233913936,-0.06702404147013319,139231.3423116667,-0.532620225642046,-1.161364363295799,1.291703787800427,-0.0133133428171277,0.002377174329012632,-0.03188129141926765,0.02544950693845749,-0.00692537659779191,-0.0006695780321024358,XTrueNorthZVertical,0.3701883388016025,-0.5550920923456214,-0.4942660588438114,0.5572561582045901,-0.2527139186859131,-0.9613057971000671,-0.1096667274832726,-16.0809497833252,-16.91883850097656,-28.23125457763672,2,10.3.35.51,10.83.46.32,1,0
2015-02-27 20:20:04.107,10,1425097204.072653,37.78673800115643,-122.3987254237167,15.28412,0.6951337,-1,10,200,-9999,1425097204.085357,-15.97007751464844,-17.29386901855469,-28.21372985839844,22.45297241210938,8.67967700958252,10,139231.4029392917,-0.226837158203125,-0.986846923828125,-0.086273193359375,139231.3940907917,0.002269279564856519,0.02506114480597265,-0.05445818218270332,139231.3423116667,-0.532620225642046,-1.161364363295799,1.291703787800427,-0.0133133428171277,0.002377174329012632,-0.03188129141926765,0.02544950693845749,-0.00692537659779191,-0.0006695780321024358,XTrueNorthZVertical,0.3701883388016025,-0.5550920923456214,-0.4942660588438114,0.5572561582045901,-0.2527139186859131,-0.9613057971000671,-0.1096667274832726,-16.0809497833252,-16.91883850097656,-28.23125457763672,2,10.3.35.51,10.83.46.32,1,0
2015-02-27 20:20:04.173,11,1425097204.072653,37.78673800115643,-122.3987254237167,15.28412,0.6951337,-1,10,200,-9999,1425097204.085357,-15.97007751464844,-17.29386901855469,-28.21372985839844,22.45297241210938,8.67967700958252,10,139231.4519228333,-0.2050323486328125,-0.9805908203125,-0.0833740234375,139231.445869875,-0.009135974119516827,0.07796989986646788,-0.09980888606955365,139231.3940907917,-0.5346842238672277,-1.15921989107989,1.294551417870855,-0.008603653870522976,0.03728358820080757,-0.01932046748697758,0.02046084403991699,-0.0209000501781702,0.02309904433786869,XTrueNorthZVertical,0.3711868151757874,-0.5546746152700816,-0.4948550052698916,0.5564844500300449,-0.2499682903289795,-0.9620863795280457,-0.109112836420536,-16.03000831604004,-16.94429779052734,-28.24495315551758,2,10.3.35.51,10.83.46.32,1,0
2015-02-27 20:20:04.206,12,1425097204.072653,37.78673800115643,-122.3987254237167,15.28412,0.6951337,-1,10,200,-9999,1425097204.157184,-16.15764617919922,-17.20887756347656,-28.09723663330078,23.05850028991699,9.285205841064453,10,139231.501050375,-0.205291748046875,-0.9691314697265625,-0.1070098876953125,139231.49764925,-0.01142203159924085,0.05326934707209195,-0.06860116546767812,139231.445869875,-0.5396620908981944,-1.150699163427444,1.300042058256888,-0.01999962516129017,0.09019191563129425,-0.06468158960342407,0.033844955265522,-0.00954457838088274,0.02647156268358231,XTrueNorthZVertical,0.3739255787385183,-0.5528456730426811,-0.4954349413721294,0.5559546224125729,-0.2442026138305664,-0.9635694622993469,-0.1090826466679573,-15.96274757385254,-16.98317527770996,-28.25969314575195,2,10.3.35.51,10.83.46.32,1,0
2015-02-27 20:20:04.260,13,1425097204.072653,37.78673800115643,-122.3987254237167,15.28412,0.6951337,-1,10,200,-9999,1425097204.208845,-16.10649108886719,-17.29383850097656,-27.78103637695312,23.83281326293945,10.0595178604126,10,139231.5499942084,-0.2057342529296875,-0.98883056640625,-0.13677978515625,139231.5494280834,0.02327389739842048,0.005351888526623237,-0.04543592504173288,139231.49764925,-0.5441002982423194,-1.142638372529613,1.307117301686951,-0.02227363176643848,0.06549084186553955,-0.03349113836884499,0.02980136871337891,-0.007233874406665564,0.01080209016799927,XTrueNorthZVertical,0.3772871355324715,-0.550951284088426,-0.4961410897817243,0.5549334364628633,-0.2371072769165039,-0.965437650680542,-0.1082141995429993,-15.66002082824707,-17.21819686889648,-28.28683853149414,2,10.3.35.51,10.83.46.32,1,0
2015-02-27 20:20:04.300,14,1425097204.072653,37.78673800115643,-122.3987254237167,15.28412,0.6951337,-1,10,200,-9999,1425097204.259607,-16.24290466308594,-17.39579772949219,-27.78103637695312,23.85149383544922,10.078200340271,10,139231.5991182083,-0.2143707275390625,-0.9698638916015625,-0.1253814697265625,139231.5494280834,0.02327389739842048,0.005351888526623237,-0.04543592504173288,139231.5494280834,-0.558648255011976,-1.126224160676772,1.311428482641627,0.01241845637559891,0.01757306233048439,-0.01034316886216402,0.0309473592787981,-0.01239057071506977,-0.02005552873015404,XTrueNorthZVertical,0.3789449345680226,-0.5488629914610008,-0.497655677755882,0.5545168883977433,-0.231539398431778,-0.9665523171424866,-0.1103003099560738,-15.49637222290039,-17.28881072998047,-28.33385467529297,2,10.3.35.51,10.83.46.32,1,0
2015-02-27 20:20:04.363,15,1425097204.072653,37.78673800115643,-122.3987254237167,15.28412,0.6951337,-1,10,200,-9999,1425097204.311273,-15.90186309814453,-17.53173828125,-28.11388397216797,23.85901069641113,10.08571624755859,10,139231.6480595,-0.2030029296875,-0.9763031005859375,-0.1063690185546875,139231.6529865417,0.06635718593317735,-0.006553506810466989,-0.004846953183944213,139231.6012074167,-0.5737435578433567,-1.11082974893456,1.314519604208565,0.006536043714731932,-0.02599933184683323,-0.01047330163419247,0.01276499405503273,-0.002523431787267327,-0.01285681035369635,XTrueNorthZVertical,0.3797815748911856,-0.5472692443883042,-0.4993194739437709,0.554023819354009,-0.2271357178688049,-0.9673404693603516,-0.1125246584415436,-15.36137008666992,-17.30416107177734,-28.39792442321777,2,10.3.35.51,10.83.46.32,1,0
2015-02-27 20:20:04.397,16,1425097204.072653,37.78673800115643,-122.3987254237167,15.28412,0.6951337,-1,10,200,-9999,1425097204.363734,-16.24288940429688,-17.76962280273438,-28.11388397216797,23.88418579101562,10.11089038848877,10,139231.6970627917,-0.1796417236328125,-0.9860687255859375,-0.1009674072265625,139231.6529865417,0.06635718593317735,-0.006553506810466989,-0.004846953183944213,139231.6529865417,-0.5720873185627552,-1.11365570831774,1.317095875228517,0.05549238622188568,0.005667874123901129,0.03021908551454544,0.02221288718283176,-0.008312816731631756,0.004412958398461342,XTrueNorthZVertical,0.3804769791502194,-0.5475822128566115,-0.4997253949533684,0.5528702542999965,-0.2252158224582672,-0.9679902791976929,-0.1107819750905037,-15.32594108581543,-17.32964134216309,-28.40152931213379,2,10.3.35.51,10.83.46.32,1,0
2015-02-27 20:20:04.463,17,1425097204.072653,37.78673800115643,-122.3987254237167,15.28412,0.6951337,-1,10,200,-9999,1425097204.41512,-16.25994873046875,-17.92254638671875,-28.03067016601562,23.91306304931641,10.13976955413818,10,139231.746103375,-0.2392120361328125,-0.968536376953125,-0.074859619140625,139231.7047655,0.0398307698954431,-0.0863934783943885,0.0008860336946693626,139231.7047655,-0.56604887777704,-1.121044483322214,1.320071603203579,0.02897033095359802,-0.07417119294404984,0.03593976050615311,0.04379145801067352,-0.01733585819602013,0.006894746795296669,XTrueNorthZVertical,0.3813776719293873,-0.5482882402621549,-0.4998469852750393,0.5514381816728583,-0.223433181643486,-0.9687328934669495,-0.107862152159214,-15.30015754699707,-17.42909622192383,-28.35453224182129,2,10.3.35.51,10.83.46.32,1,0
2015-02-27 20:20:04.496,18,1425097204.072653,37.78673800115643,-122.3987254237167,15.28412,0.6951337,-1,10,200,-9999,1425097204.467002,-16.29405212402344,-17.61669921875,-27.76439666748047,23.95213890075684,10.1788444519043,10,139231.795128,-0.231689453125,-0.9803619384765625,-0.061309814453125,139231.75654475,0.09750764857161619,-0.0784583236103884,0.004251470364202496,139231.75654475,-0.5481569829498341,-1.143889916700677,1.321791133047939,0.08665324747562408,-0.06623516976833344,0.03929883986711502,-0.01418790873140097,0.0003622848598752171,0.03610692173242569,XTrueNorthZVertical,0.381216061747126,-0.5510483089630005,-0.4995074965797158,0.5491013897878585,-0.2243222296237946,-0.9691580533981323,-0.1020401492714882,-15.33600234985352,-17.52866172790527,-28.27367782592773,2,10.3.35.51,10.83.46.32,1,0
2015-02-27 20:20:04.563,19,1425097204.072653,37.78673800115643,-122.3987254237167,15.28412,0.6951337,-1,10,200,-9999,1425097204.519433,-16.20880126953125,-17.2938232421875,-27.68118286132812,24.44441032409668,10.67111587524414,10,139231.8441579583,-0.203033447265625,-0.89874267578125,-0.046783447265625,139231.808324125,0.04869616684820788,0.07197725478157158,0.02011272518449642,139231.808324125,-0.5271104815266595,-1.162567500390554,1.321088148489685,0.03784586116671562,0.08420062810182571,0.05516117438673973,0.007560570724308491,-0.01351359020918608,0.0276228953152895,XTrueNorthZVertical,0.3821114940006919,-0.5522129889656997,-0.4971939276836722,0.5494086085927983,-0.2268141061067581,-0.9689846038818359,-0.09810324013233185,-15.49273681640625,-17.66972732543945,-28.09988784790039,2,10.3.35.51,10.83.46.32,1,0
2015-02-27 20:20:04.597,20,1425097204.072653,37.78673800115643,-122.3987254237167,15.28412,0.6951337,-1,10,200,-9999,1425097204.574441,-16.34521484375,-17.56571960449219,-27.78103637695312,24.38904762268066,10.61575317382812,10,139231.8933170417,-0.287261962890625,-1.021942138671875,-0.0532684326171875,139231.860103,0.3138767039673219,0.2847915227542395,-0.01876196987960823,139231.860103,-0.4966931535988691,-1.184473769264174,1.32396389809844,0.3031370639801025,0.2969507277011871,0.0164024718105793,-0.009406570345163345,0.06963630020618439,0.06094846501946449,XTrueNorthZVertical,0.3861222091581389,-0.5521585570020565,-0.4934623397057125,0.5500231693007788,-0.2263264656066895,-0.9696912169456482,-0.09206113219261169,-15.42339897155762,-17.74929809570312,-28.08788108825684,2,10.3.35.51,10.83.46.32,1,0
2015-02-27 20:20:04.661,21,1425097204.072653,37.78673800115643,-122.3987254237167,15.28412,0.6951337,-1,10,200,-9999,1425097204.574441,-16.34521484375,-17.56571960449219,-27.78103637695312,24.38904762268066,10.61575317382812,10,139231.9422097917,-0.128265380859375,-0.965606689453125,-0.0864105224609375,139231.91188225,0.317812057110132,0.6456541115177205,-0.004638161354482001,139231.91188225,-0.4219394544058337,-1.23234137391748,1.326378087183917,0.3070784211158752,0.6578134298324585,0.03053185343742371,-0.04496047273278236,-0.04289006441831589,0.02576790377497673,XTrueNorthZVertical,0.3959093781050892,-0.5505283537519938,-0.4825677129774535,0.5543488959008896,-0.2282634079456329,-0.970278263092041,-0.08034858852624893,-15.14865684509277,-18.0909595489502,-28.01933479309082,2,10.3.35.51,10.83.46.32,1,0
2015-02-27 20:20:04.691,22,1425097204.072653,37.78673800115643,-122.3987254237167,15.28412,0.6951337,-1,10,200,-9999,1425097204.648145,-15.68019104003906,-17.75262451171875,-28.03066253662109,22.62840270996094,8.855107307434082,10,139231.9912300833,-0.14398193359375,-1.059310913085938,-0.1383819580078125,139231.9636615,0.2999438440923544,0.5497366364329905,-0.06089850464684194,139231.9636615,-0.3623993065223065,-1.255981792050038,1.334191556463863,0.2892102003097534,0.5618958473205566,-0.02572978287935257,0.1297894418239594,-0.05648605898022652,-0.04196704924106598,XTrueNorthZVertical,0.4092876672927755,-0.5442364049096483,-0.4721168367449953,0.5598178573306001,-0.2228833138942719,-0.9721394181251526,-0.07258068025112152,-14.11959266662598,-18.60398101806641,-28.22014999389648,2,10.3.35.51,10.83.46.32,1,0
2015-02-27 20:20:04.765,23,1425097204.072653,37.78673800115643,-122.3987254237167,15.28412,0.6951337,-1,10,200,-9999,1425097204.750795,-13.80449676513672,-18.80619812011719,-28.59646606445312,19.19608306884766,5.422789096832275,10,139232.0402754583,-0.1684112548828125,-1.0152587890625,-0.141143798828125,139232.0154404583,0.1627548289624485,0.08723796677605263,-0.08934239666943325,139232.0154404583,-0.3270668891214393,-1.275295740128495,1.339099196356566,0.1520767658948898,0.09936073422431946,-0.05411731079220772,0.0451313890516758,-0.04921336844563484,-0.09407724440097809,XTrueNorthZVertical,0.4160296174149837,-0.541740830178582,-0.4671092168546223,0.5614670158002955,-0.219676673412323,-0.9732781052589417,-0.06687246263027191,-13.35418128967285,-18.99543190002441,-28.33173561096191,2,10.3.35.51,10.83.46.32,1,0
2015-02-27 20:20:04.791,24,1425097204.072653,37.78673800115643,-122.3987254237167,15.28412,0.6951337,-1,10,200,-9999,1425097204.750795,-13.80449676513672,-18.80619812011719,-28.59646606445312,19.19608306884766,5.422789096832275,10,139232.08930025,-0.2219390869140625,-0.9579010009765625,-0.078765869140625,139232.0672197083,0.03056536614694843,-0.1594551723718403,0.1850050072378425,139232.0672197083,-0.3208597475385121,-1.279397581863687,1.336705740037272,0.01988217048346996,-0.1473324596881866,0.2202229648828506,0.006603618152439594,-0.02350538969039917,-0.1017256006598473,XTrueNorthZVertical,0.4159393616049985,-0.541917436454689,-0.465762016508232,0.5624817183370983,-0.2221797853708267,-0.9727256894111633,-0.06663987785577774,-13.07927513122559,-19.18035125732422,-28.33539390563965,2,10.3.35.51,10.83.46.32,1,0
2015-02-27 20:20:04.862,25,1425097204.072653,37.78673800115643,-122.3987254237167,15.28412,0.6951337,-1,10,200,-9999,1425097204.807286,-14.00911712646484,-18.90817260742188,-28.09721374511719,19.50629425048828,5.733000755310059,10,139232.1383397084,-0.262298583984375,-1.01025390625,-0.0724029541015625,139232.1189989584,0.005622199377266279,-0.08906596054828302,0.270120434625102,139232.1189989584,-0.3092503869694859,-1.298510307041868,1.323560081267951,-0.005066618323326111,-0.07694354653358459,0.305340051651001,-0.0277338232845068,-0.02009257487952709,-0.05791861563920975,XTrueNorthZVertical,0.4101910109623324,-0.5466588344027555,-0.463880785304943,0.5636684045351978,-0.2357091754674911,-0.9695925116539001,-0.06581490486860275,-13.41504192352295,-19.06503486633301,-28.25613021850586,2,10.3.35.51,10.83.46.32,1,0
2015-02-27 20:20:04.890,26,1425097204.072653,37.78673800115643,-122.3987254237167,15.28412,0.6951337,-1,10,200,-9999,1425097204.880961,-14.264892578125,-18.517333984375,-28.01400756835938,18.20974731445312,4.43645191192627,10,139232.187372125,-0.20843505859375,-0.947235107421875,-0.04833984375,139232.170778125,-0.02574637615445004,0.02642202012300315,0.341877179668415,139232.1189989584,-0.3092503869694859,-1.298510307041868,1.323560081267951,-0.005066618323326111,-0.07694354653358459,0.305340051651001,-0.0277338232845068,-0.02009257487952709,-0.05791861563920975,XTrueNorthZVertical,0.4101910109623324,-0.5466588344027555,-0.463880785304943,0.5636684045351978,-0.2357091754674911,-0.9695925116539001,-0.06581490486860275,-13.41504192352295,-19.06503486633301,-28.25613021850586,2,10.3.35.51,10.83.46.32,1,0
2015-02-27 20:20:04.966,27,1425097204.072653,37.78673800115643,-122.3987254237167,15.28412,0.6951337,-1,10,200,-9999,1425097204.933371,-14.36721038818359,-18.24542236328125,-28.34684753417969,17.20275115966797,3.429456949234009,10,139232.2364249167,-0.24652099609375,-0.985321044921875,-0.06207275390625,139232.2225572917,0.2202958864230276,0.1432003023424327,0.1770237797669841,139232.2225572917,-0.266343239776196,-1.336710013635726,1.29723696459572,0.2096119821071625,0.1553230434656143,0.2122324705123901,0.07333885878324509,0.03331100568175316,0.0147369559854269,XTrueNorthZVertical,0.4043420141352784,-0.5524265828396316,-0.4540819399617781,0.5702122393714179,-0.2627919912338257,-0.9628154039382935,-0.06266481429338455,-13.99763298034668,-18.61463165283203,-28.27383232116699,2,10.3.35.51,10.83.46.32,1,0
2015-02-27 20:20:04.991,28,1425097204.072653,37.78673800115643,-122.3987254237167,15.28412,0.6951337,-1,10,200,-9999,1425097204.933371,-14.36721038818359,-18.24542236328125,-28.34684753417969,17.20275115966797,3.429456949234009,10,139232.2854885834,-0.220245361328125,-0.97833251953125,-0.135101318359375,139232.2743365417,0.2285839100514632,0.3834656358833104,0.07308699400780759,139232.2743365417,-0.2143975260108563,-1.370725190366564,1.293295749301266,0.2178999930620193,0.3955883681774139,0.1082928478717804,0.005838480778038502,-0.07109374552965164,-0.05973641946911812,XTrueNorthZVertical,0.4097333359064,-0.5521739250843701,-0.4452845705531399,0.5735365734480273,-0.2684880197048187,-0.961743175983429,-0.05444509908556938,-13.96376419067383,-18.78815078735352,-28.17563819885254,2,10.3.35.51,10.83.46.32,1,0
2015-02-27 20:20:05.068,29,1425097204.072653,37.78673800115643,-122.3987254237167,15.28412,0.6951337,-1,10,200,-9999,1425097204.989749,-14.46951293945312,-18.517333984375,-28.14714813232422,16.54111671447754,2.767822504043579,10,139232.3344821667,-0.2568511962890625,-1.012496948242188,-0.075714111328125,139232.3261155417,0.3237469115993736,0.2837196004154826,0.04485402434355056,139232.2743365417,-0.2143975260108563,-1.370725190366564,1.293295749301266,0.2178999930620193,0.3955883681774139,0.1082928478717804,0.005838480778038502,-0.07109374552965164,-0.05973641946911812,XTrueNorthZVertical,0.4097333359064,-0.5521739250843701,-0.4452845705531399,0.5735365734480273,-0.2684880197048187,-0.961743175983429,-0.05444509908556938,-13.96376419067383,-18.78815078735352,-28.17563819885254,2,10.3.35.51,10.83.46.32,1,0
2015-02-27 20:20:05.084,30,1425097205.059693,37.78671988398487,-122.3987166049538,15.29345,0.7806582,-1,10,200,-9999,1425097205.063261,-14.04322052001953,-18.84017944335938,-28.16378784179688,14.86992454528809,1.096629858016968,10,139232.3836139167,-0.3134307861328125,-0.9443206787109375,-0.0355682373046875,139232.3778948333,0.4230862823687463,0.1028867013413582,0.007651794444015667,139232.3261155417,-0.1707649734446848,-1.39447564577711,1.291555822560642,0.3130520582199097,0.2958422303199768,0.08005779236555099,-0.01240016240626574,-0.04094747081398964,-0.03179207816720009,XTrueNorthZVertical,0.4159544209190785,-0.5502802734809674,-0.4372340032142335,0.5770614930144845,-0.2713522911071777,-0.9612650275230408,-0.04834708198904991,-13.54227924346924,-18.9921989440918,-28.24448394775391,2,10.3.35.51,10.83.46.32,1,0
2015-02-27 20:20:05.162,31,1425097205.059693,37.78671988398487,-122.3987166049538,15.29345,0.7806582,-1,10,200,-9999,1425097205.113469,-13.87270355224609,-19.31600952148438,-28.29692077636719,14.04998970031738,0.2766953110694885,10,139232.4325532917,-0.254974365234375,-0.9171295166015625,-0.0033111572265625,139232.4296740833,0.3266132718806259,0.0285647995360809,0.1650486096093338,139232.4296740833,-0.04409230737160885,-1.501707468028177,1.288829123402546,0.3159169554710388,0.04068730026483536,0.2002504169940948,-0.003759655635803938,0.02149931155145168,0.02180238254368305,XTrueNorthZVertical,0.4270675521945814,-0.5549856859571228,-0.4226413000600142,0.5753073315021082,-0.2775819003582001,-0.9605099558830261,-0.01920838840305805,-13.03094673156738,-19.87568283081055,-27.87471199035645,2,10.3.35.51,10.83.46.32,1,0
2015-02-27 20:20:05.182,32,1425097205.059693,37.78671988398487,-122.3987166049538,15.29345,0.7806582,-1,10,200,-9999,1425097205.165504,-13.87270355224609,-19.68983459472656,-27.49811553955078,13.99069690704346,0.2174029052257538,10,139232.4815832917,-0.3045806884765625,-0.94580078125,0.046234130859375,139232.4296740833,0.3266132718806259,0.0285647995360809,0.1650486096093338,139232.4296740833,-0.04409230737160885,-1.501707468028177,1.288829123402546,0.3159169554710388,0.04068730026483536,0.2002504169940948,-0.003759655635803938,0.02149931155145168,0.02180238254368305,XTrueNorthZVertical,0.4270675521945814,-0.5549856859571228,-0.4226413000600142,0.5753073315021082,-0.2775819003582001,-0.9605099558830261,-0.01920838840305805,-13.03094673156738,-19.87568283081055,-27.87471199035645,2,10.3.35.51,10.83.46.32,1,0
2015-02-27 20:20:05.262,33,1425097205.059693,37.78671988398487,-122.3987166049538,15.29345,0.7806582,-1,10,200,-9999,1425097205.218556,-13.63397979736328,-19.55389404296875,-26.79916381835938,12.73764991760254,358.96435546875,10,139232.5306378333,-0.290985107421875,-0.9479827880859375,0.0584564208984375,139232.5332324167,0.3335721118090029,-0.09641868200188279,0.2501467264495078,139232.4814530833,0.01605689150914929,-1.563150839757198,1.274092976960155,0.3366481959819794,-0.1173953786492348,0.380344957113266,-0.01707233302295208,0.02846433594822884,0.0511702187359333,XTrueNorthZVertical,0.4267410872067616,-0.562827151911008,-0.4143987100731505,0.5739262588541391,-0.2923606634140015,-0.9563055038452148,-0.002235283143818378,-13.16403388977051,-20.18066024780273,-27.59160995483398,2,10.3.35.51,10.83.46.32,1,0
2015-02-27 20:20:05.280,34,1425097205.059693,37.78671988398487,-122.3987166049538,15.29345,0.7806582,-1,10,200,-9999,1425097205.272197,-13.80450439453125,-19.51991271972656,-26.00035858154297,10.76520729064941,356.9919128417969,10,139232.5796623333,-0.2834014892578125,-0.94140625,0.0340576171875,139232.5332324167,0.3335721118090029,-0.09641868200188279,0.2501467264495078,139232.5332324167,0.07310865843005704,-1.622466330482646,1.257461656805987,0.3228832185268402,-0.08429662138223648,0.2853449583053589,0.01683617755770683,0.003328218823298812,0.04253712296485901,XTrueNorthZVertical,0.426144151607444,-0.5712799754302433,-0.4058281886585787,0.5721396970710509,-0.3078212738037109,-0.9513109922409058,0.01591929607093334,-13.62492752075195,-20.36850929260254,-27.22743034362793,2,10.3.35.51,10.83.46.32,1,0
2015-02-27 20:20:05.364,35,1425097205.059693,37.78671988398487,-122.3987166049538,15.29345,0.7806582,-1,10,200,-9999,1425097205.347172,-14.98108673095703,-20.01271057128906,-25.35134124755859,10.12229347229004,356.3489990234375,10,139232.6287105,-0.359588623046875,-0.9924774169921875,0.098907470703125,139232.5850117917,0.3166064440846531,-0.3306402377649347,0.2817773570324879,139232.5850117917,0.1153491588860728,-1.67171209316295,1.241114883412815,0.3059185445308685,-0.318518191576004,0.3169715404510498,0.03869306296110153,0.004739271476864815,0.001442405744455755,XTrueNorthZVertical,0.4240551453675985,-0.5800731327916211,-0.3992268761039927,0.5694824805453558,-0.3220945596694946,-0.9461455345153809,0.03261521086096764,-14.16571712493896,-20.64689636230469,-26.73735046386719,2,10.3.35.51,10.83.46.32,1,0
2015-02-27 20:20:05.378,36,1425097205.059693,37.78671988398487,-122.3987166049538,15.29345,0.7806582,-1,10,200,-9999,1425097205.347172,-14.98108673095703,-20.01271057128906,-25.35134124755859,10.12229347229004,356.3489990234375,10,139232.6777304167,-0.40118408203125,-0.93408203125,0.125823974609375,139232.6367907083,0.1940645486340741,-0.3577834419111313,0.4588245726170646,139232.6367907083,0.1500617027816469,-1.723603367835157,1.220124906729215,0.1833789050579071,-0.3456615805625916,0.4940168261528015,-0.02006307430565357,-0.05333514511585236,0.04661795496940613,XTrueNorthZVertical,0.418594134090834,-0.5923881404052385,-0.3936305885304918,0.5647213487520838,-0.3395255506038666,-0.9391422867774963,0.05228951573371887,-14.82797813415527,-20.80882453918457,-26.24827194213867,2,10.3.35.51,10.83.46.32,1,0
2015-02-27 20:20:05.463,37,1425097205.059693,37.78671988398487,-122.3987166049538,15.29345,0.7806582,-1,10,200,-9999,1425097205.398652,-15.30507659912109,-19.7578125,-25.00185394287109,9.282632827758789,355.5093383789062,10,139232.7267789583,-0.406097412109375,-0.922210693359375,0.0549163818359375,139232.7403492917,0.3424255245368623,0.0538491172414022,0.1668284001658337,139232.688570125,0.1776623455413774,-1.76182975265879,1.196886164284585,0.3329510092735291,-0.1240846961736679,0.2667602896690369,-0.05976710841059685,-0.00761609198525548,0.0507795475423336,XTrueNorthZVertical,0.4136679223316931,-0.6029554707721431,-0.3861663063931101,0.5623158668023621,-0.3586136400699615,-0.9309062361717224,0.0693529024720192,-15.66463279724121,-20.78032493591309,-25.78071403503418,2,10.3.35.51,10.83.46.32,1,0
2015-02-27 20:20:05.477,38,1425097205.059693,37.78671988398487,-122.3987166049538,15.29345,0.7806582,-1,10,200,-9999,1425097205.450476,-15.45854187011719,-19.2650146484375,-24.58580780029297,7.731515884399414,353.9582214355469,10,139232.7757967917,-0.3919219970703125,-0.978759765625,0.0961456298828125,139232.7403492917,0.3424255245368623,0.0538491172414022,0.1668284001658337,139232.7403492917,0.2189345446192781,-1.798392363418284,1.183055991664212,0.3317427635192871,0.06597039103507996,0.2020319998264313,-0.05265830457210541,0.01072673406451941,-0.02073728293180466,XTrueNorthZVertical,0.415894193064678,-0.6080199495510896,-0.3774864159346252,0.5611129715655014,-0.3683469593524933,-0.9257658123970032,0.08531247824430466,-16.25150489807129,-21.00061416625977,-25.23312568664551,2,10.3.35.51,10.83.46.32,1,0
2015-02-27 20:20:05.564,39,1425097205.059693,37.78671988398487,-122.3987166049538,15.29345,0.7806582,-1,10,200,-9999,1425097205.506487,-15.52675628662109,-19.43495178222656,-23.68715667724609,6.484262466430664,352.7109680175781,10,139232.824842625,-0.35986328125,-1.008575439453125,0.0447235107421875,139232.7921284583,0.3988933280781394,0.2309738308137003,-0.1117433098625257,139232.7921284583,0.2559646720156771,-1.824481533545671,1.172355699695695,0.3882113099098206,0.2430948615074158,-0.07653576880693436,0.02679375372827053,-0.06333348900079727,-0.0353153757750988,XTrueNorthZVertical,0.4198553019359347,-0.6102523746179391,-0.3688509786553992,0.5614824308967031,-0.3755638897418976,-0.9216670989990234,0.097372867166996,-16.37142753601074,-21.19338035583496,-24.99329566955566,2,10.3.35.51,10.83.46.32,1,0
2015-02-27 20:20:05.576,40,1425097205.059693,37.78671988398487,-122.3987166049538,15.29345,0.7806582,-1,10,200,-9999,1425097205.506487,-15.52675628662109,-19.43495178222656,-23.68715667724609,6.484262466430664,352.7109680175781,10,139232.8738666667,-0.3452301025390625,-0.91241455078125,0.22247314453125,139232.843907625,0.1726460755671118,-0.1373192437072107,-0.2268067826560533,139232.843907625,0.2981105556670534,-1.860641807927046,1.180822184691286,0.1619607210159302,-0.1251977831125259,-0.1916095763444901,0.003436734434217215,-0.07126641273498535,-0.04410791397094727,XTrueNorthZVertical,0.4278984581786484,-0.6092858164479183,-0.3677017662693465,0.5571975541918657,-0.3643071055412292,-0.9249188899993896,0.1086525917053223,-16.09683418273926,-21.60702896118164,-24.81685066223145,2,10.3.35.51,10.83.46.32,1,0
2015-02-27 20:20:05.662,41,1425097205.059693,37.78671988398487,-122.3987166049538,15.29345,0.7806582,-1,10,200,-9999,1425097205.63161,-15.56085205078125,-20.0126953125,-23.38759613037109,8.408395767211914,354.6351013183594,10,139232.9229085417,-0.443817138671875,-0.8870849609375,0.2981719970703125,139232.895686875,0.1238433822753008,-0.1996137773974722,-0.3242265469116968,139232.895686875,0.31662388512712,-1.887316183003851,1.191638266863259,0.1132606938481331,-0.1875632256269455,-0.2889136672019958,-0.08420725166797638,0.114660806953907,0.1567171514034271,XTrueNorthZVertical,0.4308592610125848,-0.6098894695052151,-0.3721430986823448,0.5512754721921744,-0.3517515957355499,-0.9289765954017639,0.115209735929966,-15.90411567687988,-22.07189559936523,-24.53035354614258,2,10.3.35.51,10.83.46.32,1,0
2015-02-27 20:20:05.678,42,1425097205.059693,37.78671988398487,-122.3987166049538,15.29345,0.7806582,-1,10,200,-9999,1425097205.63161,-15.56085205078125,-20.0126953125,-23.38759613037109,8.408395767211914,354.6351013183594,10,139232.9719420417,-0.3743743896484375,-0.8786468505859375,0.3202362060546875,139232.947466,0.2568570934481804,-0.03191718671627265,-0.03757507245214599,139232.947466,0.3466709893577516,-1.917772387836181,1.194285841160465,0.2462745159864426,-0.01986675336956978,-0.002262522932142019,-0.06005675718188286,0.05768463388085365,0.1389919817447662,XTrueNorthZVertical,0.4348966295201766,-0.6110485635613861,-0.3714335190801526,0.5472857712900606,-0.345766007900238,-0.9299533367156982,0.1250308454036713,-15.83638191223145,-22.37803268432617,-24.29568672180176,2,10.3.35.51,10.83.46.32,1,0
2015-02-27 20:20:05.759,43,1425097205.059693,37.78671988398487,-122.3987166049538,15.29345,0.7806582,-1,10,200,-9999,1425097205.688969,-15.62905883789062,-20.52250671386719,-22.95491790771484,8.350534439086914,354.5772399902344,10,139233.0210147084,-0.339508056640625,-0.9766082763671875,0.2436370849609375,139232.9992454167,0.1000064926224375,0.1100865573483875,-0.04332483724562707,139232.9992454167,0.3735738921913621,-1.940071974406262,1.189437520282964,0.0894240066409111,0.1221368834376335,-0.008012603037059307,-0.07568241655826569,-0.02842897549271584,0.1842986643314362,XTrueNorthZVertical,0.4380841755102279,-0.6125764782804106,-0.3671867820525118,0.5458994233943469,-0.347092866897583,-0.928159773349762,0.1343353688716888,-15.81892204284668,-22.64977264404297,-24.05405044555664,2,10.3.35.51,10.83.46.32,1,0
2015-02-27 20:20:05.774,44,1425097205.059693,37.78671988398487,-122.3987166049538,15.29345,0.7806582,-1,10,200,-9999,1425097205.760926,-15.62905883789062,-20.998291015625,-23.12132263183594,6.985147476196289,353.2118530273438,10,139233.070045,-0.374725341796875,-0.772735595703125,0.18841552734375,139233.0510245833,0.1128836754412977,0.2046314392072905,-0.130136431931158,139233.0510245833,0.3773117111444064,-1.932988484659244,1.193518893493414,0.1023013070225716,0.2166816294193268,-0.09482458233833313,0.01757085882127285,0.1121814250946045,0.07810336351394653,XTrueNorthZVertical,0.4412883780952688,-0.6087114229288983,-0.3660953260486007,0.548369568038342,-0.3444904088973999,-0.929671049118042,0.130530059337616,-15.6193790435791,-22.81129264831543,-24.03180885314941,2,10.3.35.51,10.83.46.32,1,0
2015-02-27 20:20:05.861,45,1425097205.059693,37.78671988398487,-122.3987166049538,15.29345,0.7806582,-1,10,200,-9999,1425097205.812544,-15.06635284423828,-21.01527404785156,-22.93826293945312,6.064645767211914,352.2913513183594,10,139233.1191012917,-0.2696380615234375,-0.5922393798828125,0.1678314208984375,139233.102803625,0.5548536341514688,0.1003351267009533,0.5677097779977173,139233.102803625,0.4108885515709359,-1.955170845844776,1.177886778481634,0.5442713499069214,0.112385205924511,0.6030212640762329,-0.08611481636762619,0.3557447791099548,0.03776414692401886,XTrueNorthZVertical,0.4446507169050223,-0.6116137595190675,-0.3560631694526125,0.5490294786561358,-0.3549404740333557,-0.9237989783287048,0.1435713022947311,-15.31523704528809,-22.97371864318848,-24.07279777526855,2,10.3.35.51,10.83.46.32,1,0
2015-02-27 20:20:05.868,46,1425097205.059693,37.78671988398487,-122.3987166049538,15.29345,0.7806582,-1,10,200,-9999,1425097205.812544,-15.06635284423828,-21.01527404785156,-22.93826293945312,6.064645767211914,352.2913513183594,10,139233.1681217084,-0.2300567626953125,-0.7067718505859375,-0.03131103515625,139233.1545829583,-0.005053348168425354,0.6041556701476697,1.833026614058421,139233.102803625,0.4108885515709359,-1.955170845844776,1.177886778481634,0.5442713499069214,0.112385205924511,0.6030212640762329,-0.08611481636762619,0.3557447791099548,0.03776414692401886,XTrueNorthZVertical,0.4446507169050223,-0.6116137595190675,-0.3560631694526125,0.5490294786561358,-0.3549404740333557,-0.9237989783287048,0.1435713022947311,-15.31523704528809,-22.97371864318848,-24.07279777526855,2,10.3.35.51,10.83.46.32,1,0
2015-02-27 20:20:05.975,47,1425097205.059693,37.78671988398487,-122.3987166049538,15.29345,0.7806582,-1,10,200,-9999,1425097205.916936,-17.40245819091797,-20.01271057128906,-22.22267913818359,359.2508239746094,345.4775390625,10,139233.2171689583,-0.207000732421875,-0.7679595947265625,-0.182891845703125,139233.2063624167,0.3352043632411125,1.645233809791483,2.338230669691433,139233.2063624167,0.3418761838305654,-1.818180758821173,1.007875691050359,0.3246223032474518,1.657283544540405,2.373541355133057,0.5636765360832214,0.1959808617830276,-0.2485199719667435,XTrueNorthZVertical,0.4099080148569691,-0.6303281587139602,-0.2838808106336967,0.5950407691860359,-0.5174118876457214,-0.8457000851631165,0.130676344037056,-17.16984558105469,-21.53303527832031,-24.15310859680176,2,10.3.35.51,10.83.46.32,1,0
2015-02-27 20:20:05.979,48,1425097205.059693,37.78671988398487,-122.3987166049538,15.29345,0.7806582,-1,10,200,-9999,1425097205.973811,-19.03943634033203,-18.10946655273438,-23.12133026123047,347.3677062988281,333.5944213867188,10,139233.2661985,-0.064453125,-0.8622283935546875,-0.2783050537109375,139233.258141375,0.2654654953557525,1.512134877463721,3.457283502891677,139233.2063624167,0.3418761838305654,-1.818180758821173,1.007875691050359,0.3246223032474518,1.657283544540405,2.373541355133057,0.5636765360832214,0.1959808617830276,-0.2485199719667435,XTrueNorthZVertical,0.4099080148569691,-0.6303281587139602,-0.2838808106336967,0.5950407691860359,-0.5174118876457214,-0.8457000851631165,0.130676344037056,-17.16984558105469,-21.53303527832031,-24.15310859680176,2,10.3.35.51,10.83.46.32,1,0
2015-02-27 20:20:06.031,49,1425097205.059693,37.78671988398487,-122.3987166049538,15.29345,0.7806582,-1,10,200,-9999,1425097205.973811,-19.03943634033203,-18.10946655273438,-23.12133026123047,347.3677062988281,333.5944213867188,10,139233.3152569583,-0.74420166015625,-0.46417236328125,0.331512451171875,139233.3099206667,1.177648768768603,-0.6461031204775078,3.344997174482884,139233.258141375,0.3229250437456185,-1.728920338111596,0.8502125089471434,0.2548835575580597,1.524184584617615,3.492594003677368,0.8310351371765137,-0.006117201410233974,-0.1940638870000839,XTrueNorthZVertical,0.3756119207074591,-0.6409879358461205,-0.214608191577198,0.6340295538706499,-0.6515917778015137,-0.7514206171035767,0.1038996949791908,-17.75117301940918,-20.1047248840332,-24.95082664489746,2,10.3.35.51,10.83.46.32,1,0
2015-02-27 20:20:06.077,50,1425097205.059693,37.78671988398487,-122.3987166049538,15.29345,0.7806582,-1,10,200,-9999,1425097206.047029,-23.08071899414062,-14.218017578125,-23.90348815917969,326.8104553222656,313.0371704101562,10,139233.3642884167,-1.013381958007812,-0.503082275390625,0.277618408203125,139233.3617,1.778727422592795,1.081365375350096,3.438531653024211,139233.3099206667,0.353529669717807,-1.749462360574121,0.6661290276419489,1.167066931724548,-0.6340535283088684,3.380307197570801,0.07195256650447845,0.2243162095546722,0.2608033716678619,XTrueNorthZVertical,0.3338921590049139,-0.6770364253107664,-0.1404189804398942,0.6406404723719415,-0.7737042903900146,-0.6179471611976624,0.1397245973348618,-19.19166946411133,-17.78130912780762,-25.63889122009277,2,10.3.35.51,10.83.46.32,1,0
2015-02-27 20:20:06.165,51,1425097206.07687,37.78669588928748,-122.3987098152368,15.29315,1.187648,-1,10,200,-9999,1425097206.0991,-26.45698547363281,-11.3631591796875,-23.50409698486328,317.4222717285156,303.6489868164062,10,139233.4133459583,-0.754241943359375,-0.446685791015625,0.0669097900390625,139233.413479125,1.377477463266045,1.027234761981473,3.478537925235491,139233.3617,0.4087616204069305,-1.765659846396996,0.4926729457496513,1.768145680427551,1.093414783477783,3.473841428756714,-0.1186355501413345,-0.05706192180514336,0.06502196937799454,XTrueNorthZVertical,0.3036777289296135,-0.7021979501744399,-0.05948160031329325,0.6412174474376099,-0.8643966913223267,-0.47298264503479,0.1706042438745499,-23.08522415161133,-15.34378242492676,-23.9476203918457,2,10.3.35.51,10.83.46.32,1,0
2015-02-27 20:20:06.168,52,1425097206.07687,37.78669588928748,-122.3987098152368,15.29315,1.187648,-1,10,200,-9999,1425097206.150609,-28.99771118164062,-7.777587890625,-23.42088317871094,298.733642578125,284.9603576660156,10,139233.4623653333,-0.9260406494140625,-0.12445068359375,0.1684417724609375,139233.413479125,1.377477463266045,1.027234761981473,3.478537925235491,139233.413479125,0.453553221945646,-1.721193878380622,0.3068612405046283,1.366895794868469,1.039284110069275,3.51384711265564,0.1882833540439606,-0.1446177959442139,-0.07592225819826126,XTrueNorthZVertical,0.2655677415244972,-0.707735685051713,0.03195571598250255,0.6538828694294365,-0.9425252676010132,-0.3020679950714111,0.1428320556879044,-24.27544403076172,-13.4842414855957,-23.88986968994141,2,10.3.35.51,10.83.46.32,1,0
2015-02-27 20:20:06.256,53,1425097206.07687,37.78669588928748,-122.3987098152368,15.29315,1.187648,-1,10,200,-9999,1425097206.207371,-31.146240234375,-3.869140625,-23.18789672851562,287.537841796875,273.7645568847656,10,139233.5114021667,-1.403457641601562,0.126953125,0.2156829833984375,139233.51703775,0.76559196805442,0.8167094809657279,2.936952425950905,139233.4652584167,0.4869546832113725,-1.713814254982971,0.11198233521155,1.263622879981995,0.2980341017246246,3.93762731552124,0.05755018070340157,-0.01270224526524544,0.0268036350607872,XTrueNorthZVertical,0.2174888172126643,-0.7235452183481755,0.1165561611175256,0.6446670401453297,-0.983590841293335,-0.1117484346032143,0.1416381299495697,-25.12483596801758,-11.03341674804688,-24.26631927490234,2,10.3.35.51,10.83.46.32,1,0
2015-02-27 20:20:06.263,54,1425097206.07687,37.78669588928748,-122.3987098152368,15.29315,1.187648,-1,10,200,-9999,1425097206.207371,-31.146240234375,-3.869140625,-23.18789672851562,287.537841796875,273.7645568847656,10,139233.560421625,-2.327545166015625,1.075546264648438,0.61474609375,139233.51703775,0.76559196805442,0.8167094809657279,2.936952425950905,139233.51703775,0.5172038576106528,-1.695124482804705,-0.07413365962436627,0.7550105452537537,0.8287585973739624,2.97226095199585,-0.4139018654823303,0.05288735032081604,0.09201548248529434,XTrueNorthZVertical,0.167870494885543,-0.7305157395102437,0.195986295150617,0.6322623058028111,-0.9895557761192322,0.07406577467918396,0.1236675009131432,-26.86535835266113,-6.815348148345947,-23.95102119445801,2,10.3.35.51,10.83.46.32,1,0
2015-02-27 20:20:06.325,55,1425097206.07687,37.78669588928748,-122.3987098152368,15.29315,1.187648,-1,10,200,-9999,1425097206.280579,-32.62974548339844,1.85760498046875,-23.23783874511719,265.1352844238281,251.3619995117188,10,139233.609467625,-1.495315551757812,0.5741119384765625,0.66265869140625,139233.5688168333,-0.8686576338210316,-1.566725418752601,-0.2304422638601205,139233.5688168333,0.5180964338347377,-1.72303575861016,-0.1491497701199148,-0.8792389631271362,-1.554676413536072,-0.1951339095830917,-1.350085020065308,0.9269488453865051,0.4647777378559113,XTrueNorthZVertical,0.1469370826885831,-0.7439043466838937,0.2210212000568258,0.61332328000206,-0.9774601459503174,0.14859738945961,0.1499683707952499,-27.11314010620117,-4.100285053253174,-24.28812789916992,2,10.3.35.51,10.83.46.32,1,0
2015-02-27 20:20:06.361,56,1425097206.07687,37.78669588928748,-122.3987098152368,15.29315,1.187648,-1,10,200,-9999,1425097206.331717,-32.83437347412109,2.67327880859375,-22.73859405517578,264.8935241699219,251.1202239990234,10,139233.6585000417,-0.93408203125,-0.0135650634765625,0.1875762939453125,139233.6205962083,0.02511414171166523,0.4869771148164013,-2.267937864299337,139233.6205962083,0.4985845304888111,-1.758896205170009,-0.06804696896277844,0.01453293673694134,0.499025970697403,-2.232630014419556,-0.4723505079746246,0.3852983713150024,0.4555452466011047,XTrueNorthZVertical,0.1689405559587035,-0.751491200017066,0.1826067382588318,0.6110440605578384,-0.9800878167152405,0.06799446791410446,0.186559870839119,-28.5362720489502,-3.256292581558228,-22.73599815368652,2,10.3.35.51,10.83.46.32,1,0
2015-02-27 20:20:06.422,57,1425097206.07687,37.78669588928748,-122.3987098152368,15.29315,1.187648,-1,10,200,-9999,1425097206.384134,-32.1864013671875,0.430145263671875,-22.33920288085938,274.1437072753906,260.3704223632812,10,139233.7075510834,-0.9991912841796875,-0.1550140380859375,0.1833343505859375,139233.6723755417,-1.063795969006626,0.5978698110267557,-2.408229195783076,139233.6723755417,0.4934787689469722,-1.723665615945233,0.05621388397018133,-1.074377059936523,0.6099185347557068,-2.372921705245972,0.05495333299040794,-0.02140665985643864,-0.01735998131334782,XTrueNorthZVertical,0.2030589847845023,-0.7312893238647642,0.1382658630821307,0.636290440409978,-0.9867770671844482,-0.05618428438901901,0.1520340591669083,-27.77050018310547,-6.314559936523438,-23.03852462768555,2,10.3.35.51,10.83.46.32,1,0
2015-02-27 20:20:06.459,58,1425097206.07687,37.78669588928748,-122.3987098152368,15.29315,1.187648,-1,10,200,-9999,1425097206.437849,-31.33380889892578,-2.628631591796875,-22.90502166748047,285.7945861816406,272.0213012695312,10,139233.7565785417,-1.039535522460938,-0.210113525390625,0.27972412109375,139233.7241546667,-1.13414576604605,-0.1561805494954789,-2.505271856428364,139233.7241546667,0.4487122124693013,-1.709008301230313,0.184407702457896,-1.144727230072021,-0.1441318094730377,-2.46996545791626,0.07117429375648499,0.01223699096590281,0.05032406374812126,XTrueNorthZVertical,0.2260301984981406,-0.7187687852815139,0.07775197359584295,0.6528678374870728,-0.9736706614494324,-0.1833643168210983,0.1354364305734634,-26.35717010498047,-8.146931648254395,-24.09926986694336,2,10.3.35.51,10.83.46.32,1,0
2015-02-27 20:20:06.525,59,1425097206.07687,37.78669588928748,-122.3987098152368,15.29315,1.187648,-1,10,200,-9999,1425097206.490168,-30.08901977539062,-5.772369384765625,-23.15464782714844,293.5985107421875,279.8252258300781,10,139233.805624125,-1.065155029296875,-0.526123046875,0.259246826171875,139233.7759339167,-0.9603960765232091,-0.4791926949500996,-2.79222267019444,139233.7759339167,0.4172947762372351,-1.721255385765273,0.3201275094094647,-0.9709758162498474,-0.467144787311554,-2.756916284561157,-0.141820102930069,0.02007089555263519,0.1388663798570633,XTrueNorthZVertical,0.2567109734546754,-0.7108008701530749,0.01508894661007874,0.654701399677021,-0.9384716749191284,-0.314687579870224,0.1422768086194992,-25.46726417541504,-9.72695255279541,-24.46738052368164,2,10.3.35.51,10.83.46.32,1,0
2015-02-27 20:20:06.565,60,1425097206.07687,37.78669588928748,-122.3987098152368,15.29315,1.187648,-1,10,200,-9999,1425097206.490168,-30.08901977539062,-5.772369384765625,-23.15464782714844,293.5985107421875,279.8252258300781,10,139233.8546415,-0.836456298828125,-0.8916015625,0.1617584228515625,139233.8277132917,-1.26450430561212,0.0192954010459511,-3.042787779251199,139233.8277132917,0.3811111958473517,-1.716490379521191,0.4705159899908662,-1.275084018707275,0.03134318813681602,-3.007481813430786,-0.1883145570755005,-0.1956405490636826,0.1651372164487839,XTrueNorthZVertical,0.2890043526983162,-0.6936700093281866,-0.05277329773329713,0.6576574954166351,-0.881891131401062,-0.4533462524414062,0.1294031888246536,-24.25871467590332,-12.32778930664062,-24.52321815490723,2,10.3.35.51,10.83.46.32,1,0
2015-02-27 20:20:06.625,61,1425097206.07687,37.78669588928748,-122.3987098152368,15.29315,1.187648,-1,10,200,-9999,1425097206.617298,-24.63243865966797,-12.22982788085938,-23.98672485351562,326.9549255371094,313.181640625,10,139233.9036940833,-0.4380645751953125,-0.69390869140625,-0.10943603515625,139233.8794925833,-1.608726132304241,-0.1622549536258406,-3.413111780419405,139233.8794925833,0.3179961391668542,-1.679102940703592,0.6394674597783401,-1.61920166015625,-0.1502742618322372,-3.377692699432373,0.1488777548074722,-0.4058257937431335,-0.07893966138362885,XTrueNorthZVertical,0.3191285547035964,-0.6644737886253755,-0.1306334206822143,0.6629980838243538,-0.797711968421936,-0.5967682003974915,0.08673690259456635,-22.43175888061523,-14.07724761962891,-25.30800628662109,2,10.3.35.51,10.83.46.32,1,0
2015-02-27 20:20:06.660,62,1425097206.07687,37.78669588928748,-122.3987098152368,15.29315,1.187648,-1,10,200,-9999,1425097206.617298,-24.63243865966797,-12.22982788085938,-23.98672485351562,326.9549255371094,313.181640625,10,139233.9527299167,-0.3426513671875,0.2033538818359375,0.2245635986328125,139233.93127175,-1.194967837969606,-1.332988824624053,-3.320692633742603,139233.93127175,0.2379653569523706,-1.666410190386092,0.8178468292153978,-1.205444574356079,-1.32100784778595,-3.285276174545288,0.4111241400241852,0.5506895780563354,-0.07373397052288055,XTrueNorthZVertical,0.3461199271827686,-0.6425272745629174,-0.2189493875994297,0.6476271018656077,-0.6806706786155701,-0.7296751737594604,0.06528060138225555,-20.31216239929199,-15.43284225463867,-26.28861427307129,2,10.3.35.51,10.83.46.32,1,0
2015-02-27 20:20:06.727,63,1425097206.07687,37.78669588928748,-122.3987098152368,15.29315,1.187648,-1,10,200,-9999,1425097206.675522,-21.59721374511719,-14.67684936523438,-24.18642425537109,337.0501403808594,323.27685546875,10,139234.0017709167,-0.5891265869140625,0.067474365234375,0.0733795166015625,139233.9830510833,0.4272181768000042,-0.8211060936093397,-0.5023491469444477,139233.9830510833,0.2300397540454301,-1.727576674456184,0.9181328472471222,0.4167415201663971,-0.8091252446174622,-0.4669331312179565,-0.008923819288611412,0.9881946444511414,0.05559729412198067,XTrueNorthZVertical,0.3641502287565543,-0.6440547607906099,-0.2678456985814968,0.6171278293045587,-0.5998560786247253,-0.7944690585136414,0.09482384473085403,-19.1689338684082,-17.23512649536133,-26.02595138549805,2,10.3.35.51,10.83.46.32,1,0
2015-02-27 20:20:06.763,64,1425097206.07687,37.78669588928748,-122.3987098152368,15.29315,1.187648,-1,10,200,-9999,1425097206.747057,-20.16486358642578,-15.934326171875,-23.68717956542969,343.7437438964844,329.970458984375,10,139234.0508059583,0.5547943115234375,0.0619354248046875,-0.3300628662109375,139234.0348302917,0.5687502750356113,1.397282859660746,2.178937683829979,139233.9830510833,0.2300397540454301,-1.727576674456184,0.9181328472471222,0.4167415201663971,-0.8091252446174622,-0.4669331312179565,-0.008923819288611412,0.9881946444511414,0.05559729412198067,XTrueNorthZVertical,0.3641502287565543,-0.6440547607906099,-0.2678456985814968,0.6171278293045587,-0.5998560786247253,-0.7944690585136414,0.09482384473085403,-19.1689338684082,-17.23512649536133,-26.02595138549805,2,10.3.35.51,10.83.46.32,1,0
2015-02-27 20:20:06.821,65,1425097206.07687,37.78669588928748,-122.3987098152368,15.29315,1.187648,-1,10,200,-9999,1425097206.798304,-21.69953155517578,-15.22061157226562,-23.28777313232422,336.0323181152344,322.259033203125,10,139234.09986025,0.1002197265625,-0.3899993896484375,-0.574005126953125,139234.0866098333,1.17014131765567,-0.5990325471586843,1.565275327539053,139234.0866098333,0.2929632960181139,-1.719714108218372,0.7348471655043153,1.159664869308472,-0.5870519280433655,1.600690603256226,1.516741752624512,0.9281489253044128,-0.6032889485359192,XTrueNorthZVertical,0.3351100787496742,-0.6653877082047031,-0.1803902700373395,0.642199177294399,-0.7337216734886169,-0.6704737544059753,0.1100791320204735,-19.98011016845703,-16.88006019592285,-25.64579200744629,2,10.3.35.51,10.83.46.32,1,0
2015-02-27 20:20:06.861,66,1425097206.07687,37.78669588928748,-122.3987098152368,15.29315,1.187648,-1,10,200,-9999,1425097206.798304,-21.69953155517578,-15.22061157226562,-23.28777313232422,336.0323181152344,322.259033203125,10,139234.148896,-1.268646240234375,-0.38873291015625,0.4604034423828125,139234.1383890417,2.125436908059159,-1.377267606172146,5.504818421692165,139234.0866098333,0.2929632960181139,-1.719714108218372,0.7348471655043153,1.159664869308472,-0.5870519280433655,1.600690603256226,1.516741752624512,0.9281489253044128,-0.6032889485359192,XTrueNorthZVertical,0.3351100787496742,-0.6653877082047031,-0.1803902700373395,0.642199177294399,-0.7337216734886169,-0.6704737544059753,0.1100791320204735,-19.98011016845703,-16.88006019592285,-25.64579200744629,2,10.3.35.51,10.83.46.32,1,0
2015-02-27 20:20:06.912,67,1425097206.07687,37.78669588928748,-122.3987098152368,15.29315,1.187648,-1,10,200,-9999,1425097206.906472,-27.66767120361328,-10.70040893554688,-21.72347259521484,311.8003540039062,298.0270690917969,10,139234.197943625,-0.94384765625,-0.6033477783203125,0.1888427734375,139234.1901682917,1.608676863824075,1.956836174187878,3.262611220896847,139234.1383890417,0.3894832501549975,-1.822937239456813,0.5678088638744994,2.114960432052612,-1.365287065505981,5.540233612060547,-1.036298632621765,-0.8794198036193848,0.001843423116952181,XTrueNorthZVertical,0.3151760938812899,-0.7112165979819248,-0.1034140745081384,0.6197906983374641,-0.8164235949516296,-0.5377860069274902,0.2103300392627716,-22.13575744628906,-16.26497268676758,-24.23441123962402,2,10.3.35.51,10.83.46.32,1,0
2015-02-27 20:20:06.963,68,1425097206.07687,37.78669588928748,-122.3987098152368,15.29315,1.187648,-1,10,200,-9999,1425097206.906472,-27.66767120361328,-10.70040893554688,-21.72347259521484,311.8003540039062,298.0270690917969,10,139234.246969875,-1.175506591796875,-0.1674957275390625,0.088653564453125,139234.2419475417,1.28345642519356,0.549888702931234,3.602069451347143,139234.1901682917,0.4005171592610796,-1.753889744034735,0.3597854634334988,1.598202705383301,1.968815445899963,3.298026561737061,-0.01949157379567623,-0.1318285316228867,-0.1189008355140686,XTrueNorthZVertical,0.2625974455170763,-0.7185052774125329,-0.009646929510377033,0.6439718042278983,-0.9203277826309204,-0.3520734310150146,0.1704145073890686,-25.65181922912598,-13.44658660888672,-22.42813873291016,2,10.3.35.51,10.83.46.32,1,0
2015-02-27 20:20:07.027,69,1425097206.07687,37.78669588928748,-122.3987098152368,15.29315,1.187648,-1,10,200,-9999,1425097206.980675,-30.78816223144531,-4.565826416015625,-22.83846282958984,287.5275573730469,273.7542724609375,10,139234.2960284583,-1.72174072265625,-0.281494140625,0.0846710205078125,139234.2937270417,0.7384889776406836,0.5863244750690442,2.492675903420617,139234.2937270417,0.478510858122466,-1.693688371266189,0.001492666254394836,0.7280148863792419,0.598303496837616,2.528090000152588,-0.5508320331573486,-0.3608730435371399,0.176703080534935,XTrueNorthZVertical,0.1780236684860918,-0.7277355150504984,0.1564201746322078,0.6436158190351118,-0.9924571514129639,-0.001492665731348097,0.1225828155875206,-26.4357795715332,-7.093583583831787,-24.34498977661133,2,10.3.35.51,10.83.46.32,1,0
2015-02-27 20:20:07.064,70,1425097206.07687,37.78669588928748,-122.3987098152368,15.29315,1.187648,-1,10,200,-9999,1425097207.032601,-32.04999542236328,-0.7933349609375,-23.93681335449219,275.9578552246094,262.1845703125,10,139234.3450602083,-2.202880859375,0.4982452392578125,0.123382568359375,139234.2937270417,0.7384889776406836,0.5863244750690442,2.492675903420617,139234.2937270417,0.478510858122466,-1.693688371266189,0.001492666254394836,0.7280148863792419,0.598303496837616,2.528090000152588,-0.5508320331573486,-0.3608730435371399,0.176703080534935,XTrueNorthZVertical,0.1780236684860918,-0.7277355150504984,0.1564201746322078,0.6436158190351118,-0.9924571514129639,-0.001492665731348097,0.1225828155875206,-26.4357795715332,-7.093583583831787,-24.34498977661133,2,10.3.35.51,10.83.46.32,1,0
2015-02-27 20:20:07.107,71,1425097207.077186,37.78666741840544,-122.3987009055088,15.28823,1.401076,-1,10,200,-9999,1425097207.085269,-32.56155395507812,1.585723876953125,-23.60397338867188,267.3121948242188,253.5388946533203,10,139234.3941014167,-1.842514038085938,0.505859375,0.529632568359375,139234.3972855417,-0.5009073115302787,0.2038657803938927,-1.693500941388079,139234.3455060417,0.478502402830395,-1.683374505127926,-0.09131203723528571,-0.2264238595962524,-0.5511184930801392,0.7545850872993469,-1.213350772857666,0.4070600271224976,0.01151005551218987,XTrueNorthZVertical,0.1470047960714486,-0.7309759548113475,0.1907771387735609,0.6384887052190298,-0.989530086517334,0.09118519723415375,0.1118725165724754,-26.62532615661621,-4.771637916564941,-24.70164680480957,2,10.3.35.51,10.83.46.32,1,0
2015-02-27 20:20:07.156,72,1425097207.077186,37.78666741840544,-122.3987009055088,15.28823,1.401076,-1,10,200,-9999,1425097207.137173,-32.52745056152344,1.7216796875,-23.47084808349609,269.5908813476562,255.8175964355469,10,139234.4431237083,-1.158050537109375,0.046051025390625,0.2461090087890625,139234.3972855417,-0.5009073115302787,0.2038657803938927,-1.693500941388079,139234.3972855417,0.45670692005103,-1.713269936112279,-0.05551483576072479,-0.5113811492919922,0.2158445864915848,-1.658087372779846,-0.8541712164878845,0.4503730535507202,0.3878592252731323,XTrueNorthZVertical,0.1532855895095664,-0.7398582305154239,0.168641815795859,0.632987570733925,-0.988342821598053,0.05548632517457008,0.1417733430862427,-27.13587188720703,-3.389160633087158,-24.37223434448242,2,10.3.35.51,10.83.46.32,1,0
2015-02-27 20:20:07.211,73,1425097207.077186,37.78666741840544,-122.3987009055088,15.28823,1.401076,-1,10,200,-9999,1425097207.191123,-31.14624786376953,-0.60638427734375,-23.58734893798828,280.7968139648438,267.0235290527344,10,139234.4921682084,-0.9271392822265625,0.019683837890625,0.1382293701171875,139234.4490647917,-0.9958363590455476,0.8929262218865966,-2.796217944461777,139234.4490647917,0.4373452116122653,-1.675956365752585,0.06908611249718356,-1.006310105323792,0.9049049019813538,-2.760804653167725,-0.1659470796585083,0.1150821968913078,0.1413930803537369,XTrueNorthZVertical,0.1837025493044339,-0.7201467471972498,0.1199759679067984,0.6582156204135307,-0.9921034574508667,-0.06903117150068283,0.1047159284353256,-26.76291656494141,-5.031551361083984,-24.50056457519531,2,10.3.35.51,10.83.46.32,1,0
2015-02-27 20:20:07.263,74,1425097207.077186,37.78666741840544,-122.3987009055088,15.28823,1.401076,-1,10,200,-9999,1425097207.191123,-31.14624786376953,-0.60638427734375,-23.58734893798828,280.7968139648438,267.0235290527344,10,139234.5411879167,-1.029190063476562,-0.338134765625,0.22918701171875,139234.500844125,-0.7525443429257948,0.06139065681628858,-2.915108646057857,139234.500844125,0.4023133281658149,-1.646079852714236,0.2141956080786813,-0.763018012046814,0.07336923480033875,-2.879695892333984,0.04724067449569702,0.2322453260421753,0.06473571807146072,XTrueNorthZVertical,0.2168805508586939,-0.6997925795693174,0.058291084843669,0.6781263316064111,-0.9743799567222595,-0.2125614881515503,0.07349365204572678,-25.07791519165039,-7.144040107727051,-25.72758865356445,2,10.3.35.51,10.83.46.32,1,0
2015-02-27 20:20:07.301,75,1425097207.077186,37.78666741840544,-122.3987009055088,15.28823,1.401076,-1,10,200,-9999,1425097207.265223,-28.34974670410156,-5.874298095703125,-24.35286712646484,293.3462524414062,279.5729675292969,10,139234.590325625,-0.832916259765625,-0.626251220703125,0.0835723876953125,139234.5526233334,-0.7171842215522677,-0.1195690087257236,-3.14301345003135,139234.5526233334,0.3786090730255979,-1.646647531970923,0.3669023250665574,-0.7276577949523926,-0.107590563595295,-3.107600927352905,-0.08677326142787933,-0.0660485178232193,0.132908895611763,XTrueNorthZVertical,0.2574882159653127,-0.6848848601521457,-0.005628165268511242,0.6816163662063556,-0.930759072303772,-0.3587256669998169,0.070734903216362,-23.77478408813477,-9.324604988098145,-26.2613639831543,2,10.3.35.51,10.83.46.32,1,0
2015-02-27 20:20:07.360,76,1425097207.077186,37.78666741840544,-122.3987009055088,15.28823,1.401076,-1,10,200,-9999,1425097207.316674,-26.45700073242188,-8.746185302734375,-24.90204620361328,306.3388061523438,292.5655212402344,10,139234.6392585833,-0.6215667724609375,-0.9196624755859375,-0.049835205078125,139234.6044028334,-0.9148219334209011,0.05883215795704946,-3.207099758503017,139234.6044028334,0.3440620981765767,-1.628849493620607,0.5261493337917984,-0.925295352935791,0.07081048190593719,-3.171687602996826,0.06353163719177246,-0.1825767159461975,0.05486837774515152,XTrueNorthZVertical,0.2960585724355579,-0.6613893596408777,-0.07291173505993599,0.6852717092388018,-0.863290548324585,-0.5022072196006775,0.05017312616109848,-21.91505432128906,-12.42011451721191,-26.59546852111816,2,10.3.35.51,10.83.46.32,1,0
2015-02-27 20:20:07.398,77,1425097207.077186,37.78666741840544,-122.3987009055088,15.28823,1.401076,-1,10,200,-9999,1425097207.372875,-23.89923095703125,-11.63504028320312,-25.50112915039062,319.6492919921875,305.8760070800781,10,139234.6883006667,-0.191070556640625,-0.5739288330078125,-0.1804962158203125,139234.656181875,-1.183000390979117,-0.4707169184648134,-3.215267939882399,139234.656181875,0.2875052050195609,-1.603420048578278,0.6878138927495068,-1.193474411964417,-0.4587386250495911,-3.179858446121216,0.2740251123905182,-0.3398970663547516,-0.1516208499670029,XTrueNorthZVertical,0.328984413268057,-0.6359010509179377,-0.1459729210526405,0.6827085875677589,-0.7722246050834656,-0.6348496079444885,0.02520178072154522,-19.95472717285156,-14.26900100708008,-27.20390129089355,2,10.3.35.51,10.83.46.32,1,0
2015-02-27 20:20:07.463,78,1425097207.077186,37.78666741840544,-122.3987009055088,15.28823,1.401076,-1,10,200,-9999,1425097207.445918,-20.26718902587891,-15.32257080078125,-25.98373413085938,334.3708190917969,320.5975341796875,10,139234.737314875,-0.38531494140625,0.2895355224609375,0.1470947265625,139234.7079612083,-0.9333921557020236,-1.462183030161541,-2.636572888704214,139234.7079612083,0.2093169075153255,-1.602618311069193,0.8405045219036976,-0.9438690543174744,-1.450203776359558,-2.601169586181641,0.5997021794319153,0.7094268202781677,-0.08044381439685822,XTrueNorthZVertical,0.3508197499007631,-0.6225252835426535,-0.2250826594208034,0.6623636243099658,-0.6667492985725403,-0.7449797987937927,0.02122445032000542,-18.25705337524414,-15.56687355041504,-27.68032264709473,2,10.3.35.51,10.83.46.32,1,0
2015-02-27 20:20:07.497,79,1425097207.077186,37.78666741840544,-122.3987009055088,15.28823,1.401076,-1,10,200,-9999,1425097207.445918,-20.26718902587891,-15.32257080078125,-25.98373413085938,334.3708190917969,320.5975341796875,10,139234.786343,-0.1327972412109375,0.21942138671875,0.0367889404296875,139234.7597406667,0.6319007487002242,-0.6552241808949202,0.4863422172125264,139234.7597406667,0.2089104429557674,-1.665339889782631,0.8926356440246981,0.6214239597320557,-0.6432450413703918,0.5217451453208923,0.05162300169467926,1.067302227020264,0.0630592405796051,XTrueNorthZVertical,0.3584464788774777,-0.6333470365947406,-0.2542743808088896,0.6369711078475405,-0.6245599985122681,-0.7787279486656189,0.0592246949672699,-18.08119773864746,-16.78150939941406,-27.07949638366699,2,10.3.35.51,10.83.46.32,1,0
2015-02-27 20:20:07.559,80,1425097207.077186,37.78666741840544,-122.3987009055088,15.28823,1.401076,-1,10,200,-9999,1425097207.497467,-19.99435424804688,-16.1722412109375,-25.21823120117188,342.3056945800781,328.5324096679688,10,139234.83535775,0.4580230712890625,0.120635986328125,-0.3046417236328125,139234.8115197917,1.217847054894477,0.752382156415409,2.771408468378817,139234.8115197917,0.2688510452561378,-1.694268454320194,0.7853098690273574,1.207370281219482,0.7643612027168274,2.806811094284058,1.16243314743042,0.7323129177093506,-0.1977659910917282,XTrueNorthZVertical,0.3438649304559283,-0.6521532854459766,-0.2021737409762688,0.6446540004494562,-0.7017855048179626,-0.7070443630218506,0.08709399402141571,-19.21772384643555,-17.05184745788574,-26.11056137084961,2,10.3.35.51,10.83.46.32,1,0
2015-02-27 20:20:07.595,81,1425097207.077186,37.78666741840544,-122.3987009055088,15.28823,1.401076,-1,10,200,-9999,1425097207.549921,-21.56311798095703,-15.22061157226562,-24.21973419189453,331.90625,318.1329650878906,10,139234.8844047083,-1.104339599609375,-0.7447357177734375,0.2385101318359375,139234.86329925,2.20799090710998,-0.3054392770017328,2.60918467373773,139234.86329925,0.3382249565070806,-1.744869093942844,0.640100461089868,2.197514295578003,-0.293460339307785,2.64458703994751,0.6234263777732849,0.3764050602912903,-0.3663560748100281,XTrueNorthZVertical,0.3217601502438774,-0.6825867667686915,-0.1348040816844054,0.6421631965939772,-0.7899150252342224,-0.5972760319709778,0.1389085799455643,-20.48944282531738,-16.12078094482422,-25.73229598999023,2,10.3.35.51,10.83.46.32,1,0
2015-02-27 20:20:07.662,82,1425097207.077186,37.78666741840544,-122.3987009055088,15.28823,1.401076,-1,10,200,-9999,1425097207.606424,-24.49603271484375,-13.18142700195312,-22.72199249267578,324.0498657226562,310.2765808105469,10,139234.9334202917,-1.452880859375,-0.6586151123046875,0.422821044921875,139234.915078625,1.838919390602439,1.130911356902149,3.960706702703753,139234.915078625,0.4138335813748052,-1.787466414778431,0.4099370831969915,1.82854163646698,1.14282751083374,3.996217012405396,-0.3664899170398712,0.1414715498685837,0.556190013885498,XTrueNorthZVertical,0.2815708859649253,-0.7206256194142762,-0.02923815056454001,0.6328994259150128,-0.8957018852233887,-0.3985516130924225,0.1971668899059296,-24.0576229095459,-14.74170970916748,-23.36152076721191,2,10.3.35.51,10.83.46.32,1,0
2015-02-27 20:20:07.692,83,1425097207.077186,37.78666741840544,-122.3987009055088,15.28823,1.401076,-1,10,200,-9999,1425097207.679641,-28.96360778808594,-8.15142822265625,-22.12289428710938,296.0946960449219,282.3214111328125,10,139234.9824610833,-0.9780120849609375,-0.3543853759765625,0.099395751953125,139234.966858,1.487719815538202,1.680971034775366,3.53645209156479,139234.966858,0.459828020362141,-1.718634907425371,0.2210433070162928,1.477342128753662,1.69288694858551,3.571961402893066,-0.001068560872226954,-0.2372952997684479,0.09859286993741989,XTrueNorthZVertical,0.2416766606163239,-0.7165547720767076,0.06655616702653644,0.6509315838929962,-0.9650264382362366,-0.2192476689815521,0.1437166929244995,-25.56436920166016,-11.9169979095459,-23.37297630310059,2,10.3.35.51,10.83.46.32,1,0
2015-02-27 20:20:07.760,84,1425097207.077186,37.78666741840544,-122.3987009055088,15.28823,1.401076,-1,10,200,-9999,1425097207.731756,-30.56648254394531,-4.2769775390625,-23.02155303955078,283.3404541015625,269.5671691894531,10,139235.0314934167,-1.730072021484375,-0.138946533203125,0.1038055419921875,139235.01863725,1.390587672680287,0.2486345835825607,3.043136120721782,139234.966858,0.459828020362141,-1.718634907425371,0.2210433070162928,1.477342128753662,1.69288694858551,3.571961402893066,-0.001068560872226954,-0.2372952997684479,0.09859286993741989,XTrueNorthZVertical,0.2416766606163239,-0.7165547720767076,0.06655616702653644,0.6509315838929962,-0.9650264382362366,-0.2192476689815521,0.1437166929244995,-25.56436920166016,-11.9169979095459,-23.37297630310059,2,10.3.35.51,10.83.46.32,1,0
2015-02-27 20:20:07.790,85,1425097207.077186,37.78666741840544,-122.3987009055088,15.28823,1.401076,-1,10,200,-9999,1425097207.783099,-31.45318603515625,-0.98028564453125,-23.45423126220703,268.4076232910156,254.6343383789062,10,139235.0805377917,-2.362503051757812,0.3597259521484375,0.17120361328125,139235.070416625,-0.01288224282493129,0.06683229387164749,1.713275977746354,139235.070416625,0.5273842032909802,-1.675950575463791,-0.0846429853636813,-0.02326045371592045,0.07874827831983566,1.748782992362976,-1.108739018440247,-0.09896150976419449,-0.09785567224025726,XTrueNorthZVertical,0.1662377355048585,-0.7243323926788662,0.2045692820428389,0.6370706467936443,-0.9909160733222961,0.08454195410013199,0.1045847982168198,-26.48155212402344,-6.322972297668457,-24.50704383850098,2,10.3.35.51,10.83.46.32,1,0
2015-02-27 20:20:07.858,86,1425097207.077186,37.78666741840544,-122.3987009055088,15.28823,1.401076,-1,10,200,-9999,1425097207.835468,-31.76011657714844,0.922943115234375,-23.98676300048828,264.1112060546875,250.3379211425781,10,139235.1295531667,-1.70111083984375,0.5100555419921875,0.3928680419921875,139235.1221958333,-0.4596389672784109,-0.05991286872740361,-1.116899933775024,139235.070416625,0.5273842032909802,-1.675950575463791,-0.0846429853636813,-0.02326045371592045,0.07874827831983566,1.748782992362976,-1.108739018440247,-0.09896150976419449,-0.09785567224025726,XTrueNorthZVertical,0.1662377355048585,-0.7243323926788662,0.2045692820428389,0.6370706467936443,-0.9909160733222961,0.08454195410013199,0.1045847982168198,-26.48155212402344,-6.322972297668457,-24.50704383850098,2,10.3.35.51,10.83.46.32,1,0
2015-02-27 20:20:07.892,87,1425097207.077186,37.78666741840544,-122.3987009055088,15.28823,1.401076,-1,10,200,-9999,1425097207.835468,-31.76011657714844,0.922943115234375,-23.98676300048828,264.1112060546875,250.3379211425781,10,139235.17861025,-1.377304077148438,-0.0285491943359375,0.181915283203125,139235.1739752083,-0.4675051461901779,0.4683661461706005,-2.670243234366086,139235.1221958333,0.5002692922351645,-1.686616552173742,-0.09063269473888991,-0.4700170457363129,-0.04799701645970345,-1.081393241882324,-0.8579902648925781,0.4977481663227081,0.3126319646835327,XTrueNorthZVertical,0.1554932448595194,-0.7303187168380356,0.1972202287962881,0.6352642001119785,-0.9892234802246094,0.09050866216421127,0.1150871515274048,-26.79731559753418,-4.334576606750488,-24.59599685668945,2,10.3.35.51,10.83.46.32,1,0
2015-02-27 20:20:07.960,88,1425097207.077186,37.78666741840544,-122.3987009055088,15.28823,1.401076,-1,10,200,-9999,1425097207.890655,-31.31675720214844,0.48114013671875,-23.85362243652344,267.2239990234375,253.4506988525391,10,139235.2276172917,-0.91943359375,-0.07965087890625,0.2157745361328125,139235.2257546667,-1.020344897925329,0.2668351591043803,-2.96507327653327,139235.1739752083,0.498148153742159,-1.670534501347792,0.01302122476288754,-0.4778831601142883,0.4802818894386292,-2.634736776351929,-0.4843936860561371,0.07831321656703949,0.1108542457222939,XTrueNorthZVertical,0.1870085551616125,-0.7175026324403415,0.1607189997197219,0.6514500562728562,-0.9949459433555603,-0.01302085723727942,0.09956445544958115,-26.75944137573242,-4.71621036529541,-24.5669994354248,2,10.3.35.51,10.83.46.32,1,0
2015-02-27 20:20:07.990,89,1425097207.077186,37.78666741840544,-122.3987009055088,15.28823,1.401076,-1,10,200,-9999,1425097207.964576,-29.21938323974609,-3.546295166015625,-24.20309448242188,282.2777099609375,268.5044250488281,10,139235.2766618333,-0.9259490966796875,-0.18756103515625,0.17193603515625,139235.277534,-0.7692471566505538,-0.2320763795049931,-3.048339138543469,139235.2257546667,0.4648030966553418,-1.647675242468682,0.15981757917028,-1.030722737312317,0.2787507772445679,-2.929567337036133,0.04719119518995285,0.05942192673683167,0.09673719108104706,XTrueNorthZVertical,0.2212315574639865,-0.6992630580931968,0.09898243249951238,0.6725252795069924,-0.9843402504920959,-0.1591381132602692,0.07582445442676544,-25.16476631164551,-7.924900054931641,-25.41217041015625,2,10.3.35.51,10.83.46.32,1,0
2015-02-27 20:20:08.026,90,1425097207.077186,37.78666741840544,-122.3987009055088,15.28823,1.401076,-1,10,200,-9999,1425097208.016242,-27.17316436767578,-6.97894287109375,-24.56920623779297,295.9264221191406,282.1531372070312,10,139235.325687375,-0.9151611328125,-0.5254058837890625,0.2691650390625,139235.277534,-0.7692471566505538,-0.2320763795049931,-3.048339138543469,139235.277534,0.4314776022164388,-1.641998713768059,0.3124976234231129,-0.7796249389648438,-0.2201608866453171,-3.0128333568573,0.02320847846567631,0.1198752149939537,0.1042393073439598,XTrueNorthZVertical,0.2583440981356513,-0.6834520393208269,0.03286637756440307,0.6819614637820406,-0.9491575956344604,-0.3074362576007843,0.06769672781229019,-23.69620513916016,-9.98829460144043,-26.08777046203613,2,10.3.35.51,10.83.46.32,1,0
2015-02-27 20:20:08.084,91,1425097208.065371,37.78664131466346,-122.3986867881057,15.29059,1.391416,-1,10,200,-9999,1425097208.080546,-24.59834289550781,-10.15667724609375,-24.71898651123047,304.2045593261719,290.4312744140625,10,139235.3747185,-0.6007080078125,-0.730438232421875,0.082061767578125,139235.3810926667,-0.8679508308677245,-0.1595750146208939,-3.058555024485014,139235.32931325,0.4044307670375315,-1.648429723927636,0.4703147540327224,-0.7979553937911987,-0.2471814602613449,-3.135663270950317,-0.02642037346959114,-0.07223899662494659,0.2000301331281662,XTrueNorthZVertical,0.2983734602456015,-0.667488377161352,-0.03489454385196698,0.6813331896628871,-0.8887407779693604,-0.4531669020652771,0.0691349133849144,-22.42279434204102,-12.19518280029297,-26.27439308166504,2,10.3.35.51,10.83.46.32,1,0
2015-02-27 20:20:08.127,92,1425097208.065371,37.78664131466346,-122.3986867881057,15.29059,1.391416,-1,10,200,-9999,1425097208.080546,-24.59834289550781,-10.15667724609375,-24.71898651123047,304.2045593261719,290.4312744140625,10,139235.423735125,-0.3651275634765625,-0.8817901611328125,-0.1045684814453125,139235.3810926667,-0.8679508308677245,-0.1595750146208939,-3.058555024485014,139235.3810926667,0.3650363985366418,-1.632598289388193,0.6273048965453893,-0.8783281445503235,-0.1476600468158722,-3.02305006980896,0.207358717918396,-0.1434733271598816,0.0320579782128334,XTrueNorthZVertical,0.333608919158543,-0.6432005777288313,-0.1028166765567989,0.6814886916451732,-0.808066725730896,-0.5869649052619934,0.0500037893652916,-20.25130462646484,-14.95972442626953,-26.60712432861328,2,10.3.35.51,10.83.46.32,1,0
2015-02-27 20:20:08.183,93,1425097208.065371,37.78664131466346,-122.3986867881057,15.29059,1.391416,-1,10,200,-9999,1425097208.14617,-20.67642211914062,-14.54092407226562,-25.61763763427734,321.4601135253906,307.6868286132812,10,139235.4728774583,-0.3069000244140625,-0.12109375,-0.0325469970703125,139235.432871875,-0.9071179410195199,-1.180975056970112,-3.046154813817386,139235.432871875,0.3186002716223353,-1.635520628200682,0.7809441738444365,-0.9174951910972595,-1.169060230255127,-3.010650396347046,0.3436344563961029,-0.1778398305177689,-0.150506779551506,XTrueNorthZVertical,0.3640227966005832,-0.6248652256837969,-0.1738807639174462,0.6684282558188148,-0.7087620496749878,-0.7039503455162048,0.04593829438090324,-18.32939147949219,-16.51655387878418,-27.07553863525391,2,10.3.35.51,10.83.46.32,1,0
2015-02-27 20:20:08.244,94,1425097208.065371,37.78664131466346,-122.3986867881057,15.29059,1.391416,-1,10,200,-9999,1425097208.197856,-18.59609985351562,-16.8179931640625,-25.35137176513672,331.4441833496094,317.6708984375,10,139235.5218093334,-0.400238037109375,-0.0137481689453125,0.09051513671875,139235.4846514583,-0.2650513738062452,-1.230250461355412,-1.943951268201856,139235.4846514583,0.2814830346153781,-1.677538590308284,0.9136840547440259,-0.2754285037517548,-1.218335747718811,-1.908447265625,0.1941026449203491,0.7854117751121521,0.008316823281347752,XTrueNorthZVertical,0.3855585084403425,-0.6195834186615,-0.2407237768301996,0.6399320957014583,-0.6073564291000366,-0.7917594313621521,0.06507795304059982,-17.12624931335449,-18.19454193115234,-26.78615188598633,2,10.3.35.51,10.83.46.32,1,0
2015-02-27 20:20:08.290,95,1425097208.065371,37.78664131466346,-122.3986867881057,15.29059,1.391416,-1,10,200,-9999,1425097208.249604,-17.96517944335938,-17.58265686035156,-24.80220794677734,342.197998046875,328.4247131347656,10,139235.5708697083,0.324371337890625,0.12384033203125,-0.113983154296875,139235.5364307083,0.5345459655751785,0.2836266560934388,1.339857383391476,139235.5364307083,0.3081945369440627,-1.71545480510971,0.9165108707582649,0.5241689085960388,0.2955412566661835,1.37536096572876,0.3931598663330078,0.7824356555938721,-0.06736084073781967,XTrueNorthZVertical,0.3900743145599118,-0.6258655543617739,-0.2405897079822103,0.6310712553653103,-0.6022357940673828,-0.7934830188751221,0.08773132413625717,-17.03586769104004,-19.22712326049805,-26.11407089233398,2,10.3.35.51,10.83.46.32,1,0
2015-02-27 20:20:08.332,96,1425097208.065371,37.78664131466346,-122.3986867881057,15.29059,1.391416,-1,10,200,-9999,1425097208.304223,-19.15880584716797,-17.10685729980469,-24.26967620849609,336.6286010742188,322.8553161621094,10,139235.6198983333,-0.404144287109375,-0.16998291015625,-0.024169921875,139235.5882099583,1.267043097079293,-0.09865786784642142,2.376913084524834,139235.5882099583,0.352124514921252,-1.737327265610841,0.8063731618918313,1.25666618347168,-0.08674337714910507,2.412416458129883,1.008122563362122,0.854456901550293,-0.2521481812000275,XTrueNorthZVertical,0.3724834842231897,-0.647008356497512,-0.1908643741137551,0.6373437308460603,-0.6825457811355591,-0.7217817306518555,0.1147275194525719,-17.87251663208008,-18.89961242675781,-25.79196739196777,2,10.3.35.51,10.83.46.32,1,0
2015-02-27 20:20:08.378,97,1425097208.065371,37.78664131466346,-122.3986867881057,15.29059,1.391416,-1,10,200,-9999,1425097208.304223,-19.15880584716797,-17.10685729980469,-24.26967620849609,336.6286010742188,322.8553161621094,10,139235.6689364583,-0.9686279296875,-0.366790771484375,0.4801483154296875,139235.639989375,2.512462924003796,0.2381651647052412,3.878062422491979,139235.639989375,0.4372620834377692,-1.80737716611857,0.642128075140537,2.50208592414856,0.2500795423984528,3.913565397262573,-0.2339502573013306,0.1348049342632294,0.130402997136116,XTrueNorthZVertical,0.3522918583377558,-0.685375032225252,-0.1146815154144497,0.6268968509449382,-0.7785161733627319,-0.5989010334014893,0.1876969784498215,-19.86286163330078,-18.25067138671875,-24.78361701965332,2,10.3.35.51,10.83.46.32,1,0
2015-02-27 20:20:08.425,98,1425097208.065371,37.78664131466346,-122.3986867881057,15.29059,1.391416,-1,10,200,-9999,1425097208.379357,-23.37061309814453,-14.5408935546875,-22.52230834960938,324.7099914550781,310.9367065429688,10,139235.7179594167,-0.903472900390625,-0.8441009521484375,0.1220245361328125,139235.691769,1.481961794945341,1.641120291171747,3.76498566787165,139235.691769,0.4926298309849027,-1.770665317385598,0.4259897041488191,1.471584796905518,1.653034806251526,3.800488233566284,-0.02059926837682724,-0.03773601353168488,-0.02932337112724781,XTrueNorthZVertical,0.314267445035725,-0.7011666406925123,-0.00783652493125492,0.6399530481206932,-0.8925019502639771,-0.4132222533226013,0.1807973682880402,-23.4169864654541,-16.5570125579834,-22.7894229888916,2,10.3.35.51,10.83.46.32,1,0
2015-02-27 20:20:08.477,99,1425097208.065371,37.78664131466346,-122.3986867881057,15.29059,1.391416,-1,10,200,-9999,1425097208.431607,-26.30352783203125,-11.85595703125,-22.48903656005859,302.0127563476562,288.2394714355469,10,139235.767005625,-1.469757080078125,-0.416534423828125,0.2501220703125,139235.7435480834,1.233089124761328,0.7746192852014616,3.828895941395263,139235.7435480834,0.5341430517125119,-1.727121079360936,0.2289889594409777,1.222711801528931,0.7865337729454041,3.864396810531616,-0.2017517387866974,-0.2598234117031097,0.06564510613679886,XTrueNorthZVertical,0.2708960568347233,-0.7088213620876055,0.08658216864497542,0.6455161741301858,-0.9620208144187927,-0.2269929945468903,0.1516247987747192,-24.19914627075195,-14.25301742553711,-23.51809310913086,2,10.3.35.51,10.83.46.32,1,0
2015-02-27 20:20:08.560,100,1425097208.065371,37.78664131466346,-122.3986867881057,15.29059,1.391416,-1,10,200,-9999,1425097208.538573,-30.5494384765625,-4.192047119140625,-23.43760681152344,272.2629089355469,258.4896240234375,10,139235.8160295,-1.456497192382812,0.05364990234375,0.3692779541015625,139235.795327625,0.5519609085754247,0.4576783480838945,3.467487138292207,139235.795327625,0.554052784297569,-1.699783677907155,0.04070406337638745,0.5415837168693542,0.4695927202701569,3.502987861633301,-0.3703805804252625,-0.2391686290502548,0.05510083958506584,XTrueNorthZVertical,0.2183311594530229,-0.7187441958716603,0.1657832983133527,0.6389477159082063,-0.990871250629425,-0.04069282487034798,0.1285234242677689,-25.8922233581543,-10.35605907440186,-23.75273895263672,2,10.3.35.51,10.83.46.32,1,0
2015-02-27 20:20:08.579,101,1425097208.065371,37.78664131466346,-122.3986867881057,15.29059,1.391416,-1,10,200,-9999,1425097208.538573,-30.5494384765625,-4.192047119140625,-23.43760681152344,272.2629089355469,258.4896240234375,10,139235.8650722083,-2.024017333984375,0.5046234130859375,0.1322174072265625,139235.8471069583,-0.09614890378345776,0.2724006331504278,2.177948053168905,139235.8471069583,0.5536629049052718,-1.674913166255368,-0.1048229526165751,-0.1065259575843811,0.2843148708343506,2.213448286056519,-0.9216563105583191,-0.01484838034957647,-0.01865683868527412,XTrueNorthZVertical,0.1690435728570317,-0.7232589155259712,0.2201285606986113,0.632348185973481,-0.9891255497932434,0.104631096124649,0.1033583804965019,-26.66366004943848,-6.921626091003418,-24.1451473236084,2,10.3.35.51,10.83.46.32,1,0
2015-02-27 20:20:08.623,102,1425097208.065371,37.78664131466346,-122.3986867881057,15.29059,1.391416,-1,10,200,-9999,1425097208.612162,-32.33987426757812,0.9569091796875,-23.72050476074219,260.6236877441406,246.8503875732422,10,139235.9141037917,-1.702835083007812,0.55120849609375,0.4392547607421875,139235.8988863333,-0.455308401029833,-0.5181874985793669,-0.6368494346378094,139235.8471069583,0.5536629049052718,-1.674913166255368,-0.1048229526165751,-0.1065259575843811,0.2843148708343506,2.213448286056519,-0.9216563105583191,-0.01484838034957647,-0.01865683868527412,XTrueNorthZVertical,0.1690435728570317,-0.7232589155259712,0.2201285606986113,0.632348185973481,-0.9891255497932434,0.104631096124649,0.1033583804965019,-26.66366004943848,-6.921626091003418,-24.1451473236084,2,10.3.35.51,10.83.46.32,1,0
2015-02-27 20:20:08.676,103,1425097208.065371,37.78664131466346,-122.3986867881057,15.29059,1.391416,-1,10,200,-9999,1425097208.665054,-32.01589202880859,1.10986328125,-23.00491333007812,263.2401123046875,249.4668121337891,10,139235.9631815833,-1.34771728515625,-0.0528717041015625,0.15380859375,139235.950665625,-0.08315241134776206,0.1150560159424753,-2.292604594947869,139235.950665625,0.5265224037227809,-1.688566252226476,-0.05660234681222736,-0.09343576431274414,0.1269114464521408,-2.257001399993896,-0.3678617477416992,0.1547315865755081,-0.0207826029509306,XTrueNorthZVertical,0.1762939225270959,-0.7263437921549192,0.1932169700615814,0.6356196590017585,-0.9914827346801758,0.05657212808728218,0.1173097044229507,-27.11779403686523,-4.642744064331055,-24.18507766723633,2,10.3.35.51,10.83.46.32,1,0
2015-02-27 20:20:08.725,104,1425097208.065371,37.78664131466346,-122.3986867881057,15.29059,1.391416,-1,10,200,-9999,1425097208.716586,-31.14625549316406,-1.014312744140625,-22.65544128417969,272.8821716308594,259.10888671875,10,139236.0122234584,-1.1114501953125,0.0024871826171875,0.287261962890625,139236.0024451667,-0.8706653909668423,-0.08576710290600187,-2.737485921361714,139235.950665625,0.5265224037227809,-1.688566252226476,-0.05660234681222736,-0.09343576431274414,0.1269114464521408,-2.257001399993896,-0.3678617477416992,0.1547315865755081,-0.0207826029509306,XTrueNorthZVertical,0.1762939225270959,-0.7263437921549192,0.1932169700615814,0.6356196590017585,-0.9914827346801758,0.05657212808728218,0.1173097044229507,-27.11779403686523,-4.642744064331055,-24.18507766723633,2,10.3.35.51,10.83.46.32,1,0
2015-02-27 20:20:08.774,105,1425097208.065371,37.78664131466346,-122.3986867881057,15.29059,1.391416,-1,10,200,-9999,1425097208.716586,-31.14625549316406,-1.014312744140625,-22.65544128417969,272.8821716308594,259.10888671875,10,139236.0612897083,-0.9468231201171875,-0.17779541015625,0.2702484130859375,139236.0542242917,-0.7007700944896733,-0.1861597538865009,-3.07775508436394,139236.0024451667,0.5133181377861816,-1.687354527660567,0.07222682720534665,-0.8809486031532288,-0.07391180843114853,-2.70188307762146,-0.1640530973672867,0.01816319115459919,0.1028350442647934,XTrueNorthZVertical,0.2127400729784244,-0.7160567624573553,0.1425388721822482,0.6493743482433739,-0.990625262260437,-0.07216404378414154,0.1159912496805191,-26.4020938873291,-7.154163837432861,-24.36381149291992,2,10.3.35.51,10.83.46.32,1,0
2015-02-27 20:20:08.827,106,1425097208.065371,37.78664131466346,-122.3986867881057,15.29059,1.391416,-1,10,200,-9999,1425097208.774602,-29.76506042480469,-4.327972412109375,-22.67208862304688,281.3313903808594,267.55810546875,10,139236.11031425,-0.8418121337890625,-0.49163818359375,0.166107177734375,139236.106003875,-0.765423389957418,-0.2624129801143037,-3.125865888404548,139236.0542242917,0.4884006952379752,-1.689763946593108,0.2216219312045278,-0.711053192615509,-0.1743045747280121,-3.042152404785156,0.01045586448162794,0.09749772399663925,0.1581414192914963,XTrueNorthZVertical,0.2509469128936738,-0.703503964268463,0.07926279229180748,0.6601706058868917,-0.968646764755249,-0.2198121696710587,0.1157843619585037,-25.45352745056152,-9.3939208984375,-24.61137771606445,2,10.3.35.51,10.83.46.32,1,0
2015-02-27 20:20:08.878,107,1425097208.065371,37.78664131466346,-122.3986867881057,15.29059,1.391416,-1,10,200,-9999,1425097208.846679,-26.76394653320312,-9.256011962890625,-23.33775329589844,298.7170104980469,284.9437255859375,10,139236.1593594583,-0.7425384521484375,-0.599365234375,0.2463531494140625,139236.1577831667,-0.9465239367210954,-0.3585498996728561,-2.999569734765284,139236.1577831667,0.4431416548648583,-1.697377162365207,0.5342108068847817,-0.9568068385124207,-0.3466949462890625,-2.963967800140381,0.1242010444402695,-0.02341555245220661,0.0606730617582798,XTrueNorthZVertical,0.3292561790358415,-0.6677703418034395,-0.0531178848905114,0.6654709831618968,-0.8537847995758057,-0.5091619491577148,0.108653724193573,-22.04508209228516,-15.03793144226074,-25.09427642822266,2,10.3.35.51,10.83.46.32,1,0
2015-02-27 20:20:08.908,108,1425097208.065371,37.78664131466346,-122.3986867881057,15.29059,1.391416,-1,10,200,-9999,1425097208.899985,-23.91629028320312,-12.50167846679688,-23.55410003662109,307.3409423828125,293.5676574707031,10,139236.2083637917,-0.51190185546875,-0.8558807373046875,0.0352020263671875,139236.1577831667,-0.9465239367210954,-0.3585498996728561,-2.999569734765284,139236.1577831667,0.4431416548648583,-1.697377162365207,0.5342108068847817,-0.9568068385124207,-0.3466949462890625,-2.963967800140381,0.1242010444402695,-0.02341555245220661,0.0606730617582798,XTrueNorthZVertical,0.3292561790358415,-0.6677703418034395,-0.0531178848905114,0.6654709831618968,-0.8537847995758057,-0.5091619491577148,0.108653724193573,-22.04508209228516,-15.03793144226074,-25.09427642822266,2,10.3.35.51,10.83.46.32,1,0
2015-02-27 20:20:08.967,109,1425097208.065371,37.78664131466346,-122.3986867881057,15.29059,1.391416,-1,10,200,-9999,1425097208.899985,-23.91629028320312,-12.50167846679688,-23.55410003662109,307.3409423828125,293.5676574707031,10,139236.257410625,-0.3013763427734375,-0.4317779541015625,-0.01837158203125,139236.261341875,-0.9551019785922406,-1.709534502730901,-2.459040178852916,139236.209562375,0.4011823676754537,-1.694871237829528,0.6848359933813549,-1.128240346908569,-0.6194887757301331,-2.860140323638916,0.2566668689250946,-0.2233347445726395,-0.06065044552087784,XTrueNorthZVertical,0.358472852503179,-0.6476290984050866,-0.1224107944480898,0.661127341947906,-0.7685686945915222,-0.6325460076332092,0.09585247188806534,-20.30585861206055,-16.75212669372559,-25.47324371337891,2,10.3.35.51,10.83.46.32,1,0
2015-02-27 20:20:09.012,110,1425097208.065371,37.78664131466346,-122.3986867881057,15.29059,1.391416,-1,10,200,-9999,1425097209.008886,-19.56807708740234,-17.31076049804688,-23.33776092529297,330.8420715332031,317.0687866210938,10,139236.3064478333,-0.5576629638671875,0.163818359375,0.2285919189453125,139236.261341875,-0.9551019785922406,-1.709534502730901,-2.459040178852916,139236.261341875,0.3503719221693474,-1.725219693412659,0.8273289515398843,-0.9653847217559814,-1.697679877281189,-2.423439025878906,0.3674138784408569,0.3043481707572937,-0.1224772557616234,XTrueNorthZVertical,0.3786765566830996,-0.6392627813272156,-0.1968315685911974,0.6396909373952548,-0.6687902212142944,-0.7361261248588562,0.1041056737303734,-18.49971389770508,-18.3171501159668,-25.76995277404785,2,10.3.35.51,10.83.46.32,1,0
2015-02-27 20:20:09.065,111,1425097208.065371,37.78664131466346,-122.3986867881057,15.29059,1.391416,-1,10,200,-9999,1425097209.008886,-19.56807708740234,-17.31076049804688,-23.33776092529297,330.8420715332031,317.0687866210938,10,139236.35548225,0.3398590087890625,0.039306640625,-0.002197265625,139236.3131212917,0.4017418451800882,-0.2028276802009798,0.1976659413761882,139236.3131212917,0.3495317986538594,-1.775160430919605,0.8848568194678903,0.391459196805954,-0.1909730732440948,0.2332666963338852,0.0625564306974411,0.9376426935195923,0.1000467836856842,XTrueNorthZVertical,0.388026763335519,-0.6432012103521916,-0.2277826544338118,0.6195502370487727,-0.6202194094657898,-0.7738243341445923,0.1285451352596283,-18.42164611816406,-19.2039794921875,-25.17336082458496,2,10.3.35.51,10.83.46.32,1,0
2015-02-27 20:20:09.108,112,1425097208.065371,37.78664131466346,-122.3986867881057,15.29059,1.391416,-1,10,200,-9999,1425097209.080718,-19.70449066162109,-17.650634765625,-22.57225799560547,338.1787414550781,324.4054565429688,10,139236.404502625,0.0695343017578125,-0.112152099609375,-0.2657012939453125,139236.364900625,0.9442493308340587,0.4623575221191637,2.32418675599901,139236.364900625,0.3724742103122569,-1.778069683468154,0.7970025998386009,0.9339668154716492,0.4742119908332825,2.359787225723267,1.023754239082336,0.7545711994171143,-0.1460160464048386,XTrueNorthZVertical,0.3728044824059589,-0.6579712847461994,-0.1885476245882594,0.6265304458371138,-0.6838952898979187,-0.7152645587921143,0.1438187807798386,-18.93087768554688,-19.38146209716797,-24.6541805267334,2,10.3.35.51,10.83.46.32,1,0
2015-02-27 20:20:09.167,113,1425097209.121077,37.78661286979221,-122.3986689743458,15.29774,1.392175,-1,10,200,-9999,1425097209.131273,-21.75070190429688,-16.63104248046875,-21.37406921386719,330.9992980957031,317.2260131835938,10,139236.453543625,-1.043045043945312,-0.4053192138671875,0.25360107421875,139236.4166800417,2.101361665488734,-0.1409648449234202,2.611340236324041,139236.4166800417,0.436480071072031,-1.822976497478659,0.6595489240908003,2.091079235076904,-0.1291105002164841,2.646940231323242,0.4560079574584961,0.2698191702365875,-0.2908582091331482,XTrueNorthZVertical,0.3555759598257319,-0.6871375318668668,-0.1244068751882024,0.6212331916849697,-0.7652730941772461,-0.6127604246139526,0.1971845030784607,-21.07853126525879,-18.21711730957031,-23.78402900695801,2,10.3.35.51,10.83.46.32,1,0
2015-02-27 20:20:09.211,114,1425097209.121077,37.78661286979221,-122.3986689743458,15.29774,1.392175,-1,10,200,-9999,1425097209.183512,-24.7518310546875,-14.08203125,-20.44213104248047,315.8896179199219,302.1163330078125,10,139236.5027053333,-1.249267578125,-0.5854034423828125,0.173370361328125,139236.4684595417,1.437866238880245,1.646167247753556,4.010802627020907,139236.4684595417,0.4941432836166376,-1.820779006891246,0.435930020858077,1.427584290504456,1.658021092414856,4.046402931213379,0.03700808063149452,0.04259969666600227,0.06374341994524002,XTrueNorthZVertical,0.3171975982769609,-0.7152000889680254,-0.01911432575664136,0.6225023364531188,-0.8783014416694641,-0.4222536385059357,0.2242509722709656,-23.57066535949707,-17.26435470581055,-22.09555816650391,2,10.3.35.51,10.83.46.32,1,0
2015-02-27 20:20:09.262,115,1425097209.121077,37.78661286979221,-122.3986689743458,15.29774,1.392175,-1,10,200,-9999,1425097209.237721,-27.99166870117188,-10.4114990234375,-20.67511749267578,295.1130065917969,281.3397216796875,10,139236.5516245,-1.19122314453125,-0.27496337890625,0.174102783203125,139236.5202388333,0.9096886904197734,0.8308063915638444,3.744879600589879,139236.5202388333,0.5129451988768764,-1.763178159309206,0.2452918102335469,0.899407684803009,0.8426589965820312,3.780478477478027,-0.06728460639715195,-0.2891735434532166,0.09402111917734146,XTrueNorthZVertical,0.2695530306857989,-0.7211644921236267,0.06877690644261003,0.634454628826698,-0.9521703720092773,-0.2428394109010696,0.1854741275310516,-25.08395576477051,-14.31834602355957,-22.53059959411621,2,10.3.35.51,10.83.46.32,1,0
2015-02-27 20:20:09.309,116,1425097209.121077,37.78661286979221,-122.3986689743458,15.29774,1.392175,-1,10,200,-9999,1425097209.290868,-30.03789520263672,-6.537017822265625,-21.34078979492188,282.3889465332031,268.6156616210938,10,139236.600656,-1.717453002929688,-0.2085418701171875,0.135772705078125,139236.57201825,1.117259726838293,0.208109261274825,3.541272679453942,139236.57201825,0.535371606266993,-1.741854297085802,0.05094640536423169,1.106987237930298,0.2199516594409943,3.576871156692505,-0.1535686403512955,-0.2298526018857956,0.1936433464288712,XTrueNorthZVertical,0.2180793673089624,-0.7331053430191445,0.1515249339137689,0.6261294913551035,-0.9841266870498657,-0.05092436820268631,0.1700041145086288,-26.71873664855957,-9.972498893737793,-22.98926162719727,2,10.3.35.51,10.83.46.32,1,0
2015-02-27 20:20:09.362,117,1425097209.121077,37.78661286979221,-122.3986689743458,15.29774,1.392175,-1,10,200,-9999,1425097209.290868,-30.03789520263672,-6.537017822265625,-21.34078979492188,282.3889465332031,268.6156616210938,10,139236.6496945,-1.962112426757812,0.2725067138671875,0.055389404296875,139236.6237977083,0.1560402009060317,0.2466238969595509,2.60626957760853,139236.6237977083,0.5442501533222166,-1.724758844839457,-0.1086157699852479,0.1457677632570267,0.2584661543369293,2.641867876052856,-0.852414608001709,-0.2620430886745453,0.1167900636792183,XTrueNorthZVertical,0.169790367171986,-0.7398627338182474,0.2143223547599402,0.6146871517479546,-0.9823479652404785,0.1084023341536522,0.1524512618780136,-27.75551605224609,-6.723200798034668,-22.94074630737305,2,10.3.35.51,10.83.46.32,1,0
2015-02-27 20:20:09.399,118,1425097209.121077,37.78661286979221,-122.3986689743458,15.29774,1.392175,-1,10,200,-9999,1425097209.364636,-31.99884796142578,-0.028656005859375,-22.02309417724609,262.2530822753906,248.4797973632812,10,139236.6987189583,-2.011627197265625,0.76251220703125,0.6536712646484375,139236.675577125,-0.6066161646787939,-0.3618996236919578,0.5423205317454469,139236.675577125,0.5128853874917718,-1.719826631295716,-0.1847821973682352,-0.6168884634971619,-0.350057452917099,0.5779184103012085,-0.8196675181388855,0.5738359093666077,0.07671991735696793,XTrueNorthZVertical,0.1331548567359152,-0.7451480242750992,0.2324226530724229,0.6107404656125196,-0.9720805287361145,0.1837324500083923,0.145951583981514,-27.96213531494141,-3.66860556602478,-23.37751388549805,2,10.3.35.51,10.83.46.32,1,0
2015-02-27 20:20:09.460,119,1425097209.121077,37.78661286979221,-122.3986689743458,15.29774,1.392175,-1,10,200,-9999,1425097209.416282,-32.91964721679688,2.65625,-22.02309417724609,258.959716796875,245.1864318847656,10,139236.747753875,-1.333541870117188,0.2245330810546875,0.1601104736328125,139236.7273564583,-0.5046607707706364,0.5802460761970473,-2.050387164327963,139236.7273564583,0.4938142458942871,-1.722663497006931,-0.1322158853883846,-0.5149330496788025,0.5920881628990173,-2.014789581298828,-0.7543289065361023,0.5576221346855164,0.3144527971744537,XTrueNorthZVertical,0.1433003451513613,-0.7446118856816718,0.2074653674739504,0.6180422898404691,-0.9798629879951477,0.1318310052156448,0.1499636918306351,-28.21401977539062,-2.327526807785034,-23.24649429321289,2,10.3.35.51,10.83.46.32,1,0
2015-02-27 20:20:09.497,120,1425097209.121077,37.78661286979221,-122.3986689743458,15.29774,1.392175,-1,10,200,-9999,1425097209.472624,-32.91964721679688,2.35040283203125,-21.92324066162109,263.7041625976562,249.9308624267578,10,139236.7967880417,-1.042724609375,0.0742340087890625,0.1659088134765625,139236.779135875,-0.8587735777513115,0.3646272332804169,-2.874868015670651,139236.779135875,0.4797451789347175,-1.697311019479568,0.002829308323599806,-0.8690457344055176,0.3764691650867462,-2.839270830154419,-0.1576850116252899,-0.09235502034425735,0.01736246980726719,XTrueNorthZVertical,0.1791854962952135,-0.7286844567926972,0.1560065727101823,0.6423188223683465,-0.9920037388801575,-0.002829304663464427,0.1261769533157349,-27.32354354858398,-4.414646625518799,-23.99547004699707,2,10.3.35.51,10.83.46.32,1,0
2015-02-27 20:20:09.565,121,1425097209.121077,37.78661286979221,-122.3986689743458,15.29774,1.392175,-1,10,200,-9999,1425097209.546183,-30.56649780273438,-2.101837158203125,-22.72203063964844,281.0413818359375,267.2680969238281,10,139236.8458554167,-1.0150146484375,-0.0709381103515625,0.229766845703125,139236.8309152084,-0.6999311987462984,0.0779368766689509,-3.073414930735438,139236.8309152084,0.4533811806923195,-1.680719779563357,0.1539327167125337,-0.710203230381012,0.08977867662906647,-3.03781795501709,-0.04301118105649948,0.2149252593517303,0.1587610691785812,XTrueNorthZVertical,0.2169082513381198,-0.712146996373737,0.09370174536118377,0.6610729528008525,-0.9822115898132324,-0.1533255279064178,0.1084050685167313,-26.14261627197266,-6.927078247070312,-24.70682334899902,2,10.3.35.51,10.83.46.32,1,0
2015-02-27 20:20:09.596,122,1425097209.121077,37.78661286979221,-122.3986689743458,15.29774,1.392175,-1,10,200,-9999,1425097209.546183,-30.56649780273438,-2.101837158203125,-22.72203063964844,281.0413818359375,267.2680969238281,10,139236.8948927917,-0.8760528564453125,-0.515533447265625,0.1834869384765625,139236.8826948333,-0.6065453245937978,-0.1478448552835309,-3.256256918535918,139236.8309152084,0.4533811806923195,-1.680719779563357,0.1539327167125337,-0.710203230381012,0.08977867662906647,-3.03781795501709,-0.04301118105649948,0.2149252593517303,0.1587610691785812,XTrueNorthZVertical,0.2169082513381198,-0.712146996373737,0.09370174536118377,0.6610729528008525,-0.9822115898132324,-0.1533255279064178,0.1084050685167313,-26.14261627197266,-6.927078247070312,-24.70682334899902,2,10.3.35.51,10.83.46.32,1,0
2015-02-27 20:20:09.659,123,1425097209.121077,37.78661286979221,-122.3986689743458,15.29774,1.392175,-1,10,200,-9999,1425097209.598592,-28.55438995361328,-6.010284423828125,-23.28783416748047,289.6767883300781,275.9035034179688,10,139236.9439451667,-0.7151336669921875,-0.6161041259765625,0.1000823974609375,139236.9344741667,-0.9280346745371112,-0.1821852522756666,-3.130045719735428,139236.9344741667,0.415072465254386,-1.675897069318929,0.4776198264524809,-0.9382181167602539,-0.1703992933034897,-3.094353914260864,0.1786317080259323,-0.1194654107093811,-0.01373007800430059,XTrueNorthZVertical,0.3036558436617876,-0.6740747699074702,-0.03811272383131304,0.6722824952485851,-0.8831910490989685,-0.4596666693687439,0.09316733479499817,-22.81520080566406,-13.16634750366211,-25.4550895690918,2,10.3.35.51,10.83.46.32,1,0
2015-02-27 20:20:09.693,124,1425097209.121077,37.78661286979221,-122.3986689743458,15.29774,1.392175,-1,10,200,-9999,1425097209.65012,-26.21829223632812,-9.76580810546875,-23.67058563232422,302.6393432617188,288.8660583496094,10,139236.9929726667,-0.607208251953125,-0.8110809326171875,0.100250244140625,139236.986253375,-1.187628698637566,-0.1021532667771504,-3.067993533704363,139236.9344741667,0.415072465254386,-1.675897069318929,0.4776198264524809,-0.9382181167602539,-0.1703992933034897,-3.094353914260864,0.1786317080259323,-0.1194654107093811,-0.01373007800430059,XTrueNorthZVertical,0.3036558436617876,-0.6740747699074702,-0.03811272383131304,0.6722824952485851,-0.8831910490989685,-0.4596666693687439,0.09316733479499817,-22.81520080566406,-13.16634750366211,-25.4550895690918,2,10.3.35.51,10.83.46.32,1,0
2015-02-27 20:20:09.771,125,1425097209.121077,37.78661286979221,-122.3986689743458,15.29774,1.392175,-1,10,200,-9999,1425097209.707578,-23.72872924804688,-12.51870727539062,-24.00341033935547,311.904541015625,298.1312561035156,10,139237.042026125,-0.168975830078125,-0.72607421875,-0.1738128662109375,139237.0380329167,-1.068136122635128,-0.944459986876284,-2.892819585630548,139236.986253375,0.3712521025605212,-1.66504270355959,0.634948539034132,-1.197812080383301,-0.09036743640899658,-3.032302141189575,0.08148226141929626,-0.1913487762212753,0.07102386653423309,XTrueNorthZVertical,0.3361698515184894,-0.6518225791930492,-0.1089173252830471,0.6710098154189783,-0.8015292286872864,-0.5931360721588135,0.07576568424701691,-21.03561782836914,-15.13496398925781,-25.88983535766602,2,10.3.35.51,10.83.46.32,1,0
2015-02-27 20:20:09.791,126,1425097209.121077,37.78661286979221,-122.3986689743458,15.29774,1.392175,-1,10,200,-9999,1425097209.779803,-20.0455322265625,-15.54351806640625,-25.00191497802734,329.6289978027344,315.855712890625,10,139237.0910472917,-0.4891510009765625,0.048583984375,0.1298370361328125,139237.0898125,-0.3521194309047508,-1.448188651265393,-1.907712569984712,139237.0380329167,0.305070066536505,-1.638207285336614,0.7867243466000921,-1.078319311141968,-0.93267422914505,-2.857128620147705,0.5247244238853455,-0.0611516460776329,-0.2320614606142044,XTrueNorthZVertical,0.3612274696654584,-0.6271351027038812,-0.1809249949323505,0.6659447606789004,-0.7045645117759705,-0.7080439329147339,0.04756744205951691,-18.37915992736816,-16.81558418273926,-26.85684967041016,2,10.3.35.51,10.83.46.32,1,0
2015-02-27 20:20:09.861,127,1425097209.121077,37.78661286979221,-122.3986689743458,15.29774,1.392175,-1,10,200,-9999,1425097209.831536,-18.39150238037109,-17.22587585449219,-24.71901702880859,339.5006713867188,325.7273864746094,10,139237.1400874167,-0.32086181640625,-0.0698089599609375,0.1114044189453125,139237.1415916667,0.6952983637139966,0.4791415622571701,1.067973137176415,139237.0898125,0.2632700788732762,-1.683005569339264,0.9126258342281082,-0.3623025715351105,-1.436403036117554,-1.872021913528442,0.2358603179454803,0.7194420695304871,0.007314516231417656,XTrueNorthZVertical,0.378934154774853,-0.6250235837317919,-0.2472073193425922,0.63611552986769,-0.6078238487243652,-0.7911126017570496,0.06849114596843719,-17.52397918701172,-17.79649543762207,-26.79631996154785,2,10.3.35.51,10.83.46.32,1,0
2015-02-27 20:20:09.890,128,1425097209.121077,37.78661286979221,-122.3986689743458,15.29774,1.392175,-1,10,200,-9999,1425097209.831536,-18.39150238037109,-17.22587585449219,-24.71901702880859,339.5006713867188,325.7273864746094,10,139237.1891014167,0.4014434814453125,0.2115936279296875,-0.3760223388671875,139237.1415916667,0.6952983637139966,0.4791415622571701,1.067973137176415,139237.1415916667,0.3012134282961321,-1.734415807938315,0.925634593330375,0.6851153373718262,0.4909270405769348,1.103663444519043,0.2724346220493317,0.7291935682296753,0.01345391012728214,XTrueNorthZVertical,0.3879501108598273,-0.6312447747957903,-0.2497350703266617,0.6234237245863077,-0.5932964682579041,-0.7990025281906128,0.09795051068067551,-17.66698837280273,-18.85617065429688,-25.96478652954102,2,10.3.35.51,10.83.46.32,1,0
2015-02-27 20:20:09.960,129,1425097209.121077,37.78661286979221,-122.3986689743458,15.29774,1.392175,-1,10,200,-9999,1425097209.937655,-19.75566101074219,-16.7840576171875,-23.05485534667969,336.1035766601562,322.3302917480469,10,139237.2381540833,-0.6236724853515625,-0.4985198974609375,0.261444091796875,139237.2451506667,2.180881258793519,0.4914669380981658,4.44961780510377,139237.193371125,0.3382776907612306,-1.728031910538243,0.8124208692614765,1.387817621231079,0.2038914114236832,2.578723430633545,1.080702424049377,0.9375478625297546,-0.4837149679660797,XTrueNorthZVertical,0.3705255375433941,-0.645412385345278,-0.1957736771984326,0.6386128296069288,-0.6792589426040649,-0.7259542346000671,0.1076926440000534,-18.29501533508301,-18.64170837402344,-25.68320465087891,2,10.3.35.51,10.83.46.32,1,0
2015-02-27 20:20:09.991,130,1425097209.121077,37.78661286979221,-122.3986689743458,15.29774,1.392175,-1,10,200,-9999,1425097209.937655,-19.75566101074219,-16.7840576171875,-23.05485534667969,336.1035766601562,322.3302917480469,10,139237.28716775,-0.68548583984375,-0.631500244140625,0.3029022216796875,139237.2451506667,2.180881258793519,0.4914669380981658,4.44961780510377,139237.2451506667,0.4245443808898297,-1.782039726734956,0.6205163408994336,2.170698404312134,0.5032522082328796,4.485307216644287,0.1718207895755768,0.08293542265892029,0.09085638821125031,XTrueNorthZVertical,0.3436394094971802,-0.6835245492285686,-0.1059947481037672,0.6351938760473035,-0.7954932451248169,-0.5814553499221802,0.1705877035856247,-20.39279174804688,-17.94513702392578,-24.57547378540039,2,10.3.35.51,10.83.46.32,1,0
2015-02-27 20:20:10.061,131,1425097209.121077,37.78661286979221,-122.3986689743458,15.29774,1.392175,-1,10,200,-9999,1425097209.991177,-22.70562744140625,-14.999755859375,-22.33925628662109,318.5328674316406,304.7595825195312,10,139237.3362200417,-1.151229858398438,-0.3498077392578125,0.3459625244140625,139237.296930125,1.6686672305392,1.249677422559213,3.898076877032251,139237.296930125,0.4714397126423187,-1.752084604381456,0.4031922608879012,1.658484697341919,1.261460900306702,3.933761596679688,0.2192536592483521,-0.2391436249017715,0.1370627731084824,XTrueNorthZVertical,0.3004208129747682,-0.7019024590623452,-0.003082329342560409,0.6458101673796283,-0.9047394990921021,-0.3923566341400146,0.1658394485712051,-23.16289710998535,-16.00443267822266,-23.43471908569336,2,10.3.35.51,10.83.46.32,1,0
2015-02-27 20:20:10.091,132,1425097209.121077,37.78661286979221,-122.3986689743458,15.29774,1.392175,-1,10,200,-9999,1425097210.064863,-27.65064239501953,-9.76580810546875,-21.90656280517578,297.0800170898438,283.3067321777344,10,139237.3853439167,-1.442855834960938,-0.2946014404296875,0.3900146484375,139237.3487094583,1.287276729777279,0.7573135318059087,3.898958649669177,139237.3487094583,0.5113889228289912,-1.728427070678988,0.1931645861049882,1.27709424495697,0.769096851348877,3.934643030166626,-0.2625010013580322,-0.2210593223571777,0.1534053832292557,XTrueNorthZVertical,0.2520406098433061,-0.7165927311396612,0.09247813417304192,0.64375320062797,-0.9692342281341553,-0.1919655799865723,0.1540592163801193,-25.12831878662109,-12.47347354888916,-23.55478668212891,2,10.3.35.51,10.83.46.32,1,0
2015-02-27 20:20:10.172,133,1425097210.113721,37.78658333016038,-122.3986475805649,15.30254,1.405226,-1,10,200,-9999,1425097210.116223,-30.10610198974609,-4.837799072265625,-22.40581512451172,278.7896118164062,265.0163269042969,10,139237.4342749167,-1.775848388671875,-0.0425872802734375,0.11431884765625,139237.4004889583,0.6068198965021849,0.6997855238346711,3.219081320247284,139237.4004889583,0.5340659306972078,-1.701832479783487,0.005812200539193896,0.596637487411499,0.7115687727928162,3.254765510559082,-0.4441976249217987,-0.2596602439880371,0.2873247265815735,XTrueNorthZVertical,0.2002476151497903,-0.7247279009868918,0.17186018027735,0.6365017207708548,-0.9914103150367737,-0.005812167655676603,0.130659282207489,-26.36143493652344,-9.248808860778809,-23.69350051879883,2,10.3.35.51,10.83.46.32,1,0
2015-02-27 20:20:10.196,134,1425097210.113721,37.78658333016038,-122.3986475805649,15.30254,1.405226,-1,10,200,-9999,1425097210.167554,-31.53845977783203,-0.5894775390625,-22.50566864013672,264.8975830078125,251.1242828369141,10,139237.493098625,-2.041061401367188,0.5343017578125,0.40838623046875,139237.4522682917,-0.06737877452733175,0.1684747663517207,1.987252935946,139237.4522682917,0.533025707383422,-1.676327544529443,-0.132284385604078,-0.07756102830171585,0.1802578717470169,2.022936582565308,-0.8706662654876709,-0.1437397301197052,-0.09886094927787781,XTrueNorthZVertical,0.1527197828855011,-0.7272442795567295,0.2231642967881416,0.6308645832171437,-0.9857485294342041,0.1318989098072052,0.1044151484966278,-26.78410911560059,-5.989396572113037,-24.26080131530762,2,10.3.35.51,10.83.46.32,1,0
2015-02-27 20:20:10.258,135,1425097210.113721,37.78658333016038,-122.3986475805649,15.30254,1.405226,-1,10,200,-9999,1425097210.220818,-32.33990478515625,1.772613525390625,-22.82186126708984,259.9786376953125,246.2053527832031,10,139237.542137375,-1.556869506835938,0.2782135009765625,0.220977783203125,139237.55582725,-0.458301794095082,0.3909967891299455,-2.453021701105446,139237.504047875,0.5076344707835416,-1.688115676604407,-0.1585370141417474,-0.5556371808052063,-0.240424245595932,-0.7459414005279541,-0.9558214545249939,0.4108670949935913,0.3148831725120544,XTrueNorthZVertical,0.1361417109313788,-0.7343409914891563,0.223599283315657,0.6262683955105767,-0.9806714653968811,0.15787373483181,0.1155825108289719,-27.06033134460449,-2.902431726455688,-24.51861000061035,2,10.3.35.51,10.83.46.32,1,0
2015-02-27 20:20:10.291,136,1425097210.113721,37.78658333016038,-122.3986475805649,15.30254,1.405226,-1,10,200,-9999,1425097210.274088,-32.254638671875,1.449737548828125,-23.03820037841797,264.5417175292969,250.7684326171875,10,139237.5911624584,-1.169357299804688,-0.0936431884765625,0.1529083251953125,139237.55582725,-0.458301794095082,0.3909967891299455,-2.453021701105446,139237.55582725,0.4981183024873373,-1.672520642780152,-0.06722846705683756,-0.4684838354587555,0.4027796387672424,-2.417338848114014,-0.5019541382789612,0.04798024520277977,0.0609881691634655,XTrueNorthZVertical,0.1609984384313715,-0.724388907037172,0.1892885919053143,0.6430474656741304,-0.9925832152366638,0.06717783957719803,0.1013195738196373,-26.96670532226562,-3.486937284469604,-24.54558944702148,2,10.3.35.51,10.83.46.32,1,0
2015-02-27 20:20:10.359,137,1425097210.113721,37.78658333016038,-122.3986475805649,15.30254,1.405226,-1,10,200,-9999,1425097210.274088,-32.254638671875,1.449737548828125,-23.03820037841797,264.5417175292969,250.7684326171875,10,139237.6402049167,-1.027664184570312,0.115234375,0.277435302734375,139237.6076065,-1.274266655220024,0.2252877155702721,-2.880390612823148,139237.6076065,0.4601041870648936,-1.654934717235886,0.07384779498129686,-1.284448504447937,0.2370704710483551,-2.84470796585083,-0.1119357869029045,0.02589861117303371,0.04299043491482735,XTrueNorthZVertical,0.1920886011379401,-0.7106384599939644,0.1277493113187548,0.6646616145822829,-0.9937465786933899,-0.07378069311380386,0.08381010591983795,-26.0020866394043,-5.715649604797363,-25.1608943939209,2,10.3.35.51,10.83.46.32,1,0
2015-02-27 20:20:10.392,138,1425097210.113721,37.78658333016038,-122.3986475805649,15.30254,1.405226,-1,10,200,-9999,1425097210.348997,-30.14022064208984,-2.25482177734375,-23.63729858398438,281.8571472167969,268.0838623046875,10,139237.6892331667,-0.8819122314453125,-0.2708740234375,0.2125701904296875,139237.6593860417,-0.8514549447596648,-0.05312766690209973,-3.133441250125279,139237.6593860417,0.4154492506525447,-1.643220135875829,0.2270175960075088,-0.861636757850647,-0.04134503379464149,-3.097759008407593,-0.009428642690181732,0.3132226765155792,0.2152779698371887,XTrueNorthZVertical,0.2255218679478033,-0.695982636173322,0.058395624373404,0.6792186748226779,-0.9717878103256226,-0.2250726521015167,0.07050388306379318,-24.42071533203125,-8.212892532348633,-26.03890991210938,2,10.3.35.51,10.83.46.32,1,0
2015-02-27 20:20:10.460,139,1425097210.113721,37.78658333016038,-122.3986475805649,15.30254,1.405226,-1,10,200,-9999,1425097210.401113,-28.11105346679688,-5.670440673828125,-23.72050476074219,290.5657348632812,276.7924499511719,10,139237.7382815,-0.6817474365234375,-0.4941558837890625,-0.0233154296875,139237.7111655,-0.6429970756981483,-0.2002521371107642,-3.138663442706815,139237.7111655,0.3932340642458088,-1.644096339699084,0.3849825156385336,-0.6531777381896973,-0.1884713470935822,-3.102982044219971,0.1163023859262466,-0.04112882167100906,0.0252503901720047,XTrueNorthZVertical,0.2681772700177051,-0.679719024305164,-0.006913786623135139,0.6826530592836187,-0.9243162870407104,-0.375542938709259,0.0678739994764328,-23.18961906433105,-10.58209609985352,-26.30795860290527,2,10.3.35.51,10.83.46.32,1,0
2015-02-27 20:20:10.493,140,1425097210.113721,37.78658333016038,-122.3986475805649,15.30254,1.405226,-1,10,200,-9999,1425097210.453597,-25.84316253662109,-9.188018798828125,-24.26968383789062,299.0103454589844,285.237060546875,10,139237.7873119167,-0.6355438232421875,-0.661712646484375,0.1222076416015625,139237.762945,-0.7680252983424254,-0.4183080387409261,-2.917649568053902,139237.762945,0.3651872199230773,-1.643947690790177,0.5364438623167562,-0.7782058119773865,-0.4065273702144623,-2.881968259811401,0.2149904519319534,-0.09446242451667786,0.01489316578954458,XTrueNorthZVertical,0.3056687891895821,-0.6617979411836766,-0.07169990737370044,0.6807710331633472,-0.8572328686714172,-0.5110825896263123,0.06281984597444534,-21.74798202514648,-12.93668174743652,-26.48613739013672,2,10.3.35.51,10.83.46.32,1,0
2015-02-27 20:20:10.561,141,1425097210.113721,37.78658333016038,-122.3986475805649,15.30254,1.405226,-1,10,200,-9999,1425097210.507954,-23.71168518066406,-12.26382446289062,-24.71901702880859,312.0301513671875,298.2568664550781,10,139237.8363532083,-0.3199462890625,-0.915069580078125,-0.081207275390625,139237.8147243334,-0.8372845309154621,-0.3128641701208738,-2.646187965503836,139237.8147243334,0.3240318685385687,-1.633986217043453,0.6759996516772094,-0.8474649786949158,-0.3010835945606232,-2.610507249832153,0.2940279245376587,-0.02681889943778515,-0.04259239882230759,XTrueNorthZVertical,0.334934891452579,-0.6422218182309859,-0.1344456634432025,0.6762352535976806,-0.7785249948501587,-0.6256774663925171,0.04926048964262009,-19.7968921661377,-15.23689746856689,-26.79118919372559,2,10.3.35.51,10.83.46.32,1,0
2015-02-27 20:20:10.589,142,1425097210.113721,37.78658333016038,-122.3986475805649,15.30254,1.405226,-1,10,200,-9999,1425097210.507954,-23.71168518066406,-12.26382446289062,-24.71901702880859,312.0301513671875,298.2568664550781,10,139237.8853722083,-0.1431121826171875,-1.1092529296875,-0.0301361083984375,139237.866503875,-0.9345218686364353,-1.684224884995224,-2.69579519976096,139237.866503875,0.2817933295930418,-1.655907308309768,0.8086844796912512,-0.9447022080421448,-1.672444462776184,-2.660114765167236,0.362572968006134,-0.3762298822402954,-0.0998927429318428,XTrueNorthZVertical,0.358555716012894,-0.6330756698814969,-0.1995714112821819,0.6563720335820833,-0.687951385974884,-0.7233794927597046,0.05869400873780251,-18.48393440246582,-16.4824104309082,-26.99114799499512,2,10.3.35.51,10.83.46.32,1,0
2015-02-27 20:20:10.665,143,1425097210.113721,37.78658333016038,-122.3986475805649,15.30254,1.405226,-1,10,200,-9999,1425097210.641174,-18.66434478759766,-16.68206787109375,-24.08661651611328,338.3204956054688,324.5472106933594,10,139237.93442075,-0.3238983154296875,-0.1949920654296875,-0.2538909912109375,139237.9182831667,-0.7297215850160337,-1.951270966457939,-1.842960204924416,139237.9182831667,0.2121926299840773,-1.698442200239214,0.9353502344712251,-0.7398180365562439,-1.939541459083557,-1.807184934616089,0.6419151425361633,0.2952550053596497,-0.1970626562833786,XTrueNorthZVertical,0.36708465978233,-0.6348443235614304,-0.2741106124241853,0.6221614818534049,-0.5887077450752258,-0.8048070073127747,0.0755569264292717,-18.37284088134766,-17.48573684692383,-26.42982292175293,2,10.3.35.51,10.83.46.32,1,0
2015-02-27 20:20:10.683,144,1425097210.113721,37.78658333016038,-122.3986475805649,15.30254,1.405226,-1,10,200,-9999,1425097210.641174,-18.66434478759766,-16.68206787109375,-24.08661651611328,338.3204956054688,324.5472106933594,10,139237.983442125,-0.5622406005859375,0.714874267578125,0.3403167724609375,139237.9700627083,0.6961716142354335,-1.579769049139591,1.930936666270748,139237.9182831667,0.2121926299840773,-1.698442200239214,0.9353502344712251,-0.7398180365562439,-1.939541459083557,-1.807184934616089,0.6419151425361633,0.2952550053596497,-0.1970626562833786,XTrueNorthZVertical,0.36708465978233,-0.6348443235614304,-0.2741106124241853,0.6221614818534049,-0.5887077450752258,-0.8048070073127747,0.0755569264292717,-18.37284088134766,-17.48573684692383,-26.42982292175293,2,10.3.35.51,10.83.46.32,1,0
2015-02-27 20:20:10.760,145,1425097210.113721,37.78658333016038,-122.3986475805649,15.30254,1.405226,-1,10,200,-9999,1425097210.712089,-20.14785003662109,-16.76702880859375,-21.80670928955078,349.653076171875,335.8797912597656,10,139238.0324819583,0.0608978271484375,0.40350341796875,0.1649627685546875,139238.02184225,1.667394505854251,-0.04656643692447151,2.859270680114384,139238.02184225,0.2547638163184358,-1.85090831890932,0.7720041869940264,1.65729832649231,-0.03483715280890465,2.895045280456543,0.6378062963485718,1.289339065551758,0.2064359337091446,XTrueNorthZVertical,0.3186342550507653,-0.7053489362759345,-0.2275493511323903,0.5909114843638974,-0.6885875463485718,-0.697572648525238,0.1980898231267929,-22.82222366333008,-16.99270248413086,-23.07037162780762,2,10.3.35.51,10.83.46.32,1,0
2015-02-27 20:20:10.782,146,1425097210.113721,37.78658333016038,-122.3986475805649,15.30254,1.405226,-1,10,200,-9999,1425097210.763818,-23.26834106445312,-15.62847900390625,-20.45873260498047,338.0703430175781,324.2970581054688,10,139238.0815039167,-1.559921264648438,-0.9871978759765625,0.6068572998046875,139238.0736217917,2.921394771494881,1.709198145485225,2.486099227108666,139238.02184225,0.2547638163184358,-1.85090831890932,0.7720041869940264,1.65729832649231,-0.03483715280890465,2.895045280456543,0.6378062963485718,1.289339065551758,0.2064359337091446,XTrueNorthZVertical,0.3186342550507653,-0.7053489362759345,-0.2275493511323903,0.5909114843638974,-0.6885875463485718,-0.697572648525238,0.1980898231267929,-22.82222366333008,-16.99270248413086,-23.07037162780762,2,10.3.35.51,10.83.46.32,1,0
