loggingTime,loggingSample,locationTimestamp_since1970,locationLatitude,locationLongitude,locationAltitude,locationSpeed,locationCourse,locationVerticalAccuracy,locationHorizontalAccuracy,locationFloor,locationHeadingTimestamp_since1970,locationHeadingX,locationHeadingY,locationHeadingZ,locationTrueHeading,locationMagneticHeading,locationHeadingAccuracy,accelerometerTimestamp_sinceReboot,accelerometerAccelerationX,accelerometerAccelerationY,accelerometerAccelerationZ,gyroTimestamp_sinceReboot,gyroRotationX,gyroRotationY,gyroRotationZ,motionTimestamp_sinceReboot,motionYaw,motionRoll,motionPitch,motionRotationRateX,motionRotationRateY,motionRotationRateZ,motionUserAccelerationX,motionUserAccelerationY,motionUserAccelerationZ,motionAttitudeReferenceFrame,motionQuaternionX,motionQuaternionY,motionQuaternionZ,motionQuaternionW,motionGravityX,motionGravityY,motionGravityZ,motionMagneticFieldX,motionMagneticFieldY,motionMagneticFieldZ,motionMagneticFieldCalibrationAccuracy,IP_en0,IP_pdp_ip0,deviceOrientation,state
2015-03-13 09:26:45.374,1,1426264003.318073,37.77912456231904,-122.4386948588684,57.10246,-1,-1,10,65,-9999,1426264005.293724,-22.95176124572754,291.7056579589844,-89.43218231201172,22.1728401184082,8.400853157043457,-1,400720.22935575,-0.4725494384765625,-0.62713623046875,-0.55755615234375,400720.2358089167,-0.2729521738121833,2.26080991364174,0.09876359534169755,400720.184035375,0.3284255004829832,-0.8278801367688314,0.7248161712564625,-0.3336040675640106,1.766574859619141,0.07446661591529846,-0.0402090921998024,-0.02199972234666348,0.01849653944373131,XTrueNorthZVertical,0.3817004025593302,-0.3179727076059771,-0.0007319692689236742,0.8678695893535845,-0.5513588786125183,-0.662997841835022,-0.5063962936401367,0,0,0,-1,192.168.1.8,10.71.35.210,1,0
2015-03-13 09:26:45.464,2,1426264003.318073,37.77912456231904,-122.4386948588684,57.10246,-1,-1,10,65,-9999,1426264005.401913,-17.01772689819336,292.4533386230469,-91.79530334472656,19.0799674987793,5.307982444763184,-1,400720.27840675,-0.3243408203125,-0.5879669189453125,-0.5964813232421875,400720.2358089167,-0.2729521738121833,2.26080991364174,0.09876359534169755,400720.2358089167,0.3162038025396494,-0.7080154164539237,0.7095740926024001,-0.2887862920761108,2.274262189865112,0.1312926560640335,0.02081461064517498,0.02437448874115944,0.01874732412397861,XTrueNorthZVertical,0.372965627085133,-0.2697126301745001,0.01955919304037341,0.8875636180606756,-0.4933640360832214,-0.6515107154846191,-0.5763034820556641,0,0,0,-1,192.168.1.8,10.71.35.210,1,0
2015-03-13 09:26:45.541,3,1426264003.318073,37.77912456231904,-122.4386948588684,57.10246,-1,-1,10,65,-9999,1426264005.499368,-16.62553596496582,292.2664489746094,-91.17955017089844,19.07539749145508,5.303412437438965,-1,400720.3274950417,-0.3811187744140625,-0.6173553466796875,-0.612060546875,400720.287580375,-0.03799372137550645,0.5890326435815457,0.01455470798950105,400720.287580375,0.3167638826261042,-0.6416192708303037,0.7004314599690473,-0.05382783710956573,0.6024850010871887,0.04708341509103775,0.1332458406686783,0.05658070743083954,0.01603219471871853,XTrueNorthZVertical,0.3682362418247128,-0.2411333892902783,0.03375095082716999,0.8972834736550415,-0.4575866460800171,-0.6445476412773132,-0.612513542175293,0,0,0,-1,192.168.1.8,10.71.35.210,1,0
2015-03-13 09:26:45.622,4,1426264003.318073,37.77912456231904,-122.4386948588684,57.10246,-1,-1,10,65,-9999,1426264005.603631,-16.71079635620117,291.9096069335938,-91.46245574951172,18.92329788208008,5.151312828063965,-1,400720.3765497084,-0.51947021484375,-0.6473846435546875,-0.599395751953125,400720.3393539584,0.05837223003679277,-0.5006391312085078,0.05656873734659112,400720.3393539584,0.3177750643871228,-0.6440542989654061,0.699523235321016,0.04251795262098312,-0.4871362745761871,0.08905173093080521,0.0565808042883873,0.007393613923341036,-0.0008665986242704093,XTrueNorthZVertical,0.3680077210161947,-0.2421521211425916,0.03391277687465458,0.8970967568012164,-0.4594281017780304,-0.6438529491424561,-0.6118653416633606,0,0,0,-1,192.168.1.8,10.71.35.210,1,0
2015-03-13 09:26:45.630,5,1426264003.318073,37.77912456231904,-122.4386948588684,57.10246,-1,-1,10,65,-9999,1426264005.603631,-16.71079635620117,291.9096069335938,-91.46245574951172,18.92329788208008,5.151312828063965,-1,400720.42562175,-0.4710235595703125,-0.6401824951171875,-0.60394287109375,400720.3911275833,0.06025455229526078,-0.2125687245201626,-0.0008580705032235305,400720.3911275833,0.3237215541846199,-0.6695138918329516,0.6989183301897519,0.044404037296772,-0.1990776807069778,0.03163599595427513,-0.04974432662129402,-0.003414805745705962,0.0008657263242639601,XTrueNorthZVertical,0.3689024484699223,-0.2525324037975547,0.0319911716405521,0.8939322868552124,-0.4750969707965851,-0.6433899998664856,-0.6002767086029053,0,0,0,-1,192.168.1.8,10.71.35.210,1,0
2015-03-13 09:26:45.639,6,1426264003.318073,37.77912456231904,-122.4386948588684,57.10246,-1,-1,10,65,-9999,1426264005.603631,-16.71079635620117,291.9096069335938,-91.46245574951172,18.92329788208008,5.151312828063965,-1,400720.474668625,-0.4521942138671875,-0.626251220703125,-0.6002655029296875,400720.4428990834,0.04896807559550497,0.2261420576479695,0.002765160159829273,400720.4428990834,0.3262337632745285,-0.667031009142212,0.6999314912667024,0.03311776742339134,0.2396316826343536,0.03526051715016365,-0.00310151744633913,0.0002596476988401264,-0.001871673390269279,XTrueNorthZVertical,0.369612467733927,-0.2508298228735385,0.03339199202526743,0.8940671107480973,-0.47320157289505,-0.6441652774810791,-0.600942075252533,0,0,0,-1,192.168.1.8,10.71.35.210,1,0
2015-03-13 09:26:45.645,7,1426264003.318073,37.77912456231904,-122.4386948588684,57.10246,-1,-1,10,65,-9999,1426264005.603631,-16.71079635620117,291.9096069335938,-91.46245574951172,18.92329788208008,5.151312828063965,-1,400720.5237714584,-0.4161529541015625,-0.6281280517578125,-0.608917236328125,400720.4946726667,0.07025498850461732,0.158300692039291,-0.01023852281080963,400720.4946726667,0.3281963763946311,-0.6554291698158341,0.7000779457750204,0.05439011380076408,0.1718056797981262,0.02225123904645443,0.04002340883016586,0.03159114345908165,0.0005275058792904019,XTrueNorthZVertical,0.3697163467212989,-0.2452579820289539,0.03638853255420062,0.895451964047594,-0.4661403596401215,-0.6442772746086121,-0.6063166856765747,0,0,0,-1,192.168.1.8,10.71.35.210,1,0
2015-03-13 09:26:45.690,8,1426264003.318073,37.77912456231904,-122.4386948588684,57.10246,-1,-1,10,65,-9999,1426264005.603631,-16.71079635620117,291.9096069335938,-91.46245574951172,18.92329788208008,5.151312828063965,-1,400720.5728247084,-0.4452362060546875,-0.62353515625,-0.5986175537109375,400720.5464462917,0.1053461306080464,-0.1538380330006452,0.01592623595089186,400720.5464462917,0.3324856695364642,-0.6570582499607547,0.7017128200547825,0.08947513997554779,-0.1403217911720276,0.04840753972530365,0.03778781741857529,0.01456059236079454,-0.00190672546159476,XTrueNorthZVertical,0.3709742581351769,-0.2449841903780807,0.03771902879577508,0.8949514630037512,-0.4664835035800934,-0.6455267667770386,-0.6047216653823853,0,0,0,-1,192.168.1.8,10.71.35.210,1,0
2015-03-13 09:26:45.694,9,1426264003.318073,37.77912456231904,-122.4386948588684,57.10246,-1,-1,10,65,-9999,1426264005.603631,-16.71079635620117,291.9096069335938,-91.46245574951172,18.92329788208008,5.151312828063965,-1,400720.6219026667,-0.37518310546875,-0.57269287109375,-0.5973968505859375,400720.59821775,0.1381573405022587,-0.3023550701433121,-0.03665095555388849,400720.59821775,0.3370028022711683,-0.6705897202366363,0.7046388850418221,0.1222698763012886,-0.2888267338275909,-0.00416951347142458,0.02734150364995003,0.05045346170663834,-0.008139061741530895,XTrueNorthZVertical,0.3730378639676636,-0.2498135101528438,0.03670034663398826,0.8927984356776741,-0.4734474718570709,-0.6477587819099426,-0.5968719124794006,0,0,0,-1,192.168.1.8,10.71.35.210,1,0
2015-03-13 09:26:45.725,10,1426264003.318073,37.77912456231904,-122.4386948588684,57.10246,-1,-1,10,65,-9999,1426264005.706659,-17.15414047241211,291.603759765625,-91.29603576660156,19.11589431762695,5.343907356262207,-1,400720.670947625,-0.264801025390625,-0.537689208984375,-0.552978515625,400720.6499915834,0.3121786724562874,-1.042855000723115,-0.04884956492699644,400720.6499915834,0.3441625187397125,-0.7054647526873025,0.7131250734343998,0.2962913811206818,-1.029326796531677,-0.0163684468716383,0.2071709632873535,0.08547493815422058,-0.004939177539199591,XTrueNorthZVertical,0.378160652123666,-0.2628630507903459,0.03177900350795248,0.8870668704503826,-0.490389347076416,-0.6542004942893982,-0.57579505443573,0,0,0,-1,192.168.1.8,10.71.35.210,1,0
2015-03-13 09:26:45.794,11,1426264003.318073,37.77912456231904,-122.4386948588684,57.10246,-1,-1,10,65,-9999,1426264005.757622,-18.84227180480957,291.3148803710938,-90.87998962402344,19.91889762878418,6.14691162109375,-1,400720.72000175,-0.5455169677734375,-0.6153564453125,-0.5028228759765625,400720.7017652083,0.578993325220274,-2.294382787607715,-0.05687659876860428,400720.7017652083,0.3646172529383832,-0.808891540208789,0.7311195923069995,0.5631061792373657,-2.28085470199585,-0.02439584024250507,0.1149953678250313,0.06456935405731201,0.02124880440533161,XTrueNorthZVertical,0.389814670988458,-0.301836243349286,0.01732265879189724,0.8698501767404135,-0.5386098623275757,-0.6677035093307495,-0.5138788223266602,0,0,0,-1,192.168.1.8,10.71.35.210,1,0
2015-03-13 09:26:45.824,12,1426264003.318073,37.77912456231904,-122.4386948588684,57.10246,-1,-1,10,65,-9999,1426264005.810076,-21.50235557556152,290.2952575683594,-89.24911499023438,21.45141983032227,7.679433345794678,-1,400720.7690424584,-0.517913818359375,-0.7174072265625,-0.4421539306640625,400720.7535365417,0.6042028080989641,-2.289013588534006,-0.9634557822996012,400720.7017652083,0.3646172529383832,-0.808891540208789,0.7311195923069995,0.5631061792373657,-2.28085470199585,-0.02439584024250507,0.1149953678250313,0.06456935405731201,0.02124880440533161,XTrueNorthZVertical,0.389814670988458,-0.301836243349286,0.01732265879189724,0.8698501767404135,-0.5386098623275757,-0.6677035093307495,-0.5138788223266602,0,0,0,-1,192.168.1.8,10.71.35.210,1,0
2015-03-13 09:26:45.894,13,1426264003.318073,37.77912456231904,-122.4386948588684,57.10246,-1,-1,10,65,-9999,1426264005.860349,-25.16849899291992,288.8848266601562,-87.46846771240234,24.93158721923828,11.15960025787354,-1,400720.8181275417,-0.5745849609375,-0.6276397705078125,-0.3480377197265625,400720.8053102084,0.3557045783642154,-2.637188611548241,-1.113237820960056,400720.8053102084,0.3644444395319071,-1.048741440960264,0.8232087259746479,0.3398173153400421,-2.623659372329712,-1.080759048461914,0.08320672810077667,0.1466306895017624,-0.06359200924634933,XTrueNorthZVertical,0.4237423242603984,-0.3884961290511043,-0.05322543912142162,0.8165049007648602,-0.5893102288246155,-0.7333311438560486,-0.3390263915061951,0,0,0,-1,192.168.1.8,10.71.35.210,1,0
2015-03-13 09:26:45.923,14,1426264003.318073,37.77912456231904,-122.4386948588684,57.10246,-1,-1,10,65,-9999,1426264005.860349,-25.16849899291992,288.8848266601562,-87.46846771240234,24.93158721923828,11.15960025787354,-1,400720.8671815,-0.759246826171875,-0.70867919921875,-0.204864501953125,400720.8570840417,0.2057686089927543,-1.62138626749426,-1.128826634400834,400720.8053102084,0.3644444395319071,-1.048741440960264,0.8232087259746479,0.3398173153400421,-2.623659372329712,-1.080759048461914,0.08320672810077667,0.1466306895017624,-0.06359200924634933,XTrueNorthZVertical,0.4237423242603984,-0.3884961290511043,-0.05322543912142162,0.8165049007648602,-0.5893102288246155,-0.7333311438560486,-0.3390263915061951,0,0,0,-1,192.168.1.8,10.71.35.210,1,0
2015-03-13 09:26:45.992,15,1426264003.318073,37.77912456231904,-122.4386948588684,57.10246,-1,-1,10,65,-9999,1426264005.860349,-25.16849899291992,288.8848266601562,-87.46846771240234,24.93158721923828,11.15960025787354,-1,400720.9162595417,-0.561492919921875,-0.7503509521484375,-0.1505126953125,400720.9088554584,0.2601650058381678,-0.292706437513955,-1.272555574219648,400720.8570840417,0.3456806010909854,-1.14556792781582,0.8754381834513969,0.1898815035820007,-1.607857227325439,-1.09634804725647,-0.1695066392421722,-0.02074991539120674,0.05272781848907471,XTrueNorthZVertical,0.4353362481914114,-0.4222995225689521,-0.09540037612222624,0.7893315098768058,-0.5836061835289001,-0.7678242921829224,-0.2642909288406372,0,0,0,-1,192.168.1.8,10.71.35.210,1,0
2015-03-13 09:26:46.019,16,1426264003.318073,37.77912456231904,-122.4386948588684,57.10246,-1,-1,10,65,-9999,1426264005.860349,-25.16849899291992,288.8848266601562,-87.46846771240234,24.93158721923828,11.15960025787354,-1,400720.9653030834,-0.5819091796875,-0.768402099609375,-0.0933074951171875,400720.9606290833,0.4514300395343506,-0.4376385935132662,-1.253338203793636,400720.9088554584,0.3201264856809474,-1.163597043487004,0.9370649741881986,0.2442778348922729,-0.2791780531406403,-1.240076541900635,-0.008768237195909023,0.1491310745477676,0.08070825040340424,XTrueNorthZVertical,0.450604494950063,-0.4239070244616204,-0.1261736782437002,0.775460267622622,-0.5437372326850891,-0.8058235645294189,-0.2345168441534042,0,0,0,-1,192.168.1.8,10.71.35.210,1,0
2015-03-13 09:26:46.100,17,1426264003.318073,37.77912456231904,-122.4386948588684,57.10246,-1,-1,10,65,-9999,1426264005.860349,-25.16849899291992,288.8848266601562,-87.46846771240234,24.93158721923828,11.15960025787354,-1,400721.0143821251,-0.4764251708984375,-0.9470672607421875,-0.1202850341796875,400721.01240275,0.5116182791184684,-0.8466101221045925,-1.32630002923021,400721.01240275,0.3027325603080367,-1.196799675628389,1.069564812484367,0.4957314431667328,-0.8330821990966797,-1.293821334838867,-0.01448594219982624,0.001350607955828309,0.03605157136917114,XTrueNorthZVertical,0.4893634559570221,-0.4156316842385445,-0.1766234727789562,0.7460414599030881,-0.4472907781600952,-0.8769914507865906,-0.1755474209785461,0,0,0,-1,192.168.1.8,10.71.35.210,1,0
2015-03-13 09:26:46.118,18,1426264003.318073,37.77912456231904,-122.4386948588684,57.10246,-1,-1,10,65,-9999,1426264005.860349,-25.16849899291992,288.8848266601562,-87.46846771240234,24.93158721923828,11.15960025787354,-1,400721.06343325,-0.522369384765625,-0.8172454833984375,-0.0265655517578125,400721.01240275,0.5116182791184684,-0.8466101221045925,-1.32630002923021,400721.01240275,0.3027325603080367,-1.196799675628389,1.069564812484367,0.4957314431667328,-0.8330821990966797,-1.293821334838867,-0.01448594219982624,0.001350607955828309,0.03605157136917114,XTrueNorthZVertical,0.4893634559570221,-0.4156316842385445,-0.1766234727789562,0.7460414599030881,-0.4472907781600952,-0.8769914507865906,-0.1755474209785461,0,0,0,-1,192.168.1.8,10.71.35.210,1,0
2015-03-13 09:26:46.192,19,1426264003.318073,37.77912456231904,-122.4386948588684,57.10246,-1,-1,10,65,-9999,1426264005.860349,-25.16849899291992,288.8848266601562,-87.46846771240234,24.93158721923828,11.15960025787354,-1,400721.1124986667,-0.4103240966796875,-0.8901214599609375,-0.0109100341796875,400721.1159480417,0.1864215426216557,0.5393247418352167,-1.045116024488592,400721.0641743334,0.2951972066682225,-1.22708637134897,1.132585247761251,0.2922292649745941,-0.4640363752841949,-1.318682909011841,-0.1228672116994858,0.08826670050621033,0.1164228916168213,XTrueNorthZVertical,0.5053420881372642,-0.4160951237430909,-0.2040741965588125,0.7279065491209471,-0.399502158164978,-0.9055122137069702,-0.1429884433746338,0,0,0,-1,192.168.1.8,10.71.35.210,1,0
2015-03-13 09:26:46.216,20,1426264003.318073,37.77912456231904,-122.4386948588684,57.10246,-1,-1,10,65,-9999,1426264005.860349,-25.16849899291992,288.8848266601562,-87.46846771240234,24.93158721923828,11.15960025787354,-1,400721.1615411667,-0.3499908447265625,-1.038223266601562,-0.012359619140625,400721.1159480417,0.1864215426216557,0.5393247418352167,-1.045116024488592,400721.1159480417,0.2708236398367317,-1.197392192549586,1.193052988414095,0.1707319021224976,0.5525873303413391,-1.012637853622437,-0.06691554933786392,0.0393778532743454,0.1236321479082108,XTrueNorthZVertical,0.5227564969060835,-0.3993176115650131,-0.2214393257738992,0.7198859041801646,-0.3434085547924042,-0.9294993281364441,-0.1345421820878983,0,0,0,-1,192.168.1.8,10.71.35.210,1,0
2015-03-13 09:26:46.295,21,1426264003.318073,37.77912456231904,-122.4386948588684,57.10246,-1,-1,10,65,-9999,1426264005.860349,-25.16849899291992,288.8848266601562,-87.46846771240234,24.93158721923828,11.15960025787354,-1,400721.2106198334,-0.2493438720703125,-1.003585815429688,-0.07562255859375,400721.167721875,0.1994164371606973,0.810293393267509,-1.177970212312176,400721.167721875,0.2328487923553519,-1.123696934713018,1.244595068099931,0.1837273091077805,0.8235553503036499,-1.1454918384552,-0.06104225292801857,-0.09095679968595505,0.1261862069368362,XTrueNorthZVertical,0.5402396883182649,-0.3726501920874067,-0.2285641439030158,0.71904891740749,-0.2889485955238342,-0.9472664594650269,-0.1385458260774612,0,0,0,-1,192.168.1.8,10.71.35.210,1,0
2015-03-13 09:26:46.314,22,1426264003.318073,37.77912456231904,-122.4386948588684,57.10246,-1,-1,10,65,-9999,1426264005.860349,-25.16849899291992,288.8848266601562,-87.46846771240234,24.93158721923828,11.15960025787354,-1,400721.2597704583,-0.161407470703125,-0.7823486328125,-0.0522003173828125,400721.2194933334,0.1887605970070723,0.138808749704892,-1.24050815892607,400721.2194933334,0.1688733322107817,-1.036730869544567,1.301881605932345,0.1730719208717346,0.1520703732967377,-1.208030343055725,-0.0206566359847784,-0.03952600806951523,0.05962106212973595,XTrueNorthZVertical,0.5576992366452072,-0.3483529118677313,-0.2408705488953934,0.713864965461576,-0.2286872416734695,-0.9640598297119141,-0.1352436244487762,0,0,0,-1,192.168.1.8,10.71.35.210,1,0
2015-03-13 09:26:46.387,23,1426264003.318073,37.77912456231904,-122.4386948588684,57.10246,-1,-1,10,65,-9999,1426264005.860349,-25.16849899291992,288.8848266601562,-87.46846771240234,24.93158721923828,11.15960025787354,-1,400721.308758125,-0.16278076171875,-0.8233184814453125,-0.0341644287109375,400721.2712671667,-0.0107482518434508,0.2540051142368145,-0.978845391290842,400721.2712671667,0.04637752080743531,-0.9140714129159799,1.351248812656001,-0.02643675915896893,0.2672666013240814,-0.9463678002357483,0.04684637114405632,0.1538983136415482,0.09205649793148041,XTrueNorthZVertical,0.5690313994485116,-0.3312410176390653,-0.2596658307238883,0.7064391771621797,-0.1724872440099716,-0.9759960770606995,-0.1329653114080429,0,0,0,-1,192.168.1.8,10.71.35.210,1,0
2015-03-13 09:26:46.413,24,1426264003.318073,37.77912456231904,-122.4386948588684,57.10246,-1,-1,10,65,-9999,1426264005.860349,-25.16849899291992,288.8848266601562,-87.46846771240234,24.93158721923828,11.15960025787354,-1,400721.3579198333,-0.05877685546875,-0.7525482177734375,-0.0955047607421875,400721.3230407501,-0.20653213727728,0.5514881974819357,-0.8306559229622549,400721.3230407501,-0.09516710474312658,-0.7521011304886825,1.374026957061063,-0.2222204804420471,0.5647495985031128,-0.7981787323951721,-0.03666500002145767,0.1958827376365662,0.09592188894748688,XTrueNorthZVertical,0.5757390693259767,-0.3116750534907105,-0.2668629074305371,0.7072251223768433,-0.1335620582103729,-0.9807032942771912,-0.1427663713693619,0,0,0,-1,192.168.1.8,10.71.35.210,1,0
2015-03-13 09:26:46.488,25,1426264003.318073,37.77912456231904,-122.4386948588684,57.10246,-1,-1,10,65,-9999,1426264006.486095,-10.60624217987061,277.7711791992188,-80.21270751953125,35.20610809326172,21.43412208557129,-1,400721.4069140417,-0.0357513427734375,-0.78778076171875,-0.07647705078125,400721.3748125834,-0.2516215850611936,0.5021299687867341,-0.7485972718741883,400721.3748125834,-0.3139438030962155,-0.5092073888345814,1.388818022062621,-0.2673097848892212,0.5153912305831909,-0.7161203622817993,0.050869420170784,0.2133765071630478,0.073466457426548,XTrueNorthZVertical,0.5814323266210336,-0.2879735171076995,-0.2754476934230091,0.7093209930578797,-0.088222935795784,-0.983487606048584,-0.1580154001712799,0,0,0,-1,192.168.1.8,10.71.35.210,1,0
2015-03-13 09:26:46.511,26,1426264003.318073,37.77912456231904,-122.4386948588684,57.10246,-1,-1,10,65,-9999,1426264006.486095,-10.60624217987061,277.7711791992188,-80.21270751953125,35.20610809326172,21.43412208557129,-1,400721.4560849167,0.06048583984375,-0.7259674072265625,-0.121185302734375,400721.426586125,-0.2649509726331492,0.4772962579378542,-0.7026875704745303,400721.426586125,-0.5097523204090388,-0.2927960041989099,1.386645899535032,-0.2806389927864075,0.4905573427677155,-0.6702110171318054,0.04438287764787674,0.2374561876058578,0.07219938188791275,XTrueNorthZVertical,0.5835468746316477,-0.2679811639118213,-0.2820589421596085,0.7128126640597119,-0.05285150557756424,-0.983092188835144,-0.1753182858228683,0,0,0,-1,192.168.1.8,10.71.35.210,1,0
2015-03-13 09:26:46.587,27,1426264003.318073,37.77912456231904,-122.4386948588684,57.10246,-1,-1,10,65,-9999,1426264006.538236,-8.986320495605469,278.5698547363281,-80.06292724609375,35.28273391723633,21.5107479095459,-1,400721.505076,0.1075439453125,-0.82958984375,-0.052276611328125,400721.47836,-0.1592738111016059,0.4993554875630896,-0.3866230796717084,400721.47836,-0.6635288581718936,-0.1177393732992398,1.381306851898627,-0.1749616861343384,0.5126164555549622,-0.3541468381881714,0.08274906128644943,0.257750540971756,0.1084249392151833,XTrueNorthZVertical,0.5864874318007897,-0.2500115031407267,-0.2860703179865061,0.71532546005586,-0.02212589420378208,-0.9821005463600159,-0.1870534867048264,0,0,0,-1,192.168.1.8,10.71.35.210,1,0
2015-03-13 09:26:46.608,28,1426264003.318073,37.77912456231904,-122.4386948588684,57.10246,-1,-1,10,65,-9999,1426264006.596688,-7.468708992004395,278.6888122558594,-79.94643402099609,33.76657104492188,19.99458503723145,-1,400721.5541457083,0.184112548828125,-0.90087890625,-0.1852569580078125,400721.5301315,-0.04241217194005691,0.9037322643257022,-0.0374174133156133,400721.5301315,-0.7198839887495323,-0.02293796634910837,1.377041816703431,-0.05809991061687469,0.9169930815696716,-0.004941459745168686,0.1966464221477509,0.01050882413983345,0.1595501303672791,XTrueNorthZVertical,0.5915194688225112,-0.2320728198688518,-0.278781859043269,0.7200886052080206,-0.004416191950440407,-0.9812882542610168,-0.1924938559532166,0,0,0,-1,192.168.1.8,10.71.35.210,1,0
2015-03-13 09:26:46.687,29,1426264003.318073,37.77912456231904,-122.4386948588684,57.10246,-1,-1,10,65,-9999,1426264006.596688,-7.468708992004395,278.6888122558594,-79.94643402099609,33.76657104492188,19.99458503723145,-1,400721.6032379583,0.1083831787109375,-0.851348876953125,-0.163177490234375,400721.581905375,0.03894473620077374,0.2735386018842187,0.1557110341952979,400721.581905375,-0.6652340952021689,-0.04659332870465678,1.37500122012085,0.02325715497136116,0.286799281835556,0.1881866604089737,0.1242041140794754,0.1797458380460739,-0.01570185646414757,XTrueNorthZVertical,0.5937843777491244,-0.2241705269816572,-0.2662483961427722,0.7254512244977283,-0.009061289951205254,-0.9808933138847351,-0.1943353712558746,0,0,0,-1,192.168.1.8,10.71.35.210,1,0
2015-03-13 09:26:46.707,30,1426264003.318073,37.77912456231904,-122.4386948588684,57.10246,-1,-1,10,65,-9999,1426264006.696023,-5.524798393249512,279.2665405273438,-80.04627990722656,32.06445693969727,18.29247093200684,-1,400721.652299875,0.0276641845703125,-1.006088256835938,-0.15411376953125,400721.6336790417,-0.01461702595900891,0.01836941993493055,0.3860963064080907,400721.6336790417,-0.6115030376115935,-0.09683760184400265,1.371516583079982,-0.0303044356405735,0.03162997961044312,0.4185715615749359,0.1513424962759018,-0.03761284798383713,0.04772865027189255,XTrueNorthZVertical,0.5919069664458257,-0.2261154392093428,-0.2619185291477327,0.7279537315744422,-0.01914035156369209,-0.9802094101905823,-0.1970359086990356,0,0,0,-1,192.168.1.8,10.71.35.210,1,0
2015-03-13 09:26:46.791,31,1426264003.318073,37.77912456231904,-122.4386948588684,57.10246,-1,-1,10,65,-9999,1426264006.746381,-5.473641872406006,279.4194946289062,-79.86322784423828,31.99347305297852,18.22148704528809,-1,400721.701386125,0.0513916015625,-0.97979736328125,-0.1931304931640625,400721.6854508333,-0.05381050140559605,0.3869186905527072,0.2410861197888401,400721.6854508333,-0.5537226335851405,-0.1378474481344761,1.37209792663747,-0.06944876909255981,0.4001962840557098,0.2734650671482086,0.07123725861310959,-0.007911138236522675,-0.00473529938608408,XTrueNorthZVertical,0.5933482917131204,-0.2240028581926537,-0.2529605217975844,0.7305966730382354,-0.02712409943342209,-0.9803243279457092,-0.1955210417509079,0,0,0,-1,192.168.1.8,10.71.35.210,1,0
2015-03-13 09:26:46.806,32,1426264003.318073,37.77912456231904,-122.4386948588684,57.10246,-1,-1,10,65,-9999,1426264006.796606,-5.388383388519287,279.4364624023438,-80.01300048828125,31.68477821350098,17.91279220581055,-1,400721.7505544584,0.0549468994140625,-1.0706787109375,-0.1524200439453125,400721.7372245,-0.2852328085468657,0.8798855209768056,0.3061189157119211,400721.6854508333,-0.5537226335851405,-0.1378474481344761,1.37209792663747,-0.06944876909255981,0.4001962840557098,0.2734650671482086,0.07123725861310959,-0.007911138236522675,-0.00473529938608408,XTrueNorthZVertical,0.5933482917131204,-0.2240028581926537,-0.2529605217975844,0.7305966730382354,-0.02712409943342209,-0.9803243279457092,-0.1955210417509079,0,0,0,-1,192.168.1.8,10.71.35.210,1,0
2015-03-13 09:26:46.888,33,1426264003.318073,37.77912456231904,-122.4386948588684,57.10246,-1,-1,10,65,-9999,1426264006.848769,-4.996190071105957,279.2495727539062,-79.86322021484375,30.59835052490234,16.82636451721191,-1,400721.7995150834,0.0647125244140625,-1.038360595703125,-0.2295074462890625,400721.788998375,-0.3833210262361191,1.054969187889667,0.3226696629384365,400721.788998375,-0.4164674544527089,-0.1885531167588519,1.33598526779905,-0.3989552855491638,1.068247556686401,0.35504150390625,0.1035609319806099,-0.1110140681266785,0.01866630464792252,XTrueNorthZVertical,0.5880610275070185,-0.1997908489638663,-0.2186276276758885,0.7526418836435433,-0.0436091460287571,-0.972558319568634,-0.2285356819629669,0,0,0,-1,192.168.1.8,10.71.35.210,1,0
2015-03-13 09:26:46.902,34,1426264003.318073,37.77912456231904,-122.4386948588684,57.10246,-1,-1,10,65,-9999,1426264006.848769,-4.996190071105957,279.2495727539062,-79.86322021484375,30.59835052490234,16.82636451721191,-1,400721.8485607083,0.09613037109375,-1.217788696289062,-0.2436981201171875,400721.840770125,-0.3449235696393567,0.5941325970690475,0.2461631700909672,400721.788998375,-0.4164674544527089,-0.1885531167588519,1.33598526779905,-0.3989552855491638,1.068247556686401,0.35504150390625,0.1035609319806099,-0.1110140681266785,0.01866630464792252,XTrueNorthZVertical,0.5880610275070185,-0.1997908489638663,-0.2186276276758885,0.7526418836435433,-0.0436091460287571,-0.972558319568634,-0.2285356819629669,0,0,0,-1,192.168.1.8,10.71.35.210,1,0
2015-03-13 09:26:46.991,35,1426264003.318073,37.77912456231904,-122.4386948588684,57.10246,-1,-1,10,65,-9999,1426264006.95193,-3.188697814941406,280.1671447753906,-80.39574432373047,27.14915466308594,13.37716865539551,-1,400721.897639375,0.0021820068359375,-1.028961181640625,-0.312774658203125,400721.8925439167,-0.2324119378023431,0.2542144386984947,0.06739155770056413,400721.840770125,-0.3763568809653202,-0.1844289554701201,1.314716540175663,-0.3605576455593109,0.6074107885360718,0.2785346806049347,0.1660785675048828,-0.2265488505363464,0.003404407296329737,XTrueNorthZVertical,0.5840544521129789,-0.1854267733789573,-0.2027294938856971,0.7638049888486764,-0.04644966125488281,-0.9673903584480286,-0.2489946186542511,0,0,0,-1,192.168.1.8,10.71.35.210,1,0
2015-03-13 09:26:47.001,36,1426264003.318073,37.77912456231904,-122.4386948588684,57.10246,-1,-1,10,65,-9999,1426264006.95193,-3.188697814941406,280.1671447753906,-80.39574432373047,27.14915466308594,13.37716865539551,-1,400721.9467988334,-0.04718017578125,-1.144729614257812,-0.3012542724609375,400721.9443175833,-0.2685097547978221,0.3311052256912625,0.05206000562108697,400721.8925439167,-0.3592553333006082,-0.18250004693349,1.299638143082675,-0.2480481415987015,0.2675080299377441,0.0997287705540657,0.06451094150543213,-0.09246213734149933,-0.03075958788394928,XTrueNorthZVertical,0.5798683343195332,-0.1790336306528963,-0.1959051156085151,0.7702732369926579,-0.04861128330230713,-0.9634613394737244,-0.2633993625640869,0,0,0,-1,192.168.1.8,10.71.35.210,1,0
2015-03-13 09:26:47.099,37,1426264003.318073,37.77912456231904,-122.4386948588684,57.10246,-1,-1,10,65,-9999,1426264007.057831,-3.0693359375,280.5919494628906,-80.87834930419922,25.6787109375,11.90672588348389,-1,400721.9957746667,-0.101654052734375,-1.1517333984375,-0.3540802001953125,400721.99608925,-0.1476544392655902,-0.1477535088581412,0.07616374401517613,400721.9443175833,-0.3524632647700421,-0.1753240577913974,1.284882102409045,-0.2841458022594452,0.344398707151413,0.08439692854881287,0.01019306480884552,-0.1852643638849258,-0.01882820017635822,XTrueNorthZVertical,0.5753173504851373,-0.1736502025589018,-0.1914722353246031,0.7760115569254201,-0.04919452965259552,-0.9594042301177979,-0.2777110934257507,0,0,0,-1,192.168.1.8,10.71.35.210,1,0
2015-03-13 09:26:47.102,38,1426264003.318073,37.77912456231904,-122.4386948588684,57.10246,-1,-1,10,65,-9999,1426264007.057831,-3.0693359375,280.5919494628906,-80.87834930419922,25.6787109375,11.90672588348389,-1,400722.044823625,-0.1627349853515625,-1.11041259765625,-0.3061676025390625,400721.99608925,-0.1476544392655902,-0.1477535088581412,0.07616374401517613,400721.99608925,-0.3445971682207249,-0.1765430413403204,1.27402701061111,-0.163290336728096,-0.1344601958990097,0.1085003092885017,-0.05029493197798729,-0.1954471617937088,-0.06619328260421753,XTrueNorthZVertical,0.5715588397354981,-0.1713972947570298,-0.1889448701389437,0.7798995423247543,-0.05135912075638771,-0.9562862515449524,-0.287886917591095,0,0,0,-1,192.168.1.8,10.71.35.210,1,0
2015-03-13 09:26:47.190,39,1426264003.318073,37.77912456231904,-122.4386948588684,57.10246,-1,-1,10,65,-9999,1426264007.159108,-2.608935594558716,281.4585876464844,-81.26112365722656,24.74580001831055,10.97381401062012,-1,400722.0939215,-0.04559326171875,-1.140609741210938,-0.3715057373046875,400722.0996370417,-0.2282374327936438,0.5825491779077479,0.1471665481538877,400722.047863125,-0.3235021857208282,-0.1937136428164022,1.259410096448412,-0.2949655055999756,0.3402110934257507,0.1921936869621277,-0.1037557795643806,-0.1585028171539307,-0.00551957543939352,XTrueNorthZVertical,0.5659081331164496,-0.1715341694768836,-0.1857551620011014,0.7847413799236509,-0.05897920951247215,-0.9519097805023193,-0.300648033618927,0,0,0,-1,192.168.1.8,10.71.35.210,1,0
2015-03-13 09:26:47.197,40,1426264003.318073,37.77912456231904,-122.4386948588684,57.10246,-1,-1,10,65,-9999,1426264007.159108,-2.608935594558716,281.4585876464844,-81.26112365722656,24.74580001831055,10.97381401062012,-1,400722.14298875,0.0275726318359375,-1.04510498046875,-0.3316497802734375,400722.0996370417,-0.2282374327936438,0.5825491779077479,0.1471665481538877,400722.0996370417,-0.3051836148497687,-0.1829570739121003,1.245866656139916,-0.2437296062707901,0.5956565737724304,0.1795367151498795,0.01248904131352901,-0.1929365545511246,-0.0575917549431324,XTrueNorthZVertical,0.5629525710611727,-0.1616397584799714,-0.1756107530399933,0.7912760925434806,-0.05808230489492416,-0.9476732015609741,-0.3139139711856842,0,0,0,-1,192.168.1.8,10.71.35.210,1,0
2015-03-13 09:26:47.261,41,1426264003.318073,37.77912456231904,-122.4386948588684,57.10246,-1,-1,10,65,-9999,1426264007.212347,-1.943914771080017,281.9174194335938,-81.71044158935547,23.7952766418457,10.02329063415527,-1,400722.1920420834,-0.011138916015625,-1.144851684570312,-0.3797149658203125,400722.151408875,-0.1580021516810931,0.1382217890006386,0.08241817783522723,400722.151408875,-0.2892064207506018,-0.1794946581649883,1.234410107064998,-0.1734941750764847,0.1513290852308273,0.1147880181670189,0.08650224655866623,-0.1011513248085976,-0.006874787155538797,XTrueNorthZVertical,0.5598804382389369,-0.155391114139379,-0.1683712431123771,0.7962654212112262,-0.05892961099743843,-0.9439536333084106,-0.3247749805450439,0,0,0,-1,192.168.1.8,10.71.35.210,1,0
2015-03-13 09:26:47.297,42,1426264003.318073,37.77912456231904,-122.4386948588684,57.10246,-1,-1,10,65,-9999,1426264007.263665,-1.807501196861267,282.3592224121094,-81.77700805664062,23.27716064453125,9.50517463684082,-1,400722.2410954583,-0.0665283203125,-1.172042846679688,-0.4359588623046875,400722.2031825,-0.06752871049670321,-0.1957370137986439,0.07845459518486229,400722.2031825,-0.2780368626181984,-0.1962232592556514,1.227914145299895,-0.08302056044340134,-0.1826298534870148,0.1108240783214569,0.003155101323500276,-0.1894512623548508,-0.05066573992371559,XTrueNorthZVertical,0.5567098197109586,-0.1587407070160041,-0.1686074714480909,0.797776337794831,-0.06554829329252243,-0.9417895674705505,-0.3297511339187622,0,0,0,-1,192.168.1.8,10.71.35.210,1,0
2015-03-13 09:26:47.360,43,1426264003.318073,37.77912456231904,-122.4386948588684,57.10246,-1,-1,10,65,-9999,1426264007.316004,-1.995069861412048,282.1043395996094,-81.72708892822266,23.11507606506348,9.343090057373047,-1,400722.290174125,0.289215087890625,-1.39453125,-0.607147216796875,400722.2549565,0.1970430279972187,0.301744407305357,-0.1094979987474799,400722.2549565,-0.2717352547532446,-0.200132448349091,1.228381577194562,0.1815513372421265,0.3148514330387115,-0.0771288275718689,0.07889531552791595,-0.2846769094467163,-0.1245371252298355,XTrueNorthZVertical,0.5570716405594692,-0.1585583122293969,-0.1671825552828711,0.7978599138422965,-0.06674931943416595,-0.9419466257095337,-0.3290609121322632,0,0,0,-1,192.168.1.8,10.71.35.210,1,0
2015-03-13 09:26:47.394,44,1426264003.318073,37.77912456231904,-122.4386948588684,57.10246,-1,-1,10,65,-9999,1426264007.366897,-1.722241163253784,282.1043395996094,-81.5606689453125,22.69622421264648,8.924237251281738,-1,400722.3392204167,-0.2492523193359375,-0.9502716064453125,-0.37872314453125,400722.3067281667,-0.7293985435758071,-0.0005073321876600949,0.2019277980686421,400722.3067281667,-0.2786970716904464,-0.1783405385653104,1.222653742688897,-0.7448900938034058,0.0125995771959424,0.2342966645956039,0.2722655236721039,-0.4467260241508484,-0.3678717315196991,XTrueNorthZVertical,0.5560038183699736,-0.1516211862391366,-0.1639063252609899,0.8006281823548841,-0.06051930412650108,-0.9400079846382141,-0.3357415497303009,0,0,0,-1,192.168.1.8,10.71.35.210,1,0
2015-03-13 09:26:47.460,45,1426264003.318073,37.77912456231904,-122.4386948588684,57.10246,-1,-1,10,65,-9999,1426264007.419003,-1.688139319419861,282.2402954101562,-81.89350128173828,22.38296318054199,8.610977172851562,-1,400722.3883014167,-0.1009979248046875,-0.814849853515625,-0.104034423828125,400722.358502125,-0.07533550091616149,0.8411367934322617,-0.2804202101409835,400722.358502125,-0.2735327632194661,-0.1810530317134896,1.197438466597262,-0.09082689881324768,0.8542435765266418,-0.2480516582727432,-0.2172201424837112,0.07484563440084457,0.122911773622036,XTrueNorthZVertical,0.5458544031880269,-0.1505054931191035,-0.1626378925159826,0.8080470178022925,-0.06567780673503876,-0.9311078190803528,-0.3587821424007416,0,0,0,-1,192.168.1.8,10.71.35.210,1,0
2015-03-13 09:26:47.495,46,1426264003.318073,37.77912456231904,-122.4386948588684,57.10246,-1,-1,10,65,-9999,1426264007.470344,-0.3580978512763977,283.157958984375,-81.32768249511719,21.73719024658203,7.965204238891602,-1,400722.4373409167,0.1809844970703125,-1.038436889648438,-0.3757476806640625,400722.4102758333,0.1645117163335738,2.151700470097302,-0.6087288503715538,400722.4102758333,-0.3661265049712777,0.0071127186666385,1.200179690846925,0.1490204781293869,2.164807081222534,-0.5763606429100037,0.08696243911981583,0.01753814332187176,0.1799606531858444,XTrueNorthZVertical,0.5558113682687478,-0.09991580899627285,-0.1482611918223198,0.8118553892259808,0.002576135797426105,-0.9321041703224182,-0.3621810972690582,0,0,0,-1,192.168.1.8,10.71.35.210,1,0
2015-03-13 09:26:47.561,47,1426264003.318073,37.77912456231904,-122.4386948588684,57.10246,-1,-1,10,65,-9999,1426264007.526378,2.165573120117188,283.4638061523438,-80.49559783935547,18.81920433044434,5.047217845916748,-1,400722.4864244583,-0.0227508544921875,-1.03961181640625,-0.36932373046875,400722.462047875,0.2046426244838688,-0.743105567390336,-0.1736516851947257,400722.462047875,-2.714341025714169,0.07999978511595841,1.208151103340842,0.1891515552997589,-0.7299990653991699,-0.1412838101387024,0.05246099457144737,-0.1120658814907074,-0.1777732819318771,XTrueNorthZVertical,-0.1524867423466629,0.5476684876827264,0.7988601673801672,-0.1965437321629004,0.02834955230355263,-0.9349616765975952,-0.3536140322685242,-161.4904022216797,-100.8361587524414,-136.2834014892578,1,192.168.1.8,10.71.35.210,1,0
2015-03-13 09:26:47.592,48,1426264003.318073,37.77912456231904,-122.4386948588684,57.10246,-1,-1,10,65,-9999,1426264007.526378,2.165573120117188,283.4638061523438,-80.49559783935547,18.81920433044434,5.047217845916748,-1,400722.5354785,-0.2897491455078125,-0.930389404296875,-0.2611083984375,400722.5138215834,0.2601594131998786,-0.8014026962843885,-0.352092000345523,400722.5138215834,-2.748000169577334,0.05394540815355043,1.221532904566901,0.2446684688329697,-0.7882962822914124,-0.3197244107723236,-0.1161535009741783,-0.09783529490232468,0.1262385994195938,XTrueNorthZVertical,-0.1337610268839312,0.5579014332240493,0.8000799105120054,-0.1752886190258293,0.01845147646963596,-0.9396250247955322,-0.3417079448699951,-163.9666595458984,-101.8984146118164,-132.4835357666016,1,192.168.1.8,10.71.35.210,1,0
2015-03-13 09:26:47.662,49,1426264003.318073,37.77912456231904,-122.4386948588684,57.10246,-1,-1,10,65,-9999,1426264007.651943,-32.09565353393555,-22.7459716796875,-26.52379608154297,78.53186798095703,64.75988006591797,25,400722.5846596667,-0.0036163330078125,-0.9020538330078125,-0.3593292236328125,400722.5655955833,0.1564940035557812,1.222785887136029,-0.9510041726229357,400722.5655955833,-2.834703159237824,0.1548729226496399,1.223254661639629,0.1410032510757446,1.235892057418823,-0.9186369180679321,-0.2203533202409744,0.1212278455495834,0.009209982119500637,XTrueNorthZVertical,-0.1500905770050178,0.5560731199455949,0.7998812666431664,-0.1686577834342949,0.05253716185688972,-0.9402128458023071,-0.3365110158920288,-168.5053558349609,-105.4980773925781,-123.6783752441406,1,192.168.1.8,10.71.35.210,1,0
2015-03-13 09:26:47.694,50,1426264003.318073,37.77912456231904,-122.4386948588684,57.10246,-1,-1,10,65,-9999,1426264007.651943,-32.09565353393555,-22.7459716796875,-26.52379608154297,78.53186798095703,64.75988006591797,25,400722.6336059584,0.181854248046875,-0.812286376953125,-0.306854248046875,400722.6173673334,0.09160555096378258,1.773661823883355,-1.11769541999263,400722.5655955833,-2.834703159237824,0.1548729226496399,1.223254661639629,0.1410032510757446,1.235892057418823,-0.9186369180679321,-0.2203533202409744,0.1212278455495834,0.009209982119500637,XTrueNorthZVertical,-0.1500905770050178,0.5560731199455949,0.7998812666431664,-0.1686577834342949,0.05253716185688972,-0.9402128458023071,-0.3365110158920288,-168.5053558349609,-105.4980773925781,-123.6783752441406,1,192.168.1.8,10.71.35.210,1,0
2015-03-13 09:26:47.747,51,1426264003.318073,37.77912456231904,-122.4386948588684,57.10246,-1,-1,10,65,-9999,1426264007.703792,-29.48672676086426,-22.28717041015625,-24.97612762451172,81.63710021972656,67.8651123046875,25,400722.6828023334,0.302764892578125,-0.9344024658203125,-0.285430908203125,400722.6691413751,0.220242356885117,1.434276830363037,-1.027403606394584,400722.6691413751,-3.125016015113417,0.5947908086640574,1.195406260409029,0.2047518789768219,1.447382807731628,-0.9950369596481323,0.1225488260388374,-0.02359955199062824,0.03954192623496056,XTrueNorthZVertical,-0.2466793696105027,0.5360163299948182,0.7889498112200498,-0.1714466757760926,0.2054388523101807,-0.9303646683692932,-0.3036715686321259,-140.1371765136719,-121.2821197509766,-143.0820007324219,1,192.168.1.8,10.71.35.210,1,0
2015-03-13 09:26:47.791,52,1426264003.318073,37.77912456231904,-122.4386948588684,57.10246,-1,-1,10,65,-9999,1426264007.755944,-25.59891128540039,-21.43746948242188,-23.24539947509766,84.52684020996094,70.75485229492188,25,400722.731721625,0.303558349609375,-0.9507598876953125,-0.184234619140625,400722.7209150834,0.3367074513603532,0.67793721656777,-0.9241174308897137,400722.6691413751,-3.125016015113417,0.5947908086640574,1.195406260409029,0.2047518789768219,1.447382807731628,-0.9950369596481323,0.1225488260388374,-0.02359955199062824,0.03954192623496056,XTrueNorthZVertical,-0.2466793696105027,0.5360163299948182,0.7889498112200498,-0.1714466757760926,0.2054388523101807,-0.9303646683692932,-0.3036715686321259,-140.1371765136719,-121.2821197509766,-143.0820007324219,1,192.168.1.8,10.71.35.210,1,0
2015-03-13 09:26:47.845,53,1426264003.318073,37.77912456231904,-122.4386948588684,57.10246,-1,-1,10,65,-9999,1426264007.807457,-22.3931713104248,-20.45184326171875,-21.34825897216797,86.202880859375,72.43089294433594,25,400722.7809094167,0.4232940673828125,-0.8242950439453125,-0.257354736328125,400722.7726870833,0.01523115090638118,0.7835981328166637,-1.386134601021565,400722.7209150834,3.036476837815165,0.7546413712404074,1.175423669834621,0.3212171196937561,0.6910430788993835,-0.8917511701583862,0.04721065983176231,-0.006025685463100672,0.01967991515994072,XTrueNorthZVertical,-0.2791103541677434,0.530850671834274,0.7833329464562283,-0.163353769705611,0.2638397514820099,-0.9228531122207642,-0.2805899381637573,-123.6204223632812,-128.6526641845703,-151.6137390136719,1,192.168.1.8,10.71.35.210,1,0
2015-03-13 09:26:47.892,54,1426264003.318073,37.77912456231904,-122.4386948588684,57.10246,-1,-1,10,65,-9999,1426264007.858632,-20.04001808166504,-18.82049560546875,-20.01692962646484,87.52793884277344,73.75595092773438,25,400722.8298552083,0.5060882568359375,-0.859588623046875,-0.491851806640625,400722.8244609167,-0.09428042996265816,0.5984216180046201,-1.574530877591515,400722.7726870833,2.938211782036138,0.8784307957382362,1.139258936529822,-0.0002589920768514276,0.7967038154602051,-1.353768706321716,0.05713275447487831,0.1151414066553116,-0.008537913672626019,XTrueNorthZVertical,-0.3066834991090777,0.5219603259757699,0.7815169116808475,-0.1507778196873928,0.321956604719162,-0.9083237648010254,-0.2670052945613861,-105.1355285644531,-139.2384185791016,-156.1391143798828,1,192.168.1.8,10.71.35.210,1,0
2015-03-13 09:26:47.943,55,1426264003.318073,37.77912456231904,-122.4386948588684,57.10246,-1,-1,10,65,-9999,1426264007.91137,-18.0620059967041,-16.54339599609375,-19.18485260009766,90.28171539306641,76.50972747802734,25,400722.878936625,0.53118896484375,-0.7141876220703125,-0.237762451171875,400722.876235,-0.4234197101372242,-0.6609190845699456,-2.1549761582381,400722.876235,2.779811154079962,1.050942515658119,0.9932497108868082,-0.4389095604419708,-0.647813618183136,-2.122610807418823,0.05885660275816917,0.121053546667099,-0.02958407625555992,XTrueNorthZVertical,-0.359673327644374,0.4847977730126435,0.7911695180725324,-0.09827001072277755,0.473842978477478,-0.8378046154975891,-0.2712124288082123,-80.28456878662109,-148.6543426513672,-162.1003265380859,1,192.168.1.8,10.71.35.210,1,0
2015-03-13 09:26:47.994,56,1426264003.318073,37.77912456231904,-122.4386948588684,57.10246,-1,-1,10,65,-9999,1426264007.962652,-16.66375541687012,-13.62054443359375,-19.28470611572266,91.40863800048828,77.63665008544922,25,400722.9279884167,0.400115966796875,-0.7943572998046875,-0.2336578369140625,400722.876235,-0.4234197101372242,-0.6609190845699456,-2.1549761582381,400722.876235,2.779811154079962,1.050942515658119,0.9932497108868082,-0.4389095604419708,-0.647813618183136,-2.122610807418823,0.05885660275816917,0.121053546667099,-0.02958407625555992,XTrueNorthZVertical,-0.359673327644374,0.4847977730126435,0.7911695180725324,-0.09827001072277755,0.473842978477478,-0.8378046154975891,-0.2712124288082123,-80.28456878662109,-148.6543426513672,-162.1003265380859,1,192.168.1.8,10.71.35.210,1,0
2015-03-13 09:26:48.041,57,1426264003.318073,37.77912456231904,-122.4386948588684,57.10246,-1,-1,10,65,-9999,1426264008.014672,-16.25451278686523,-10.0179443359375,-20.15007019042969,94.01840972900391,80.24642181396484,25,400722.9770762083,0.2071075439453125,-0.7677001953125,-0.1717681884765625,400722.9797807917,-0.214497119465489,-1.194193390724611,0.7803589299828003,400722.9280067083,2.741653201720488,1.05517296156584,0.894655465249947,-0.5760725736618042,-0.6365919709205627,-1.364258527755737,-0.1443101614713669,-0.0143637778237462,0.07490378618240356,XTrueNorthZVertical,-0.3706281703924619,0.4564580459013119,0.8067443136993573,-0.05868908440774617,0.5444261431694031,-0.7799935340881348,-0.3085616230964661,-63.08056640625,-153.6990814208984,-164.9778137207031,1,192.168.1.8,10.71.35.210,1,0
2015-03-13 09:26:48.097,58,1426264003.318073,37.77912456231904,-122.4386948588684,57.10246,-1,-1,10,65,-9999,1426264008.066999,-16.56144332885742,-8.318634033203125,-21.94736480712891,91.51752471923828,77.74553680419922,25,400723.0261163334,0.5076446533203125,-0.718353271484375,-0.1828460693359375,400722.9797807917,-0.214497119465489,-1.194193390724611,0.7803589299828003,400722.9797807917,2.765127615957269,0.9865384015782103,0.8854998050885124,-0.2299866378307343,-1.181088209152222,0.8127235174179077,-0.3208101987838745,0.0065312166698277,0.1773285716772079,XTrueNorthZVertical,-0.3496820821449874,0.4507483313091301,0.8197637786602777,-0.05035588462909712,0.527917742729187,-0.7742314338684082,-0.3490967750549316,-60.90908050537109,-153.2474060058594,-166.2093811035156,1,192.168.1.8,10.71.35.210,1,0
2015-03-13 09:26:48.140,59,1426264003.318073,37.77912456231904,-122.4386948588684,57.10246,-1,-1,10,65,-9999,1426264008.120027,-17.97674560546875,-9.185272216796875,-23.36190795898438,95.793212890625,82.02122497558594,26,400723.0753295,0.3902435302734375,-0.8984527587890625,-0.2697296142578125,400723.031554625,0.3357740133982804,-0.3284476572394724,1.535477750734375,400723.031554625,2.81445553158859,0.9072617203795466,0.9308006962989873,0.3203986883163452,-0.3154744803905487,1.567885518074036,0.03716481104493141,0.08374509215354919,0.1849676221609116,XTrueNorthZVertical,-0.3207069825532106,0.4617793722153468,0.824564909577349,-0.06324189515730984,0.4704798460006714,-0.8020983934402466,-0.3678136765956879,-72.41387939453125,-149.8361053466797,-164.6985473632812,1,192.168.1.8,10.71.35.210,1,0
2015-03-13 09:26:48.194,60,1426264003.318073,37.77912456231904,-122.4386948588684,57.10246,-1,-1,10,65,-9999,1426264008.170148,-20.0229663848877,-12.44796752929688,-24.09413909912109,92.16832733154297,78.39633941650391,26,400723.124228375,0.5977783203125,-1.073806762695312,-0.3002471923828125,400723.0833264583,0.3607826939307786,-0.2798580168348677,2.763531903138798,400723.0833264583,2.935697185016666,0.7982485098443131,1.034627420728642,0.3454075157642365,-0.266884982585907,2.795939445495605,0.02440880052745342,-0.03878067433834076,0.08682169765233994,XTrueNorthZVertical,-0.289145761340482,0.4879744607547006,0.8163472722932015,-0.1088704277607858,0.3658347427845001,-0.8596720695495605,-0.356551319360733,-96.23292541503906,-141.6671447753906,-159.655517578125,1,192.168.1.8,10.71.35.210,1,0
2015-03-13 09:26:48.238,61,1426264003.318073,37.77912456231904,-122.4386948588684,57.10246,-1,-1,10,65,-9999,1426264008.222877,-22.78536415100098,-16.79827880859375,-24.19399261474609,85.59885406494141,71.82686614990234,26,400723.1733074583,0.429168701171875,-0.7845458984375,-0.324981689453125,400723.186874625,0.1866202144389756,-0.1246689622132253,0.6682377175615923,400723.1351005,3.090656496853565,0.6222929472439346,1.122723274562289,0.3995702862739563,-1.16417121887207,2.020961046218872,0.4515263438224792,-0.19004026055336,0.07041716575622559,XTrueNorthZVertical,-0.2461763880127699,0.5132135289214889,0.8097722057956224,-0.1424009097906495,0.2525294423103333,-0.9012835621833801,-0.3520181179046631,-108.9447021484375,-134.9547729492188,-157.2847900390625,1,192.168.1.8,10.71.35.210,1,0
2015-03-13 09:26:48.293,62,1426264003.318073,37.77912456231904,-122.4386948588684,57.10246,-1,-1,10,65,-9999,1426264008.273869,-24.95094299316406,-19.70413208007812,-24.37705230712891,82.90140533447266,69.12941741943359,26,400723.2223547084,0.3376007080078125,-0.809173583984375,-0.22686767578125,400723.186874625,0.1866202144389756,-0.1246689622132253,0.6682377175615923,400723.186874625,-3.041366853147239,0.4528767520146857,1.175961492059033,0.1712453812360764,-0.1116962060332298,0.7006444931030273,0.3040281236171722,0.1597849577665329,0.05497055873274803,XTrueNorthZVertical,-0.2136461673472866,0.5304862194291091,0.8035657890933433,-0.1649899798284513,0.1683076769113541,-0.9230601191520691,-0.3458793759346008,-128.0203704833984,-126.3659210205078,-149.8755493164062,1,192.168.1.8,10.71.35.210,1,0
2015-03-13 09:26:48.336,63,1426264003.318073,37.77912456231904,-122.4386948588684,57.10246,-1,-1,10,65,-9999,1426264008.326043,-24.88273429870605,-21.02960205078125,-23.14556884765625,79.57334899902344,65.80136108398438,26,400723.271531875,0.6024169921875,-0.7565155029296875,0.2717132568359375,400723.2386465417,0.1596967210827105,1.811405208116394,0.1607068580841776,400723.2386465417,-3.011293741149204,0.4879653790881209,1.182121430502689,0.1443220227956772,1.824377775192261,0.1931133568286896,0.07689352333545685,0.1202209964394569,0.1035167798399925,XTrueNorthZVertical,-0.2353654305173963,0.5265325351817725,0.7952849260902971,-0.1867845671283913,0.1776688545942307,-0.9254120588302612,-0.3347332179546356,-134.2704162597656,-118.5957336425781,-150.7539367675781,1,192.168.1.8,10.71.35.210,1,0
2015-03-13 09:26:48.395,64,1426264003.318073,37.77912456231904,-122.4386948588684,57.10246,-1,-1,10,65,-9999,1426264008.37796,-23.02408599853516,-21.82830810546875,-20.4329833984375,75.76815795898438,61.99617004394531,26,400723.3204775,0.8179931640625,-1.272842407226562,-0.5918731689453125,400723.2904205,1.161192031128568,2.439874207435943,-0.6765065664301794,400723.2904205,-3.104021618962632,0.6829484768927616,1.207276868912257,1.145817518234253,2.452846765518188,-0.6441004276275635,0.7114146947860718,0.066914401948452,0.4683380424976349,XTrueNorthZVertical,-0.2856942855296158,0.5295940186104111,0.7720338271198619,-0.2046282119401683,0.2243915498256683,-0.9346511960029602,-0.2758179008960724,-126.0027008056641,-119.0733871459961,-157.3692779541016,1,192.168.1.8,10.71.35.210,1,0
2015-03-13 09:26:48.434,65,1426264003.318073,37.77912456231904,-122.4386948588684,57.10246,-1,-1,10,65,-9999,1426264008.430122,-22.13739204406738,-22.3040771484375,-18.73553466796875,75.79416656494141,62.02217864990234,26,400723.36957275,0.3839874267578125,-1.030136108398438,-0.1935882568359375,400723.3421943334,1.170918694377864,-2.267408427874629,0.1419861672014656,400723.3421943334,3.052251535663695,0.8148837419477742,1.249361125796852,1.155544281005859,-2.254436016082764,0.174391970038414,0.5283403992652893,-0.3434533476829529,-0.1765221208333969,XTrueNorthZVertical,-0.2971287931514619,0.5507798252541276,0.7543531899256332,-0.1982607220146827,0.2298840880393982,-0.9487829804420471,-0.2167121320962906,-107.0777130126953,-128.7238464355469,-163.6605529785156,1,192.168.1.8,10.71.35.210,1,0
2015-03-13 09:26:48.495,66,1426264003.318073,37.77912456231904,-122.4386948588684,57.10246,-1,-1,10,65,-9999,1426264008.481093,-23.16050148010254,-22.67791748046875,-19.73403167724609,81.32733917236328,67.55535125732422,26,400723.4186315,-0.1461334228515625,-0.950469970703125,0.2166748046875,400723.39396625,0.1403765526386217,-2.669613396768282,-0.07597386062945348,400723.39396625,2.990290448916348,0.7286882328746509,1.253294579265973,0.1250023394823074,-2.656641006469727,-0.04356837645173073,-0.1049668937921524,-0.1772399842739105,0.2078265100717545,XTrueNorthZVertical,-0.2463938677222935,0.5681849000741853,0.770456875463351,-0.1511693388196192,0.2078874260187149,-0.9500183463096619,-0.2329119592905045,-123.4466094970703,-139.4033966064453,-141.9431915283203,1,192.168.1.8,10.71.35.210,1,0
2015-03-13 09:26:48.533,67,1426264003.318073,37.77912456231904,-122.4386948588684,57.10246,-1,-1,10,65,-9999,1426264008.481093,-23.16050148010254,-22.67791748046875,-19.73403167724609,81.32733917236328,67.55535125732422,26,400723.4677240417,0.294769287109375,-0.9909210205078125,0.0362091064453125,400723.4457404167,0.2687848593384273,1.205015678446366,-0.2584198363758389,400723.4457404167,2.974643144990246,0.7031920922191288,1.264353464712016,0.2534107863903046,1.217987775802612,-0.226014643907547,-0.2353135049343109,0.07252278923988342,0.358418881893158,XTrueNorthZVertical,-0.2306180855781028,0.5759873592448037,0.771720589886536,-0.1396466126013758,0.1950760781764984,-0.953412652015686,-0.2301077246665955,-133.7419738769531,-140.0326538085938,-131.6213684082031,1,192.168.1.8,10.71.35.210,1,0
2015-03-13 09:26:48.593,68,1426264003.318073,37.77912456231904,-122.4386948588684,57.10246,-1,-1,10,65,-9999,1426264008.585147,-23.68910598754883,-23.0687255859375,-19.71739959716797,82.36225891113281,68.59027099609375,26,400723.516776625,0.510162353515625,-0.9698638916015625,-0.2211151123046875,400723.4975144167,0.2739210318167541,1.811468857666447,0.171509172097757,400723.4975144167,2.932533268144119,0.8448837895606893,1.273561548439776,0.2585471272468567,1.824440836906433,0.2039140164852142,0.3268724977970123,-0.004894297104328871,0.01175433211028576,XTrueNorthZVertical,-0.2712503469115382,0.5737722556082793,0.7547671325682854,-0.1659373624611998,0.219041183590889,-0.9561499953269958,-0.1944172978401184,-132.27587890625,-141.6373138427734,-131.3857116699219,1,192.168.1.8,10.71.35.210,1,0
2015-03-13 09:26:48.630,69,1426264003.318073,37.77912456231904,-122.4386948588684,57.10246,-1,-1,10,65,-9999,1426264008.585147,-23.68910598754883,-23.0687255859375,-19.71739959716797,82.36225891113281,68.59027099609375,26,400723.565953875,0.2926483154296875,-0.88128662109375,0.01300048828125,400723.5492864584,0.09893030922593651,-1.304627224279145,0.07067656690517687,400723.5492864584,2.929380242289861,0.8419973386471954,1.282487324204641,0.08355655521154404,-1.291655302047729,0.103081077337265,0.2204063385725021,-0.004713891539722681,0.1630207002162933,XTrueNorthZVertical,-0.2678275963098583,0.5775722435036708,0.7531566250858622,-0.1656314129314473,0.2121040374040604,-0.9587260484695435,-0.1893573701381683,-119.8450012207031,-143.4492492675781,-140.9955139160156,1,192.168.1.8,10.71.35.210,1,0
2015-03-13 09:26:48.693,70,1426264003.318073,37.77912456231904,-122.4386948588684,57.10246,-1,-1,10,65,-9999,1426264008.689153,-22.92177391052246,-23.62945556640625,-18.73554229736328,82.02168273925781,68.24969482421875,26,400723.6148910417,0.0372161865234375,-0.8523712158203125,0.0028839111328125,400723.60106025,-0.2220386590403754,-0.04176023010520551,0.002675411631093603,400723.5492864584,2.929380242289861,0.8419973386471954,1.282487324204641,0.08355655521154404,-1.291655302047729,0.103081077337265,0.2204063385725021,-0.004713891539722681,0.1630207002162933,XTrueNorthZVertical,-0.2678275963098583,0.5775722435036708,0.7531566250858622,-0.1656314129314473,0.2121040374040604,-0.9587260484695435,-0.1893573701381683,-119.8450012207031,-143.4492492675781,-140.9955139160156,1,192.168.1.8,10.71.35.210,1,0
2015-03-13 09:26:48.728,71,1426264003.318073,37.77912456231904,-122.4386948588684,57.10246,-1,-1,10,65,-9999,1426264008.689153,-22.92177391052246,-23.62945556640625,-18.73554229736328,82.02168273925781,68.24969482421875,26,400723.6640809583,0.3602142333984375,-1.066574096679688,-0.0563812255859375,400723.6528344583,-0.2372908489193682,0.8387633842687831,-0.03787387912645288,400723.6528344583,2.977538612710608,0.7890648343903206,1.274232196346708,-0.2526642978191376,0.8517349362373352,-0.005469982046633959,0.1159964129328728,-0.08723288774490356,0.2189445197582245,XTrueNorthZVertical,-0.2629316667459607,0.5726477472232726,0.7583027426446145,-0.1670880947025589,0.2073983699083328,-0.9563462138175964,-0.2058829963207245,-128.1758728027344,-141.8256530761719,-135.1912384033203,1,192.168.1.8,10.71.35.210,1,0
2015-03-13 09:26:48.792,72,1426264003.318073,37.77912456231904,-122.4386948588684,57.10246,-1,-1,10,65,-9999,1426264008.740507,-22.81946563720703,-23.52752685546875,-18.80210876464844,81.06759643554688,67.29560852050781,26,400723.7130199583,0.3844146728515625,-1.022933959960938,-0.0720062255859375,400723.70460625,-0.1581100097052413,-0.4656121712873496,-0.1286314795991542,400723.6528344583,2.977538612710608,0.7890648343903206,1.274232196346708,-0.2526642978191376,0.8517349362373352,-0.005469982046633959,0.1159964129328728,-0.08723288774490356,0.2189445197582245,XTrueNorthZVertical,-0.2629316667459607,0.5726477472232726,0.7583027426446145,-0.1670880947025589,0.2073983699083328,-0.9563462138175964,-0.2058829963207245,-128.1758728027344,-141.8256530761719,-135.1912384033203,1,192.168.1.8,10.71.35.210,1,0
2015-03-13 09:26:48.827,73,1426264003.318073,37.77912456231904,-122.4386948588684,57.10246,-1,-1,10,65,-9999,1426264008.79188,-22.80241584777832,-23.20465087890625,-18.85203552246094,80.05845642089844,66.28646850585938,26,400723.7622159584,0.0672760009765625,-0.881988525390625,-0.185791015625,400723.7563802917,-0.1852723886112865,-0.8370557653778243,-0.07272373883512079,400723.70460625,3.004110662902109,0.7738935362067871,1.265339761973057,-0.1734832972288132,-0.4526407122612,-0.09622792899608612,0.129595935344696,0.00954165868461132,0.1212532371282578,XTrueNorthZVertical,-0.2659943143446715,0.5671924358909142,0.7603897072588754,-0.1713103708786351,0.210186779499054,-0.9537097215652466,-0.2150795310735703,-121.8634719848633,-139.5461120605469,-143.1657104492188,1,192.168.1.8,10.71.35.210,1,0
2015-03-13 09:26:48.890,74,1426264003.318073,37.77912456231904,-122.4386948588684,57.10246,-1,-1,10,65,-9999,1426264008.843784,-23.27986526489258,-23.30661010742188,-19.88382720947266,82.28791046142578,68.51592254638672,26,400723.811153625,0.1440582275390625,-1.056732177734375,-0.0856170654296875,400723.8081543334,-0.4673509491630623,0.08178434549578836,-0.2483147379356422,400723.7563802917,3.021749176744708,0.7215988660206556,1.257943911483503,-0.2006455212831497,-0.8240844011306763,-0.04032052308320999,-0.03134447336196899,0.02932514436542988,0.09522759914398193,XTrueNorthZVertical,-0.2519897655166002,0.5665425749266227,0.7676485340484508,-0.162007350805572,0.203311026096344,-0.951459527015686,-0.2310613393783569,-123.469123840332,-139.0663757324219,-142.2538452148438,1,192.168.1.8,10.71.35.210,1,0
2015-03-13 09:26:48.924,75,1426264003.318073,37.77912456231904,-122.4386948588684,57.10246,-1,-1,10,65,-9999,1426264008.896523,-23.84257316589355,-22.54193115234375,-21.53134918212891,83.860595703125,70.08860778808594,26,400723.8602359167,0.37298583984375,-1.163131713867188,-0.3250579833984375,400723.8599265,-0.2375249407791862,0.04928552439744242,-0.3115134148159856,400723.8081543334,3.024228169240314,0.6940315596504697,1.241407208164286,-0.4827239513397217,0.09475556015968323,-0.2159118205308914,-0.07205966860055923,-0.1360352784395218,0.1639984846115112,XTrueNorthZVertical,-0.2441018553973239,0.5622230783020706,0.7752639352099082,-0.1525952484527277,0.2069015949964523,-0.9462401270866394,-0.2486389875411987,-128.3792114257812,-137.9967041015625,-138.9097900390625,1,192.168.1.8,10.71.35.210,1,0
2015-03-13 09:26:48.987,76,1426264003.318073,37.77912456231904,-122.4386948588684,57.10246,-1,-1,10,65,-9999,1426264008.948791,-23.8596248626709,-21.47137451171875,-22.11380767822266,83.95755004882812,70.18556213378906,26,400723.909283125,0.1982879638671875,-1.008941650390625,-0.4072418212890625,400723.8599265,-0.2375249407791862,0.04928552439744242,-0.3115134148159856,400723.8599265,3.036805037951973,0.6869103556275921,1.21301286379229,-0.2528977990150452,0.06225660815834999,-0.2791108191013336,0.08869668841362,-0.09616155922412872,-0.07669620960950851,XTrueNorthZVertical,-0.2481954418771223,0.5504639461247137,0.7826480674703468,-0.1511636656228415,0.2220790684223175,-0.9366753697395325,-0.2707769274711609,-127.4126663208008,-136.0774841308594,-141.6656951904297,1,192.168.1.8,10.71.35.210,1,0
2015-03-13 09:26:49.023,77,1426264003.318073,37.77912456231904,-122.4386948588684,57.10246,-1,-1,10,65,-9999,1426264008.999789,-23.6379508972168,-20.63870239257812,-22.66297149658203,83.9075927734375,70.13560485839844,26,400723.9584655417,0.2457733154296875,-0.869384765625,-0.1924285888671875,400723.9634745833,-0.5893213302437104,-0.02189411363765043,0.09702029009213169,400723.9117004167,3.072119643050413,0.6513062314003126,1.196411880217148,-0.5735265016555786,-0.3031774163246155,-0.057695422321558,-0.02340858615934849,-0.07820874452590942,-0.1164035946130753,XTrueNorthZVertical,-0.2456815023485992,0.5424218694093245,0.7887010379756448,-0.1528717513399517,0.2216965556144714,-0.9307329058647156,-0.2908382415771484,-126.3705978393555,-135.7249755859375,-142.9316101074219,1,192.168.1.8,10.71.35.210,1,0
2015-03-13 09:26:49.063,78,1426264003.318073,37.77912456231904,-122.4386948588684,57.10246,-1,-1,10,65,-9999,1426264009.052018,-23.55269241333008,-19.90798950195312,-23.17887115478516,84.25302886962891,70.48104095458984,26,400724.0074073334,0.360687255859375,-0.816986083984375,-0.2139129638671875,400723.9634745833,-0.5893213302437104,-0.02189411363765043,0.09702029009213169,400723.9634745833,3.110851100314869,0.5997554165638291,1.172289592442291,-0.6046938300132751,-0.008923301473259926,0.1294222176074982,0.02674638107419014,0.05225670710206032,0.1278902739286423,XTrueNorthZVertical,-0.2379427564140227,0.5321877581173214,0.7983187366074577,-0.151150965041587,0.2190269380807877,-0.92164146900177,-0.320318877696991,-127.4631500244141,-132.4466094970703,-145.0216674804688,1,192.168.1.8,10.71.35.210,1,0
2015-03-13 09:26:49.122,79,1426264003.318073,37.77912456231904,-122.4386948588684,57.10246,-1,-1,10,65,-9999,1426264009.104142,-23.24576187133789,-19.09234619140625,-23.54498291015625,83.19313049316406,69.421142578125,26,400724.05658725,0.38861083984375,-0.830291748046875,-0.2720489501953125,400724.0152465,-0.4201602672790762,0.8268771636915414,0.04837898436237944,400724.0152465,-3.12918347529852,0.5918737376539476,1.151097187921784,-0.4355326592922211,0.8398478627204895,0.08078061789274216,0.1333440542221069,0.09622549265623093,0.1242580935359001,XTrueNorthZVertical,-0.2478773378560502,0.5191062496275867,0.801426211813101,-0.1637117548169848,0.2273432016372681,-0.9132115840911865,-0.3381710648536682,-126.4264221191406,-126.0189895629883,-151.5117645263672,1,192.168.1.8,10.71.35.210,1,0
2015-03-13 09:26:49.163,80,1426264003.318073,37.77912456231904,-122.4386948588684,57.10246,-1,-1,10,65,-9999,1426264009.156469,-23.34807205200195,-18.58258056640625,-23.91110229492188,81.42544555664062,67.65345764160156,26,400724.105527875,0.3458099365234375,-0.879058837890625,-0.2412261962890625,400724.0670206667,-0.6010347116662058,-0.7034351197925156,0.2145498500550726,400724.0670206667,-3.063495397562991,0.5361638270029239,1.132354739850986,-0.6163139343261719,-0.6905584931373596,0.2470007836818695,0.1428587734699249,0.04108024761080742,0.1436280459165573,XTrueNorthZVertical,-0.2435718307503607,0.5081282999486082,0.8076448678668322,-0.1737473629612719,0.2168671786785126,-0.905414342880249,-0.364956796169281,-123.3443298339844,-123.4237594604492,-156.1185302734375,1,192.168.1.8,10.71.35.210,1,0
2015-03-13 09:26:49.220,81,1426264003.318073,37.77912456231904,-122.4386948588684,57.10246,-1,-1,10,65,-9999,1426264009.20679,-24.28592109680176,-18.83746337890625,-25.15921783447266,81.98654937744141,68.21456146240234,26,400724.1546978333,0.217376708984375,-1.1033935546875,-0.3956756591796875,400724.1187945834,-0.2321283111462496,-0.7498673333980471,0.5037374528207059,400724.1187945834,-3.006377989196468,0.4405648275399527,1.124363081986852,-0.2474073767662048,-0.7369908094406128,0.5361880660057068,0.111488088965416,0.0542602427303791,0.05025257542729378,XTrueNorthZVertical,-0.2195930405573774,0.5064751825194276,0.815894600568881,-0.17198189283933,0.1841204315423965,-0.9019927978515625,-0.3905235826969147,-127.0581665039062,-117.4268493652344,-157.7574157714844,1,192.168.1.8,10.71.35.210,1,0
2015-03-13 09:26:49.264,82,1426264003.318073,37.77912456231904,-122.4386948588684,57.10246,-1,-1,10,65,-9999,1426264009.257947,-25.65006637573242,-18.7015380859375,-25.99129486083984,81.50806427001953,67.73607635498047,26,400724.2036448334,0.2147369384765625,-0.81280517578125,-0.5326995849609375,400724.1705668333,-0.03874712964788986,-0.2737428663398278,0.1696665309395312,400724.1705668333,-2.9579823179027,0.3801788307328425,1.125057554120396,-0.05402605980634689,-0.2608664929866791,0.202116847038269,0.01471335347741842,-0.1887567788362503,0.1036496385931969,XTrueNorthZVertical,-0.2071713995139693,0.5068621551485422,0.8179357414201505,-0.1764989362020103,0.1599845290184021,-0.9022924304008484,-0.4003415405750275,-138.2850799560547,-110.1279525756836,-153.5230102539062,1,192.168.1.8,10.71.35.210,1,0
2015-03-13 09:26:49.318,83,1426264003.318073,37.77912456231904,-122.4386948588684,57.10246,-1,-1,10,65,-9999,1426264009.309739,-27.04831504821777,-19.04141235351562,-26.82337188720703,81.66878509521484,67.89679718017578,26,400724.2527205417,0.2225494384765625,-0.64630126953125,-0.331878662109375,400724.2223407084,0.1937034239902593,-1.078483036102304,0.6727326008494281,400724.2223407084,-2.898893125853482,0.2828635601349836,1.134047757904177,0.1784246414899826,-1.065606713294983,0.7051826119422913,0.01865794509649277,0.1387367695569992,-0.05464500933885574,XTrueNorthZVertical,-0.1823972795200427,0.5134572944544259,0.8197746832598837,-0.176244978801553,0.1180608049035072,-0.9061318039894104,-0.4061856865882874,-140.7658538818359,-108.7424011230469,-152.2508087158203,1,192.168.1.8,10.71.35.210,1,0
2015-03-13 09:26:49.363,84,1426264003.318073,37.77912456231904,-122.4386948588684,57.10246,-1,-1,10,65,-9999,1426264009.361584,-28.87285995483398,-19.67013549804688,-27.70539093017578,82.91869354248047,69.14670562744141,26,400724.3017519167,-0.0145416259765625,-1.037429809570312,-0.491546630859375,400724.274115,0.1925846300163171,-1.175140337337857,-0.1260277070013838,400724.274115,-2.887552650801425,0.220159852273746,1.14480750396768,0.1773060262203217,-1.162264227867126,-0.09357807040214539,0.1621387600898743,0.106065146625042,-0.07407813519239426,XTrueNorthZVertical,-0.1598033612549703,0.522340151588866,0.8212444267834609,-0.1648673039696252,0.09024161100387573,-0.9106305837631226,-0.4032472968101501,-150.6829528808594,-105.1897964477539,-145.0861663818359,1,192.168.1.8,10.71.35.210,1,0
2015-03-13 09:26:49.415,85,1426264003.318073,37.77912456231904,-122.4386948588684,57.10246,-1,-1,10,65,-9999,1426264009.361584,-28.87285995483398,-19.67013549804688,-27.70539093017578,82.91869354248047,69.14670562744141,26,400724.3508402917,-0.339385986328125,-1.028427124023438,-0.4913787841796875,400724.3258868334,-0.05087569788432873,-1.132443473477271,-0.1658108063133144,400724.3258868334,-2.896751553796822,0.1675778030692731,1.14809473304074,-0.06615415960550308,-1.119567394256592,-0.1333615034818649,-0.2045623362064362,0.07212499529123306,-0.06678854674100876,XTrueNorthZVertical,-0.1358302210744569,0.5284984130224349,0.8249519308178669,-0.14728840751016,0.06842342764139175,-0.9119840264320374,-0.4044791460037231,-162.5101776123047,-106.7239990234375,-130.4632873535156,1,192.168.1.8,10.71.35.210,1,0
2015-03-13 09:26:49.497,86,1426264003.318073,37.77912456231904,-122.4386948588684,57.10246,-1,-1,10,65,-9999,1426264009.465418,-31.46473693847656,-19.87405395507812,-29.23641204833984,87.00257873535156,73.2305908203125,26,400724.3998744584,0.0814666748046875,-0.959014892578125,-0.466796875,400724.3776610834,0.09027743252816006,0.4545840212133314,-0.450770374532338,400724.3776610834,-2.921484863210995,0.1698374065221974,1.14881855789682,0.07499910891056061,0.4674598872661591,-0.4183213710784912,-0.3737147450447083,-0.1542476266622543,0.1020370498299599,XTrueNorthZVertical,-0.1302348611083299,0.530285287491897,0.8263661517475271,-0.1376784759469932,0.06922562420368195,-0.9122806787490845,-0.4036727845668793,-166.1454467773438,-107.1624526977539,-125.4278335571289,1,192.168.1.8,10.71.35.210,1,0
2015-03-13 09:26:49.513,87,1426264003.318073,37.77912456231904,-122.4386948588684,57.10246,-1,-1,10,65,-9999,1426264009.465418,-31.46473693847656,-19.87405395507812,-29.23641204833984,87.00257873535156,73.2305908203125,26,400724.4490707917,0.380615234375,-0.7964935302734375,-0.317413330078125,400724.429435,-0.2373763363903598,2.016442246757704,-0.4162185225496499,400724.429435,-2.967934645449549,0.2945770482788487,1.133269600024435,-0.252654492855072,2.02931809425354,-0.3837698698043823,0.08421448618173599,-0.05238856002688408,-0.1267159730195999,XTrueNorthZVertical,-0.1694007104560492,0.5182457136218303,0.8246012565561698,-0.1508559974510287,0.1230151280760765,-0.9058023691177368,-0.4054495692253113,-164.4105987548828,-109.6774673461914,-125.5398406982422,1,192.168.1.8,10.71.35.210,1,0
2015-03-13 09:26:49.561,88,1426264003.318073,37.77912456231904,-122.4386948588684,57.10246,-1,-1,10,65,-9999,1426264009.518023,-29.84481620788574,-19.48321533203125,-28.45426177978516,85.26327514648438,71.49128723144531,26,400724.4981371667,0.4957122802734375,-0.8861541748046875,-0.42999267578125,400724.4812072084,0.1297156524789255,0.8648144260519383,-0.1235917135522883,400724.429435,-2.967934645449549,0.2945770482788487,1.133269600024435,-0.252654492855072,2.02931809425354,-0.3837698698043823,0.08421448618173599,-0.05238856002688408,-0.1267159730195999,XTrueNorthZVertical,-0.1694007104560492,0.5182457136218303,0.8246012565561698,-0.1508559974510287,0.1230151280760765,-0.9058023691177368,-0.4054495692253113,-164.4105987548828,-109.6774673461914,-125.5398406982422,1,192.168.1.8,10.71.35.210,1,0
2015-03-13 09:26:49.611,89,1426264003.318073,37.77912456231904,-122.4386948588684,57.10246,-1,-1,10,65,-9999,1426264009.56918,-27.81564712524414,-18.82049560546875,-26.84001159667969,82.60865020751953,68.83666229248047,26,400724.5471035417,0.23101806640625,-0.9229736328125,-0.3306121826171875,400724.5329812084,0.1392356544276317,-0.2927546407296854,-0.1873499205776573,400724.5329812084,-3.023724014786267,0.4224160763977162,1.124689098949328,0.1239577978849411,-0.2798791825771332,-0.1549018770456314,0.117093414068222,-0.07223173975944519,0.03022062592208385,XTrueNorthZVertical,-0.2077561783996542,0.5099717379294421,0.8191880281410623,-0.1603033252048331,0.176882416009903,-0.9021335244178772,-0.393532395362854,-138.9983978271484,-113.1722030639648,-150.6377563476562,1,192.168.1.8,10.71.35.210,1,0
2015-03-13 09:26:49.688,90,1426264003.318073,37.77912456231904,-122.4386948588684,57.10246,-1,-1,10,65,-9999,1426264009.672352,-25.58185768127441,-18.80349731445312,-25.92472076416016,82.75182342529297,68.97983551025391,26,400724.596155375,0.17950439453125,-0.8220062255859375,-0.3106689453125,400724.5847553751,-0.06590418223175487,0.522090094840769,-0.107249225523017,400724.5847553751,-3.017051388386727,0.4210250199838834,1.125974904287747,-0.08118189871311188,0.5349653959274292,-0.07480150461196899,-0.05072327330708504,0.01087233517318964,-0.01003666501492262,XTrueNorthZVertical,-0.208848568987818,0.5099242483487832,0.8184523304525643,-0.1627737805231793,0.1758605986833572,-0.9026875495910645,-0.3927190601825714,-139.1401519775391,-114.9835586547852,-149.1275939941406,1,192.168.1.8,10.71.35.210,1,0
2015-03-13 09:26:49.710,91,1426264003.318073,37.77912456231904,-122.4386948588684,57.10246,-1,-1,10,65,-9999,1426264009.672352,-25.58185768127441,-18.80349731445312,-25.92472076416016,82.75182342529297,68.97983551025391,26,400724.6452409584,0.4345855712890625,-0.9026947021484375,-0.3815765380859375,400724.636527375,-0.07676375420877099,1.078013787118232,-0.2386919379688589,400724.5847553751,-3.017051388386727,0.4210250199838834,1.125974904287747,-0.08118189871311188,0.5349653959274292,-0.07480150461196899,-0.05072327330708504,0.01087233517318964,-0.01003666501492262,XTrueNorthZVertical,-0.208848568987818,0.5099242483487832,0.8184523304525643,-0.1627737805231793,0.1758605986833572,-0.9026875495910645,-0.3927190601825714,-139.1401519775391,-114.9835586547852,-149.1275939941406,1,192.168.1.8,10.71.35.210,1,0
2015-03-13 09:26:49.763,92,1426264003.318073,37.77912456231904,-122.4386948588684,57.10246,-1,-1,10,65,-9999,1426264009.725214,-24.23476600646973,-18.51458740234375,-25.30898284912109,81.87778472900391,68.10579681396484,26,400724.694381625,0.3632659912109375,-0.8650665283203125,-0.2812652587890625,400724.6883015833,-0.09888317127464212,0.4921415168022829,-0.1113270577841464,400724.636527375,-3.037308867284619,0.4871123428353435,1.118548504194471,-0.09204129874706268,1.090888977050781,-0.2062445729970932,0.2158663272857666,0.010993592441082,0.08013126254081726,XTrueNorthZVertical,-0.2309715448053863,0.5035587128486615,0.8148370155938419,-0.1706499073949507,0.2045438289642334,-0.8994671106338501,-0.3861615359783173,-132.8353424072266,-115.0748443603516,-154.7022857666016,1,192.168.1.8,10.71.35.210,1,0
2015-03-13 09:26:49.807,93,1426264003.318073,37.77912456231904,-122.4386948588684,57.10246,-1,-1,10,65,-9999,1426264009.781646,-23.05818939208984,-17.74990844726562,-24.52682495117188,80.33941650390625,66.56742858886719,26,400724.743417625,0.3015899658203125,-0.8550567626953125,-0.30224609375,400724.7400755833,-0.05968809793140092,0.326684378281731,0.06525224039690349,400724.7400755833,-3.032089523610604,0.5377121435404395,1.105661466681826,-0.07496535032987595,0.3395593464374542,0.09769898653030396,0.0859118327498436,0.008202001452445984,0.08420544862747192,XTrueNorthZVertical,-0.2534256527293989,0.4931048466027106,0.8116057002065883,-0.1841717156871303,0.2297314703464508,-0.8937610983848572,-0.3852460980415344,-122.8316650390625,-114.5808563232422,-163.1068725585938,1,192.168.1.8,10.71.35.210,1,0
2015-03-13 09:26:49.847,94,1426264003.318073,37.77912456231904,-122.4386948588684,57.10246,-1,-1,10,65,-9999,1426264009.781646,-23.05818939208984,-17.74990844726562,-24.52682495117188,80.33941650390625,66.56742858886719,26,400724.7925179584,0.3453521728515625,-0.9654388427734375,-0.290740966796875,400724.7400755833,-0.05968809793140092,0.326684378281731,0.06525224039690349,400724.7400755833,-3.032089523610604,0.5377121435404395,1.105661466681826,-0.07496535032987595,0.3395593464374542,0.09769898653030396,0.0859118327498436,0.008202001452445984,0.08420544862747192,XTrueNorthZVertical,-0.2534256527293989,0.4931048466027106,0.8116057002065883,-0.1841717156871303,0.2297314703464508,-0.8937610983848572,-0.3852460980415344,-122.8316650390625,-114.5808563232422,-163.1068725585938,1,192.168.1.8,10.71.35.210,1,0
2015-03-13 09:26:49.906,95,1426264003.318073,37.77912456231904,-122.4386948588684,57.10246,-1,-1,10,65,-9999,1426264009.853644,-22.29085922241211,-17.22308349609375,-23.37854766845703,79.51429748535156,65.7423095703125,26,400724.841599375,0.3840484619140625,-0.8342132568359375,-0.294158935546875,400724.8436219167,0.002186721571064062,0.4498822103087965,0.05713812118765006,400724.7918476667,-3.032708904885267,0.5669486027137962,1.09921095995189,-0.1484071910381317,0.6727960109710693,-0.173571988940239,0.1178455054759979,-0.02884381636977196,0.03454259783029556,XTrueNorthZVertical,-0.2654387205463394,0.48778242372411,0.8095348509678604,-0.1904308338488592,0.2439861595630646,-0.8908491730690002,-0.3832211792469025,-117.2543258666992,-113.5017700195312,-167.8958435058594,1,192.168.1.8,10.71.35.210,1,0
2015-03-13 09:26:49.946,96,1426264003.318073,37.77912456231904,-122.4386948588684,57.10246,-1,-1,10,65,-9999,1426264009.906978,-21.74520111083984,-17.29107666015625,-22.97914886474609,79.05351257324219,65.28152465820312,26,400724.890645625,0.2918853759765625,-0.9470062255859375,-0.3172760009765625,400724.8436219167,0.002186721571064062,0.4498822103087965,0.05713812118765006,400724.8436219167,-3.022974206219486,0.5827025862736291,1.098156764169957,-0.01309021003544331,0.4627569019794464,0.08958418667316437,0.1335389167070389,0.05615650489926338,0.08595504611730576,XTrueNorthZVertical,-0.2742241140573029,0.4845040209301978,0.806734576712818,-0.1980815397237212,0.2505095303058624,-0.8903697729110718,-0.3801139891147614,-113.5058288574219,-113.2466888427734,-170.6219787597656,1,192.168.1.8,10.71.35.210,1,0
2015-03-13 09:26:50.004,97,1426264003.318073,37.77912456231904,-122.4386948588684,57.10246,-1,-1,10,65,-9999,1426264009.957453,-21.02902412414551,-17.63092041015625,-22.08050537109375,78.07575225830078,64.30376434326172,26,400724.9397460417,0.324371337890625,-0.80267333984375,-0.247283935546875,400724.8953960834,-0.04252322575751321,0.3272018304815334,0.02239611950313036,400724.8953960834,-3.041618908256907,0.6282281223992384,1.097161744240643,-0.05776040628552437,0.3401099741458893,0.05475622788071632,0.02381592802703381,-0.05708987638354301,0.05176009610295296,XTrueNorthZVertical,-0.2880887604066362,0.4821688679375821,0.802451221420613,-0.20146977647056,0.2680694460868835,-0.8899163603782654,-0.3690361082553864,-107.2962799072266,-114.3467788696289,-173.8751220703125,1,192.168.1.8,10.71.35.210,1,0
2015-03-13 09:26:50.043,98,1426264003.318073,37.77912456231904,-122.4386948588684,57.10246,-1,-1,10,65,-9999,1426264010.00955,-20.41515731811523,-17.76687622070312,-21.44812774658203,77.28423309326172,63.51224899291992,26,400724.9887876667,0.259307861328125,-0.9643402099609375,-0.2608184814453125,400724.9471682084,-0.05249516614320591,0.3430878526999651,-0.05871897361072109,400724.9471682084,-3.040783175142042,0.6456879213989963,1.104376099111029,-0.06766901910305023,0.3560093939304352,-0.02639592811465263,0.05377021431922913,0.09051046520471573,0.1118785738945007,XTrueNorthZVertical,-0.294832832482423,0.4832104566437896,0.7979836647023146,-0.2068896107109493,0.2706011235713959,-0.8931838274002075,-0.3591625094413757,-103.6933746337891,-114.7912750244141,-175.7580413818359,1,192.168.1.8,10.71.35.210,1,0
2015-03-13 09:26:50.102,99,1426264003.318073,37.77912456231904,-122.4386948588684,57.10246,-1,-1,10,65,-9999,1426264010.060651,-19.68192672729492,-17.37603759765625,-21.06536865234375,76.51338195800781,62.74139785766602,26,400725.0377673334,0.406219482421875,-0.90960693359375,-0.3285369873046875,400725.050716375,-0.0237553969235068,0.4586533313589725,-0.1032771207571638,400724.998942125,-3.044285199046424,0.6710572085325729,1.09695612594772,-0.1500003933906555,0.3793865442276001,0.1541319936513901,-0.07200708985328674,0.05910354852676392,0.05678043514490128,XTrueNorthZVertical,-0.3045819483902805,0.4780671253325147,0.796431962781722,-0.2106603278315887,0.2837380468845367,-0.8898225426673889,-0.3573633134365082,-100.2670211791992,-115.351318359375,-177.3720550537109,1,192.168.1.8,10.71.35.210,1,0
2015-03-13 09:26:50.141,100,1426264003.318073,37.77912456231904,-122.4386948588684,57.10246,-1,-1,10,65,-9999,1426264010.114084,-18.93164825439453,-17.20611572265625,-20.46627044677734,75.66214752197266,61.89015960693359,26,400725.0868060417,0.4017333984375,-0.8693084716796875,-0.3117828369140625,400725.050716375,-0.0237553969235068,0.4586533313589725,-0.1032771207571638,400725.050716375,-3.058779398311932,0.7066857692306191,1.084691137020989,-0.03889070451259613,0.4715498387813568,-0.07100842148065567,0.1029289364814758,-0.0596122033894062,0.08575670421123505,XTrueNorthZVertical,-0.3161718414116555,0.4715758246610386,0.7955046890713426,-0.2117165147797945,0.3033515810966492,-0.8841591477394104,-0.3553032279014587,-97.60025024414062,-114.0169982910156,-179.7068786621094,1,192.168.1.8,10.71.35.210,1,0
2015-03-13 09:26:50.201,101,1426264003.318073,37.77912456231904,-122.4386948588684,57.10246,-1,-1,10,65,-9999,1426264010.164315,-18.88049507141113,-17.257080078125,-20.05023193359375,75.11856079101562,61.34657287597656,26,400725.135985875,0.3787994384765625,-0.878662109375,-0.284637451171875,400725.102488375,-0.03088121705223182,-0.1822161449443116,-0.1103262418464946,400725.102488375,-3.055192617112781,0.7116911404755043,1.083339921679626,-0.0460163876414299,-0.1693197339773178,-0.07805783301591873,0.1144124120473862,-0.02896375954151154,0.01156036090105772,XTrueNorthZVertical,-0.3191038766789935,0.4699258885879836,0.7946629226594004,-0.2141336011583035,0.3059062063694,-0.8835271000862122,-0.3546847403049469,-90.95664978027344,-114.2299041748047,-183.0263977050781,1,192.168.1.8,10.71.35.210,1,0
2015-03-13 09:26:50.240,102,1426264003.318073,37.77912456231904,-122.4386948588684,57.10246,-1,-1,10,65,-9999,1426264010.216708,-19.25563430786133,-17.49496459960938,-19.35128021240234,75.548828125,61.7768440246582,26,400725.185066875,0.44146728515625,-0.822540283203125,-0.23919677734375,400725.1542627084,0.0007398261508240124,-0.3106167284769559,0.103249956514045,400725.1542627084,-3.049065728273225,0.6929849388901628,1.083925990764427,-0.01439519505947828,-0.2977204620838165,0.1355180293321609,0.07316764444112778,0.04287431016564369,0.08260252326726913,XTrueNorthZVertical,-0.3130613211844876,0.4711894239666055,0.7968205704902059,-0.2122500860665926,0.2988874018192291,-0.8838014602661133,-0.3599462807178497,-91.76092529296875,-114.1269454956055,-182.6888580322266,1,192.168.1.8,10.71.35.210,1,0
2015-03-13 09:26:50.298,103,1426264003.318073,37.77912456231904,-122.4386948588684,57.10246,-1,-1,10,65,-9999,1426264010.268788,-19.44320106506348,-17.61392211914062,-20.03359222412109,75.86541748046875,62.09342956542969,26,400725.2339928334,0.36785888671875,-0.8715972900390625,-0.258514404296875,400725.206036625,0.0712352981018755,-0.6057580941755704,-0.04844290022854134,400725.206036625,-3.052399357180187,0.6713533063088405,1.085001771312492,0.05610044300556183,-0.5928619503974915,-0.0161751750856638,0.1561081856489182,-0.02304439060389996,0.07803044468164444,XTrueNorthZVertical,-0.3035633733006112,0.4744029030190963,0.8002354755419031,-0.2059474019088457,0.2904402613639832,-0.8843042254447937,-0.3655823171138763,-94.63117980957031,-113.5702514648438,-181.5681304931641,1,192.168.1.8,10.71.35.210,1,0
2015-03-13 09:26:50.338,104,1426264003.318073,37.77912456231904,-122.4386948588684,57.10246,-1,-1,10,65,-9999,1426264010.320337,-19.88654708862305,-17.64791870117188,-20.9322509765625,77.36515808105469,63.59317016601562,26,400725.283136375,0.3183135986328125,-0.9770050048828125,-0.3400115966796875,400725.2578089584,0.1123329337278693,-1.30130786029647,-0.07254663862263051,400725.2578089584,-3.056973215526653,0.6256179268529912,1.089764455210993,0.09720101952552795,-1.288409948348999,-0.04028341174125671,0.1142704784870148,0.0257391445338726,-0.01593065820634365,XTrueNorthZVertical,-0.2837931780842036,0.4815923126136483,0.8062138207024619,-0.1937770277510088,0.2709529101848602,-0.8865179419517517,-0.3750605583190918,-103.9132843017578,-114.5121536254883,-175.8102264404297,1,192.168.1.8,10.71.35.210,1,0
2015-03-13 09:26:50.396,105,1426264003.318073,37.77912456231904,-122.4386948588684,57.10246,-1,-1,10,65,-9999,1426264010.377023,-21.233642578125,-17.56295776367188,-22.51320648193359,79.82575988769531,66.05377197265625,26,400725.3321050417,0.31109619140625,-0.8756866455078125,-0.4801025390625,400725.3095829583,-0.1529490698287768,-0.8909983595734883,0.02766012371378098,400725.3095829583,-3.047457445282782,0.5638510493197463,1.090014228145502,-0.1680808365345001,-0.8781006336212158,0.05992306023836136,-0.08734571933746338,0.0558839812874794,0.121214859187603,XTrueNorthZVertical,-0.2610657873877202,0.486212850722509,0.8136689864188394,-0.1827142130744892,0.2471662759780884,-0.8866335153579712,-0.3908834457397461,-110.3926315307617,-114.9908447265625,-171.4958190917969,1,192.168.1.8,10.71.35.210,1,0
2015-03-13 09:26:50.436,106,1426264003.318073,37.77912456231904,-122.4386948588684,57.10246,-1,-1,10,65,-9999,1426264010.377023,-21.233642578125,-17.56295776367188,-22.51320648193359,79.82575988769531,66.05377197265625,26,400725.3812556667,0.067169189453125,-0.918487548828125,-0.4672393798828125,400725.36135725,-0.1351000315708477,-0.3810948898809219,0.1908975174657519,400725.36135725,-3.044736949089361,0.5327389546840582,1.082578004071338,-0.150231659412384,-0.3681972622871399,0.2231601178646088,-0.06490495800971985,-0.3250057101249695,0.08276227861642838,XTrueNorthZVertical,-0.2493987534768301,0.4855662593533625,0.8192848115217234,-0.1754937372756382,0.2382295429706573,-0.883169949054718,-0.4040513336658478,-118.0201721191406,-113.7483978271484,-167.1908569335938,1,192.168.1.8,10.71.35.210,1,0
2015-03-13 09:26:50.494,107,1426264003.318073,37.77912456231904,-122.4386948588684,57.10246,-1,-1,10,65,-9999,1426264010.4493,-23.10934448242188,-17.18911743164062,-24.44364166259766,81.72209930419922,67.95011138916016,26,400725.4302302084,-0.0595245361328125,-0.9694366455078125,-0.3258514404296875,400725.4131292917,-0.8245799209352391,0.4556266487800975,-0.2461021837020044,400725.4131292917,-3.00989762997433,0.4987198602180141,1.060019851147077,-0.8397113680839539,0.4685240983963013,-0.2138399332761765,-0.2705326974391937,-0.05962638929486275,-0.05114341527223587,XTrueNorthZVertical,-0.2446998428001947,0.4748336018489602,0.8260949007181259,-0.1795055352004035,0.2338200658559799,-0.8723651766777039,-0.4293100833892822,-123.1620559692383,-109.760498046875,-166.1444702148438,1,192.168.1.8,10.71.35.210,1,0
2015-03-13 09:26:50.534,108,1426264003.318073,37.77912456231904,-122.4386948588684,57.10246,-1,-1,10,65,-9999,1426264010.501891,-23.3651237487793,-16.18649291992188,-25.35892486572266,81.20720672607422,67.43521881103516,26,400725.479388625,0.14617919921875,-0.7953643798828125,-0.6690521240234375,400725.4649035833,-1.519659905439849,1.851007478790309,-0.2128044142766347,400725.4131292917,-3.00989762997433,0.4987198602180141,1.060019851147077,-0.8397113680839539,0.4685240983963013,-0.2138399332761765,-0.2705326974391937,-0.05962638929486275,-0.05114341527223587,XTrueNorthZVertical,-0.2446998428001947,0.4748336018489602,0.8260949007181259,-0.1795055352004035,0.2338200658559799,-0.8723651766777039,-0.4293100833892822,-123.1620559692383,-109.760498046875,-166.1444702148438,1,192.168.1.8,10.71.35.210,1,0
2015-03-13 09:26:50.592,109,1426264003.318073,37.77912456231904,-122.4386948588684,57.10246,-1,-1,10,65,-9999,1426264010.552777,-21.84751129150391,-14.53814697265625,-24.84304046630859,78.53239440917969,64.76040649414062,26,400725.5283563334,0.843109130859375,-0.7971343994140625,-0.3141937255859375,400725.5166775833,-0.6993016274646037,1.196865073930179,-0.8375015785443035,400725.5166775833,-2.953817520796564,0.5953588182174663,0.9316588263218206,-0.7144327759742737,1.209762334823608,-0.8052399158477783,0.1915088891983032,0.07143988460302353,-0.1272203624248505,XTrueNorthZVertical,-0.3011537913878788,0.4029512342437999,0.8380426054632081,-0.2112374797565819,0.3345226049423218,-0.8026105165481567,-0.4938733875751495,-105.6036758422852,-96.31487274169922,-185.4495849609375,1,192.168.1.8,10.71.35.210,1,0
2015-03-13 09:26:50.632,110,1426264003.318073,37.77912456231904,-122.4386948588684,57.10246,-1,-1,10,65,-9999,1426264010.605192,-19.30678939819336,-12.14212036132812,-23.96102905273438,77.22867584228516,63.45669174194336,26,400725.577530125,0.3508758544921875,-0.391143798828125,-0.4016876220703125,400725.568449875,-0.2080996738949007,-0.1005843985789847,0.115447500622717,400725.5166775833,-2.953817520796564,0.5953588182174663,0.9316588263218206,-0.7144327759742737,1.209762334823608,-0.8052399158477783,0.1915088891983032,0.07143988460302353,-0.1272203624248505,XTrueNorthZVertical,-0.3011537913878788,0.4029512342437999,0.8380426054632081,-0.2112374797565819,0.3345226049423218,-0.8026105165481567,-0.4938733875751495,-105.6036758422852,-96.31487274169922,-185.4495849609375,1,192.168.1.8,10.71.35.210,1,0
2015-03-13 09:26:50.691,111,1426264003.318073,37.77912456231904,-122.4386948588684,57.10246,-1,-1,10,65,-9999,1426264010.656145,-17.51634788513184,-10.76565551757812,-23.37857055664062,76.00387573242188,62.23188781738281,26,400725.6264879584,0.5861358642578125,-0.8611602783203125,-0.2857818603515625,400725.6202239167,0.5228698684079441,-0.1568966735126012,-0.09605782367417705,400725.568449875,-2.926089167544795,0.6048473103033518,0.9070327166917311,-0.2232306897640228,-0.08768732100725174,0.1477087885141373,-0.008287796750664711,0.4668630659580231,-0.004216297995299101,XTrueNorthZVertical,-0.311154075226902,0.3870277729580268,0.8391070253132533,-0.2220180829800927,0.350328803062439,-0.787679135799408,-0.5067852735519409,-85.52421569824219,-85.10124206542969,-200.6579895019531,1,192.168.1.8,10.71.35.210,1,0
2015-03-13 09:26:50.730,112,1426264003.318073,37.77912456231904,-122.4386948588684,57.10246,-1,-1,10,65,-9999,1426264010.708627,-17.61865997314453,-10.22186279296875,-23.11229705810547,76.71533966064453,62.94335556030273,26,400725.6756412084,0.7110595703125,-1.08544921875,-0.4773712158203125,400725.6719982083,1.01756881880503,-1.126700899218733,-0.1898913752059199,400725.6202239167,-2.951514020624545,0.6117704023264376,0.9121836357134053,0.5077390074729919,-0.1439997255802155,-0.06379685550928116,0.2192304283380508,-0.09927940368652344,0.1957523822784424,XTrueNorthZVertical,-0.3089915133290366,0.392446668373324,0.8396564431240429,-0.2132765795040844,0.3514940738677979,-0.7908420562744141,-0.5010197162628174,-86.34776306152344,-83.72716522216797,-200.8832244873047,1,192.168.1.8,10.71.35.210,1,0
2015-03-13 09:26:50.793,113,1426264003.318073,37.77912456231904,-122.4386948588684,57.10246,-1,-1,10,65,-9999,1426264010.759911,-18.1643180847168,-10.83355712890625,-22.87931060791016,78.32518768310547,64.55319976806641,26,400725.7246285417,0.418304443359375,-0.80584716796875,-0.4335479736328125,400725.72377025,0.4351037967877288,-1.903693327267564,-0.4774800160530697,400725.6719982083,-3.014717681343057,0.6453882581309979,0.938505865097755,1.002438068389893,-1.11380410194397,-0.1576306968927383,0.4548147618770599,-0.0871381089091301,-0.08240976929664612,XTrueNorthZVertical,-0.3094636263623554,0.4100849808745957,0.8350772838873539,-0.1967447255365024,0.3554879724979401,-0.8066759705543518,-0.4721251428127289,-87.42372131347656,-88.34629821777344,-198.4244689941406,1,192.168.1.8,10.71.35.210,1,0
2015-03-13 09:26:50.828,114,1426264003.318073,37.77912456231904,-122.4386948588684,57.10246,-1,-1,10,65,-9999,1426264010.812281,-19.6989803314209,-11.13943481445312,-24.14407348632812,82.49174499511719,68.71975708007812,26,400725.7738145,-0.0125732421875,-0.6572265625,-0.569122314453125,400725.72377025,0.4351037967877288,-1.903693327267564,-0.4774800160530697,400725.72377025,-3.050104207953415,0.5794164299451342,0.9614006479283337,0.419973224401474,-1.890796661376953,-0.4452196657657623,-0.04450373351573944,0.1413746774196625,0.1469195336103439,XTrueNorthZVertical,-0.2732963443901493,0.4310843527108618,0.8427919238843069,-0.1708131923991756,0.3133941292762756,-0.8199940919876099,-0.4789507687091827,-101.560546875,-101.4152221679688,-184.9882507324219,1,192.168.1.8,10.71.35.210,1,0
2015-03-13 09:26:50.887,115,1426264003.318073,37.77912456231904,-122.4386948588684,57.10246,-1,-1,10,65,-9999,1426264010.86281,-21.42121505737305,-11.53030395507812,-26.39069366455078,84.76100921630859,70.98902130126953,26,400725.822796375,0.25408935546875,-0.9608917236328125,-0.27935791015625,400725.8273185834,-0.4736964630923941,1.114522796186019,-0.263365592836225,400725.7755445833,-3.052473905474673,0.5314950220045497,0.9606737161527055,-0.5350175499916077,-0.5350281000137329,-0.05817109346389771,-0.3029663860797882,0.162351205945015,-0.07519511878490448,XTrueNorthZVertical,-0.252540518068558,0.4350398693306711,0.8494529685032959,-0.1593525581806788,0.2903931438922882,-0.8195777535438538,-0.4939272105693817,-109.9912872314453,-104.7763519287109,-178.1686706542969,1,192.168.1.8,10.71.35.210,1,0
2015-03-13 09:26:50.926,116,1426264003.318073,37.77912456231904,-122.4386948588684,57.10246,-1,-1,10,65,-9999,1426264010.91581,-21.09722900390625,-10.6976318359375,-26.67359924316406,85.16712951660156,71.3951416015625,26,400725.871854875,0.54290771484375,-0.65301513671875,-0.374359130859375,400725.8273185834,-0.4736964630923941,1.114522796186019,-0.263365592836225,400725.8273185834,-3.066602442228638,0.5638804912555312,0.9277026368703923,-0.488826721906662,1.127419233322144,-0.2311059236526489,-0.06641837954521179,-0.1606473326683044,0.2274790406227112,XTrueNorthZVertical,-0.2647561791915556,0.4201019970906765,0.8537555131952773,-0.1565885882826531,0.3205077350139618,-0.8002443909645081,-0.5068369507789612,-115.5547637939453,-102.7099151611328,-175.8351745605469,1,192.168.1.8,10.71.35.210,1,0
2015-03-13 09:26:50.991,117,1426264003.318073,37.77912456231904,-122.4386948588684,57.10246,-1,-1,10,65,-9999,1426264010.967298,-19.52846336364746,-8.79437255859375,-25.70838165283203,84.07708740234375,70.30509948730469,26,400725.9209532917,0.5968170166015625,-0.6287078857421875,-0.4257965087890625,400725.8790909583,-0.9532785121938633,1.387932767389587,-0.5152718698179481,400725.8790909583,-3.05808177852963,0.629392934327884,0.8767157615268447,-0.9684085845947266,1.400829076766968,-0.483012467622757,0.1663580387830734,0.1156270354986191,0.142747774720192,XTrueNorthZVertical,-0.2968656325260797,0.3915575901123652,0.8547488699204859,-0.1672058727775778,0.3765496611595154,-0.7686421871185303,-0.5171068906784058,-103.4658126831055,-99.65530395507812,-184.8888397216797,1,192.168.1.8,10.71.35.210,1,0
2015-03-13 09:26:51.024,118,1426264003.318073,37.77912456231904,-122.4386948588684,57.10246,-1,-1,10,65,-9999,1426264011.019633,-17.46519470214844,-6.602264404296875,-24.49353790283203,83.2333984375,69.46141052246094,26,400725.970008625,0.4246063232421875,-0.6036834716796875,-0.6600799560546875,400725.930865,-0.7580749295615623,0.5829494510195867,-0.6787825038977611,400725.930865,-3.05385492662527,0.6715976434704933,0.8275216141830838,-0.7732048630714417,0.595845639705658,-0.6465234756469727,0.2222256064414978,0.02847757376730442,0.1695125848054886,XTrueNorthZVertical,-0.3180737178279071,0.3660028279372071,0.8578338474194618,-0.170270710522965,0.4210696816444397,-0.73625648021698,-0.5297420620918274,-89.10580444335938,-93.83724975585938,-195.1280822753906,1,192.168.1.8,10.71.35.210,1,0
2015-03-13 09:26:51.092,119,1426264003.318073,37.77912456231904,-122.4386948588684,57.10246,-1,-1,10,65,-9999,1426264011.072581,-16.69786262512207,-4.512115478515625,-24.17734527587891,83.32476043701172,69.55277252197266,26,400726.0191252084,0.455230712890625,-0.6718902587890625,-0.664520263671875,400725.98263925,-0.9611199237074927,-0.3479473227410326,-0.6292303970752018,400725.98263925,-3.042325641439145,0.6779981473477331,0.7769545204550004,-0.9762496948242188,-0.3350512981414795,-0.5969716906547546,-0.1535501629114151,0.1592714935541153,-0.1437809318304062,XTrueNorthZVertical,-0.3251083889566198,0.3415134003480451,0.8654914191307337,-0.1691086068039934,0.4472513198852539,-0.7011110782623291,-0.5553462505340576,-80.24802398681641,-89.15789794921875,-201.0755157470703,1,192.168.1.8,10.71.35.210,1,0
2015-03-13 09:26:51.124,120,1426264003.318073,37.77912456231904,-122.4386948588684,57.10246,-1,-1,10,65,-9999,1426264011.072581,-16.69786262512207,-4.512115478515625,-24.17734527587891,83.32476043701172,69.55277252197266,26,400726.068288125,0.358612060546875,-0.5675506591796875,-0.4133453369140625,400726.034411375,-0.8769874690785814,0.1225000838214648,-0.927488726513645,400726.034411375,-3.050754299053378,0.6611404699691761,0.715697294581413,-0.8920579552650452,0.1353423148393631,-0.8951546549797058,-0.04156087338924408,-0.05418336763978004,-0.05584556609392166,XTrueNorthZVertical,-0.3187494554411245,0.317150703949546,0.8798642208112585,-0.1537958167437019,0.4633595645427704,-0.6561437845230103,-0.5956284403800964,-78.9796142578125,-79.19562530517578,-205.6952209472656,1,192.168.1.8,10.71.35.210,1,0
2015-03-13 09:26:51.196,121,1426264003.318073,37.77912456231904,-122.4386948588684,57.10246,-1,-1,10,65,-9999,1426264011.174784,-16.20335578918457,0.60284423828125,-24.75980377197266,87.79864501953125,74.02665710449219,26,400726.117257,0.5177459716796875,-0.4573211669921875,-0.47332763671875,400726.0861856667,-0.5106523505910967,0.6408585573428147,-1.189543511461333,400726.0861856667,-3.081013654629207,0.7048355573554477,0.6589698974514949,-0.5257226824760437,0.6537006497383118,-1.157209753990173,0.01245230995118618,0.0588206984102726,0.1530896872282028,XTrueNorthZVertical,-0.3356479145043572,0.2936399267921727,0.8842663706747124,-0.1385245149693975,0.5122516751289368,-0.6123027801513672,-0.6022321581840515,-75.86793518066406,-76.06002044677734,-208.0364685058594,1,192.168.1.8,10.71.35.210,1,0
2015-03-13 09:26:51.221,122,1426264003.318073,37.77912456231904,-122.4386948588684,57.10246,-1,-1,10,65,-9999,1426264011.174784,-16.20335578918457,0.60284423828125,-24.75980377197266,87.79864501953125,74.02665710449219,26,400726.1663159584,0.7910614013671875,-0.6893310546875,-0.7197265625,400726.1379597083,-0.6396220516486909,0.2306478598962746,-1.312286475574213,400726.1379597083,-3.105055333491118,0.7559703038777524,0.5982251068393919,-0.6546921730041504,0.2434898167848587,-1.279953122138977,-0.03356801345944405,0.1696372777223587,0.1253412365913391,XTrueNorthZVertical,-0.3576063803432186,0.2673833865565073,0.886007986938106,-0.1249545240663623,0.5668627023696899,-0.563176691532135,-0.6012476086616516,-62.0386962890625,-73.78093719482422,-213.3724975585938,1,192.168.1.8,10.71.35.210,1,0
2015-03-13 09:26:51.294,123,1426264003.318073,37.77912456231904,-122.4386948588684,57.10246,-1,-1,10,65,-9999,1426264011.278648,-15.55538749694824,7.50213623046875,-23.19549560546875,91.37554168701172,77.60355377197266,26,400726.2153787917,0.656768798828125,-0.4571380615234375,-0.4413604736328125,400726.1897320834,-0.7117111591960459,-0.2031922669542117,-1.036991518951087,400726.1897320834,-3.124826953476531,0.7599199645599085,0.5335964323143888,-0.7267811894416809,-0.1903504431247711,-1.004658341407776,-0.03650511056184769,-0.040988489985466,0.2277569174766541,XTrueNorthZVertical,-0.3598013177765499,0.2418334139493233,0.8949716098553794,-0.1052872919592635,0.5930999517440796,-0.5086330771446228,-0.6241192221641541,-55.51436614990234,-70.28352355957031,-216.3298950195312,1,192.168.1.8,10.71.35.210,1,0
2015-03-13 09:26:51.320,124,1426264003.318073,37.77912456231904,-122.4386948588684,57.10246,-1,-1,10,65,-9999,1426264011.278648,-15.55538749694824,7.50213623046875,-23.19549560546875,91.37554168701172,77.60355377197266,26,400726.2644181667,0.4938201904296875,-0.3999481201171875,-0.320404052734375,400726.241506125,-0.7102754490523842,0.3450135844842013,-1.224529192385595,400726.241506125,-3.139841111604208,0.7693843104709732,0.4665155495725563,-0.7253453135490417,0.3578552901744843,-1.192196369171143,0.1327221244573593,-0.07669708132743835,-0.221138596534729,XTrueNorthZVertical,-0.3652983427108938,0.2139347561028086,0.9017354854607288,-0.08753364996491998,0.621351957321167,-0.4497769176959991,-0.6415780782699585,-53.83141326904297,-65.83194732666016,-218.1480712890625,1,192.168.1.8,10.71.35.210,1,0
2015-03-13 09:26:51.394,125,1426264003.318073,37.77912456231904,-122.4386948588684,57.10246,-1,-1,10,65,-9999,1426264011.382417,-16.16925239562988,14.19747924804688,-22.5631103515625,95.75613403320312,81.98414611816406,26,400726.3134900834,0.7518768310546875,-0.4490509033203125,-0.68585205078125,400726.2932804167,-0.6646911859379339,0.3163830048691955,-1.278932513449843,400726.2932804167,3.126995535691685,0.7903422640941004,0.4011860584708846,-0.6797609329223633,0.3292245864868164,-1.246599912643433,0.1378508359193802,-0.03719335794448853,-0.005432667210698128,XTrueNorthZVertical,-0.3758948253788426,0.1866428449929655,0.9049603651447623,-0.07010171791597516,0.654171884059906,-0.3905104994773865,-0.647735059261322,-46.40463256835938,-59.05263900756836,-221.7648315429688,1,192.168.1.8,10.71.35.210,1,0
2015-03-13 09:26:51.418,126,1426264003.318073,37.77912456231904,-122.4386948588684,57.10246,-1,-1,10,65,-9999,1426264011.382417,-16.16925239562988,14.19747924804688,-22.5631103515625,95.75613403320312,81.98414611816406,26,400726.3626605417,0.8661346435546875,-0.3224334716796875,-0.6217041015625,400726.3450527083,-0.7029078138966799,-0.05078142198173992,-1.180300744582104,400726.2932804167,3.126995535691685,0.7903422640941004,0.4011860584708846,-0.6797609329223633,0.3292245864868164,-1.246599912643433,0.1378508359193802,-0.03719335794448853,-0.005432667210698128,XTrueNorthZVertical,-0.3758948253788426,0.1866428449929655,0.9049603651447623,-0.07010171791597516,0.654171884059906,-0.3905104994773865,-0.647735059261322,-46.40463256835938,-59.05263900756836,-221.7648315429688,1,192.168.1.8,10.71.35.210,1,0
2015-03-13 09:26:51.501,127,1426264003.318073,37.77912456231904,-122.4386948588684,57.10246,-1,-1,10,65,-9999,1426264011.485829,-16.47618675231934,20.34906005859375,-21.33162689208984,100.6654663085938,86.89347839355469,26,400726.4115901667,0.7904052734375,-0.2383575439453125,-0.476165771484375,400726.3968267083,-0.5937640155741806,-0.0008855010624513467,-0.942006949196212,400726.3968267083,3.098677908786648,0.8272388371526838,0.2813850447020108,-0.6088334321975708,0.01195581164211035,-0.909675121307373,0.09676182270050049,-0.1205831691622734,0.06834931671619415,XTrueNorthZVertical,-0.3951081705013679,0.1369124736126164,0.9076250053517637,-0.03689637521381453,0.707116961479187,-0.2776864767074585,-0.650288999080658,-36.66964721679688,-49.65908813476562,-225.8529510498047,1,192.168.1.8,10.71.35.210,1,0
2015-03-13 09:26:51.516,128,1426264003.318073,37.77912456231904,-122.4386948588684,57.10246,-1,-1,10,65,-9999,1426264011.485829,-16.47618675231934,20.34906005859375,-21.33162689208984,100.6654663085938,86.89347839355469,26,400726.4606250834,0.73199462890625,-0.18682861328125,-0.5870819091796875,400726.4486009167,-0.6850710261797652,0.2646455080561171,-0.9791266211019544,400726.4486009167,3.091998129492794,0.847416997110228,0.2266407668175105,-0.7001402378082275,0.2774867117404938,-0.9467951059341431,0.02199150808155537,0.1062362343072891,-0.04429127648472786,XTrueNorthZVertical,-0.4058254083730149,0.1131756943207449,0.9065980536713907,-0.02401986437327411,0.7304041385650635,-0.2247054725885391,-0.6449940204620361,-29.52642059326172,-43.26021575927734,-228.2038269042969,1,192.168.1.8,10.71.35.210,1,0
2015-03-13 09:26:51.597,129,1426264003.318073,37.77912456231904,-122.4386948588684,57.10246,-1,-1,10,65,-9999,1426264011.538422,-17.00479316711426,22.60919189453125,-20.08349609375,101.9741592407227,88.20217132568359,26,400726.5097138333,0.8126983642578125,-0.0149993896484375,-0.5537109375,400726.500373125,-0.7102831722195454,0.5922798358986794,-0.7598355453582137,400726.4486009167,3.091998129492794,0.847416997110228,0.2266407668175105,-0.7001402378082275,0.2774867117404938,-0.9467951059341431,0.02199150808155537,0.1062362343072891,-0.04429127648472786,XTrueNorthZVertical,-0.4058254083730149,0.1131756943207449,0.9065980536713907,-0.02401986437327411,0.7304041385650635,-0.2247054725885391,-0.6449940204620361,-29.52642059326172,-43.26021575927734,-228.2038269042969,1,192.168.1.8,10.71.35.210,1,0
2015-03-13 09:26:51.613,130,1426264003.318073,37.77912456231904,-122.4386948588684,57.10246,-1,-1,10,65,-9999,1426264011.593591,-17.56750106811523,25.07321166992188,-18.80209350585938,103.1870880126953,89.41510009765625,26,400726.55876175,0.88153076171875,-0.0536651611328125,-0.422210693359375,400726.5521475,-0.5695566802136872,0.06964938567273331,-0.8153944120194467,400726.500373125,3.09308480251001,0.8561539274426444,0.1708274164210219,-0.7253522872924805,0.6051208972930908,-0.7275043725967407,0.1278131753206253,0.129973977804184,0.1416427493095398,XTrueNorthZVertical,-0.4116048605261546,0.08761983932628969,0.9070413822575868,-0.01342080814622877,0.7443334460258484,-0.1699977815151215,-0.6458083987236023,-25.37554168701172,-36.98531341552734,-229.8008117675781,1,192.168.1.8,10.71.35.210,1,0
2015-03-13 09:26:51.692,131,1426264003.318073,37.77912456231904,-122.4386948588684,57.10246,-1,-1,10,65,-9999,1426264011.666941,-18.76113128662109,28.50579833984375,-17.17121124267578,105.1786804199219,91.40669250488281,26,400726.6078455001,0.9945220947265625,0.0747222900390625,-0.60418701171875,400726.6039215,-0.3250952700592807,0.04977448077358096,-0.9193040335355045,400726.6039215,3.085686968343183,0.8762167062902784,0.07233916548806076,-0.3401640951633453,0.0626152902841568,-0.8869734406471252,0.1778699308633804,0.1632947623729706,-0.02901564911007881,XTrueNorthZVertical,-0.4228689155712891,0.04458269869471948,0.9050387183315058,0.00995822338044387,0.7663134336471558,-0.07227609306573868,-0.6383885145187378,-17.02977752685547,-22.60261154174805,-232.420654296875,1,192.168.1.8,10.71.35.210,1,0
2015-03-13 09:26:51.711,132,1426264003.318073,37.77912456231904,-122.4386948588684,57.10246,-1,-1,10,65,-9999,1426264011.666941,-18.76113128662109,28.50579833984375,-17.17121124267578,105.1786804199219,91.40669250488281,26,400726.6568932083,0.9023590087890625,0.1199798583984375,-0.7060394287109375,400726.6039215,-0.3250952700592807,0.04977448077358096,-0.9193040335355045,400726.6039215,3.085686968343183,0.8762167062902784,0.07233916548806076,-0.3401640951633453,0.0626152902841568,-0.8869734406471252,0.1778699308633804,0.1632947623729706,-0.02901564911007881,XTrueNorthZVertical,-0.4228689155712891,0.04458269869471948,0.9050387183315058,0.00995822338044387,0.7663134336471558,-0.07227609306573868,-0.6383885145187378,-17.02977752685547,-22.60261154174805,-232.420654296875,1,192.168.1.8,10.71.35.210,1,0
2015-03-13 09:26:51.796,133,1426264003.318073,37.77912456231904,-122.4386948588684,57.10246,-1,-1,10,65,-9999,1426264011.77049,-21.16543769836426,32.43124389648438,-15.32398223876953,108.4828872680664,94.71089935302734,26,400726.7059817084,0.757171630859375,0.1269989013671875,-0.5308990478515625,400726.7074680417,-0.2522490258140163,0.2166028809394147,-0.6215136215005882,400726.6556937917,3.074511993294959,0.8814498501303891,0.0346135319667947,-0.3078789710998535,-0.1852140724658966,-0.7865880727767944,0.05324801057577133,0.09735076129436493,-0.0006699824589304626,XTrueNorthZVertical,-0.4257665732271272,0.02994671265399268,0.9040461587818124,0.02294661166427097,0.771199643611908,-0.03460662066936493,-0.6356520652770996,-14.71018218994141,-19.32572746276855,-232.8741455078125,1,192.168.1.8,10.71.35.210,4,0
2015-03-13 09:26:51.810,134,1426264003.318073,37.77912456231904,-122.4386948588684,57.10246,-1,-1,10,65,-9999,1426264011.77049,-21.16543769836426,32.43124389648438,-15.32398223876953,108.4828872680664,94.71089935302734,26,400726.7550729167,0.7808685302734375,-0.0405426025390625,-0.6014251708984375,400726.7074680417,-0.2522490258140163,0.2166028809394147,-0.6215136215005882,400726.7074680417,3.06791888465929,0.8823163728782639,0.002333393585502116,-0.267317533493042,0.2294434159994125,-0.5891837477684021,-0.01503895223140717,0.1293322890996933,0.1044633388519287,XTrueNorthZVertical,-0.4266582394518874,0.01677958344226767,0.9036620117951099,0.0328046551133685,0.7722105979919434,-0.002333391457796097,-0.6353623867034912,-14.53665924072266,-16.56174087524414,-233.0979156494141,1,192.168.1.8,10.71.35.210,4,0
2015-03-13 09:26:51.893,135,1426264003.318073,37.77912456231904,-122.4386948588684,57.10246,-1,-1,10,65,-9999,1426264011.874698,-22.03507804870605,34.24951171875,-14.20899200439453,110.7817001342773,97.00971221923828,26,400726.8041242083,0.82635498046875,0.1298828125,-0.6280670166015625,400726.759242375,-0.26333203700649,0.2445711323913178,-0.3873434647465748,400726.759242375,3.05839571077886,0.8956413065369805,-0.02598771410939679,-0.2784003913402557,0.2574115395545959,-0.3550139367580414,0.0005220468156039715,-0.06652738898992538,0.02338211610913277,XTrueNorthZVertical,-0.4330780806795262,0.006303402603510052,0.9003031039638956,0.04310393038811453,0.7803465127944946,0.02598478831350803,-0.6248072981834412,-11.89998626708984,-13.3563404083252,-233.4528656005859,1,192.168.1.8,10.71.35.210,4,0
2015-03-13 09:26:51.908,136,1426264003.318073,37.77912456231904,-122.4386948588684,57.10246,-1,-1,10,65,-9999,1426264011.874698,-22.03507804870605,34.24951171875,-14.20899200439453,110.7817001342773,97.00971221923828,26,400726.8532892084,0.942840576171875,0.2228851318359375,-0.587188720703125,400726.8110145,-0.3129222270326375,-0.0683047556383523,-0.2668205117183848,400726.8110145,3.061249936891687,0.9048614022872598,-0.0458247899966803,-0.3279904425144196,-0.05546445772051811,-0.2344912737607956,0.04084092378616333,0.08407405763864517,-0.010920993052423,XTrueNorthZVertical,-0.4375131596319217,-0.003036990377732137,0.8980234723437113,0.04611767155282905,0.7855140566825867,0.04580875486135483,-0.6171460151672363,-8.741508483886719,-10.88564872741699,-233.7206115722656,1,192.168.1.8,10.71.35.210,4,0
2015-03-13 09:26:51.989,137,1426264003.318073,37.77912456231904,-122.4386948588684,57.10246,-1,-1,10,65,-9999,1426264011.978475,-22.06918716430664,35.57501220703125,-13.44348907470703,110.7810287475586,97.00904083251953,26,400726.9022634584,0.93597412109375,0.164031982421875,-0.480682373046875,400726.9145629167,0.01988395964685861,-0.02627687784359383,0.1205016477394693,400726.8627888334,3.069718506540439,0.9081999480185857,-0.05403886327380088,-0.1680118143558502,-0.07836297899484634,0.05936960130929947,0.1555937528610229,0.1688725650310516,0.02707919292151928,XTrueNorthZVertical,-0.4390827496635401,-0.00850776593468734,0.897322360497694,0.04411941623508691,0.7872468233108521,0.05401256680488586,-0.614267885684967,-7.80712890625,-7.777980804443359,-233.8777465820312,1,192.168.1.8,10.71.35.210,4,0
2015-03-13 09:26:52.006,138,1426264003.318073,37.77912456231904,-122.4386948588684,57.10246,-1,-1,10,65,-9999,1426264011.978475,-22.06918716430664,35.57501220703125,-13.44348907470703,110.7810287475586,97.00904083251953,26,400726.951319875,0.8189849853515625,0.1044769287109375,-0.5880584716796875,400726.9145629167,0.01988395964685861,-0.02627687784359383,0.1205016477394693,400726.9145629167,3.075244679183608,0.9035981593689443,-0.05122119332930852,0.004816061817109585,-0.01343684829771519,0.1528302133083344,0.1578088253736496,0.1603795737028122,0.1202494204044342,XTrueNorthZVertical,-0.4369656389056389,-0.008549860986771149,0.8985024145179,0.04100397626780125,0.7845281958580017,0.0511987991631031,-0.6179758310317993,-7.988655090332031,-5.409831047058105,-233.9383544921875,1,192.168.1.8,10.71.35.210,4,0
2015-03-13 09:26:52.096,139,1426264003.318073,37.77912456231904,-122.4386948588684,57.10246,-1,-1,10,65,-9999,1426264012.081955,-21.71109962463379,35.0482177734375,-13.72638702392578,109.9004821777344,96.12849426269531,26,400727.00040575,0.8976287841796875,0.1019134521484375,-0.6803436279296875,400726.966335375,0.2028862697449616,-0.008947155998230209,0.3081101612589733,400726.966335375,3.082375217557105,0.8971239126303492,-0.0380297715204426,0.1878185123205185,0.003892756765708327,0.3404384255409241,0.08553007990121841,0.03459597006440163,0.03025432117283344,XTrueNorthZVertical,-0.4339089653054529,-0.004289011476394458,0.9002697850605819,0.03491293437185253,0.7809707522392273,0.03802060708403587,-0.6234092116355896,-8.921516418457031,-5.349545001983643,-233.9060363769531,1,192.168.1.8,10.71.35.210,4,0
2015-03-13 09:26:52.104,140,1426264003.318073,37.77912456231904,-122.4386948588684,57.10246,-1,-1,10,65,-9999,1426264012.081955,-21.71109962463379,35.0482177734375,-13.72638702392578,109.9004821777344,96.12849426269531,26,400727.0494510834,0.9080963134765625,0.1483917236328125,-0.5050811767578125,400727.0181094167,0.09334486147171334,-0.3316628916235251,0.7054343548228381,400727.0181094167,3.096385429230067,0.8940944287953179,-0.01089454632840499,0.07827725261449814,-0.3188230991363525,0.7377622723579407,0.08139639347791672,0.05981489643454552,-0.04950176924467087,XTrueNorthZVertical,-0.432298989758169,0.004859996054286858,0.901430579521961,0.02273453026770535,0.7795960307121277,0.01089433114975691,-0.6261879205703735,-9.622886657714844,-6.566916942596436,-233.8472290039062,1,192.168.1.8,10.71.35.210,4,0
2015-03-13 09:26:52.164,141,1426264003.318073,37.77912456231904,-122.4386948588684,57.10246,-1,-1,10,65,-9999,1426264012.133773,-20.75619506835938,33.31488037109375,-14.22563171386719,108.3697662353516,94.5977783203125,26,400727.0985292083,0.9368438720703125,0.0511932373046875,-0.5372314453125,400727.069883625,0.2916813868103835,-0.2093572185616361,0.9136062003832799,400727.069883625,3.116952349615369,0.8840846009309499,0.0286193368268598,0.2767887115478516,-0.1966165900230408,0.9460449814796448,0.1939159482717514,0.1719564944505692,0.05399561673402786,XTrueNorthZVertical,-0.4275507504888118,0.01820251834897343,0.903794153270673,0.005013707942088738,0.7730182409286499,-0.02861542999744415,-0.6337380409240723,-12.44744873046875,-7.618843078613281,-233.6819458007812,1,192.168.1.8,10.71.35.210,4,0
2015-03-13 09:26:52.202,142,1426264003.318073,37.77912456231904,-122.4386948588684,57.10246,-1,-1,10,65,-9999,1426264012.184968,-19.97180938720703,31.3096923828125,-14.95787048339844,105.8207321166992,92.04874420166016,26,400727.1475642917,0.8137969970703125,-0.05926513671875,-0.5970458984375,400727.121655875,0.5157163514038824,-0.4861789654377045,0.9801295675684782,400727.121655875,3.130133013882721,0.8636295298173643,0.08088570976924558,0.5008238554000854,-0.4734384715557098,1.01256799697876,0.09655842930078506,0.1434959024190903,0.1575071811676025,XTrueNorthZVertical,-0.4179601871913072,0.03911596711716403,0.9075471395375453,-0.01172165637138087,0.7577201128005981,-0.08079753816127777,-0.6475584506988525,-15.02970886230469,-10.16454982757568,-233.4331359863281,1,192.168.1.8,10.71.35.210,4,0
2015-03-13 09:26:52.266,143,1426264003.318073,37.77912456231904,-122.4386948588684,57.10246,-1,-1,10,65,-9999,1426264012.237078,-19.1021671295166,29.18551635742188,-15.7733154296875,103.4369583129883,89.66497039794922,26,400727.196644375,0.9089508056640625,-0.0420684814453125,-0.556793212890625,400727.1734300834,0.6190392785317955,-0.3061719126176137,1.036560353170603,400727.1734300834,-3.139555302905355,0.8454933604204159,0.1379761969518512,0.6041468977928162,-0.2934315502643585,1.068998456001282,0.07589070498943329,0.05743018537759781,0.09559543430805206,XTrueNorthZVertical,-0.4093547874714437,0.06244790580356763,0.9097668947093771,-0.02920785848344085,0.7411869168281555,-0.1375388354063034,-0.6570578217506409,-20.30435180664062,-14.75715732574463,-232.7879028320312,1,192.168.1.8,10.71.35.210,4,0
2015-03-13 09:26:52.312,144,1426264003.318073,37.77912456231904,-122.4386948588684,57.10246,-1,-1,10,65,-9999,1426264012.298832,-18.0620059967041,26.85748291015625,-16.98815155029297,101.6284866333008,87.85649871826172,26,400727.2456853334,0.777557373046875,-0.1865081787109375,-0.5771331787109375,400727.2252043334,0.7424184718290955,-0.597037040553888,1.048574671796278,400727.2252043334,-3.128233409359825,0.824296122577674,0.2013788434981217,0.7275262475013733,-0.5842967629432678,1.081012606620789,0.1294734328985214,0.1167380288243294,0.07477473467588425,XTrueNorthZVertical,-0.3991558633033463,0.0894379318798092,0.9113323885517196,-0.04635423798979089,0.7192356586456299,-0.200020506978035,-0.6653509140014648,-25.63180541992188,-21.73177719116211,-231.7131652832031,1,192.168.1.8,10.71.35.210,4,0
2015-03-13 09:26:52.402,145,1426264003.318073,37.77912456231904,-122.4386948588684,57.10246,-1,-1,10,65,-9999,1426264012.366053,-17.05594635009766,22.62619018554688,-19.56760406494141,98.50569152832031,84.73370361328125,26,400727.2947610834,0.770294189453125,-0.2440032958984375,-0.5822601318359375,400727.27697675,0.7863758098336164,-0.1550859902874563,1.04712458058273,400727.27697675,-3.1188434296979,0.8012549171370732,0.2661638823521905,0.7714837789535522,-0.1423458755016327,1.079562187194824,0.01250552013516426,0.0311140101402998,0.1517732739448547,XTrueNorthZVertical,-0.3879124608551412,0.1177779990193501,0.9120266413160304,-0.06212612865358143,0.6929388046264648,-0.2630323469638824,-0.6713045239448547,-32.27718353271484,-27.88726043701172,-230.2188720703125,1,192.168.1.8,10.71.35.210,4,0
2015-03-13 09:26:52.409,146,1426264003.318073,37.77912456231904,-122.4386948588684,57.10246,-1,-1,10,65,-9999,1426264012.366053,-17.05594635009766,22.62619018554688,-19.56760406494141,98.50569152832031,84.73370361328125,26,400727.3438119167,0.749176025390625,-0.3588409423828125,-0.5998382568359375,400727.3287508333,0.8837327234875341,-0.009273126915655907,1.04571523573386,400727.27697675,-3.1188434296979,0.8012549171370732,0.2661638823521905,0.7714837789535522,-0.1423458755016327,1.079562187194824,0.01250552013516426,0.0311140101402998,0.1517732739448547,XTrueNorthZVertical,-0.3879124608551412,0.1177779990193501,0.9120266413160304,-0.06212612865358143,0.6929388046264648,-0.2630323469638824,-0.6713045239448547,-32.27718353271484,-27.88726043701172,-230.2188720703125,1,192.168.1.8,10.71.35.210,4,0
2015-03-13 09:26:52.459,147,1426264012.392074,37.77923366577295,-122.4387078523382,56.72593,-1,-1,10,65,-9999,1426264012.419489,-16.68080520629883,19.4654541015625,-20.66596221923828,96.38031005859375,82.60832214355469,26,400727.3928885417,0.74169921875,-0.3902587890625,-0.5272064208984375,400727.3805252084,0.8268790279043045,-0.1422527496265825,1.134799039461446,400727.3805252084,-3.101070480229256,0.7876877005008879,0.4033409895837415,0.8119872212409973,-0.1295128762722015,1.167235970497131,0.02403587102890015,0.03900831192731857,0.08820518106222153,XTrueNorthZVertical,-0.3796339555304678,0.177316096344336,0.902982797219526,-0.0951793800277705,0.6518521904945374,-0.3924934267997742,-0.6488741040229797,-38.87668609619141,-43.81076431274414,-226.6924438476562,1,192.168.1.8,10.71.35.210,4,0
2015-03-13 09:26:52.497,148,1426264012.392074,37.77923366577295,-122.4387078523382,56.72593,-1,-1,10,65,-9999,1426264012.419489,-16.68080520629883,19.4654541015625,-20.66596221923828,96.38031005859375,82.60832214355469,26,400727.4419874167,0.6927490234375,-0.3652801513671875,-0.5264129638671875,400727.4322973751,0.735579740465881,-0.06849117691465785,1.195484491221082,400727.3805252084,-3.101070480229256,0.7876877005008879,0.4033409895837415,0.8119872212409973,-0.1295128762722015,1.167235970497131,0.02403587102890015,0.03900831192731857,0.08820518106222153,XTrueNorthZVertical,-0.3796339555304678,0.177316096344336,0.902982797219526,-0.0951793800277705,0.6518521904945374,-0.3924934267997742,-0.6488741040229797,-38.87668609619141,-43.81076431274414,-226.6924438476562,1,192.168.1.8,10.71.35.210,4,0
2015-03-13 09:26:52.591,149,1426264012.392074,37.77923366577295,-122.4387078523382,56.72593,-1,-1,10,65,-9999,1426264012.547669,-14.36175918579102,10.62896728515625,-21.26505279541016,90.59142303466797,76.81943511962891,26,400727.491009,0.6228485107421875,-0.5116119384765625,-0.524566650390625,400727.4840717083,0.7279585723744013,0.1727398188374826,1.19430124874876,400727.4840717083,-3.06541130277229,0.7753235223466006,0.5414160699973988,0.7130671143531799,0.1854794174432755,1.226737499237061,0.05410536378622055,0.03193635493516922,0.09808854758739471,XTrueNorthZVertical,-0.3734213684538114,0.2335194050957283,0.8875829872503682,-0.1349873862288843,0.5998405814170837,-0.5153500437736511,-0.6120503544807434,-45.25874328613281,-54.62104034423828,-223.1332092285156,1,192.168.1.8,10.71.35.210,4,0
2015-03-13 09:26:52.594,150,1426264012.392074,37.77923366577295,-122.4387078523382,56.72593,-1,-1,10,65,-9999,1426264012.547669,-14.36175918579102,10.62896728515625,-21.26505279541016,90.59142303466797,76.81943511962891,26,400727.5400598334,0.647186279296875,-0.552093505859375,-0.5201263427734375,400727.5358458334,0.6884694860468153,-0.003929494188411916,1.121770056460452,400727.4840717083,-3.06541130277229,0.7753235223466006,0.5414160699973988,0.7130671143531799,0.1854794174432755,1.226737499237061,0.05410536378622055,0.03193635493516922,0.09808854758739471,XTrueNorthZVertical,-0.3734213684538114,0.2335194050957283,0.8875829872503682,-0.1349873862288843,0.5998405814170837,-0.5153500437736511,-0.6120503544807434,-45.25874328613281,-54.62104034423828,-223.1332092285156,1,192.168.1.8,10.71.35.210,4,0
