loggingTime,loggingSample,locationTimestamp_since1970,locationLatitude,locationLongitude,locationAltitude,locationSpeed,locationCourse,locationVerticalAccuracy,locationHorizontalAccuracy,locationFloor,locationHeadingTimestamp_since1970,locationHeadingX,locationHeadingY,locationHeadingZ,locationTrueHeading,locationMagneticHeading,locationHeadingAccuracy,accelerometerTimestamp_sinceReboot,accelerometerAccelerationX,accelerometerAccelerationY,accelerometerAccelerationZ,gyroTimestamp_sinceReboot,gyroRotationX,gyroRotationY,gyroRotationZ,motionTimestamp_sinceReboot,motionYaw,motionRoll,motionPitch,motionRotationRateX,motionRotationRateY,motionRotationRateZ,motionUserAccelerationX,motionUserAccelerationY,motionUserAccelerationZ,motionAttitudeReferenceFrame,motionQuaternionX,motionQuaternionY,motionQuaternionZ,motionQuaternionW,motionGravityX,motionGravityY,motionGravityZ,motionMagneticFieldX,motionMagneticFieldY,motionMagneticFieldZ,motionMagneticFieldCalibrationAccuracy,IP_en0,IP_pdp_ip0,deviceOrientation,state
2015-03-09 08:10:05.589,1,1425913805.370653,37.77934803165289,-122.4390307815023,62.75156,0,214.1015625,3,10,-9999,1425913805.543601,-36.46802520751953,-26.01614379882812,-1.612658500671387,144.4075927734375,130.6324157714844,10,348641.1303647084,-0.6011810302734375,-0.46832275390625,-0.4877471923828125,348641.11656,0.1199005722814385,0.6709698545239047,-0.04284120719166867,348641.11656,-2.915387688222869,-0.92983563567614,0.489543854774082,0.1140640154480934,0.6803171038627625,-0.009200231172144413,0.05326713249087334,0.007958352565765381,0.003258032025769353,XTrueNorthZVertical,-0.4077586906419311,-0.2643223133358184,-0.873936462967836,-0.01008139408320289,-0.7073808908462524,-0.4702233672142029,-0.5277331471443176,-35.72381210327148,-27.05416870117188,-3.742776870727539,2,192.168.1.8,10.71.35.210,3,0
2015-03-09 08:10:05.646,2,1425913805.370653,37.77934803165289,-122.4390307815023,62.75156,0,214.1015625,3,10,-9999,1425913805.595622,-36.280517578125,-25.9991455078125,-2.361766815185547,143.2047119140625,129.4295196533203,10,348641.1794329584,-0.6444549560546875,-0.4460296630859375,-0.5125732421875,348641.1683409584,-0.06693935294746868,-0.5030104098431143,-0.03366395407525562,348641.11656,-2.915387688222869,-0.92983563567614,0.489543854774082,0.1140640154480934,0.6803171038627625,-0.009200231172144413,0.05326713249087334,0.007958352565765381,0.003258032025769353,XTrueNorthZVertical,-0.4077586906419311,-0.2643223133358184,-0.873936462967836,-0.01008139408320289,-0.7073808908462524,-0.4702233672142029,-0.5277331471443176,-35.72381210327148,-27.05416870117188,-3.742776870727539,2,192.168.1.8,10.71.35.210,3,0
2015-03-09 08:10:05.674,3,1425913805.370653,37.77934803165289,-122.4390307815023,62.75156,0,214.1015625,3,10,-9999,1425913805.647307,-36.29756927490234,-26.08404541015625,-2.711350440979004,142.990478515625,129.2152862548828,10,348641.228472375,-0.77813720703125,-0.4754180908203125,-0.511871337890625,348641.2201218334,-0.01905252075453588,-0.1031618058819634,-0.05729924243359985,348641.1683409584,-2.91531239152719,-0.9289033751991289,0.4908656325987597,-0.07277584820985794,-0.4936632513999939,-2.331449468329083e-05,0.1444852650165558,0.004302695859223604,-0.002650382230058312,XTrueNorthZVertical,-0.4072052355826351,-0.2649037641304384,-0.8740167704952573,-0.01022681227310704,-0.7063901424407959,-0.471389502286911,-0.5280197858810425,-35.61691665649414,-27.09923934936523,-4.381063461303711,2,192.168.1.8,10.71.35.210,3,0
2015-03-09 08:10:05.740,4,1425913805.370653,37.77934803165289,-122.4390307815023,62.75156,0,214.1015625,3,10,-9999,1425913805.699927,-35.8543701171875,-26.05010986328125,-2.145356178283691,144.2860107421875,130.5108184814453,10,348641.27754425,-0.654022216796875,-0.4663238525390625,-0.511322021484375,348641.2719023334,0.02881913142018347,-0.1071296495900725,-0.1404628390579402,348641.2719023334,-2.921129165037272,-0.9470774223402688,0.4931437886365135,0.0229830164462328,-0.0977834165096283,-0.1068224534392357,0.05961543694138527,0.004708460997790098,-0.0006546918302774429,XTrueNorthZVertical,-0.4156650103061737,-0.2645547488439144,-0.8700500788550251,-0.01569252332418057,-0.7149956822395325,-0.473397433757782,-0.5144667625427246,-35.64336013793945,-27.1872673034668,-3.539825439453125,2,192.168.1.8,10.71.35.210,3,0
2015-03-09 08:10:05.772,5,1425913805.370653,37.77934803165289,-122.4390307815023,62.75156,0,214.1015625,3,10,-9999,1425913805.750674,-35.83733367919922,-26.54281616210938,-1.762477874755859,144.7976684570312,131.0224914550781,10,348641.3265792917,-0.7151031494140625,-0.4737701416015625,-0.4922332763671875,348641.2719023334,0.02881913142018347,-0.1071296495900725,-0.1404628390579402,348641.2719023334,-2.921129165037272,-0.9470774223402688,0.4931437886365135,0.0229830164462328,-0.0977834165096283,-0.1068224534392357,0.05961543694138527,0.004708460997790098,-0.0006546918302774429,XTrueNorthZVertical,-0.4156650103061737,-0.2645547488439144,-0.8700500788550251,-0.01569252332418057,-0.7149956822395325,-0.473397433757782,-0.5144667625427246,-35.64336013793945,-27.1872673034668,-3.539825439453125,2,192.168.1.8,10.71.35.210,3,0
2015-03-09 08:10:05.840,6,1425913805.370653,37.77934803165289,-122.4390307815023,62.75156,0,214.1015625,3,10,-9999,1425913805.802442,-35.64982604980469,-26.79766845703125,-1.512774467468262,145.5123901367188,131.7372131347656,10,348641.3756852084,-0.7261199951171875,-0.4714202880859375,-0.497161865234375,348641.3754640833,0.07774912381210031,-0.07383294542913878,-0.1267129383498611,348641.3236834584,-2.924678089536577,-0.9570693277307956,0.4947484423838673,-0.03226747736334801,-0.2945703268051147,-0.04548930749297142,0.01488863211125135,0.002276093699038029,0.001747199101373553,XTrueNorthZVertical,-0.4203106270001269,-0.2644041038369476,-0.86779671865566,-0.01892915021927509,-0.7194784879684448,-0.4748102724552155,-0.5068588852882385,-35.54036712646484,-27.34909248352051,-3.322116851806641,2,192.168.1.8,10.71.35.210,3,0
2015-03-09 08:10:05.868,7,1425913805.370653,37.77934803165289,-122.4390307815023,62.75156,0,214.1015625,3,10,-9999,1425913805.855314,-35.54754638671875,-26.62777709960938,-1.146544456481934,145.6287231445312,131.8535461425781,10,348641.4246995417,-0.62841796875,-0.4627838134765625,-0.4973907470703125,348641.4272449167,0.0776985237513888,-0.2684951074118266,-0.1548255331328466,348641.3754640833,-2.925434561378776,-0.9657671423473834,0.4969766080585536,0.07191409170627594,-0.06448740512132645,-0.09307386726140976,-0.03043014742434025,0.003228815738111734,0.01027859933674335,XTrueNorthZVertical,-0.4239511671795336,-0.2650961135102171,-0.8657663428059479,-0.02093105458205735,-0.7229878306388855,-0.4767700731754303,-0.4999789297580719,-35.5384407043457,-27.3984432220459,-2.910604476928711,2,192.168.1.8,10.71.35.210,3,0
2015-03-09 08:10:05.942,8,1425913805.370653,37.77934803165289,-122.4390307815023,62.75156,0,214.1015625,3,10,-9999,1425913805.905847,-35.53050231933594,-26.78070068359375,-0.4973182678222656,145.4978332519531,131.72265625,10,348641.4737772917,-0.5894927978515625,-0.4302215576171875,-0.4625244140625,348641.4272449167,0.0776985237513888,-0.2684951074118266,-0.1548255331328466,348641.4272449167,-2.9258360870046,-0.9715147766362776,0.5046143716279343,0.0718621239066124,-0.259145587682724,-0.1211893633008003,0.09440355002880096,0.02068609930574894,-0.003643938573077321,XTrueNorthZVertical,-0.4256991677972559,-0.2681544597905376,-0.8638940718377759,-0.02367377889841941,-0.7228215336799622,-0.4834699034690857,-0.493746817111969,-35.39911270141602,-27.61238098144531,-2.566429138183594,2,192.168.1.8,10.71.35.210,3,0
2015-03-09 08:10:05.967,9,1425913805.370653,37.77934803165289,-122.4390307815023,62.75156,0,214.1015625,3,10,-9999,1425913805.958338,-35.36003875732422,-27.1884765625,0.5347881317138672,146.3751525878906,132.5999755859375,10,348641.52282925,-0.63006591796875,-0.434295654296875,-0.4186553955078125,348641.47902575,0.1167401990158414,-0.839935974096745,-0.2884778703351272,348641.47902575,-2.928537686758585,-0.9999836001055502,0.5147510472127119,0.1109038516879082,-0.8305864930152893,-0.2548419833183289,0.1429287195205688,0.06209661439061165,0.007775002159178257,XTrueNorthZVertical,-0.4372472538392768,-0.2714132107266627,-0.8568443559112779,-0.03110415934657527,-0.7324215173721313,-0.49231818318367,-0.4702994227409363,-35.22682952880859,-27.88454055786133,-1.910470962524414,2,192.168.1.8,10.71.35.210,3,0
2015-03-09 08:10:06.044,10,1425913805.370653,37.77934803165289,-122.4390307815023,62.75156,0,214.1015625,3,10,-9999,1425913806.009563,-34.61000823974609,-28.30989074707031,2.166179180145264,149.3594665527344,135.5842742919922,10,348641.5719022917,-0.7139129638671875,-0.518096923828125,-0.330108642578125,348641.5825872084,0.3061045346420347,-1.510206216202286,-0.6180650942050445,348641.530806625,-2.930823896431421,-1.051416089293053,0.5370410633365007,0.2162593752145767,-1.221238851547241,-0.5962302684783936,0.1158515363931656,0.07730018347501755,0.007814841344952583,XTrueNorthZVertical,-0.4570191643790143,-0.2791027858487976,-0.8433501206994892,-0.04467329370574413,-0.7459174394607544,-0.5115958452224731,-0.4264702498912811,-34.92226028442383,-28.32733535766602,-0.3536281585693359,2,192.168.1.8,10.71.35.210,3,0
2015-03-09 08:10:06.069,11,1425913805.370653,37.77934803165289,-122.4390307815023,62.75156,0,214.1015625,3,10,-9999,1425913806.009563,-34.61000823974609,-28.30989074707031,2.166179180145264,149.3594665527344,135.5842742919922,10,348641.6209532917,-0.6926116943359375,-0.578521728515625,-0.330718994140625,348641.5825872084,0.3061045346420347,-1.510206216202286,-0.6180650942050445,348641.5825872084,-2.934069611180443,-1.120504617576766,0.5686308911466703,0.3002684414386749,-1.500856995582581,-0.5844300389289856,0.01725086197257042,-0.01292797084897757,0.03492261841893196,XTrueNorthZVertical,-0.4827116016626513,-0.2891701689905163,-0.8241779541465233,-0.06403775306598866,-0.7586448788642883,-0.5384789109230042,-0.3667402565479279,-33.877685546875,-29.44857215881348,2.685354232788086,2,192.168.1.8,10.71.35.210,3,0
2015-03-09 08:10:06.149,12,1425913805.370653,37.77934803165289,-122.4390307815023,62.75156,0,214.1015625,3,10,-9999,1425913806.115201,-30.82579803466797,-30.62066650390625,6.92717981338501,158.0834045410156,144.3082275390625,10,348641.6700295417,-0.8422088623046875,-0.669036865234375,-0.185211181640625,348641.6343683334,0.06598327811613022,-2.034700612875179,-0.8894015281838767,348641.6343683334,-2.941250129711035,-1.206458068280563,0.607042166262068,0.0601121224462986,-2.025326728820801,-0.8556230664253235,0.09953355044126511,0.03334645926952362,-0.02477528527379036,XTrueNorthZVertical,-0.5140450746922911,-0.299037422393124,-0.7988824035701806,-0.09011768634191218,-0.7674260139465332,-0.5704405903816223,-0.2926685512065887,-32.6985969543457,-30.3791332244873,5.480624198913574,2,192.168.1.8,10.71.35.210,3,0
2015-03-09 08:10:06.162,13,1425913805.370653,37.77934803165289,-122.4390307815023,62.75156,0,214.1015625,3,10,-9999,1425913806.115201,-30.82579803466797,-30.62066650390625,6.92717981338501,158.0834045410156,144.3082275390625,10,348641.719082375,-0.8438262939453125,-0.72125244140625,-0.13037109375,348641.686148875,0.1535650589889121,-1.716123429583867,-1.085975307197024,348641.686148875,-2.954489227566333,-1.295160583120533,0.6494417314069894,0.1476939618587494,-1.706749558448792,-1.052197098731995,-0.1690662950277328,-0.05536859109997749,0.02202041633427143,XTrueNorthZVertical,-0.5454621488481503,-0.3067482736712267,-0.7705400134683945,-0.1210150377036734,-0.766358494758606,-0.6047418713569641,-0.2167530804872513,-30.87724876403809,-31.58290863037109,8.440535545349121,2,192.168.1.8,10.71.35.210,3,0
2015-03-09 08:10:06.242,14,1425913805.370653,37.77934803165289,-122.4390307815023,62.75156,0,214.1015625,3,10,-9999,1425913806.169199,-27.99617004394531,-32.25178527832031,9.657264709472656,164.9692687988281,151.1940765380859,10,348641.768151875,-0.716552734375,-0.8056182861328125,-0.1025390625,348641.73792975,0.07991693693942481,-0.7134603234000099,-0.9998433512216808,348641.73792975,-2.965124403192246,-1.354678889353612,0.7069234681694155,0.07404592633247375,-0.7040865421295166,-0.9660655856132507,-0.1426545679569244,-0.03591198101639748,0.01148607954382896,XTrueNorthZVertical,-0.5619220211059469,-0.3204962190214914,-0.7473427638446084,-0.1516727399727848,-0.7426756620407104,-0.6494975686073303,-0.1630516350269318,-27.7444953918457,-33.43267059326172,11.60287666320801,2,192.168.1.8,10.71.35.210,3,0
2015-03-09 08:10:06.261,15,1425913805.370653,37.77934803165289,-122.4390307815023,62.75156,0,214.1015625,3,10,-9999,1425913806.242882,-23.34260559082031,-34.443603515625,12.50387573242188,173.2785339355469,159.5033569335938,10,348641.8173036667,-0.75909423828125,-0.697418212890625,-0.1008758544921875,348641.7897105833,0.1279675535393975,-0.9443899457396149,-1.060152764635397,348641.7897105833,-2.967729609197273,-1.381706358928122,0.7706011080367769,0.1220966801047325,-0.9350162744522095,-1.026375412940979,-0.04500677809119225,-0.09130565822124481,0.04674401134252548,XTrueNorthZVertical,-0.5631007895877643,-0.339831931231953,-0.7322943739688088,-0.1765693066958178,-0.7047033309936523,-0.696566641330719,-0.1348635256290436,-25.5861701965332,-34.77412033081055,12.57917881011963,2,192.168.1.8,10.71.35.210,3,0
2015-03-09 08:10:06.352,16,1425913806.336377,37.77934803165289,-122.4390307815023,62.68851,0,214.1015625,3,10,-9999,1425913806.295512,-20.95616912841797,-35.73487854003906,13.63586235046387,177.5357971191406,163.7606048583984,10,348641.866270375,-0.7893829345703125,-0.7822113037109375,-0.024932861328125,348641.8414912917,0.2519334412248419,-0.515367210984973,-0.897510054754841,348641.8414912917,-2.969155160609125,-1.421407924666824,0.816203815959663,0.2460626065731049,-0.5059937238693237,-0.8637329339981079,-0.1551111340522766,0.06873017549514771,0.007543522398918867,XTrueNorthZVertical,-0.570666673108458,-0.3512331462394052,-0.7153712923439972,-0.1980372444990753,-0.6773626208305359,-0.7285507321357727,-0.1019496470689774,-23.43644332885742,-35.82466888427734,13.76420497894287,2,192.168.1.8,10.71.35.210,3,0
2015-03-09 08:10:06.360,17,1425913806.336377,37.77934803165289,-122.4390307815023,62.68851,0,214.1015625,3,10,-9999,1425913806.353704,-18.85951232910156,-36.83927917480469,14.61802673339844,181.5436706542969,167.7684783935547,10,348641.9153114583,-0.689422607421875,-0.749298095703125,-0.032470703125,348641.8932720417,0.3899640152592128,0.03004312025718388,-0.6681080216165055,348641.8932720417,-2.952045705607974,-1.444885934129112,0.8516420998132024,0.3840931951999664,0.03941650316119194,-0.6343311071395874,-0.08984390646219254,0.06080431118607521,0.0136477742344141,XTrueNorthZVertical,-0.5701454827985111,-0.3654749956924448,-0.7059810466438882,-0.207250883424595,-0.6535337567329407,-0.7523631453514099,-0.08272431045770645,-21.39348220825195,-36.63168334960938,14.91864585876465,2,192.168.1.8,10.71.35.210,3,0
2015-03-09 08:10:06.451,18,1425913806.336377,37.77934803165289,-122.4390307815023,62.68851,0,214.1015625,3,10,-9999,1425913806.423526,-17.1549072265625,-37.24705505371094,15.35048866271973,183.854248046875,170.0790557861328,10,348641.9643975,-0.726654052734375,-0.6881103515625,-0.0290374755859375,348641.9450531667,0.5052000608913775,0.3008370683219669,-0.2996253300259809,348641.9450531667,-2.919472559311389,-1.462775679777742,0.86828086448096,0.4993270039558411,0.3102040886878967,-0.2658365964889526,-0.07395032048225403,0.08255520462989807,0.02281627804040909,XTrueNorthZVertical,-0.5675136533213996,-0.3782827953243275,-0.7021830728852813,-0.2043754465228382,-0.6423735022544861,-0.7632192373275757,-0.06966076046228409,-20.64929580688477,-36.7991943359375,15.54197883605957,2,192.168.1.8,10.71.35.210,3,0
2015-03-09 08:10:06.458,19,1425913806.336377,37.77934803165289,-122.4390307815023,62.68851,0,214.1015625,3,10,-9999,1425913806.423526,-17.1549072265625,-37.24705505371094,15.35048866271973,183.854248046875,170.0790557861328,10,348642.013435,-0.712371826171875,-0.6795501708984375,-0.0383758544921875,348641.99683375,0.5448486705682591,0.8603142164419223,-0.1413478074881736,348641.99683375,-2.8806178271481,-1.460698511860824,0.8773104598958252,0.5389721393585205,0.8696787357330322,-0.1075498461723328,-0.0887085348367691,0.1001839488744736,0.01899581588804722,XTrueNorthZVertical,-0.5576655531549191,-0.3922903471221686,-0.7055477704952787,-0.1931832520197913,-0.6353515386581421,-0.7690224647521973,-0.07023482769727707,-20.63673400878906,-36.59840393066406,16.02526473999023,2,192.168.1.8,10.71.35.210,3,0
2015-03-09 08:10:06.547,20,1425913806.336377,37.77934803165289,-122.4390307815023,62.68851,0,214.1015625,3,10,-9999,1425913806.527999,-19.16634368896484,-35.51397705078125,16.04965972900391,176.8004150390625,163.0252227783203,10,348642.0625094167,-0.8089447021484375,-0.658721923828125,-0.00689697265625,348642.048614625,1.24779909504238,1.834645283368971,0.3257474782102411,348642.048614625,-2.811006038871456,-1.449348028019372,0.8758285005550644,1.241922378540039,1.844008922576904,0.3595466315746307,-0.1394414603710175,0.1105883419513702,0.08224887400865555,XTrueNorthZVertical,-0.539916190139488,-0.4119474078722068,-0.7150760713528642,-0.1656987141887266,-0.6356439590454102,-0.7680743336677551,-0.07757968455553055,-21.62488174438477,-35.93556213378906,16.22118759155273,2,192.168.1.8,10.71.35.210,3,0
2015-03-09 08:10:06.557,21,1425913806.336377,37.77934803165289,-122.4390307815023,62.68851,0,214.1015625,3,10,-9999,1425913806.527999,-19.16634368896484,-35.51397705078125,16.04965972900391,176.8004150390625,163.0252227783203,10,348642.1115529167,-0.4377899169921875,-0.81549072265625,-0.048492431640625,348642.1003955,0.6948062115445499,2.637432290787983,-0.1864798658495284,348642.048614625,-2.811006038871456,-1.449348028019372,0.8758285005550644,1.241922378540039,1.844008922576904,0.3595466315746307,-0.1394414603710175,0.1105883419513702,0.08224887400865555,XTrueNorthZVertical,-0.539916190139488,-0.4119474078722068,-0.7150760713528642,-0.1656987141887266,-0.6356439590454102,-0.7680743336677551,-0.07757968455553055,-21.62488174438477,-35.93556213378906,16.22118759155273,2,192.168.1.8,10.71.35.210,3,0
2015-03-09 08:10:06.647,22,1425913806.336377,37.77934803165289,-122.4390307815023,62.68851,0,214.1015625,3,10,-9999,1425913806.634656,-22.30281066894531,-34.6644287109375,15.18401908874512,165.2789306640625,151.5037536621094,10,348642.1606327917,-0.306793212890625,-1.028091430664062,0.0021209716796875,348642.1521764167,0.1716985228512616,0.7348918459563135,-1.067151285664016,348642.1521764167,-2.710566802998033,-1.312621955074747,0.9214595000964801,0.1658230423927307,0.7442549467086792,-1.033354520797729,0.3480463027954102,-0.177208885550499,0.1513881385326385,XTrueNorthZVertical,-0.4586030305328218,-0.4609705292687793,-0.7512394391753837,-0.1132640609012484,-0.5846185684204102,-0.7964849472045898,-0.1543788611888885,-24.84402084350586,-34.6339225769043,14.33154773712158,2,192.168.1.8,10.71.35.210,3,0
2015-03-09 08:10:06.653,23,1425913806.336377,37.77934803165289,-122.4390307815023,62.68851,0,214.1015625,3,10,-9999,1425913806.634656,-22.30281066894531,-34.6644287109375,15.18401908874512,165.2789306640625,151.5037536621094,10,348642.2096811667,-0.42559814453125,-0.917510986328125,0.0271759033203125,348642.203957,-0.3011364076284919,-1.87187068276999,-1.105691754011316,348642.1521764167,-2.710566802998033,-1.312621955074747,0.9214595000964801,0.1658230423927307,0.7442549467086792,-1.033354520797729,0.3480463027954102,-0.177208885550499,0.1513881385326385,XTrueNorthZVertical,-0.4586030305328218,-0.4609705292687793,-0.7512394391753837,-0.1132640609012484,-0.5846185684204102,-0.7964849472045898,-0.1543788611888885,-24.84402084350586,-34.6339225769043,14.33154773712158,2,192.168.1.8,10.71.35.210,3,0
2015-03-09 08:10:06.741,24,1425913806.336377,37.77934803165289,-122.4390307815023,62.68851,0,214.1015625,3,10,-9999,1425913806.710276,-18.92770385742188,-36.60139465332031,15.65012836456299,172.3949890136719,158.6198120117188,10,348642.258756875,-0.5202484130859375,-0.8971710205078125,0.0299530029296875,348642.2557379167,-0.2976404760655448,-1.245799061063731,-1.158199170695536,348642.203957,-2.737863151785673,-1.33691009727459,0.9616540194029788,-0.3070109784603119,-1.862507939338684,-1.071896553039551,0.1145998984575272,-0.1054133102297783,0.1634578853845596,XTrueNorthZVertical,-0.4655674674333216,-0.4657731522409123,-0.7391405218387765,-0.1413280008625366,-0.556585967540741,-0.8201390504837036,-0.1326046139001846,-23.0008716583252,-35.94852447509766,14.17005825042725,2,192.168.1.8,10.71.35.210,3,0
2015-03-09 08:10:06.752,25,1425913806.336377,37.77934803165289,-122.4390307815023,62.68851,0,214.1015625,3,10,-9999,1425913806.710276,-18.92770385742188,-36.60139465332031,15.65012836456299,172.3949890136719,158.6198120117188,10,348642.3078041667,-0.5247802734375,-0.931549072265625,-0.015167236328125,348642.2557379167,-0.2976404760655448,-1.245799061063731,-1.158199170695536,348642.2557379167,-2.786819432928886,-1.37794916485851,1.016156060355707,-0.3035144507884979,-1.23643684387207,-1.124404668807983,0.02136111073195934,-0.05609901994466782,0.1240492835640907,XTrueNorthZVertical,-0.4804586616595909,-0.4676466238904924,-0.7183871893124377,-0.1854345349833422,-0.5168750286102295,-0.850089967250824,-0.1009322181344032,-19.94819641113281,-37.23337173461914,15.42312145233154,2,192.168.1.8,10.71.35.210,3,0
2015-03-09 08:10:06.843,26,1425913806.336377,37.77934803165289,-122.4390307815023,62.68851,0,214.1015625,3,10,-9999,1425913806.811788,-12.94454956054688,-38.96311950683594,16.16618156433105,183.5345458984375,169.7593688964844,10,348642.356875625,-0.385772705078125,-0.899078369140625,-0.061004638671875,348642.3592995834,-0.2291660770657545,0.5936926428569664,-1.273259714011865,348642.3075188334,-2.838660910637526,-1.357095912654243,1.071045232510935,-0.2283241301774979,0.1075960546731949,-1.253880143165588,-0.05975440889596939,-0.04498184844851494,0.09470159560441971,XTrueNorthZVertical,-0.4736710810702949,-0.4741531019189143,-0.7101613606620691,-0.2156047208517982,-0.4683065116405487,-0.8777018785476685,-0.1016290858387947,-17.23432922363281,-38.40610504150391,15.81379890441895,2,192.168.1.8,10.71.35.210,1,0
2015-03-09 08:10:06.849,27,1425913806.336377,37.77934803165289,-122.4390307815023,62.68851,0,214.1015625,3,10,-9999,1425913806.811788,-12.94454956054688,-38.96311950683594,16.16618156433105,183.5345458984375,169.7593688964844,10,348642.4059240417,-0.3279266357421875,-1.05169677734375,-0.0377960205078125,348642.3592995834,-0.2291660770657545,0.5936926428569664,-1.273259714011865,348642.3592995834,-2.895966665623679,-1.28494520733258,1.130653758176267,-0.2350394278764725,0.6030541062355042,-1.239466071128845,0.02300676330924034,0.005612559150904417,0.05913564935326576,XTrueNorthZVertical,-0.4496020075817798,-0.4876349967518866,-0.7102803097795831,-0.2357372206361423,-0.4087794721126556,-0.9046909213066101,-0.1201402917504311,-14.42499542236328,-39.81027984619141,15.1389684677124,2,192.168.1.8,10.71.35.210,1,0
2015-03-09 08:10:06.949,28,1425913806.336377,37.77934803165289,-122.4390307815023,62.68851,0,214.1015625,3,10,-9999,1425913806.922859,-10.79675674438477,-40.49229431152344,14.70126247406006,185.4639282226562,171.6887512207031,10,348642.4549935834,-0.2783050537109375,-0.9961700439453125,-0.0474090576171875,348642.4628612084,-0.05135666477719704,0.9072958401803372,-0.5744800661209167,348642.4110804584,-2.941173861837147,-1.199175682022311,1.16627689798024,-0.03774078562855721,1.147293448448181,-0.498839259147644,0.03878486901521683,-0.1324051320552826,0.1051220074295998,XTrueNorthZVertical,-0.4232031375390569,-0.4994397757807233,-0.7167625654536257,-0.2402299948843797,-0.3667114973068237,-0.919291615486145,-0.1429180353879929,-12.96973991394043,-40.58984756469727,14.36584758758545,2,192.168.1.8,10.71.35.210,1,0
2015-03-09 08:10:06.953,29,1425913806.336377,37.77934803165289,-122.4390307815023,62.68851,0,214.1015625,3,10,-9999,1425913806.922859,-10.79675674438477,-40.49229431152344,14.70126247406006,185.4639282226562,171.6887512207031,10,348642.5040394583,-0.2469940185546875,-0.9855499267578125,-0.055267333984375,348642.4628612084,-0.05135666477719704,0.9072958401803372,-0.5744800661209167,348642.4628612084,-2.975375031131069,-1.113665124559123,1.191214227696147,-0.05722953006625175,0.9166568517684937,-0.5406873226165771,0.05418194457888603,-0.06735048443078995,0.1161349266767502,XTrueNorthZVertical,-0.3964504747678982,-0.5109354463605965,-0.7249412438301364,-0.2371332845368493,-0.3324869871139526,-0.9288195371627808,-0.1635439842939377,-12.67399024963379,-40.93086242675781,13.64410209655762,2,192.168.1.8,10.71.35.210,1,0
2015-03-09 08:10:07.009,30,1425913806.336377,37.77934803165289,-122.4390307815023,62.68851,0,214.1015625,3,10,-9999,1425913806.994029,-10.25128173828125,-41.10397338867188,13.60256767272949,184.5688781738281,170.7936859130859,10,348642.5531080834,-0.1763763427734375,-0.8889923095703125,-0.06854248046875,348642.5146419167,-0.1449606518229751,0.7756469990661231,-0.3165614366622308,348642.5146419167,-3.011634831887805,-1.039122027290515,1.204179873828733,-0.1508326530456543,0.7850074172019958,-0.2827698290348053,0.07983572781085968,-0.0361504964530468,0.1230909302830696,XTrueNorthZVertical,-0.376405156606847,-0.5171594807035025,-0.7321456132466146,-0.2341538843039135,-0.3089769780635834,-0.9335455298423767,-0.1817304641008377,-12.23103427886963,-41.33934783935547,12.79012870788574,2,192.168.1.8,10.71.35.210,1,0
2015-03-09 08:10:07.048,31,1425913806.336377,37.77934803165289,-122.4390307815023,62.68851,0,214.1015625,3,10,-9999,1425913806.994029,-10.25128173828125,-41.10397338867188,13.60256767272949,184.5688781738281,170.7936859130859,10,348642.6021535834,-0.1245269775390625,-0.9364013671875,-0.0725555419921875,348642.5664229583,-0.1758988605225346,0.8135299329402823,-0.3199084975202424,348642.5664229583,-3.057442763613076,-0.9557788933111083,1.212673646962062,-0.181769385933876,0.8228893876075745,-0.2861187160015106,0.131198838353157,0.03671519830822945,0.1207413747906685,XTrueNorthZVertical,-0.3563048307063398,-0.5214667629566188,-0.7400574656718442,-0.2311584763378845,-0.2862891852855682,-0.9365565180778503,-0.2022385597229004,-12.09836196899414,-41.59951782226562,12.05142974853516,2,192.168.1.8,10.71.35.210,1,0
2015-03-09 08:10:07.111,32,1425913806.336377,37.77934803165289,-122.4390307815023,62.68851,0,214.1015625,3,10,-9999,1425913807.100384,-10.37060928344727,-41.63064575195312,12.58711051940918,182.3723449707031,168.5971527099609,10,348642.6512087084,-0.09283447265625,-0.8748626708984375,-0.065673828125,348642.6182038333,-0.07232985730989806,0.7441327486227796,-0.35626171166426,348642.6182038333,-3.092517592335399,-0.8825357189556153,1.220196572294822,-0.07819925993680954,0.7534917593002319,-0.3224737048149109,0.1366260796785355,0.009021625854074955,0.1548254787921906,XTrueNorthZVertical,-0.337220168999784,-0.5264980519057837,-0.7468643753670158,-0.2264419897002799,-0.2652729153633118,-0.9391669034957886,-0.2181647121906281,-12.01041030883789,-41.83382415771484,11.30524921417236,2,192.168.1.8,10.71.35.210,1,0
2015-03-09 08:10:07.150,33,1425913806.336377,37.77934803165289,-122.4390307815023,62.68851,0,214.1015625,3,10,-9999,1425913807.100384,-10.37060928344727,-41.63064575195312,12.58711051940918,182.3723449707031,168.5971527099609,10,348642.7002442083,0.0027923583984375,-0.9625701904296875,-0.10894775390625,348642.6699844167,-0.1747307980684258,0.2054977655098933,-0.4953815185844733,348642.6699844167,3.132148734747868,-0.8048688534930767,1.231720631711265,-0.1806340366601944,0.2148812115192413,-0.4614554345607758,0.1643813699483871,0.06075354665517807,0.1594650745391846,XTrueNorthZVertical,-0.3222087072494242,-0.5299962543510472,-0.7499879553363529,-0.2297903329766594,-0.2397292703390121,-0.9430624842643738,-0.2305710315704346,-11.51649951934814,-42.15897369384766,10.58859825134277,2,192.168.1.8,10.71.35.210,1,0
2015-03-09 08:10:07.209,34,1425913807.176912,37.77934803165289,-122.4390307815023,62.68051,0,214.1015625,3,10,-9999,1425913807.176333,-9.825141906738281,-41.59666442871094,11.75476741790771,181.801025390625,168.0258331298828,10,348642.7493127917,-0.082244873046875,-0.8349151611328125,-0.1636505126953125,348642.7217654167,-0.04712676601782418,0.04187900708982305,-0.3300165254376382,348642.7217654167,3.06971898405349,-0.737885615302742,1.248590454390155,-0.05301655456423759,0.05126112699508667,-0.296116977930069,0.250775158405304,-0.03041891381144524,0.1401016712188721,XTrueNorthZVertical,-0.312005270015645,-0.5343272600524764,-0.7487147661034799,-0.2378514254708213,-0.2130248993635178,-0.9485391974449158,-0.2342941761016846,-10.49753952026367,-42.48630905151367,10.33645248413086,2,192.168.1.8,10.71.35.210,1,0
2015-03-09 08:10:07.255,35,1425913807.176912,37.77934803165289,-122.4390307815023,62.68051,0,214.1015625,3,10,-9999,1425913807.176333,-9.825141906738281,-41.59666442871094,11.75476741790771,181.801025390625,168.0258331298828,10,348642.7983599583,-0.1915740966796875,-0.903472900390625,-0.2231292724609375,348642.77354625,-0.2084682553897677,-1.097537154753494,-0.453863369822356,348642.77354625,3.002034850666337,-0.6984321998933872,1.2658086261775,-0.2143343240022659,-1.088156223297119,-0.4200124740600586,0.08883827924728394,0.1015709862112999,0.02408410049974918,XTrueNorthZVertical,-0.313968520373768,-0.5351993066613149,-0.7416904919990767,-0.2547168925971222,-0.1930863261222839,-0.9538506269454956,-0.2299709469079971,-9.432722091674805,-42.69913101196289,10.48499011993408,2,192.168.1.8,10.71.35.210,1,0
2015-03-09 08:10:07.309,36,1425913807.176912,37.77934803165289,-122.4390307815023,62.68051,0,214.1015625,3,10,-9999,1425913807.304425,-5.904552459716797,-42.71807861328125,10.5228967666626,189.8058776855469,176.0307006835938,10,348642.8474265834,-0.3766937255859375,-0.7659454345703125,-0.187408447265625,348642.825327,-0.2206737889817098,-1.724190144525717,-0.5933698677328488,348642.825327,2.920385273564038,-0.6965871436659209,1.272964838785236,-0.2265398055315018,-1.71480929851532,-0.5595192909240723,-0.0827188640832901,0.1175351366400719,0.04791539534926414,XTrueNorthZVertical,-0.3344553155169543,-0.5249733754611056,-0.7288953338742215,-0.2850512237623734,-0.1882772296667099,-0.9559750556945801,-0.2250851988792419,-8.171398162841797,-42.95093154907227,10.51536846160889,2,192.168.1.8,10.71.35.210,1,0
2015-03-09 08:10:07.352,37,1425913807.176912,37.77934803165289,-122.4390307815023,62.68051,0,214.1015625,3,10,-9999,1425913807.304425,-5.904552459716797,-42.71807861328125,10.5228967666626,189.8058776855469,176.0307006835938,10,348642.8964735834,-0.3829345703125,-0.6795501708984375,-0.23028564453125,348642.8771078333,-0.235604801633239,-0.7010734285378334,-0.6864478804633362,348642.8771078333,2.801854579412038,-0.6470699152882435,1.28259182009659,-0.2414707392454147,-0.6916926503181458,-0.6525976657867432,-0.238913893699646,0.218460351228714,0.03642155975103378,XTrueNorthZVertical,-0.3469757989166577,-0.5159654237508516,-0.7166591888694307,-0.3158909533389215,-0.1713491678237915,-0.9587557315826416,-0.2267749458551407,-5.695029258728027,-43.34043884277344,10.54988574981689,2,192.168.1.8,10.71.35.210,1,0
2015-03-09 08:10:07.410,38,1425913807.176912,37.77934803165289,-122.4390307815023,62.68051,0,214.1015625,3,10,-9999,1425913807.407786,-2.887405395507812,-43.04090881347656,10.77260303497314,195.8601684570312,182.0849914550781,10,348642.9455402917,-0.0903472900390625,-0.936676025390625,-0.175689697265625,348642.928889,0.2321874333224494,1.34008987735464,-0.5088523200103121,348642.928889,2.701892379401134,-0.5310041781450696,1.299243051750835,0.2263215482234955,1.349470496177673,-0.4750024378299713,-0.0186188630759716,0.1594613790512085,-0.002548082266002893,XTrueNorthZVertical,-0.3312113725177804,-0.5240730832745796,-0.7153013929216712,-0.3224753607934907,-0.1358305960893631,-0.9633554220199585,-0.2312928587198257,-4.150652408599854,-43.58573150634766,10.25588417053223,2,192.168.1.8,10.71.35.210,1,0
2015-03-09 08:10:07.448,39,1425913807.176912,37.77934803165289,-122.4390307815023,62.68051,0,214.1015625,3,10,-9999,1425913807.407786,-2.887405395507812,-43.04090881347656,10.77260303497314,195.8601684570312,182.0849914550781,10,348642.9945732917,-0.1299591064453125,-0.918670654296875,-0.2407379150390625,348642.9806696667,0.43836776701973,2.196239975116115,-0.1944533701532257,348642.928889,2.701892379401134,-0.5310041781450696,1.299243051750835,0.2263215482234955,1.349470496177673,-0.4750024378299713,-0.0186188630759716,0.1594613790512085,-0.002548082266002893,XTrueNorthZVertical,-0.3312113725177804,-0.5240730832745796,-0.7153013929216712,-0.3224753607934907,-0.1358305960893631,-0.9633554220199585,-0.2312928587198257,-4.150652408599854,-43.58573150634766,10.25588417053223,2,192.168.1.8,10.71.35.210,1,0
2015-03-09 08:10:07.510,40,1425913807.176912,37.77934803165289,-122.4390307815023,62.68051,0,214.1015625,3,10,-9999,1425913807.459705,-2.785129547119141,-43.07487487792969,11.30530166625977,193.2152404785156,179.4400634765625,10,348643.0437649167,0.1106109619140625,-0.8941650390625,-0.2382354736328125,348643.0324505417,0.5999212440144437,0.8673532175191108,-0.3911595082725494,348643.0324505417,2.681646442229303,-0.3328762709118101,1.350108149439841,0.5940554738044739,0.876733660697937,-0.3573102951049805,0.1493943631649017,0.09394161403179169,-0.08587019890546799,XTrueNorthZVertical,-0.2664168844162323,-0.5705958121891608,-0.7260152548934359,-0.2763047654398494,-0.07152876257896423,-0.9757470488548279,-0.2068849205970764,-4.661874771118164,-43.33509826660156,11.06630325317383,2,192.168.1.8,10.71.35.210,1,0
2015-03-09 08:10:07.550,41,1425913807.176912,37.77934803165289,-122.4390307815023,62.68051,0,214.1015625,3,10,-9999,1425913807.510511,-3.126049041748047,-43.00691223144531,11.70482730865479,190.4639892578125,176.6888122558594,10,348643.0926727083,-0.035003662109375,-0.7934417724609375,-0.2869110107421875,348643.0842314167,0.2670412877727524,-0.5205377382413617,-0.3384001565492076,348643.0324505417,2.681646442229303,-0.3328762709118101,1.350108149439841,0.5940554738044739,0.876733660697937,-0.3573102951049805,0.1493943631649017,0.09394161403179169,-0.08587019890546799,XTrueNorthZVertical,-0.2664168844162323,-0.5705958121891608,-0.7260152548934359,-0.2763047654398494,-0.07152876257896423,-0.9757470488548279,-0.2068849205970764,-4.661874771118164,-43.33509826660156,11.06630325317383,2,192.168.1.8,10.71.35.210,1,0
2015-03-09 08:10:07.607,42,1425913807.176912,37.77934803165289,-122.4390307815023,62.68051,0,214.1015625,3,10,-9999,1425913807.565204,-2.870361328125,-43.05787658691406,12.55381774902344,189.9238586425781,176.148681640625,10,348643.1418040417,-0.055908203125,-0.782958984375,-0.178009033203125,348643.1360123333,0.1606147127104608,-0.1888474160586089,-0.3355734773681975,348643.0842314167,2.645007493707633,-0.290879500776596,1.37409769639362,0.2611755728721619,-0.5111573934555054,-0.3045513033866882,0.03801322355866432,0.1524090170860291,-0.09144826233386993,XTrueNorthZVertical,-0.2628333771140342,-0.5807814695740102,-0.7189104833708427,-0.277090649980105,-0.05604911223053932,-0.9807171225547791,-0.1872230023145676,-4.362507343292236,-43.13378143310547,11.94036769866943,2,192.168.1.8,10.71.35.210,1,0
2015-03-09 08:10:07.643,43,1425913807.176912,37.77934803165289,-122.4390307815023,62.68051,0,214.1015625,3,10,-9999,1425913807.615595,-2.512397766113281,-43.00691223144531,12.8701057434082,190.7084045410156,176.9332122802734,10,348643.1907701667,0.0365753173828125,-0.9090728759765625,-0.155975341796875,348643.187793,0.1868537736665755,1.374685138863097,0.02000486716034821,348643.1360123333,2.564903425166868,-0.2382974465860621,1.389356603221914,0.1547490507364273,-0.1794671416282654,-0.3017249703407288,-0.007348027545958757,0.215030238032341,-0.007957104593515396,XTrueNorthZVertical,-0.2682933568699811,-0.5833912157796022,-0.7096830954142527,-0.2898676922778562,-0.04259398952126503,-0.9835849404335022,-0.1753467321395874,-3.508709192276001,-43.03226852416992,12.57140159606934,2,192.168.1.8,10.71.35.210,1,0
2015-03-09 08:10:07.694,44,1425913807.176912,37.77934803165289,-122.4390307815023,62.68051,0,214.1015625,3,10,-9999,1425913807.667936,-3.023773193359375,-43.17680358886719,12.9699878692627,188.890380859375,175.1152038574219,10,348643.2398711667,0.0849761962890625,-0.8489227294921875,-0.2097320556640625,348643.2395742083,0.2374309311927064,1.535845000648697,-0.007395332031041036,348643.187793,2.55528612052318,-0.1936828715090262,1.399133237750361,0.1809881627559662,1.384065389633179,0.05385307222604752,0.05019741505384445,0.1003990843892097,0.01133149582892656,XTrueNorthZVertical,-0.2560170479882311,-0.592150010548901,-0.7110565953002418,-0.2796643798537224,-0.03287868946790695,-0.9853020310401917,-0.1676272749900818,-2.825033664703369,-42.93971633911133,13.050950050354,2,192.168.1.8,10.71.35.210,1,0
2015-03-09 08:10:07.745,45,1425913807.176912,37.77934803165289,-122.4390307815023,62.68051,0,214.1015625,3,10,-9999,1425913807.719509,-4.182899475097656,-42.73504638671875,13.23633575439453,185.3339233398438,171.5587310791016,10,348643.2888605417,0.2410125732421875,-0.934295654296875,-0.198333740234375,348643.2395742083,0.2374309311927064,1.535845000648697,-0.007395332031041036,348643.2395742083,2.585286862580874,-0.1446499935034124,1.409088432569486,0.2315653860569,1.545225143432617,0.02645253390073776,0.08099314570426941,0.1311187893152237,-0.04604539275169373,XTrueNorthZVertical,-0.2303175983016341,-0.6060465976586247,-0.7178559009777286,-0.2536616678629953,-0.02320811338722706,-0.9869537353515625,-0.1593226492404938,-3.75151801109314,-42.81426239013672,13.22846221923828,2,192.168.1.8,10.71.35.210,1,0
2015-03-09 08:10:07.791,46,1425913807.176912,37.77934803165289,-122.4390307815023,62.68051,0,214.1015625,3,10,-9999,1425913807.773565,-4.949974060058594,-42.41221618652344,13.48603820800781,182.4420166015625,168.6668243408203,10,348643.337979,0.0796051025390625,-0.8801422119140625,-0.1464996337890625,348643.34313575,0.05241021130443239,-0.3202856011305976,0.1511061623544419,348643.2913548333,2.628825157767743,-0.1373149016892195,1.415853919770018,0.1116630062460899,0.4952793121337891,0.283136397600174,0.2621369361877441,0.05372476577758789,-0.04546311125159264,XTrueNorthZVertical,-0.2149225102490856,-0.6143069265464297,-0.7218353035217641,-0.235348932667145,-0.02112435176968575,-0.9880204200744629,-0.1528706252574921,-4.715797901153564,-42.67700958251953,13.36268615722656,2,192.168.1.8,10.71.35.210,1,0
2015-03-09 08:10:07.841,47,1425913807.176912,37.77934803165289,-122.4390307815023,62.68051,0,214.1015625,3,10,-9999,1425913807.773565,-4.949974060058594,-42.41221618652344,13.48603820800781,182.4420166015625,168.6668243408203,10,348643.386956125,0.0307159423828125,-0.9575653076171875,-0.139892578125,348643.34313575,0.05241021130443239,-0.3202856011305976,0.1511061623544419,348643.34313575,2.722845510602355,-0.2327860069610158,1.419301628158241,0.04654478654265404,-0.3109056949615479,0.1849533170461655,0.1144197955727577,0.1084043979644775,0.0003457230341155082,XTrueNorthZVertical,-0.2206818655663129,-0.6147168744969588,-0.721275160400366,-0.2306183694784472,-0.03481468930840492,-0.98854660987854,-0.146845355629921,-5.688999652862549,-42.49345397949219,13.56720542907715,2,192.168.1.8,10.71.35.210,1,0
2015-03-09 08:10:07.890,48,1425913807.176912,37.77934803165289,-122.4390307815023,62.68051,0,214.1015625,3,10,-9999,1425913807.850156,-5.699993133544922,-42.00444030761719,13.61921310424805,181.3596801757812,167.5845031738281,10,348643.4360079584,0.072967529296875,-1.171554565429688,-0.13055419921875,348643.3949166667,-0.04445641439280173,0.06225378732558327,0.2296947145421352,348643.3949166667,2.794509279664233,-0.3113515040361813,1.414695015101384,-0.0503217875957489,0.07163358479738235,0.2635415494441986,0.07834290713071823,0.03027560375630856,0.008100749924778938,XTrueNorthZVertical,-0.226928505409875,-0.6119695983299686,-0.7222203091033453,-0.228898449543842,-0.04762696474790573,-0.9878408908843994,-0.1479933261871338,-5.921706199645996,-42.41729736328125,13.70523643493652,2,192.168.1.8,10.71.35.210,1,0
2015-03-09 08:10:07.943,49,1425913807.176912,37.77934803165289,-122.4390307815023,62.68051,0,214.1015625,3,10,-9999,1425913807.900941,-6.313644409179688,-41.90251159667969,13.48603820800781,180.0522766113281,166.277099609375,10,348643.4850412917,-0.0226593017578125,-1.138763427734375,-0.1516571044921875,348643.4466975417,0.05595567766365488,0.7172108531631685,0.2924885909367865,348643.4466975417,2.892690832489458,-0.3846643690467081,1.41168678424424,0.05009037256240845,0.7265905141830444,0.3263350427150726,0.09114647656679153,-0.157666027545929,0.008418096229434013,XTrueNorthZVertical,-0.2233867180132552,-0.6137327019242865,-0.725862711852815,-0.2157634799456743,-0.05945397168397903,-0.9873687624931335,-0.1468610912561417,-6.503615856170654,-42.35457611083984,13.63524627685547,2,192.168.1.8,10.71.35.210,1,0
2015-03-09 08:10:07.989,50,1425913807.176912,37.77934803165289,-122.4390307815023,62.68051,0,214.1015625,3,10,-9999,1425913807.953224,-6.893211364746094,-41.6986083984375,13.38615608215332,178.5000915527344,164.7249145507812,10,348643.53417225,-0.2164154052734375,-1.18701171875,-0.1500244140625,348643.49847825,-0.1817777886288845,0.6193141167562918,0.1730655234387993,348643.49847825,2.948424546892141,-0.4059283047088543,1.40431544190946,-0.1876430362462997,0.6286937594413757,0.2069116681814194,0.06880757212638855,-0.1864486485719681,0.01638226024806499,XTrueNorthZVertical,-0.2141791425235567,-0.6148203284580284,-0.7317395335746522,-0.2016941361547125,-0.06543537974357605,-0.9861740469932556,-0.1522465199232101,-7.769359588623047,-42.21060562133789,13.41748237609863,2,192.168.1.8,10.71.35.210,1,0
2015-03-09 08:10:08.043,51,1425913807.176912,37.77934803165289,-122.4390307815023,62.68051,0,214.1015625,3,10,-9999,1425913808.004267,-8.069385528564453,-42.02140808105469,12.90339851379395,175.8392639160156,162.0640716552734,10,348643.5831477917,-0.07806396484375,-1.060302734375,-0.1363677978515625,348643.5502594584,-0.5702648147475393,1.2642790021839,-0.02110768216775002,348643.5502594584,2.928491329753129,-0.3351648022903478,1.379482472656619,-0.5761300325393677,1.273658514022827,0.01273815333843231,-0.2236949056386948,-0.1176557540893555,-0.01838390901684761,XTrueNorthZVertical,-0.1946668242829548,-0.610180831578011,-0.7450024964818001,-0.1864281938625463,-0.06254471838474274,-0.981755256652832,-0.1795683652162552,-8.574874877929688,-42.2916259765625,12.64977931976318,2,192.168.1.8,10.71.35.210,1,0
2015-03-09 08:10:08.085,52,1425913807.176912,37.77934803165289,-122.4390307815023,62.68051,0,214.1015625,3,10,-9999,1425913808.057089,-8.597805023193359,-42.41217041015625,11.72147464752197,173.7811584472656,160.0059661865234,10,348643.6322189583,0.1908111572265625,-1.0916748046875,-0.246124267578125,348643.6020400834,0.01493713792203643,1.144017837890865,-0.2478622668664378,348643.6020400834,2.897330108470026,-0.240489849827411,1.374185620225743,0.009072001092135906,1.15339720249176,-0.2140167653560638,0.08505576103925705,-0.1472716927528381,0.03616026043891907,XTrueNorthZVertical,-0.1687624290695065,-0.6137237864199498,-0.7525245296723324,-0.1690242576997863,-0.04652731865644455,-0.9807342886924744,-0.1897247135639191,-9.272470474243164,-42.54425048828125,11.23098945617676,2,192.168.1.8,10.71.35.210,1,0
2015-03-09 08:10:08.140,53,1425913807.176912,37.77934803165289,-122.4390307815023,62.68051,0,214.1015625,3,10,-9999,1425913808.108154,-9.143283843994141,-42.6500244140625,10.62278175354004,170.5588684082031,156.78369140625,10,348643.6812579167,0.1183624267578125,-1.26800537109375,-0.2299346923828125,348643.653821,0.2722839866946824,-0.5634897329343778,-0.2284592741124475,348643.653821,2.862403109178821,-0.194541938350209,1.382116143234674,0.2663845419883728,-0.5540866851806641,-0.1944767087697983,0.2056163847446442,-0.141419842839241,-0.05414984747767448,XTrueNorthZVertical,-0.1623714190312316,-0.6177566081343538,-0.7508565709845914,-0.1680080835257431,-0.03625908493995667,-0.9822526574134827,-0.1840245872735977,-9.500387191772461,-42.61812973022461,10.7501163482666,2,192.168.1.8,10.71.35.210,1,0
2015-03-09 08:10:08.184,54,1425913807.176912,37.77934803165289,-122.4390307815023,62.68051,0,214.1015625,3,10,-9999,1425913808.161244,-8.614852905273438,-42.29325866699219,10.83918857574463,171.2792663574219,157.5040740966797,10,348643.730313875,-0.1867523193359375,-1.195159912109375,-0.1716766357421875,348643.7056019167,0.2044205168489562,-1.120341536851733,-0.3060206450676972,348643.7056019167,2.804700844975936,-0.1882582283087834,1.396456286137815,0.19852115213871,-1.110938549041748,-0.2720384299755096,-0.04328222945332527,-0.2580939531326294,-0.04513683542609215,XTrueNorthZVertical,-0.1782747536822334,-0.6188871729268838,-0.7416683377730198,-0.1874162934851804,-0.03246239945292473,-0.9848412275314331,-0.1703935563564301,-8.774893760681152,-42.57586669921875,11.507568359375,2,192.168.1.8,10.71.35.210,1,0
2015-03-09 08:10:08.244,55,1425913807.176912,37.77934803165289,-122.4390307815023,62.68051,0,214.1015625,3,10,-9999,1425913808.214998,-7.489818572998047,-42.25927734375,11.60494327545166,174.2597045898438,160.4845275878906,10,348643.7793359167,-0.233154296875,-1.08038330078125,-0.2148590087890625,348643.7573827084,0.07435332710614027,-0.3587104882865879,-0.5084959890564595,348643.7573827084,2.708495288175481,-0.1348372239867932,1.409274772357563,0.06845401227474213,-0.3493076264858246,-0.4745140671730042,-0.09715551137924194,-0.1777654141187668,-0.02557605318725109,XTrueNorthZVertical,-0.188986209736089,-0.6201644760947805,-0.7329870886903831,-0.2059373056672309,-0.02161890082061291,-0.9869837164878845,-0.1593604683876038,-7.66502571105957,-42.55617904663086,12.34285545349121,2,192.168.1.8,10.71.35.210,1,0
2015-03-09 08:10:08.282,56,1425913807.176912,37.77934803165289,-122.4390307815023,62.68051,0,214.1015625,3,10,-9999,1425913808.265225,-6.432968139648438,-42.29325866699219,12.10435104370117,176.1950988769531,162.4199066162109,10,348643.8283996667,-0.06182861328125,-1.231887817382812,-0.1260833740234375,348643.8091635833,0.123009280221888,0.5140878283972988,-0.5550810681085616,348643.8091635833,2.541908194302836,0.04565329701735,1.413270489481778,0.1171100288629532,0.5234905481338501,-0.5210995078086853,-0.2523986399173737,-0.01653194986283779,-0.08277492970228195,XTrueNorthZVertical,-0.1751422630894215,-0.6252753829888112,-0.7308053917046522,-0.2104266463548038,0.007159383501857519,-0.9876184463500977,-0.1567117720842361,-6.285927772521973,-42.67119216918945,12.71941089630127,2,192.168.1.8,10.71.35.210,1,0
2015-03-09 08:10:08.345,57,1425913807.176912,37.77934803165289,-122.4390307815023,62.68051,0,214.1015625,3,10,-9999,1425913808.316041,-5.444301605224609,-42.19131469726562,12.57046699523926,177.3133850097656,163.5382080078125,10,348643.8774424584,0.6300048828125,-2.067108154296875,-1.124176025390625,348643.8609445834,0.5357451870140413,3.359256537907495,-2.024553170173649,348643.8091635833,2.541908194302836,0.04565329701735,1.413270489481778,0.1171100288629532,0.5234905481338501,-0.5210995078086853,-0.2523986399173737,-0.01653194986283779,-0.08277492970228195,XTrueNorthZVertical,-0.1751422630894215,-0.6252753829888112,-0.7308053917046522,-0.2104266463548038,0.007159383501857519,-0.9876184463500977,-0.1567117720842361,-6.285927772521973,-42.67119216918945,12.71941089630127,2,192.168.1.8,10.71.35.210,1,0
2015-03-09 08:10:08.381,58,1425913807.176912,37.77934803165289,-122.4390307815023,62.68051,0,214.1015625,3,10,-9999,1425913808.368417,-4.677230834960938,-42.92190551757812,12.28746795654297,174.4830627441406,160.7078857421875,10,348643.9265127084,0.2074432373046875,-0.6082305908203125,0.552734375,348643.9127254583,-0.2958159444027316,-1.784598094899766,0.4516880998439793,348643.9127254583,2.13075334771163,0.5865308852577583,1.372313386614925,-0.301715075969696,-1.775195479393005,0.4856690168380737,0.1247054412961006,0.328038364648819,0.2411154508590698,XTrueNorthZVertical,-0.0979671017241129,-0.6389751498240214,-0.7367286655958973,-0.1983534449134801,0.1091355010867119,-0.9803668260574341,-0.1642264127731323,-4.24298620223999,-43.08364486694336,12.16238403320312,2,192.168.1.8,10.71.35.210,1,0
2015-03-09 08:10:08.450,59,1425913808.401307,37.77934803165289,-122.4390307815023,62.65848,0,214.1015625,4,10,-9999,1425913808.368417,-4.677230834960938,-42.92190551757812,12.28746795654297,174.4830627441406,160.7078857421875,10,348643.975550875,0.04083251953125,-1.124862670898438,-0.214447021484375,348643.9645062084,0.4513661236681887,-0.202732605350064,-1.007287152784561,348643.9645062084,2.019980652989534,0.6503001989974631,1.369242138666177,0.4454670548439026,-0.1933300942182541,-0.9733065962791443,0.0157918855547905,-0.008082120679318905,0.1209729090332985,XTrueNorthZVertical,-0.1091591691063358,-0.6390755226702083,-0.7290741604333075,-0.2193573150020112,0.1212015226483345,-0.9797566533088684,-0.1593334972858429,-3.56176233291626,-43.30648040771484,11.57538986206055,2,192.168.1.8,10.71.35.210,1,0
2015-03-09 08:10:08.478,60,1425913808.401307,37.77934803165289,-122.4390307815023,62.65848,0,214.1015625,4,10,-9999,1425913808.471745,-2.222610473632812,-43.19375610351562,12.32076072692871,179.30859375,165.5334167480469,10,348644.0247172083,0.1332244873046875,-0.9930877685546875,-0.1366729736328125,348644.0162875,-0.2783432108068307,0.2831914955713199,-0.4470051973831839,348643.9645062084,2.019980652989534,0.6503001989974631,1.369242138666177,0.4454670548439026,-0.1933300942182541,-0.9733065962791443,0.0157918855547905,-0.008082120679318905,0.1209729090332985,XTrueNorthZVertical,-0.1091591691063358,-0.6390755226702083,-0.7290741604333075,-0.2193573150020112,0.1212015226483345,-0.9797566533088684,-0.1593334972858429,-3.56176233291626,-43.30648040771484,11.57538986206055,2,192.168.1.8,10.71.35.210,1,0
2015-03-09 08:10:08.543,61,1425913808.401307,37.77934803165289,-122.4390307815023,62.65848,0,214.1015625,4,10,-9999,1425913808.523317,-0.7055091857910156,-42.76898193359375,12.23752689361572,181.6366577148438,167.8614807128906,10,348644.07364825,0.1913604736328125,-0.8571929931640625,-0.009552001953125,348644.068068125,-0.06920463777069008,1.016154413950089,-0.5515087038223293,348644.0162875,1.894902024100246,0.7682629943615118,1.353724788791671,-0.2842422127723694,0.2925938963890076,-0.4130249917507172,-0.0540773905813694,-0.04589807987213135,0.03909353539347649,XTrueNorthZVertical,-0.1017945138150698,-0.6420274634284037,-0.7238311310605552,-0.2313160560813933,0.1496584415435791,-0.9765323400497437,-0.1548772305250168,-1.813802719116211,-43.21194839477539,12.31116676330566,2,192.168.1.8,10.71.35.210,1,0
2015-03-09 08:10:08.577,62,1425913808.401307,37.77934803165289,-122.4390307815023,62.65848,0,214.1015625,4,10,-9999,1425913808.523317,-0.7055091857910156,-42.76898193359375,12.23752689361572,181.6366577148438,167.8614807128906,10,348644.1227768334,0.477752685546875,-1.016372680664062,-0.063079833984375,348644.119849125,-0.06422266231947885,0.8009923031604073,-0.5888984202626057,348644.119849125,1.788384456006932,0.9598757985840672,1.301703077981175,-0.07012156397104263,0.8103945255279541,-0.5549188852310181,0.2588237524032593,0.005302642472088337,0.08020547032356262,XTrueNorthZVertical,-0.05009141848847948,-0.6490300776875758,-0.7253873958070705,-0.2237497374021203,0.2177692502737045,-0.9640123844146729,-0.1525016129016876,-0.2869205474853516,-43.45764923095703,11.55325698852539,2,192.168.1.8,10.71.35.210,1,0
2015-03-09 08:10:08.639,63,1425913808.401307,37.77934803165289,-122.4390307815023,62.65848,0,214.1015625,4,10,-9999,1425913808.627105,0.6922569274902344,-43.10881042480469,11.47177219390869,180.1862487792969,166.4110565185547,10,348644.1717513333,0.329559326171875,-0.8677520751953125,-0.112335205078125,348644.119849125,-0.06422266231947885,0.8009923031604073,-0.5888984202626057,348644.119849125,1.788384456006932,0.9598757985840672,1.301703077981175,-0.07012156397104263,0.8103945255279541,-0.5549188852310181,0.2588237524032593,0.005302642472088337,0.08020547032356262,XTrueNorthZVertical,-0.05009141848847948,-0.6490300776875758,-0.7253873958070705,-0.2237497374021203,0.2177692502737045,-0.9640123844146729,-0.1525016129016876,-0.2869205474853516,-43.45764923095703,11.55325698852539,2,192.168.1.8,10.71.35.210,1,0
2015-03-09 08:10:08.674,64,1425913808.401307,37.77934803165289,-122.4390307815023,62.65848,0,214.1015625,4,10,-9999,1425913808.627105,0.6922569274902344,-43.10881042480469,11.47177219390869,180.1862487792969,166.4110565185547,10,348644.22090125,0.2997589111328125,-1.024658203125,0.07098388671875,348644.2234110833,-0.1309449676381061,0.291093360841694,-0.3349340523904694,348644.1716300834,1.766399992100677,0.9869046260689486,1.274780257549603,-0.2966632843017578,-0.3062474429607391,-0.62662672996521,0.06714949011802673,0.09389637410640717,0.03108326904475689,XTrueNorthZVertical,-0.03847266190664801,-0.6466166616536921,-0.7258568951581227,-0.2313839360060936,0.2433821260929108,-0.9565062522888184,-0.160813495516777,0.4161014556884766,-43.50503158569336,11.36952781677246,2,192.168.1.8,10.71.35.210,1,0
2015-03-09 08:10:08.740,65,1425913808.401307,37.77934803165289,-122.4390307815023,62.65848,0,214.1015625,4,10,-9999,1425913808.735214,2.857101440429688,-43.63554382324219,11.02230548858643,182.7664489746094,168.9912567138672,10,348644.2698590417,0.3656005859375,-0.8979644775390625,-0.1204833984375,348644.2234110833,-0.1309449676381061,0.291093360841694,-0.3349340523904694,348644.2234110833,1.747955856397991,1.0049352828493,1.251691524902485,-0.136843740940094,0.3004953861236572,-0.3009552359580994,0.03494207933545113,-0.07514156401157379,0.239180862903595,XTrueNorthZVertical,-0.03015014656771568,-0.6441991026978744,-0.7257649674518701,-0.2395072184661559,0.2648168206214905,-0.9495166540145874,-0.168196976184845,1.635299682617188,-43.61036682128906,10.84383964538574,2,192.168.1.8,10.71.35.210,1,0
2015-03-09 08:10:08.774,66,1425913808.401307,37.77934803165289,-122.4390307815023,62.65848,0,214.1015625,4,10,-9999,1425913808.735214,2.857101440429688,-43.63554382324219,11.02230548858643,182.7664489746094,168.9912567138672,10,348644.3189227083,0.371185302734375,-0.9261322021484375,-0.13970947265625,348644.2751917084,-0.3989375365522347,0.692391523384175,-0.745796691671861,348644.2751917084,1.736794474370409,1.037100313889428,1.216813671003824,-0.4048362374305725,0.7017934322357178,-0.7118181586265564,0.06717005372047424,0.04003514349460602,0.05585701391100883,XTrueNorthZVertical,-0.01029241686602126,-0.6416571199589169,-0.7270024830692877,-0.2442081225200848,0.2984305322170258,-0.9379996061325073,-0.1763404160737991,2.672168731689453,-43.66909790039062,10.39212989807129,2,192.168.1.8,10.71.35.210,1,0
2015-03-09 08:10:08.840,67,1425913808.401307,37.77934803165289,-122.4390307815023,62.65848,0,214.1015625,4,10,-9999,1425913808.807686,4.220779418945312,-44.55302429199219,9.324325561523438,181.8145141601562,168.0393218994141,10,348644.3679610834,0.4136810302734375,-0.809356689453125,-0.08282470703125,348644.3269729583,-0.6068284186176732,0.5557793489463804,-0.6514571395330031,348644.3269729583,1.76891765568598,1.044056050459038,1.169663197187989,-0.6127270460128784,0.5651811957359314,-0.6174789667129517,0.03365045413374901,-0.005513060837984085,0.05658276006579399,XTrueNorthZVertical,0.01837792238903726,-0.6336530095662944,-0.7335455764813784,-0.2450653251552602,0.3375348448753357,-0.9206191301345825,-0.1962922364473343,3.779990196228027,-43.78736114501953,9.513450622558594,2,192.168.1.8,10.71.35.210,1,0
2015-03-09 08:10:08.873,68,1425913808.401307,37.77934803165289,-122.4390307815023,62.65848,0,214.1015625,4,10,-9999,1425913808.860134,5.65264892578125,-45.232666015625,7.95928430557251,181.6199340820312,167.8447418212891,10,348644.4170555833,0.4378509521484375,-0.9683990478515625,-0.1229705810546875,348644.4305346667,-0.5406155760155782,0.3681652427885872,-0.7018843610897625,348644.3787536667,1.771735942521574,1.063808595644942,1.129193050998232,-0.4971333146095276,0.3066355586051941,-0.9658911228179932,0.07304190099239349,0.1349330842494965,0.02609030343592167,XTrueNorthZVertical,0.04009828687795147,-0.6281985952777948,-0.7355565860030051,-0.2504299742456437,0.3736286461353302,-0.9040675759315491,-0.2075173109769821,4.787432670593262,-43.90814971923828,8.442869186401367,2,192.168.1.8,10.71.35.210,1,0
2015-03-09 08:10:08.909,69,1425913808.401307,37.77934803165289,-122.4390307815023,62.65848,0,214.1015625,4,10,-9999,1425913808.860134,5.65264892578125,-45.232666015625,7.95928430557251,181.6199340820312,167.8447418212891,10,348644.466063125,0.5243682861328125,-0.829803466796875,-0.2322998046875,348644.4305346667,-0.5406155760155782,0.3681652427885872,-0.7018843610897625,348644.4305346667,1.772405766381274,1.075831604454558,1.08163166727932,-0.546514093875885,0.3775669038295746,-0.6679068803787231,0.03045924566686153,-0.03887465968728065,0.116782620549202,XTrueNorthZVertical,0.06067645667310604,-0.6202577367915477,-0.737133051243091,-0.2612155876923982,0.4134952127933502,-0.8827256560325623,-0.223197415471077,6.877496719360352,-43.81557464599609,7.417709350585938,2,192.168.1.8,10.71.35.210,1,0
2015-03-09 08:10:08.968,70,1425913808.401307,37.77934803165289,-122.4390307815023,62.65848,0,214.1015625,4,10,-9999,1425913808.91195,7.629981994628906,-45.47055053710938,7.093647480010986,183.06689453125,169.2917175292969,10,348644.5151244167,0.4727783203125,-0.866912841796875,-0.0821990966796875,348644.4823155833,-0.6028496559490949,-0.1041037659595244,-0.7669123633228813,348644.4823155833,1.791939203448575,1.071800787347392,1.033221705111691,-0.6087481379508972,-0.09470219910144806,-0.7329351902008057,0.07551500201225281,-0.05285106599330902,0.03706308081746101,XTrueNorthZVertical,0.08133498503848349,-0.6089863970868472,-0.7413115674805109,-0.2701432198374954,0.4496162235736847,-0.8589531183242798,-0.2450403720140457,8.167237281799316,-43.7491455078125,6.437052726745605,2,192.168.1.8,10.71.35.210,1,0
2015-03-09 08:10:09.008,71,1425913808.401307,37.77934803165289,-122.4390307815023,62.65848,0,214.1015625,4,10,-9999,1425913808.970551,9.641410827636719,-45.30062866210938,5.961661338806152,185.1086120605469,171.3334350585938,10,348644.5641553333,0.627197265625,-0.8578948974609375,-0.27484130859375,348644.534096625,-0.6541461332856561,-0.1624171401362265,-0.8852227621174334,348644.534096625,1.803328669152484,1.052952890637786,0.9881100991467066,-0.6600445508956909,-0.153015673160553,-0.8512459397315979,-0.04295703396201134,0.02764498814940453,0.152453139424324,XTrueNorthZVertical,0.09268571612117606,-0.595999788724129,-0.7448570431861187,-0.2852746150931434,0.4781224429607391,-0.8349875211715698,-0.2723872065544128,9.621974945068359,-43.61045455932617,5.260524749755859,2,192.168.1.8,10.71.35.210,1,0
2015-03-09 08:10:09.067,72,1425913808.401307,37.77934803165289,-122.4390307815023,62.65848,0,214.1015625,4,10,-9999,1425913809.041675,12.16421890258789,-44.75692749023438,4.263680934906006,187.9908142089844,174.2156372070312,10,348644.6132267084,0.836395263671875,-0.788116455078125,-0.3708038330078125,348644.5858772917,-0.8900055331191067,0.42684080687354,-1.088049377053977,348644.5858772917,1.820270211216519,1.042094054123767,0.9243015032805891,-0.8959038853645325,0.4362421929836273,-1.054072976112366,0.1877121329307556,-0.1015343070030212,0.06503932923078537,XTrueNorthZVertical,0.1145168209676769,-0.5787560604954094,-0.7491658492950194,-0.3011276495740196,0.5201430916786194,-0.7982001900672913,-0.3038546442985535,11.93394088745117,-43.21850967407227,3.445093154907227,2,192.168.1.8,10.71.35.210,1,0
2015-03-09 08:10:09.143,73,1425913808.401307,37.77934803165289,-122.4390307815023,62.65848,0,214.1015625,4,10,-9999,1425913809.093754,14.36315536499023,-44.23019409179688,2.549055576324463,188.97119140625,175.1960144042969,10,348644.662264375,0.8646697998046875,-0.7686309814453125,-0.3746185302734375,348644.637658375,-0.7257271096970239,0.4248101465423545,-1.594701926003884,348644.637658375,1.828183281232286,1.065635231587307,0.8410370634491076,-0.7316253781318665,0.434211403131485,-1.560725808143616,0.2904983162879944,0.063160240650177,-0.1768527776002884,XTrueNorthZVertical,0.1525777318483036,-0.5616032339837188,-0.7493827606504266,-0.3158280106254216,0.5834183096885681,-0.7453349232673645,-0.3226436972618103,14.09102153778076,-42.65820693969727,1.961495399475098,2,192.168.1.8,10.71.35.210,1,0
2015-03-09 08:10:09.169,74,1425913808.401307,37.77934803165289,-122.4390307815023,62.65848,0,214.1015625,4,10,-9999,1425913809.145209,16.45981597900391,-44.07730102539062,0.9010171890258789,189.6424255371094,175.8672485351562,10,348644.7113336667,0.4476318359375,-0.6296539306640625,-0.2871551513671875,348644.68943925,-0.7690799101340968,-1.366498847988302,-0.06931915369756349,348644.68943925,1.845292399925346,1.031551415833835,0.7929899871267307,-0.7750113606452942,-1.357074737548828,-0.03521014377474785,0.04997279867529869,-0.06250879913568497,0.05086053162813187,XTrueNorthZVertical,0.159867929241309,-0.5424760168293037,-0.7546832376286677,-0.3325886921409552,0.6021420955657959,-0.7124545574188232,-0.3603240251541138,16.76103019714355,-41.72029876708984,0.7819423675537109,2,192.168.1.8,10.71.35.210,1,0
2015-03-09 08:10:09.244,75,1425913808.401307,37.77934803165289,-122.4390307815023,62.65848,0,214.1015625,4,10,-9999,1425913809.200321,17.78940582275391,-44.04331970214844,-1.163192749023438,193.7733459472656,179.9981689453125,10,348644.7603685834,0.4690399169921875,-0.5654449462890625,-0.3367156982421875,348644.74122025,-0.1738937665378139,-2.021170422957031,0.6360299799703921,348644.74122025,1.888202293530511,0.9067440809882192,0.7912931442466635,-0.1798251271247864,-2.011746406555176,0.6701385974884033,-0.09640190005302429,0.124852329492569,0.09963491559028625,XTrueNorthZVertical,0.1241654983636766,-0.5176597816315065,-0.7708927716122116,-0.3497650998970229,0.5535552501678467,-0.7112628221511841,-0.4332225620746613,16.9400520324707,-41.59339904785156,-2.269546508789062,2,192.168.1.8,10.71.35.210,1,0
2015-03-09 08:10:09.266,76,1425913808.401307,37.77934803165289,-122.4390307815023,62.65848,0,214.1015625,4,10,-9999,1425913809.200321,17.78940582275391,-44.04331970214844,-1.163192749023438,193.7733459472656,179.9981689453125,10,348644.8095557917,0.2872161865234375,-0.6510162353515625,-0.385162353515625,348644.79300125,0.003067961575771282,-1.905488297842278,1.985661963510786,348644.79300125,1.963350566521942,0.7529539091740153,0.8419901415936267,-0.002863337751477957,-1.896064400672913,2.019770383834839,-0.0833246037364006,0.1712019294500351,0.1257172673940659,XTrueNorthZVertical,0.06781537594178744,-0.5024218276450395,-0.7891680364545384,-0.346680260561215,0.4553949236869812,-0.7459700107574463,-0.4859467744827271,15.07692527770996,-42.17036437988281,-4.05877685546875,2,192.168.1.8,10.71.35.210,1,0
2015-03-09 08:10:09.310,77,1425913808.401307,37.77934803165289,-122.4390307815023,62.65848,0,214.1015625,4,10,-9999,1425913809.275285,15.01090240478516,-45.147705078125,-3.477106094360352,196.7779541015625,183.0027618408203,10,348644.8584819583,0.17681884765625,-0.737091064453125,-0.3481597900390625,348644.8447822084,0.5056946099058052,-1.090038225756048,2.650394694761725,348644.79300125,1.963350566521942,0.7529539091740153,0.8419901415936267,-0.002863337751477957,-1.896064400672913,2.019770383834839,-0.0833246037364006,0.1712019294500351,0.1257172673940659,XTrueNorthZVertical,0.06781537594178744,-0.5024218276450395,-0.7891680364545384,-0.346680260561215,0.4553949236869812,-0.7459700107574463,-0.4859467744827271,15.07692527770996,-42.17036437988281,-4.05877685546875,2,192.168.1.8,10.71.35.210,1,0
2015-03-09 08:10:09.361,78,1425913808.401307,37.77934803165289,-122.4390307815023,62.65848,0,214.1015625,4,10,-9999,1425913809.326815,9.897102355957031,-46.33705139160156,-3.943217277526855,192.5217895507812,178.7465972900391,10,348644.9075405417,0.3028717041015625,-0.877105712890625,-0.3752899169921875,348644.8965629167,0.8408118877792721,-0.6825458168341521,2.443792782663885,348644.8965629167,2.281717012786681,0.383081238783494,1.018781326032937,0.8348807096481323,-0.6731221079826355,2.477900505065918,0.0109431492164731,0.05889755487442017,0.05514991655945778,XTrueNorthZVertical,-0.04846386449130152,-0.5044346803959646,-0.8177691503076329,-0.2728562529797185,0.1960118114948273,-0.8514695763587952,-0.4863938093185425,3.580055713653564,-44.62069702148438,-4.278325080871582,2,192.168.1.8,10.71.35.210,1,0
2015-03-09 08:10:09.450,79,1425913809.384107,37.77934803165289,-122.4390307815023,62.86148,0,214.1015625,3,10,-9999,1425913809.433888,-1.898731231689453,-46.8468017578125,-2.678057670593262,179.5401306152344,165.7649536132812,10,348644.9565660417,0.01971435546875,-1.013275146484375,-0.513397216796875,348644.9483442084,0.5728097314852191,0.5534445556187079,2.360473124799666,348644.8965629167,2.281717012786681,0.383081238783494,1.018781326032937,0.8348807096481323,-0.6731221079826355,2.477900505065918,0.0109431492164731,0.05889755487442017,0.05514991655945778,XTrueNorthZVertical,-0.04846386449130152,-0.5044346803959646,-0.8177691503076329,-0.2728562529797185,0.1960118114948273,-0.8514695763587952,-0.4863938093185425,3.580055713653564,-44.62069702148438,-4.278325080871582,2,192.168.1.8,10.71.35.210,1,0
2015-03-09 08:10:09.460,80,1425913809.384107,37.77934803165289,-122.4390307815023,62.86148,0,214.1015625,3,10,-9999,1425913809.433888,-1.898731231689453,-46.8468017578125,-2.678057670593262,179.5401306152344,165.7649536132812,10,348645.0056224584,0.2730255126953125,-0.941436767578125,-0.3113861083984375,348645.0001249167,0.9086724281477991,1.00721764428011,1.826104525753087,348644.9483442084,2.498634376163838,0.1840954495412298,1.088966256592498,0.566878616809845,0.5628681778907776,2.394580364227295,0.02448488585650921,-0.1422177404165268,-0.01215643528848886,XTrueNorthZVertical,-0.08837421488670533,-0.5142026694998626,-0.8231804870079197,-0.2239631879671034,0.08482907712459564,-0.8861483335494995,-0.4555712342262268,-1.541378021240234,-44.86184692382812,-2.676942825317383,2,192.168.1.8,10.71.35.210,1,0
2015-03-09 08:10:09.508,81,1425913809.384107,37.77934803165289,-122.4390307815023,62.86148,0,214.1015625,3,10,-9999,1425913809.433888,-1.898731231689453,-46.8468017578125,-2.678057670593262,179.5401306152344,165.7649536132812,10,348645.0546480833,0.3599853515625,-1.02227783203125,-0.545501708984375,348645.0519059583,0.5293392193279647,0.5058679816927694,1.077382085307665,348645.0001249167,2.73496696423371,0.01642348715639695,1.142726796882473,0.9027413129806519,1.016641139984131,1.860211491584778,0.2099795341491699,-0.05791307240724564,0.2180836200714111,XTrueNorthZVertical,-0.1024227355330492,-0.5310178146720279,-0.8247079046890122,-0.1654888111714523,0.006817334331572056,-0.90976881980896,-0.4150593280792236,-6.313138961791992,-44.50101089477539,-1.389753341674805,2,192.168.1.8,10.71.35.210,1,0
2015-03-09 08:10:09.557,82,1425913809.384107,37.77934803165289,-122.4390307815023,62.86148,0,214.1015625,3,10,-9999,1425913809.507609,-9.10919189453125,-45.81033325195312,-0.06450080871582031,167.5762939453125,153.8011016845703,10,348645.1037977083,0.073089599609375,-0.8921966552734375,-0.4503326416015625,348645.1036870833,0.1931857054743479,0.5307067525477204,-0.1030387678396018,348645.0519059583,2.915653164676794,-0.1118880393589057,1.175239766515977,0.5234076976776123,0.5152917504310608,1.111487865447998,0.425072580575943,-0.1117483898997307,-0.2117683291435242,XTrueNorthZVertical,-0.10863665724397,-0.5447401663210854,-0.8221692987139265,-0.1244744274306692,-0.0430230088531971,-0.9227822422981262,-0.3829124569892883,-11.08036994934082,-43.5792350769043,0.450474739074707,2,192.168.1.8,10.71.35.210,1,0
2015-03-09 08:10:09.609,83,1425913809.384107,37.77934803165289,-122.4390307815023,62.86148,0,214.1015625,3,10,-9999,1425913809.560258,-12.17747497558594,-45.36857604980469,1.000897407531738,162.5740356445312,148.7988586425781,10,348645.1528244167,0.426025390625,-1.0936279296875,-0.3314971923828125,348645.1036870833,0.1931857054743479,0.5307067525477204,-0.1030387678396018,348645.1036870833,3.014682223359085,-0.1875122305976886,1.186262655442791,0.1872542798519135,0.5401304364204407,-0.06893333047628403,0.1426833122968674,-0.03803813084959984,-0.1255740374326706,XTrueNorthZVertical,-0.1127614438784035,-0.550462705018322,-0.8205728985812646,-0.1045743573010165,-0.06992940604686737,-0.9269734621047974,-0.3685513436794281,-13.23885536193848,-42.95886993408203,1.181127548217773,2,192.168.1.8,10.71.35.210,1,0
2015-03-09 08:10:09.656,84,1425913809.384107,37.77934803165289,-122.4390307815023,62.86148,0,214.1015625,3,10,-9999,1425913809.611251,-12.77408599853516,-44.97775268554688,1.350483894348145,160.91357421875,147.1383819580078,10,348645.2018729583,0.08367919921875,-1.065521240234375,-0.6333160400390625,348645.2072486667,0.755205107170893,-1.578913641797458,0.04706604594497037,348645.1554679584,2.946868082618318,-0.03166397515606353,1.218999546269798,0.6269161105155945,2.127647399902344,-0.2382364571094513,0.4369345009326935,-0.1548728495836258,0.01291520055383444,XTrueNorthZVertical,-0.06855994438020371,-0.5684129990461064,-0.8150680634083338,-0.08871448295736115,-0.01090911123901606,-0.9387550950050354,-0.3444123864173889,-13.26190757751465,-42.94765853881836,1.321994781494141,2,192.168.1.8,10.71.35.210,1,0
2015-03-09 08:10:09.694,85,1425913809.384107,37.77934803165289,-122.4390307815023,62.86148,0,214.1015625,3,10,-9999,1425913809.667269,-12.75704956054688,-44.82484436035156,1.799947261810303,157.1720275878906,143.3968353271484,10,348645.2508037917,-0.172088623046875,-1.011032104492188,-0.040985107421875,348645.2072486667,0.755205107170893,-1.578913641797458,0.04706604594497037,348645.2072486667,3.006730931707196,-0.1076519759851125,1.243190037324584,0.7492737770080566,-1.569490194320679,0.08117079734802246,0.1182523220777512,-0.1187059432268143,-0.3134011924266815,XTrueNorthZVertical,-0.08281795949750013,-0.5772207243289506,-0.8078174931293314,-0.08595539376144154,-0.03457312285900116,-0.9468153119087219,-0.319914847612381,-13.14515209197998,-42.96543121337891,1.817623138427734,2,192.168.1.8,10.71.35.210,1,0
2015-03-09 08:10:09.755,86,1425913809.384107,37.77934803165289,-122.4390307815023,62.86148,0,214.1015625,3,10,-9999,1425913809.74108,-12.85931396484375,-44.38308715820312,3.664391994476318,158.878173828125,145.1029968261719,10,348645.2998569167,0.1709136962890625,-1.008712768554688,-0.034210205078125,348645.2590298334,-0.06400028836845723,-0.9461343162536168,0.3298016083376688,348645.2590298334,3.021957838366594,-0.161626372718282,1.268219265117264,-0.06993152946233749,-0.9367109537124634,0.3639060258865356,-0.1241364181041718,-0.05646036192774773,0.2531124651432037,XTrueNorthZVertical,-0.1002186400716279,-0.5855829862217137,-0.7986750888776474,-0.09574394899284643,-0.04795220866799355,-0.9545717239379883,-0.2940975725650787,-13.10569286346436,-42.83209991455078,3.972322463989258,2,192.168.1.8,10.71.35.210,1,0
2015-03-09 08:10:09.793,87,1425913809.384107,37.77934803165289,-122.4390307815023,62.86148,0,214.1015625,3,10,-9999,1425913809.74108,-12.85931396484375,-44.38308715820312,3.664391994476318,158.878173828125,145.1029968261719,10,348645.3489895834,0.0977935791015625,-0.8665313720703125,-0.2340545654296875,348645.3108106667,0.5951025203380543,1.079947508385738,-0.1102862944301434,348645.3108106667,3.055402808238637,-0.188874348659531,1.293358367074524,0.589171290397644,1.089370727539062,-0.07618225365877151,0.324876993894577,-0.1415264308452606,0.2096344530582428,XTrueNorthZVertical,-0.1010301155871969,-0.5960554377879156,-0.791347478088461,-0.09099456403289197,-0.05142424628138542,-0.9617603421211243,-0.2690216600894928,-13.39347076416016,-42.66060638427734,4.776454925537109,2,192.168.1.8,10.71.35.210,1,0
2015-03-09 08:10:09.851,88,1425913809.384107,37.77934803165289,-122.4390307815023,62.86148,0,214.1015625,3,10,-9999,1425913809.845289,-12.89340972900391,-44.24716186523438,6.16142463684082,157.8656921386719,144.0904998779297,10,348645.3979380417,-0.02130126953125,-1.028717041015625,-0.168701171875,348645.3625915,0.2945594650004322,-0.1883701775912667,-0.2061656863112852,348645.3625915,3.028068912381657,-0.1380184142692592,1.308734554922039,0.2886283397674561,-0.1789469867944717,-0.1720619797706604,0.1755512058734894,0.09583225101232529,0.07243529707193375,XTrueNorthZVertical,-0.08907042621540147,-0.6031268687099998,-0.787888896527025,-0.08680747131390423,-0.03564336150884628,-0.9658578634262085,-0.2566088736057281,-13.38045692443848,-42.57919692993164,5.486557006835938,2,192.168.1.8,10.71.35.210,1,0
2015-03-09 08:10:09.891,89,1425913809.384107,37.77934803165289,-122.4390307815023,62.86148,0,214.1015625,3,10,-9999,1425913809.845289,-12.89340972900391,-44.24716186523438,6.16142463684082,157.8656921386719,144.0904998779297,10,348645.4470292084,-0.079742431640625,-1.063125610351562,0.018280029296875,348645.4143728333,-0.264038573643688,-1.04014496799785,-0.3732580057411457,348645.4143728333,2.980694094824058,-0.1277247072429276,1.307747955818767,-0.269969642162323,-1.030721783638,-0.3391546010971069,-0.1038872376084328,-0.07266723364591599,0.1368592381477356,XTrueNorthZVertical,-0.099273534567811,-0.6009918152889423,-0.786433815961638,-0.1023497305064455,-0.03312142938375473,-0.9656018018722534,-0.2579072117805481,-12.96098136901855,-42.64141464233398,5.987486839294434,2,192.168.1.8,10.71.35.210,1,0
2015-03-09 08:10:09.950,90,1425913809.384107,37.77934803165289,-122.4390307815023,62.86148,0,214.1015625,3,10,-9999,1425913809.898874,-12.34793090820312,-43.975341796875,6.461069107055664,159.4538269042969,145.6786346435547,10,348645.4960420417,-0.0332794189453125,-0.956512451171875,-0.2046356201171875,348645.4661535417,-0.4104221524370925,0.6140887283814472,-0.2227119061639475,348645.4661535417,2.930405575010925,-0.07581996377949553,1.298044607500013,-0.416353166103363,0.6235117316246033,-0.188608855009079,-0.01137905102223158,-0.0904487743973732,0.2358174175024033,XTrueNorthZVertical,-0.09368377829024847,-0.5974270430055824,-0.789254162934617,-0.1066871838313086,-0.02040500566363335,-0.9630332589149475,-0.268608570098877,-12.15048027038574,-42.87334823608398,6.030677795410156,2,192.168.1.8,10.71.35.210,1,0
2015-03-09 08:10:09.989,91,1425913809.384107,37.77934803165289,-122.4390307815023,62.86148,0,214.1015625,3,10,-9999,1425913809.950306,-11.81950378417969,-44.29814147949219,6.144778251647949,159.2449645996094,145.4697875976562,10,348645.5450645417,0.0281219482421875,-0.961883544921875,-0.2581634521484375,348645.5179344583,-0.2644969036672907,0.8305448691447985,-0.4302677625642539,348645.5179344583,2.854385654843044,0.02363348276899812,1.281460192247374,-0.2704278230667114,0.8399677872657776,-0.3961650729179382,0.183199018239975,-0.03172458335757256,0.1820717006921768,XTrueNorthZVertical,-0.07616744029612048,-0.5929421026846394,-0.7943633362951144,-0.1077268990798463,0.006742384284734726,-0.9584335088729858,-0.2852363586425781,-11.55246257781982,-43.18249130249023,4.892874717712402,2,192.168.1.8,10.71.35.210,1,0
2015-03-09 08:10:10.048,92,1425913809.384107,37.77934803165289,-122.4390307815023,62.86148,0,214.1015625,3,10,-9999,1425913810.026424,-10.02967834472656,-44.79083251953125,4.563326358795166,160.0526428222656,146.2774658203125,10,348645.5942599167,0.0301055908203125,-1.028717041015625,-0.1766204833984375,348645.569715625,-0.3398289424740351,-0.5281525147462254,-0.6832869745655211,348645.569715625,2.783819488122764,0.08652686045234684,1.262985737985842,-0.3457598090171814,-0.5187296867370605,-0.6491846442222595,-0.03088229894638062,-0.1048011109232903,0.1056724339723587,XTrueNorthZVertical,-0.0705931409854153,-0.5865977286650437,-0.7980669021933543,-0.1183593837722103,0.02618259191513062,-0.9529991745948792,-0.3018394410610199,-10.91741752624512,-43.43467712402344,4.045494079589844,2,192.168.1.8,10.71.35.210,1,0
2015-03-09 08:10:10.088,93,1425913809.384107,37.77934803165289,-122.4390307815023,62.86148,0,214.1015625,3,10,-9999,1425913810.078536,-8.597812652587891,-45.36851501464844,3.864158630371094,162.0817260742188,148.3065490722656,10,348645.6431420417,-0.000518798828125,-0.993896484375,-0.31463623046875,348645.6214966667,-0.3751909280603252,0.03814445629320493,-0.6106716263867665,348645.6214966667,2.714144556519246,0.1480446335297658,1.242607054789339,-0.3811217546463013,0.04756719246506691,-0.5765696167945862,-0.08169420063495636,0.008807111531496048,0.05481135100126266,XTrueNorthZVertical,-0.06435885964540879,-0.5800483660597019,-0.8015747966698691,-0.1299218476349556,0.04754503071308136,-0.9466275572776794,-0.3188036680221558,-9.76585865020752,-43.75119781494141,3.547927856445312,2,192.168.1.8,10.71.35.210,1,0
2015-03-09 08:10:10.148,94,1425913809.384107,37.77934803165289,-122.4390307815023,62.86148,0,214.1015625,3,10,-9999,1425913810.13331,-7.387546539306641,-45.72532653808594,3.115051746368408,163.6163635253906,149.8411865234375,10,348645.692189875,0.37835693359375,-0.9494781494140625,-0.22991943359375,348645.6732772917,0.02979358206304346,0.294252402526746,-0.5493643265125975,348645.6732772917,2.625066155731592,0.2414290392981273,1.226844170279581,0.02383077889680862,0.3036971390247345,-0.5151333808898926,0.118060901761055,-0.08647901564836502,0.01642576232552528,XTrueNorthZVertical,-0.05075596506168952,-0.5776751958474949,-0.8025165343782141,-0.1402940593731804,0.08062379062175751,-0.9414293169975281,-0.32743039727211,-8.276889801025391,-44.11923599243164,2.667048454284668,2,192.168.1.8,10.71.35.210,1,0
2015-03-09 08:10:10.185,95,1425913809.384107,37.77934803165289,-122.4390307815023,62.86148,0,214.1015625,3,10,-9999,1425913810.13331,-7.387546539306641,-45.72532653808594,3.115051746368408,163.6163635253906,149.8411865234375,10,348645.7412273334,0.05975341796875,-1.102005004882812,-0.2929840087890625,348645.725058625,0.01955852136165093,-1.241964641726235,-0.5656085438976448,348645.6732772917,2.625066155731592,0.2414290392981273,1.226844170279581,0.02383077889680862,0.3036971390247345,-0.5151333808898926,0.118060901761055,-0.08647901564836502,0.01642576232552528,XTrueNorthZVertical,-0.05075596506168952,-0.5776751958474949,-0.8025165343782141,-0.1402940593731804,0.08062379062175751,-0.9414293169975281,-0.32743039727211,-8.276889801025391,-44.11923599243164,2.667048454284668,2,192.168.1.8,10.71.35.210,1,0
2015-03-09 08:10:10.244,96,1425913809.384107,37.77934803165289,-122.4390307815023,62.86148,0,214.1015625,3,10,-9999,1425913810.207501,-5.597713470458984,-46.32002258300781,2.965225696563721,162.4869689941406,148.7117767333984,10,348645.7903930834,0.1104736328125,-0.756011962890625,-0.412353515625,348645.776839375,-0.05805771071205441,-0.9533107364430533,-0.07001716821927326,348645.776839375,2.494860575355466,0.2800181389128677,1.221302079921448,-0.06402039527893066,-0.9438661932945251,-0.03578685224056244,0.1477647125720978,-0.01759204640984535,-0.08123861998319626,XTrueNorthZVertical,-0.07201508286313285,-0.5746921696076653,-0.7946384660552964,-0.181913323398111,0.09463641792535782,-0.9395459890365601,-0.3290854692459106,-5.729116916656494,-44.47878265380859,3.307943344116211,2,192.168.1.8,10.71.35.210,1,0
2015-03-09 08:10:10.284,97,1425913809.384107,37.77934803165289,-122.4390307815023,62.86148,0,214.1015625,3,10,-9999,1425913810.260836,-4.234039306640625,-46.62583923339844,3.597806453704834,165.6156616210938,151.8404846191406,10,348645.8393198334,0.1618804931640625,-0.949798583984375,-0.151580810546875,348645.82862025,0.172821577882948,-0.1904240074239358,-0.475001678342642,348645.776839375,2.494860575355466,0.2800181389128677,1.221302079921448,-0.06402039527893066,-0.9438661932945251,-0.03578685224056244,0.1477647125720978,-0.01759204640984535,-0.08123861998319626,XTrueNorthZVertical,-0.07201508286313285,-0.5746921696076653,-0.7946384660552964,-0.181913323398111,0.09463641792535782,-0.9395459890365601,-0.3290854692459106,-5.729116916656494,-44.47878265380859,3.307943344116211,2,192.168.1.8,10.71.35.210,1,0
2015-03-09 08:10:10.345,98,1425913809.384107,37.77934803165289,-122.4390307815023,62.86148,0,214.1015625,3,10,-9999,1425913810.311559,-3.091953277587891,-46.7447509765625,3.414691925048828,167.9402465820312,154.1650695800781,10,348645.8883938334,0.2284088134765625,-0.9517974853515625,-0.300262451171875,348645.8804014584,-0.02768355953137368,0.4546503339244744,-0.5459709266516185,348645.82862025,2.441960457893212,0.3023858712589952,1.220961893322178,0.1668589562177658,-0.1809795349836349,-0.4407716989517212,0.07529996335506439,-0.003563691629096866,0.2083714455366135,XTrueNorthZVertical,-0.07829226269979735,-0.5746951417985928,-0.7905585425121053,-0.1965019526319925,0.1020682007074356,-0.9394294619560242,-0.3271916210651398,-5.194925308227539,-44.52553176879883,3.552011489868164,2,192.168.1.8,10.71.35.210,1,0
2015-03-09 08:10:10.381,99,1425913810.341946,37.77934803165289,-122.4390307815023,62.86307,0,214.1015625,3,10,-9999,1425913810.368183,-2.478294372558594,-46.9146728515625,3.647750377655029,168.7687683105469,154.9935760498047,10,348645.9375298333,0.4712677001953125,-0.687408447265625,-0.35687255859375,348645.9321824583,-0.00424454614536829,0.8416547782642821,-0.5093007963378815,348645.8804014584,2.389636953806567,0.3567820305997957,1.21411859310252,-0.0336461216211319,0.4640946984291077,-0.5117413401603699,0.04147270321846008,0.03734276816248894,-0.05205200612545013,XTrueNorthZVertical,-0.07057513927472475,-0.5757011460769579,-0.789002869219199,-0.2026371718577575,0.1219489276409149,-0.9370620250701904,-0.3271746933460236,-4.36281156539917,-44.59619903564453,3.777889251708984,2,192.168.1.8,10.71.35.210,1,0
2015-03-09 08:10:10.449,100,1425913810.341946,37.77934803165289,-122.4390307815023,62.86307,0,214.1015625,3,10,-9999,1425913810.368183,-2.478294372558594,-46.9146728515625,3.647750377655029,168.7687683105469,154.9935760498047,10,348645.986455,0.48870849609375,-0.991119384765625,-0.211456298828125,348645.9839632083,0.03897855834661774,-0.3700864471989703,-0.2243606691948155,348645.9839632083,2.277703489290421,0.5268349066362459,1.199197121618712,0.03301610797643661,-0.3606422543525696,-0.1901317238807678,0.3617418706417084,-0.09907490015029907,0.1426662057638168,XTrueNorthZVertical,-0.032875077835189,-0.5847942531604978,-0.7853885701863684,-0.2002491335337213,0.1825696676969528,-0.9317478537559509,-0.313869833946228,-2.49033260345459,-44.75979995727539,3.533524513244629,2,192.168.1.8,10.71.35.210,1,0
2015-03-09 08:10:10.480,101,1425913810.341946,37.77934803165289,-122.4390307815023,62.86307,0,214.1015625,3,10,-9999,1425913810.441018,-1.711231231689453,-47.20352172851562,3.864160060882568,167.5613098144531,153.7861175537109,10,348646.0355546667,0.2315521240234375,-0.8585205078125,-0.2788848876953125,348645.9839632083,0.03897855834661774,-0.3700864471989703,-0.2243606691948155,348645.9839632083,2.277703489290421,0.5268349066362459,1.199197121618712,0.03301610797643661,-0.3606422543525696,-0.1901317238807678,0.3617418706417084,-0.09907490015029907,0.1426662057638168,XTrueNorthZVertical,-0.032875077835189,-0.5847942531604978,-0.7853885701863684,-0.2002491335337213,0.1825696676969528,-0.9317478537559509,-0.313869833946228,-2.49033260345459,-44.75979995727539,3.533524513244629,2,192.168.1.8,10.71.35.210,1,0
2015-03-09 08:10:10.541,102,1425913810.341946,37.77934803165289,-122.4390307815023,62.86307,0,214.1015625,3,10,-9999,1425913810.492885,-0.33050537109375,-47.49237060546875,3.74763011932373,169.806396484375,156.0312194824219,10,348646.0845624583,0.1274871826171875,-0.9920196533203125,0.0097808837890625,348646.0875252917,-0.2030037151490341,0.04608493739938518,-0.1243435239280176,348646.035744375,2.25019581034699,0.5017425266314388,1.186255334624531,-0.1352737694978714,-0.9837184548377991,-0.4737870097160339,0.05113006010651588,0.0684502124786377,0.0500120222568512,XTrueNorthZVertical,-0.0476797282034818,-0.5773025101225385,-0.7845889201592062,-0.221062644109487,0.1804220676422119,-0.9269707202911377,-0.3288969099521637,-1.932229995727539,-44.78451919555664,3.569390296936035,2,192.168.1.8,10.71.35.210,1,0
2015-03-09 08:10:10.578,103,1425913810.341946,37.77934803165289,-122.4390307815023,62.86307,0,214.1015625,3,10,-9999,1425913810.545103,0.76043701171875,-47.56033325195312,3.447985172271729,172.7720947265625,158.9969024658203,10,348646.133704625,0.4484100341796875,-1.004318237304688,-0.2868499755859375,348646.0875252917,-0.2030037151490341,0.04608493739938518,-0.1243435239280176,348646.0875252917,2.229752174621201,0.5019144018119454,1.175635298283609,-0.2089660465717316,0.055528923869133,-0.09011529386043549,-0.05771736055612564,-0.06908506900072098,0.3472583591938019,XTrueNorthZVertical,-0.05097058025244165,-0.5732916076756281,-0.7843818782069074,-0.231265675340366,0.1852045357227325,-0.9229345917701721,-0.3374774754047394,-0.8161349296569824,-44.8376579284668,3.323477745056152,2,192.168.1.8,10.71.35.210,1,0
2015-03-09 08:10:10.641,104,1425913810.341946,37.77934803165289,-122.4390307815023,62.86307,0,214.1015625,3,10,-9999,1425913810.599488,1.936614990234375,-47.54331970214844,3.13169527053833,173.7713317871094,159.9961547851562,10,348646.1826627083,0.4423980712890625,-0.8994293212890625,-0.27691650390625,348646.1393063334,-0.04365427027246987,0.261181534426251,-0.4860135831340106,348646.1393063334,2.183940278584177,0.5542517191866851,1.153886993781307,-0.04961654171347618,0.2706254422664642,-0.451785683631897,0.2352890521287918,-0.08997340500354767,0.05746528133749962,XTrueNorthZVertical,-0.03820913346130839,-0.5712988999069945,-0.7842504092558963,-0.238974759336131,0.2131209820508957,-0.914344847202301,-0.3443152606487274,-0.1424722671508789,-44.87728500366211,2.852398872375488,2,192.168.1.8,10.71.35.210,1,0
2015-03-09 08:10:10.675,105,1425913810.341946,37.77934803165289,-122.4390307815023,62.86307,0,214.1015625,3,10,-9999,1425913810.599488,1.936614990234375,-47.54331970214844,3.13169527053833,173.7713317871094,159.9961547851562,10,348646.2317022917,0.272308349609375,-0.8386077880859375,-0.4157257080078125,348646.191087375,-0.3827039718115477,-0.3114468357887336,-0.3339497480515762,348646.191087375,2.17908563066864,0.5575097104908733,1.136004013167809,-0.388666182756424,-0.302003026008606,-0.2997221648693085,0.2195401638746262,0.007528222631663084,0.08052213490009308,XTrueNorthZVertical,-0.03379296940969301,-0.5658080217760125,-0.7869020003456164,-0.2439355867786965,0.2228579074144363,-0.9069575667381287,-0.3574386239051819,0.6059331893920898,-44.89057540893555,2.568316459655762,2,192.168.1.8,10.71.35.210,1,0
2015-03-09 08:10:10.743,106,1425913810.341946,37.77934803165289,-122.4390307815023,62.86307,0,214.1015625,3,10,-9999,1425913810.726287,3.590076446533203,-47.49234008789062,0.8510780334472656,174.2973327636719,160.5221557617188,10,348646.280774625,0.156646728515625,-0.886322021484375,-0.165679931640625,348646.2946491667,-0.8512400276596953,0.5902491755674939,-0.3167289494947968,348646.2428684583,2.174170978072004,0.5380178007768426,1.103855211970819,-0.6599564552307129,-0.330136239528656,-0.3670251667499542,0.05991226062178612,-0.06455483287572861,-0.0755966454744339,XTrueNorthZVertical,-0.03472976667930141,-0.5527323634084393,-0.791523146519156,-0.2584025874567533,0.2306761145591736,-0.8929494619369507,-0.3865615427494049,1.494319438934326,-44.92124176025391,1.405773162841797,2,192.168.1.8,10.71.35.210,1,0
2015-03-09 08:10:10.774,107,1425913810.341946,37.77934803165289,-122.4390307815023,62.86307,0,214.1015625,3,10,-9999,1425913810.726287,3.590076446533203,-47.49234008789062,0.8510780334472656,174.2973327636719,160.5221557617188,10,348646.3299305417,0.8368072509765625,-0.9634552001953125,-0.6730194091796875,348646.2946491667,-0.8512400276596953,0.5902491755674939,-0.3167289494947968,348646.2946491667,2.204017219122697,0.5236966960233349,1.071050511108154,-0.8572021126747131,0.5996927618980408,-0.2825020849704742,-0.04149123653769493,0.1961248070001602,0.08114626258611679,XTrueNorthZVertical,-0.02408641586300175,-0.5403062286781426,-0.8007512136228241,-0.2574617032427531,0.2396418750286102,-0.877704381942749,-0.4149780571460724,1.881623268127441,-44.92858505249023,0.095794677734375,2,192.168.1.8,10.71.35.210,1,0
2015-03-09 08:10:10.843,108,1425913810.341946,37.77934803165289,-122.4390307815023,62.86307,0,214.1015625,3,10,-9999,1425913810.83299,4.51055908203125,-47.76419067382812,-2.378412246704102,174.4671630859375,160.6919860839844,10,348646.3788946667,0.3775787353515625,-0.476715087890625,-0.883026123046875,348646.3464305,-0.8275714497877251,0.4444935701591302,0.7853502264978268,348646.3464305,2.243542315493038,0.5242543254112553,1.032855286322426,-0.8335334658622742,0.4539370834827423,0.8195767402648926,0.3864385187625885,-0.192793995141983,-0.01793034560978413,XTrueNorthZVertical,-0.004017158850478917,-0.5274520141852798,-0.812170937485631,-0.2493122828963308,0.2564752995967865,-0.8587654232978821,-0.4435564577579498,2.524219512939453,-44.86822509765625,-1.611775398254395,2,192.168.1.8,10.71.35.210,1,0
2015-03-09 08:10:10.874,109,1425913810.341946,37.77934803165289,-122.4390307815023,62.86307,0,214.1015625,3,10,-9999,1425913810.83299,4.51055908203125,-47.76419067382812,-2.378412246704102,174.4671630859375,160.6919860839844,10,348646.4279970417,0.5076141357421875,-0.2054443359375,0.0670623779296875,348646.39821125,-1.531615368205433,-2.269805805487918,-0.8634743233914103,348646.39821125,2.30956691056079,0.4108658428334919,0.97962045257242,-1.537577390670776,-2.260362148284912,-0.8292481303215027,0.2942584455013275,0.4617098569869995,-0.3801903128623962,XTrueNorthZVertical,-0.02146938260482562,-0.494026639720914,-0.8289686224340141,-0.2613193043177077,0.2226025015115738,-0.830285906791687,-0.5109534859657288,1.29789400100708,-44.73806762695312,-4.352938652038574,2,192.168.1.8,10.71.35.210,1,0
2015-03-09 08:10:10.947,110,1425913810.341946,37.77934803165289,-122.4390307815023,62.86307,0,214.1015625,3,10,-9999,1425913810.907518,4.323055267333984,-47.37342834472656,-5.624549865722656,177.7318420410156,163.9566497802734,10,348646.4770035,-0.26849365234375,-0.208038330078125,-0.19415283203125,348646.4499922917,0.1921888842783313,-3.150439674731036,-0.5116236054406486,348646.4499922917,2.254712920374376,0.3411338950256414,0.9318217399576911,0.1862269788980484,-3.14099645614624,-0.4773977994918823,0.07773222774267197,0.458560973405838,0.2498581856489182,XTrueNorthZVertical,-0.05296613300388178,-0.4649634109324665,-0.8280089034407045,-0.3088768071645909,0.1995199620723724,-0.8027077317237854,-0.5620072484016418,2.5517258644104,-44.35517120361328,-6.945101737976074,2,192.168.1.8,10.71.35.210,1,0
2015-03-09 08:10:10.970,111,1425913810.341946,37.77934803165289,-122.4390307815023,62.86307,0,214.1015625,3,10,-9999,1425913810.959674,3.232109069824219,-47.71321105957031,-6.123954772949219,185.7918701171875,172.0166931152344,10,348646.5260467917,-0.650726318359375,-2.142974853515625,-1.433197021484375,348646.501773375,-0.6006951586272208,-1.086827785061958,0.9471447195711928,348646.501773375,2.382630135054359,-0.01787092213448404,0.9844428050770633,-0.6066569685935974,-1.077384471893311,0.9813701510429382,-0.3927457332611084,-0.1004162207245827,-0.277953028678894,XTrueNorthZVertical,-0.1823710448680885,-0.4360290284285062,-0.8169909623040158,-0.3303714073699208,-0.009887943044304848,-0.8329638838768005,-0.5532389879226685,0.68544602394104,-44.52190017700195,-6.281543731689453,2,192.168.1.8,10.71.35.210,1,0
2015-03-09 08:10:11.045,112,1425913810.341946,37.77934803165289,-122.4390307815023,62.86307,0,214.1015625,3,10,-9999,1425913811.011976,2.635498046875,-47.86614990234375,-4.808855056762695,183.2591552734375,169.4839782714844,10,348646.5751089584,0.915283203125,-0.3330230712890625,-0.712646484375,348646.5535544167,-0.04555709887133148,1.016386375281035,-0.03291667107337939,348646.5535544167,2.2601443982901,0.318953167725478,1.017408331417792,-0.05151889473199844,1.025829553604126,0.001308506820350885,0.3879291713237762,-0.3098957538604736,0.7213854789733887,XTrueNorthZVertical,-0.07969430052733045,-0.4940813340983531,-0.8128898484857723,-0.2978968931030311,0.1648052185773849,-0.8507487773895264,-0.4990649223327637,1.122599124908447,-44.787109375,-3.870607376098633,2,192.168.1.8,10.71.35.210,1,0
2015-03-09 08:10:11.068,113,1425913810.341946,37.77934803165289,-122.4390307815023,62.86307,0,214.1015625,3,10,-9999,1425913811.011976,2.635498046875,-47.86614990234375,-4.808855056762695,183.2591552734375,169.4839782714844,10,348646.6241583333,0.187957763671875,-0.9302825927734375,-0.328857421875,348646.6053352084,0.5084682921811227,-1.459395765764664,-0.568336153486104,348646.6053352084,2.292089368318087,0.2814921904452442,1.022800593452896,0.5025065541267395,-1.449952721595764,-0.5341113209724426,0.1143264248967171,0.04268784448504448,0.3632811009883881,XTrueNorthZVertical,-0.08822057737908222,-0.4919153338434191,-0.8150046058633454,-0.2932642791250943,0.144722044467926,-0.8535704016685486,-0.5004728436470032,0.5220332145690918,-44.77872467041016,-4.089044570922852,2,192.168.1.8,10.71.35.210,1,0
2015-03-09 08:10:11.150,114,1425913810.341946,37.77934803165289,-122.4390307815023,62.86307,0,214.1015625,3,10,-9999,1425913811.069201,2.823001861572266,-47.81515502929688,-3.826689720153809,178.8051452636719,165.0299682617188,10,348646.67320625,-0.088134765625,-1.164337158203125,-0.5476226806640625,348646.657116375,0.7849310449422484,-0.8507329617881443,-0.2747258390981761,348646.657116375,2.238340931814548,0.2630456548094331,1.034501020629149,0.7790069580078125,-0.8413019180297852,-0.2403550893068314,-0.1821610033512115,-0.2415735274553299,0.0631578117609024,XTrueNorthZVertical,-0.1113874312196554,-0.4908188615184448,-0.8035848460527053,-0.3177122778097866,0.132859855890274,-0.8596075177192688,-0.4933793842792511,1.192014694213867,-44.81433868408203,-3.51875114440918,2,192.168.1.8,10.71.35.210,1,0
2015-03-09 08:10:11.167,115,1425913810.341946,37.77934803165289,-122.4390307815023,62.86307,0,214.1015625,3,10,-9999,1425913811.141153,4.135543823242188,-47.32243347167969,-3.177461624145508,183.5973205566406,169.8221435546875,10,348646.7222416667,0.0066070556640625,-1.066909790039062,-0.3161163330078125,348646.7088973334,-0.2224905974773619,0.8634556812637798,0.3149837800324679,348646.657116375,2.238340931814548,0.2630456548094331,1.034501020629149,0.7790069580078125,-0.8413019180297852,-0.2403550893068314,-0.1821610033512115,-0.2415735274553299,0.0631578117609024,XTrueNorthZVertical,-0.1113874312196554,-0.4908188615184448,-0.8035848460527053,-0.3177122778097866,0.132859855890274,-0.8596075177192688,-0.4933793842792511,1.192014694213867,-44.81433868408203,-3.51875114440918,2,192.168.1.8,10.71.35.210,1,0
2015-03-09 08:10:11.251,116,1425913811.190882,37.77934803165289,-122.4390307815023,62.89774,0,214.1015625,3,10,-9999,1425913811.19262,4.868522644042969,-47.30543518066406,-3.027639389038086,184.1295776367188,170.3544006347656,10,348646.7713030833,0.15789794921875,-0.7244873046875,-0.4299163818359375,348646.7606782084,-1.14354379521683,2.012216609056075,-0.1111297175473715,348646.7606782084,2.273129472961117,0.3208457664687286,1.004518358885889,-1.149467825889587,2.021647453308105,-0.07675963640213013,-0.1847731918096542,0.06912339478731155,-0.1010820791125298,XTrueNorthZVertical,-0.07291954075315106,-0.490024786852406,-0.8172947215836041,-0.2942580463654167,0.1691939681768417,-0.843903660774231,-0.5091168880462646,1.271022319793701,-44.83137130737305,-3.26495361328125,2,192.168.1.8,10.71.35.210,1,0
2015-03-09 08:10:11.267,117,1425913811.190882,37.77934803165289,-122.4390307815023,62.89774,0,214.1015625,3,10,-9999,1425913811.244781,4.323055267333984,-47.40739440917969,-3.626926422119141,181.7143249511719,167.9391479492188,10,348646.820342875,0.4100189208984375,-0.7828521728515625,-0.425628662109375,348646.8124595833,-1.12495679502084,2.652337204460829,0.5625672139327743,348646.7606782084,2.273129472961117,0.3208457664687286,1.004518358885889,-1.149467825889587,2.021647453308105,-0.07675963640213013,-0.1847731918096542,0.06912339478731155,-0.1010820791125298,XTrueNorthZVertical,-0.07291954075315106,-0.490024786852406,-0.8172947215836041,-0.2942580463654167,0.1691939681768417,-0.843903660774231,-0.5091168880462646,1.271022319793701,-44.83137130737305,-3.26495361328125,2,192.168.1.8,10.71.35.210,1,0
2015-03-09 08:10:11.353,118,1425913811.190882,37.77934803165289,-122.4390307815023,62.89774,0,214.1015625,3,10,-9999,1425913811.301002,4.186687469482422,-47.47537231445312,-5.258318901062012,175.7921447753906,162.0169525146484,10,348646.8694002917,0.6834869384765625,-0.671051025390625,-0.2642059326171875,348646.8642403334,-0.6849506512984936,1.739315567936822,-0.03656413650235191,348646.8124595833,2.340536161242601,0.394434832528982,0.9649853390892924,-1.13088071346283,2.661767959594727,0.5969369411468506,0.1514764577150345,-0.06316756457090378,0.2525113523006439,XTrueNorthZVertical,-0.01756900778059681,-0.4866610478788155,-0.835366941101056,-0.2549792914947657,0.2188238352537155,-0.8220405578613281,-0.5257046818733215,1.476993560791016,-44.63101196289062,-5.293222427368164,2,192.168.1.8,10.71.35.210,1,0
2015-03-09 08:10:11.367,119,1425913811.190882,37.77934803165289,-122.4390307815023,62.89774,0,214.1015625,3,10,-9999,1425913811.301002,4.186687469482422,-47.47537231445312,-5.258318901062012,175.7921447753906,162.0169525146484,10,348646.9184300834,0.42425537109375,-1.018264770507812,-0.3737335205078125,348646.91602125,-0.9351016388057455,-0.688192783609556,0.354210278676572,348646.8642403334,2.381616812547194,0.4643841289040843,0.9230618630285978,-0.6908745169639587,1.748746156692505,-0.002194777596741915,0.3936874270439148,0.1238841041922569,0.2806316614151001,XTrueNorthZVertical,0.0305979592028301,-0.4788766920835084,-0.8471983485611622,-0.2280259805364892,0.2702377438545227,-0.7974528074264526,-0.5394817590713501,1.468031883239746,-44.2508544921875,-7.863446235656738,2,192.168.1.8,10.71.35.210,1,0
2015-03-09 08:10:11.457,120,1425913811.190882,37.77934803165289,-122.4390307815023,62.89774,0,214.1015625,3,10,-9999,1425913811.426061,3.283252716064453,-46.5748291015625,-10.43548679351807,168.0794982910156,154.3043212890625,10,348646.9674849584,0.2606201171875,-0.478363037109375,-0.692596435546875,348646.9678024583,-0.7381060150759302,-0.01790203516362165,-0.1560178303528751,348646.91602125,2.424154200362097,0.4454619490226017,0.8885055372779094,-0.94102543592453,-0.6787621974945068,0.3885793387889862,0.2583009302616119,-0.1413502246141434,-0.04966198280453682,XTrueNorthZVertical,0.03959747715909846,-0.4625083476721102,-0.8579031769792412,-0.2202730532720301,0.2716978490352631,-0.7761302590370178,-0.5690361261367798,1.809828758239746,-43.95404052734375,-9.321691513061523,2,192.168.1.8,10.71.35.210,1,0
2015-03-09 08:10:11.461,121,1425913811.190882,37.77934803165289,-122.4390307815023,62.89774,0,214.1015625,3,10,-9999,1425913811.426061,3.283252716064453,-46.5748291015625,-10.43548679351807,168.0794982910156,154.3043212890625,10,348647.0165172917,0.6360321044921875,-0.7252197265625,-0.0709991455078125,348646.9678024583,-0.7381060150759302,-0.01790203516362165,-0.1560178303528751,348646.9678024583,2.473517529172923,0.3929864136372168,0.8555371908540876,-0.7440297603607178,-0.008471550419926643,-0.1216491535305977,0.009477237239480019,0.2765602767467499,-0.08677629381418228,XTrueNorthZVertical,0.03442809563748758,-0.4426111574949249,-0.8696128094600384,-0.2160639767462575,0.2511428892612457,-0.7549233436584473,-0.6058201193809509,0.7691631317138672,-43.55436706542969,-11.16032981872559,2,192.168.1.8,10.71.35.210,1,0
2015-03-09 08:10:11.548,122,1425913811.190882,37.77934803165289,-122.4390307815023,62.89774,0,214.1015625,3,10,-9999,1425913811.532598,3.862819671630859,-46.71072387695312,-10.80172061920166,166.6664733886719,152.8912963867188,10,348647.0655927084,1.014938354492188,-0.615936279296875,-0.554931640625,348647.0713642917,1.259423793200576,-1.817507841754311,-1.255426654720476,348647.0195834167,2.467257779870632,0.4104902381414101,0.8412411192806758,0.2687427401542664,0.8568325638771057,-0.2187041342258453,0.3700441420078278,0.02025122009217739,0.5401664972305298,XTrueNorthZVertical,0.04332177672377634,-0.4387942430312589,-0.8708887222223188,-0.2171075318424169,0.2659879624843597,-0.7454709410667419,-0.6111656427383423,0.954951286315918,-43.14500427246094,-12.63818359375,2,192.168.1.8,10.71.35.210,1,0
2015-03-09 08:10:11.559,123,1425913811.190882,37.77934803165289,-122.4390307815023,62.89774,0,214.1015625,3,10,-9999,1425913811.532598,3.862819671630859,-46.71072387695312,-10.80172061920166,166.6664733886719,152.8912963867188,10,348647.1146156667,0.216827392578125,-0.7848358154296875,-0.4701995849609375,348647.0713642917,1.259423793200576,-1.817507841754311,-1.255426654720476,348647.0713642917,2.37769776228507,0.4672976625706798,0.8629614969321212,1.2535001039505,-1.808077573776245,-1.22105860710144,0.7220436930656433,0.1438351422548294,0.02555100247263908,XTrueNorthZVertical,0.04350836798767719,-0.4559229101106713,-0.8560803608132319,-0.2395156544231754,0.2928946614265442,-0.7597714066505432,-0.5804826617240906,2.210785865783691,-43.40200042724609,-11.55448341369629,2,192.168.1.8,10.71.35.210,1,0
2015-03-09 08:10:11.641,124,1425913811.190882,37.77934803165289,-122.4390307815023,62.89774,0,214.1015625,3,10,-9999,1425913811.607396,5.243545532226562,-47.37338256835938,-8.38792896270752,175.5867614746094,161.8115844726562,10,348647.1636630833,0.1154937744140625,-0.8184661865234375,-0.44219970703125,348647.1231457083,0.6909395679578638,-3.751494626421527,-0.3187564140326741,348647.1231457083,2.310128658799125,0.3739124268056059,0.9012282529000798,0.6850164532661438,-3.742064476013184,-0.2843886911869049,-0.009870467707514763,-0.0007460025954060256,0.1075644269585609,XTrueNorthZVertical,-0.01975965293209297,-0.4590507048166233,-0.841845605667826,-0.2831571889847517,0.2266978621482849,-0.7840898036956787,-0.5777640342712402,3.167677402496338,-43.86463165283203,-9.380146026611328,2,192.168.1.8,10.71.35.210,1,0
2015-03-09 08:10:11.657,125,1425913811.190882,37.77934803165289,-122.4390307815023,62.89774,0,214.1015625,3,10,-9999,1425913811.607396,5.243545532226562,-47.37338256835938,-8.38792896270752,175.5867614746094,161.8115844726562,10,348647.212686625,-0.07391357421875,-0.633209228515625,-0.57965087890625,348647.1749265,0.7554964569941476,-2.102606160666128,-0.7213451444394074,348647.1749265,2.239804947201328,0.2737638548742395,0.9261553401204388,0.7495734095573425,-2.093175888061523,-0.6869778037071228,-0.1218875348567963,-0.07026757299900055,0.06975985318422318,XTrueNorthZVertical,-0.08295698853224727,-0.4514989594799121,-0.8242956962474572,-0.3313660268083433,0.1624606549739838,-0.7993155717849731,-0.5785336494445801,2.597548484802246,-44.19263076782227,-7.898818969726562,2,192.168.1.8,10.71.35.210,1,0
2015-03-09 08:10:11.741,126,1425913811.190882,37.77934803165289,-122.4390307815023,62.89774,0,214.1015625,3,10,-9999,1425913811.711123,7.272018432617188,-47.45832824707031,-6.83976936340332,186.9080810546875,173.1329040527344,10,348647.26173825,-0.123046875,-1.2867431640625,-0.60076904296875,348647.2267075417,0.1863254025063038,-0.2448427748225059,-1.036328658155766,348647.2267075417,2.161940742542945,0.2853189271213068,0.9399216568935274,0.1804024279117584,-0.2354127913713455,-1.001961708068848,-0.1000120863318443,0.07051237672567368,-0.392399787902832,XTrueNorthZVertical,-0.09903287059564618,-0.4551814087537072,-0.8090475761323545,-0.3583914147319235,0.1660216152667999,-0.8075118660926819,-0.566004753112793,3.454539775848389,-44.32550430297852,-6.741151809692383,2,192.168.1.8,10.71.35.210,1,0
2015-03-09 08:10:11.754,127,1425913811.190882,37.77934803165289,-122.4390307815023,62.89774,0,214.1015625,3,10,-9999,1425913811.711123,7.272018432617188,-47.45832824707031,-6.83976936340332,186.9080810546875,173.1329040527344,10,348647.310764875,-0.2371978759765625,-0.7717132568359375,-0.651031494140625,348647.278488625,-1.416149758087303,-0.1194726022942627,0.6734298164228109,348647.278488625,2.167852292433361,0.2903608851904289,0.9219331008667164,-1.422072649002075,-0.1100427135825157,0.7077964544296265,-0.4504855573177338,-0.4492614567279816,-0.1320123076438904,XTrueNorthZVertical,-0.09140747188637584,-0.4496126805800402,-0.8133333690826267,-0.357745654361149,0.1730044782161713,-0.796771228313446,-0.5789862275123596,4.911293983459473,-44.24901962280273,-6.326963424682617,2,192.168.1.8,10.71.35.210,1,0
2015-03-09 08:10:11.843,128,1425913811.190882,37.77934803165289,-122.4390307815023,62.89774,0,214.1015625,3,10,-9999,1425913811.767934,7.578849792480469,-47.15251159667969,-7.905169486999512,187.1146545410156,173.3394775390625,10,348647.3598288334,0.1861572265625,-0.5853118896484375,-0.2026824951171875,348647.33026975,-2.826834975933873,1.789376871159804,0.499336046487132,348647.33026975,2.254146159934501,0.2683907539026208,0.8186337185677034,-2.832757711410522,1.798806667327881,0.5337023735046387,-0.3953333497047424,0.06769167631864548,0.1256479322910309,XTrueNorthZVertical,-0.05846545510067368,-0.4089034577168867,-0.8439622204567552,-0.3422097809843541,0.1811762601137161,-0.7302130460739136,-0.6587595343589783,3.765573024749756,-43.58058929443359,-10.42497062683105,2,192.168.1.8,10.71.35.210,1,0
2015-03-09 08:10:11.852,129,1425913811.190882,37.77934803165289,-122.4390307815023,62.89774,0,214.1015625,3,10,-9999,1425913811.841291,7.323158264160156,-45.36846923828125,-13.14892673492432,182.4754638671875,168.7002716064453,10,348647.4088536667,1.00457763671875,-0.205047607421875,-0.77008056640625,348647.3820505,-1.458302538137187,3.709062480773294,0.2759455668774323,348647.3820505,2.341489165469738,0.3455241698469578,0.718948843251129,-1.464225292205811,3.718492031097412,0.3103115260601044,0.3145943880081177,-0.0459805428981781,0.5672619938850403,XTrueNorthZVertical,0.01324266027104879,-0.3818539993042945,-0.8728871971330644,-0.3034470418014566,0.2548636198043823,-0.6585940718650818,-0.7080243229866028,3.797871589660645,-42.12944793701172,-15.25820732116699,2,192.168.1.8,10.71.35.210,1,0
2015-03-09 08:10:11.943,130,1425913811.190882,37.77934803165289,-122.4390307815023,62.89774,0,214.1015625,3,10,-9999,1425913811.892868,8.959571838378906,-44.14512634277344,-16.67806243896484,174.9062805175781,161.131103515625,10,348647.457923,0.7799835205078125,-0.52581787109375,-0.5048675537109375,348647.433831875,-1.247986048950904,0.5775909045902383,-0.5309829223527616,348647.433831875,2.350831385676416,0.4744625105494637,0.6435652585816121,-1.25390887260437,0.5870205163955688,-0.4966172575950623,0.5252305865287781,0.4161371290683746,-0.01714801602065563,XTrueNorthZVertical,0.08735106915713614,-0.3695558763001556,-0.8795896768614311,-0.2865663209460301,0.3654707372188568,-0.6000513434410095,-0.7115964889526367,6.321964263916016,-40.96205902099609,-17.44332122802734,2,192.168.1.8,10.71.35.210,1,0
2015-03-09 08:10:11.950,131,1425913811.190882,37.77934803165289,-122.4390307815023,62.89774,0,214.1015625,3,10,-9999,1425913811.945242,10.23801803588867,-43.14266967773438,-19.4247932434082,173.6112976074219,159.8361053466797,10,348647.5069555833,0.1743927001953125,-0.56903076171875,-0.5991668701171875,348647.4856126667,-1.188038026497111,-1.993348112732864,-0.5958476728110585,348647.4856126667,2.35191536284972,0.4233755439055231,0.5837420109505692,-1.193960666656494,-1.9839186668396,-0.5614823698997498,0.3191949129104614,-0.09693640470504761,0.03635365143418312,XTrueNorthZVertical,0.07752876806429791,-0.3370789476168852,-0.8875422967598076,-0.3043612255049281,0.3428076505661011,-0.5511501431465149,-0.7607341408729553,7.945654392242432,-39.39040374755859,-20.18389892578125,2,192.168.1.8,10.71.35.210,1,0
2015-03-09 08:10:12.041,132,1425913811.190882,37.77934803165289,-122.4390307815023,62.89774,0,214.1015625,3,10,-9999,1425913812.000415,10.56189346313477,-41.59649658203125,-21.93846893310547,178.5066528320312,164.7314605712891,10,348647.5560079584,0.007568359375,-0.5330810546875,-0.8730926513671875,348647.5373937917,-0.9117443844652056,0.2073627772212757,-0.6763643536279692,348647.5373937917,2.349194345235414,0.3468910513919292,0.5207848830785481,-0.9176669716835022,0.2167921811342239,-0.6419994235038757,-0.1495495289564133,-0.0001042839576257393,0.1672460436820984,XTrueNorthZVertical,0.05597457400906537,-0.2983067631846448,-0.8952066643154535,-0.3263203352545062,0.2949047386646271,-0.497561126947403,-0.8157598376274109,6.82233715057373,-38.01003265380859,-23.0395393371582,2,192.168.1.8,10.71.35.210,1,0
2015-03-09 08:10:12.050,133,1425913811.190882,37.77934803165289,-122.4390307815023,62.89774,0,214.1015625,3,10,-9999,1425913812.000415,10.56189346313477,-41.59649658203125,-21.93846893310547,178.5066528320312,164.7314605712891,10,348647.6050455417,0.653778076171875,-0.5458526611328125,-0.808746337890625,348647.5891748334,-1.257397660243244,0.7161144297423828,-0.472079125362389,348647.5373937917,2.349194345235414,0.3468910513919292,0.5207848830785481,-0.9176669716835022,0.2167921811342239,-0.6419994235038757,-0.1495495289564133,-0.0001042839576257393,0.1672460436820984,XTrueNorthZVertical,0.05597457400906537,-0.2983067631846448,-0.8952066643154535,-0.3263203352545062,0.2949047386646271,-0.497561126947403,-0.8157598376274109,6.82233715057373,-38.01003265380859,-23.0395393371582,2,192.168.1.8,10.71.35.210,1,0
2015-03-09 08:10:12.149,134,1425913811.190882,37.77934803165289,-122.4390307815023,62.89774,0,214.1015625,3,10,-9999,1425913812.125685,12.72673797607422,-36.95803833007812,-27.64833831787109,177.0744323730469,163.2992553710938,10,348647.654102,0.7202606201171875,-0.1749267578125,-0.9229736328125,348647.64095575,-1.595985569649302,-0.5316010420417689,-0.3127595078900337,348647.64095575,2.349693443532046,0.4145374056935551,0.3854148743641224,-1.601908087730408,-0.5221717953681946,-0.2783952355384827,0.08347492665052414,-0.1901727169752121,0.1505724042654037,XTrueNorthZVertical,0.1140674808084162,-0.2508174267313714,-0.9013708804467404,-0.3340804919254523,0.3732206225395203,-0.3759436011314392,-0.8481584787368774,10.42791557312012,-34.48616027832031,-26.90893173217773,2,192.168.1.8,10.71.35.210,1,0
2015-03-09 08:10:12.152,135,1425913811.190882,37.77934803165289,-122.4390307815023,62.89774,0,214.1015625,3,10,-9999,1425913812.125685,12.72673797607422,-36.95803833007812,-27.64833831787109,177.0744323730469,163.2992553710938,10,348647.7031397917,0.312042236328125,-0.425048828125,-0.8357391357421875,348647.6927367083,-1.238386418485604,0.01399304731560334,-0.5290039273467236,348647.64095575,2.349693443532046,0.4145374056935551,0.3854148743641224,-1.601908087730408,-0.5221717953681946,-0.2783952355384827,0.08347492665052414,-0.1901727169752121,0.1505724042654037,XTrueNorthZVertical,0.1140674808084162,-0.2508174267313714,-0.9013708804467404,-0.3340804919254523,0.3732206225395203,-0.3759436011314392,-0.8481584787368774,10.42791557312012,-34.48616027832031,-26.90893173217773,2,192.168.1.8,10.71.35.210,1,0
2015-03-09 08:10:12.210,136,1425913811.190882,37.77934803165289,-122.4390307815023,62.89774,0,214.1015625,3,10,-9999,1425913812.178444,13.5108528137207,-34.64727783203125,-29.7458381652832,176.819091796875,163.0439147949219,10,348647.7521924584,0.5901031494140625,-0.1295318603515625,-0.8025054931640625,348647.744518125,-0.9428740744471418,0.7122605693289292,-0.3196448445723246,348647.6927367083,2.364133721951313,0.4086268998911176,0.32273367926687,-1.244341850280762,0.02344428934156895,-0.4945190846920013,0.1403766423463821,0.02770105935633183,0.112309567630291,XTrueNorthZVertical,0.1256895313595459,-0.2214885637218141,-0.9067269140461806,-0.3361417440960959,0.3768352568149567,-0.3171602785587311,-0.8702899217605591,10.47627639770508,-32.61141204833984,-29.1353816986084,2,192.168.1.8,10.71.35.210,1,0
2015-03-09 08:10:12.259,137,1425913811.190882,37.77934803165289,-122.4390307815023,62.89774,0,214.1015625,3,10,-9999,1425913812.178444,13.5108528137207,-34.64727783203125,-29.7458381652832,176.819091796875,163.0439147949219,10,348647.801219875,0.665069580078125,-0.01971435546875,-0.8163604736328125,348647.7962989167,-0.8677159400595795,0.06769542438094217,-0.3683383482594423,348647.744518125,2.374200208462209,0.4020557090316422,0.2618684323437888,-0.9488294124603271,0.7217116951942444,-0.2851603925228119,0.1966145932674408,0.2240804433822632,-0.001358507317490876,XTrueNorthZVertical,0.1356815844405403,-0.1927381543773128,-0.9105953058955981,-0.3394977338723235,0.3779703676700592,-0.2588857412338257,-0.8888850212097168,10.86646270751953,-30.73377990722656,-30.97550582885742,2,192.168.1.8,10.71.35.210,1,0
2015-03-09 08:10:12.373,138,1425913812.305231,37.77934803165289,-122.4390307815023,62.89676,0,214.1015625,4,10,-9999,1425913812.308285,15.81206893920898,-29.83888244628906,-33.52466583251953,177.5585327148438,163.7833557128906,10,348647.85028225,0.295928955078125,-0.202667236328125,-0.72930908203125,348647.8480798334,-0.8900923521706433,-0.08321286510450687,-0.3143366318875786,348647.8480798334,2.374325403843523,0.4291846682218232,0.1660199785188947,-0.8960475921630859,-0.07376191020011902,-0.2798528373241425,-0.039680365473032,-0.03760723024606705,0.1460244655609131,XTrueNorthZVertical,0.1664675368606905,-0.1545549250261502,-0.9095301842192864,-0.3480749764753789,0.4104079008102417,-0.165258377790451,-0.8968026638031006,13.05930519104004,-27.15692520141602,-33.37788391113281,2,192.168.1.8,10.71.35.210,1,0
2015-03-09 08:10:12.375,139,1425913812.305231,37.77934803165289,-122.4390307815023,62.89676,0,214.1015625,4,10,-9999,1425913812.359045,16.15298461914062,-28.173828125,-34.82312393188477,177.2784118652344,163.5032196044922,10,348647.8993134167,0.4564361572265625,-0.029449462890625,-0.90216064453125,348647.8480798334,-0.8900923521706433,-0.08321286510450687,-0.3143366318875786,348647.8480798334,2.374325403843523,0.4291846682218232,0.1660199785188947,-0.8960475921630859,-0.07376191020011902,-0.2798528373241425,-0.039680365473032,-0.03760723024606705,0.1460244655609131,XTrueNorthZVertical,0.1664675368606905,-0.1545549250261502,-0.9095301842192864,-0.3480749764753789,0.4104079008102417,-0.165258377790451,-0.8968026638031006,13.05930519104004,-27.15692520141602,-33.37788391113281,2,192.168.1.8,10.71.35.210,1,0
2015-03-09 08:10:12.454,140,1425913812.305231,37.77934803165289,-122.4390307815023,62.89676,0,214.1015625,4,10,-9999,1425913812.410054,16.49390411376953,-26.61062622070312,-35.02288818359375,177.0389404296875,163.2637634277344,10,348647.9483664584,0.6232147216796875,0.06365966796875,-0.94512939453125,348647.9516422084,-0.8864539414893771,0.3313494375632228,-0.2465232294703459,348647.899861125,2.372346789194198,0.4434287493774237,0.1231070314211851,-0.6986574530601501,0.5574383139610291,-0.5358911156654358,0.03064404800534248,0.09334684908390045,-0.005710897967219353,XTrueNorthZVertical,0.1809343392620163,-0.1379778667114814,-0.9076132970678797,-0.3527931222285199,0.4257920980453491,-0.1227963119745255,-0.8964497447013855,13.45656394958496,-25.7061595916748,-34.35464477539062,2,192.168.1.8,10.71.35.210,1,0
2015-03-09 08:10:12.456,141,1425913812.305231,37.77934803165289,-122.4390307815023,62.89676,0,214.1015625,4,10,-9999,1425913812.410054,16.49390411376953,-26.61062622070312,-35.02288818359375,177.0389404296875,163.2637634277344,10,348647.9974049167,0.526275634765625,-0.0031280517578125,-0.755859375,348647.9516422084,-0.8864539414893771,0.3313494375632228,-0.2465232294703459,348647.9516422084,2.376966872904437,0.4498578025084997,0.07787217712530937,-0.8924090266227722,0.3408001959323883,-0.2120401710271835,0.1896950155496597,0.1414531618356705,-0.04734944552183151,XTrueNorthZVertical,0.1926215864393908,-0.1183509641803601,-0.9069863260443284,-0.3553389776204853,0.433519721031189,-0.07779349386692047,-0.8977799415588379,14.62312698364258,-23.71292114257812,-35.29856491088867,2,192.168.1.8,10.71.35.210,1,0
2015-03-09 08:10:12.509,142,1425913812.305231,37.77934803165289,-122.4390307815023,62.89676,0,214.1015625,4,10,-9999,1425913812.462062,17.31211471557617,-25.25137329101562,-35.45570373535156,177.9989624023438,164.2237854003906,10,348648.046468,0.814666748046875,0.024688720703125,-0.7040863037109375,348648.0034230417,-0.6764418516156905,0.5392525701696756,-0.1726402166127136,348648.0034230417,2.388780508120957,0.4657763524821634,0.03413789391716339,-0.6823968887329102,0.5487032532691956,-0.138157457113266,0.07742071896791458,0.03100321255624294,0.1370932161808014,XTrueNorthZVertical,0.2084957605586047,-0.1002657640105205,-0.9062016791876342,-0.3539418341572479,0.448854923248291,-0.03413126245141029,-0.892952561378479,15.30295562744141,-22.0951976776123,-36.05202865600586,2,192.168.1.8,10.71.35.210,1,0
2015-03-09 08:10:12.548,143,1425913812.305231,37.77934803165289,-122.4390307815023,62.89676,0,214.1015625,4,10,-9999,1425913812.519995,18.16440963745117,-23.21249389648438,-35.88852310180664,177.1057434082031,163.33056640625,10,348648.0954919167,0.5569305419921875,0.134552001953125,-0.8408050537109375,348648.05520425,-0.2805320629067668,-0.1519980550035095,-0.3577296460571117,348648.05520425,2.382187175002542,0.4947792826387923,0.01074682737341907,-0.2864870429039001,-0.1425474733114243,-0.3232472240924835,0.339856743812561,0.03543534129858017,0.1759364157915115,XTrueNorthZVertical,0.2254984643733114,-0.09559855932835164,-0.9009729406381277,-0.3581328373524489,0.474810004234314,-0.01074662059545517,-0.8800227046012878,16.55027389526367,-20.94463539123535,-36.18753814697266,2,192.168.1.8,10.71.35.210,1,0
2015-03-09 08:10:12.608,144,1425913812.305231,37.77934803165289,-122.4390307815023,62.89676,0,214.1015625,4,10,-9999,1425913812.591818,18.62465286254883,-21.87020874023438,-36.47116088867188,178.5677490234375,164.7925720214844,10,348648.144557875,0.4680633544921875,0.0695648193359375,-0.8546295166015625,348648.10698525,-0.4349322892135277,-0.397264006123229,-0.2411724062081587,348648.10698525,2.376174678361501,0.4708197424805702,-0.01339200204350828,-0.4408872127532959,-0.387813538312912,-0.2066903710365295,-0.04377101734280586,0.06819714605808258,0.06163379177451134,XTrueNorthZVertical,0.218794721760901,-0.08105835802278052,-0.9014671160556408,-0.3645757286588822,0.4535763263702393,0.01339160185307264,-0.8911167979240417,16.63186073303223,-19.8831787109375,-36.74462509155273,2,192.168.1.8,10.71.35.210,1,0
2015-03-09 08:10:12.644,145,1425913812.305231,37.77934803165289,-122.4390307815023,62.89676,0,214.1015625,4,10,-9999,1425913812.591818,18.62465286254883,-21.87020874023438,-36.47116088867188,178.5677490234375,164.7925720214844,10,348648.1935992917,0.732147216796875,0.1462249755859375,-0.8180694580078125,348648.1587662917,-0.2360647295534958,0.6210251977566676,-0.2195302276096298,348648.1587662917,2.378553795894858,0.4818783543639891,-0.03121575265142087,-0.2420195937156677,0.6304755806922913,-0.1850485354661942,0.09407807886600494,0.04927942901849747,0.04191376268863678,XTrueNorthZVertical,0.2270746014865826,-0.07476620830607354,-0.8997947818694293,-0.3649883572230724,0.4632186889648438,0.03121068328619003,-0.8856942653656006,16.49641990661621,-19.10115242004395,-37.21748352050781,2,192.168.1.8,10.71.35.210,4,0
