loggingTime,loggingSample,locationTimestamp_since1970,locationLatitude,locationLongitude,locationAltitude,locationSpeed,locationCourse,locationVerticalAccuracy,locationHorizontalAccuracy,locationFloor,locationHeadingTimestamp_since1970,locationHeadingX,locationHeadingY,locationHeadingZ,locationTrueHeading,locationMagneticHeading,locationHeadingAccuracy,accelerometerTimestamp_sinceReboot,accelerometerAccelerationX,accelerometerAccelerationY,accelerometerAccelerationZ,gyroTimestamp_sinceReboot,gyroRotationX,gyroRotationY,gyroRotationZ,motionTimestamp_sinceReboot,motionYaw,motionRoll,motionPitch,motionRotationRateX,motionRotationRateY,motionRotationRateZ,motionUserAccelerationX,motionUserAccelerationY,motionUserAccelerationZ,motionAttitudeReferenceFrame,motionQuaternionX,motionQuaternionY,motionQuaternionZ,motionQuaternionW,motionGravityX,motionGravityY,motionGravityZ,motionMagneticFieldX,motionMagneticFieldY,motionMagneticFieldZ,motionMagneticFieldCalibrationAccuracy,IP_en0,IP_pdp_ip0,deviceOrientation,state
2015-02-26 20:00:15.236,1,1425009615.1363,37.75989073122574,-122.4613369379479,128.3441,-1,-1,10,65,-9999,1425009615.218026,-22.55763244628906,-34.34135437011719,1.774818420410156,119.9490661621094,106.1710891723633,10,120606.454793375,-0.2176971435546875,-0.915374755859375,-0.22491455078125,120606.39741425,-0.2634526782038706,0.2859894126125572,-0.1669876571990205,120606.39741425,-2.579432529520533,-0.7996793114953106,1.343610179457575,-0.2679953277111053,0.2955931425094604,-0.1289211362600327,-0.05049604922533035,0.01441939081996679,0.004632207565009594,XTrueNorthZVertical,0.1336934198463396,0.6353251849710652,0.7598771386858109,0.03278346578187599,-0.1615248173475266,-0.9743040204048157,-0.1569759547710419,-21.41075134277344,-34.85942459106445,-1.713448047637939,2,0.0.0.0,10.83.46.32,1,0
2015-02-26 20:00:15.279,2,1425009615.1363,37.75989073122574,-122.4613369379479,128.3441,-1,-1,10,65,-9999,1425009615.269737,-22.76225280761719,-34.57923889160156,1.175727844238281,119.5038146972656,105.7258377075195,10,120606.503831,-0.113983154296875,-0.961883544921875,-0.21258544921875,120606.5009771667,-0.07460446319693474,-0.4377541747045757,0.1383983565809108,120606.4491959167,-2.619141429342846,-0.7415751012687375,1.332685191028292,-0.2641294598579407,0.2967789471149445,0.1829596906900406,-0.02882402390241623,0.002958935918286443,-0.0364886000752449,XTrueNorthZVertical,0.1263863309369019,0.6301281171782785,0.7656551468946864,0.02715308494584186,-0.1593168377876282,-0.9717852473258972,-0.1739301085472107,-22.5576343536377,-34.34131240844727,1.774797916412354,2,0.0.0.0,10.83.46.32,1,0
2015-02-26 20:00:15.306,3,1425009615.1363,37.75989073122574,-122.4613369379479,128.3441,-1,-1,10,65,-9999,1425009615.269737,-22.76225280761719,-34.57923889160156,1.175727844238281,119.5038146972656,105.7258377075195,10,120606.5530065833,-0.218658447265625,-0.9652099609375,-0.162750244140625,120606.5527584167,-0.07656694660421413,-0.5345419708335435,-0.02673440891886944,120606.5009771667,-2.59855494945353,-0.7711183850483829,1.32338350380127,-0.07914846390485764,-0.42815300822258,0.1764782667160034,0.07529493421316147,0.001592713175341487,-0.04308116436004639,XTrueNorthZVertical,0.1331423395106191,0.6280617710745054,0.7662286622822667,0.02655577030057819,-0.1706776320934296,-0.9695492386817932,-0.1756230592727661,-22.76688385009766,-34.21409606933594,1.545022487640381,2,0.0.0.0,10.83.46.32,1,0
2015-02-26 20:00:15.386,4,1425009615.1363,37.75989073122574,-122.4613369379479,128.3441,-1,-1,10,65,-9999,1425009615.373777,-22.9498291015625,-34.80014038085938,1.9578857421875,121.4061737060547,107.6281967163086,10,120606.6019002917,-0.1403045654296875,-0.9771270751953125,-0.195587158203125,120606.6045400833,-0.05023041395220253,-0.6358166607670768,-0.1526619810632662,120606.5527584167,-2.599805791313112,-0.7945725348786137,1.318038825661054,-0.08199985325336456,-0.5249361991882324,0.01116852089762688,-0.02782379277050495,0.003489583730697632,0.01109168492257595,XTrueNorthZVertical,0.1436430390388005,0.6259126911097783,0.765831172363898,0.03320600207620854,-0.1784445196390152,-0.9682264924049377,-0.175199955701828,-22.95634460449219,-34.07565307617188,1.78286075592041,2,0.0.0.0,10.83.46.32,1,0
2015-02-26 20:00:15.402,5,1425009615.1363,37.75989073122574,-122.4613369379479,128.3441,-1,-1,10,65,-9999,1425009615.373777,-22.9498291015625,-34.80014038085938,1.9578857421875,121.4061737060547,107.6281967163086,10,120606.6509256667,-0.2833404541015625,-0.9573211669921875,-0.1681976318359375,120606.6045400833,-0.05023041395220253,-0.6358166607670768,-0.1526619810632662,120606.6045400833,-2.627682659186085,-0.7972022237779898,1.319852225977437,-0.05566329881548882,-0.6262065172195435,-0.1147838160395622,0.03734366968274117,-0.00844865944236517,-0.02208412624895573,XTrueNorthZVertical,0.1529827843359848,0.624375489346179,0.7646684814728718,0.04509625413752854,-0.1776482313871384,-0.9686784148216248,-0.1735030263662338,-22.78949356079102,-34.137939453125,2.561756134033203,2,0.0.0.0,10.83.46.32,1,0
2015-02-26 20:00:15.484,6,1425009615.1363,37.75989073122574,-122.4613369379479,128.3441,-1,-1,10,65,-9999,1425009615.477421,-22.43827819824219,-35.30995178222656,2.889808654785156,124.5974731445312,110.8194961547852,10,120606.699968,-0.17449951171875,-0.9641265869140625,-0.17181396484375,120606.7081025,0.04900589248298409,0.2221630286632821,0.02488324564515536,120606.6563214583,-2.637643283017606,-0.8088560074114619,1.321515811748284,0.007763699628412724,-0.1415429562330246,0.009861228987574577,-0.1048485115170479,0.01176900696009398,0.002110708504915237,XTrueNorthZVertical,0.1601970633923468,0.6238451175989213,0.7631221208663155,0.05290407798732272,-0.1784919500350952,-0.9690901637077332,-0.1703083366155624,-22.6069507598877,-34.22935485839844,2.932491302490234,2,0.0.0.0,10.83.46.32,1,0
2015-02-26 20:00:15.501,7,1425009615.1363,37.75989073122574,-122.4613369379479,128.3441,-1,-1,10,65,-9999,1425009615.477421,-22.43827819824219,-35.30995178222656,2.889808654785156,124.5974731445312,110.8194961547852,10,120606.748989375,-0.135986328125,-0.95269775390625,-0.182708740234375,120606.7081025,0.04900589248298409,0.2221630286632821,0.02488324564515536,120606.7081025,-2.631203346285088,-0.8091605577275075,1.320695172767997,0.04357794299721718,0.2317732572555542,0.0627557560801506,0.004619776736944914,0.004760804120451212,-0.001011227141134441,XTrueNorthZVertical,0.1584747794623574,0.624086833220188,0.7634561545628997,0.05035982158745313,-0.1791192889213562,-0.9688873887062073,-0.1708027422428131,-22.57210922241211,-34.2327880859375,3.152569770812988,2,0.0.0.0,10.83.46.32,1,0
2015-02-26 20:00:15.592,8,1425009615.1363,37.75989073122574,-122.4613369379479,128.3441,-1,-1,10,65,-9999,1425009615.527928,-22.38712310791016,-35.29298400878906,2.873176574707031,124.6306610107422,110.8526840209961,10,120606.7980300833,-0.1803741455078125,-0.95379638671875,-0.1588134765625,120606.75988425,0.0508043251671146,-0.2721170064943344,0.01534007419496542,120606.75988425,-2.626745833531355,-0.8141023667227987,1.321249538240783,0.04536018893122673,-0.2624942660331726,0.05315514653921127,0.03796903789043427,0.01617410592734814,-0.007287392392754555,XTrueNorthZVertical,0.1588533880600465,0.624493590155045,0.7630470802531385,0.05032447683784404,-0.1795706003904343,-0.9690244197845459,-0.1695467084646225,-22.68622589111328,-34.16817474365234,3.032093048095703,2,0.0.0.0,10.83.46.32,1,0
2015-02-26 20:00:15.599,9,1425009615.1363,37.75989073122574,-122.4613369379479,128.3441,-1,-1,10,65,-9999,1425009615.58038,-22.65995025634766,-34.88514709472656,2.740043640136719,123.40771484375,109.6297378540039,10,120606.84705225,-0.1739044189453125,-0.960113525390625,-0.1654510498046875,120606.8116654583,0.09071312568249702,-0.3696488898318703,0.03118614899704589,120606.8116654583,-2.610022948266733,-0.8490954159846836,1.321027640309435,0.08527226746082306,-0.360026627779007,0.06900079548358917,0.002677239710465074,0.02188710495829582,0.005465618800371885,XTrueNorthZVertical,0.1670076234856266,0.6248657353103351,0.760686921068037,0.05483354213912053,-0.1855538338422775,-0.9689696431159973,-0.1633025258779526,-22.67610549926758,-34.15250015258789,3.274693965911865,2,0.0.0.0,10.83.46.32,1,0
2015-02-26 20:00:15.679,10,1425009615.1363,37.75989073122574,-122.4613369379479,128.3441,-1,-1,10,65,-9999,1425009615.632395,-22.79636383056641,-34.91912841796875,3.638687133789062,124.6299362182617,110.8519592285156,10,120606.8961024583,-0.1229400634765625,-0.9996490478515625,-0.170806884765625,120606.8634468333,0.1990720904317501,-0.2070748895074382,0.1149585442465784,120606.8634468333,-2.575438754111312,-0.8953688772654195,1.321802460351887,0.1936234831809998,-0.1974505037069321,0.1527664363384247,0.02630746364593506,0.001768884947523475,-0.01444294489920139,XTrueNorthZVertical,0.1735778577141232,0.626764043670393,0.7575355936656086,0.05636867833950029,-0.1923230886459351,-0.9691608548164368,-0.1540751159191132,-22.7125244140625,-34.07625198364258,3.777967929840088,2,0.0.0.0,10.83.46.32,1,0
2015-02-26 20:00:15.700,11,1425009615.1363,37.75989073122574,-122.4613369379479,128.3441,-1,-1,10,65,-9999,1425009615.684466,-22.71110534667969,-34.80018615722656,4.520698547363281,125.9627914428711,112.184814453125,10,120606.945134,-0.103912353515625,-0.9950103759765625,-0.1622772216796875,120606.915228375,0.2615786117447819,-0.3711397274100967,0.2669962803503301,120606.915228375,-2.522956647806007,-0.9584836501476001,1.321563006178343,0.2561095654964447,-0.3614954054355621,0.3047098517417908,0.08314990252256393,-0.04228124022483826,-0.0277080126106739,XTrueNorthZVertical,0.1809929487888196,0.6295680057139803,0.7534688716763172,0.0563061344757584,-0.201848030090332,-0.9691018462181091,-0.1417713612318039,-22.94662475585938,-33.81691360473633,4.603418827056885,2,0.0.0.0,10.83.46.32,1,0
2015-02-26 20:00:15.791,12,1425009615.1363,37.75989073122574,-122.4613369379479,128.3441,-1,-1,10,65,-9999,1425009615.735832,-23.30790710449219,-34.61328125,5.336143493652344,125.6802291870117,111.9022521972656,10,120606.9941790833,-0.1646575927734375,-0.9375,-0.10577392578125,120606.9670095833,0.3859780620556912,-0.6113320903371062,0.4489791323831507,120606.9670095833,-2.430888804066751,-1.07207638163368,1.314471656911213,0.3805038630962372,-0.6016756892204285,0.4866297543048859,0.1022240668535233,-0.001665835734456778,-0.03048615716397762,XTrueNorthZVertical,0.1963362850433255,0.6331041094660296,0.7466770192125521,0.05572002716442529,-0.2226464301347733,-0.9673283100128174,-0.1212624981999397,-23.16413307189941,-33.59061813354492,5.139667987823486,2,0.0.0.0,10.83.46.32,1,0
2015-02-26 20:00:15.922,13,1425009615.1363,37.75989073122574,-122.4613369379479,128.3441,-1,-1,10,65,-9999,1425009615.838913,-24.34808349609375,-32.45516967773438,7.6826171875,124.4541244506836,110.6761474609375,10,120607.043204375,-0.2362213134765625,-0.91937255859375,-0.01739501953125,120607.018790875,0.3660879771383254,-0.7681523311264222,0.4921164830880362,120607.018790875,-2.323259857206917,-1.211331898761402,1.298676838219969,0.3606142103672028,-0.7584959268569946,0.5297659039497375,0.06563624739646912,0.03508755192160606,0.03581622987985611,XTrueNorthZVertical,0.2182448728328055,0.6364711471015149,0.7377089054280219,0.05531064939411706,-0.2515951097011566,-0.9632033705711365,-0.09454730898141861,-23.70051956176758,-33.01614379882812,6.288241863250732,2,0.0.0.0,10.83.46.32,1,0
2015-02-26 20:00:15.925,14,1425009615.1363,37.75989073122574,-122.4613369379479,128.3441,-1,-1,10,65,-9999,1425009615.838913,-24.34808349609375,-32.45516967773438,7.6826171875,124.4541244506836,110.6761474609375,10,120607.0922444167,-0.313629150390625,-0.8889007568359375,0.016998291015625,120607.0705725417,0.3434029046569214,-0.6860683800079999,0.3689870943009856,120607.0705725417,-2.239367254307165,-1.328626031598624,1.280763548497023,0.3379301130771637,-0.6764121651649475,0.406636118888855,0.00412491662427783,0.05405969545245171,0.07308315485715866,XTrueNorthZVertical,0.2398158182069479,0.6389033313304219,0.7287826023019632,0.05627493073593175,-0.277638703584671,-0.9582344889640808,-0.06858181208372116,-24.53141403198242,-31.89649200439453,8.493893623352051,2,0.0.0.0,10.83.46.32,1,0
2015-02-26 20:00:15.928,15,1425009615.1363,37.75989073122574,-122.4613369379479,128.3441,-1,-1,10,65,-9999,1425009615.890272,-24.87669372558594,-31.96237182617188,9.429985046386719,125.0600738525391,111.282096862793,10,120607.1412654583,-0.31561279296875,-0.92437744140625,0.0388336181640625,120607.1223537917,0.461694395007734,-0.3594796092094028,0.2638968934736958,120607.1223537917,-2.161201557260214,-1.428518771832997,1.268163694092111,0.4562216699123383,-0.349823534488678,0.3015455007553101,-0.02510648220777512,0.04336133599281311,0.07978204637765884,XTrueNorthZVertical,0.2548355070021688,0.6433727710209101,0.7197335589846988,0.05580312397864678,-0.2950229048728943,-0.9545551538467407,-0.04226068407297134,-24.72435569763184,-31.52098655700684,9.298172950744629,2,0.0.0.0,10.83.46.32,1,0
2015-02-26 20:00:15.957,16,1425009615.1363,37.75989073122574,-122.4613369379479,128.3441,-1,-1,10,65,-9999,1425009615.941625,-25.14952087402344,-31.52055358886719,10.59489440917969,125.2379837036133,111.4600067138672,10,120607.190317625,-0.271331787109375,-0.9277801513671875,-0.0048370361328125,120607.1741350417,0.5399884015788645,-0.1040411816739076,0.3147986903367073,120607.1741350417,-2.075212145858566,-1.520126079572461,1.254444611013323,0.5345157384872437,-0.09438520669937134,0.3524469435214996,0.01384250074625015,0.025190569460392,0.02968812175095081,XTrueNorthZVertical,0.2641840516261952,0.6498679584726454,0.710903558798708,0.04994593275763175,-0.3107022345066071,-0.9503767490386963,-0.01575684733688831,-24.99421501159668,-30.97625732421875,10.34810256958008,2,0.0.0.0,10.83.46.32,1,0
2015-02-26 20:00:15.992,17,1425009615.1363,37.75989073122574,-122.4613369379479,128.3441,-1,-1,10,65,-9999,1425009615.941625,-25.14952087402344,-31.52055358886719,10.59489440917969,125.2379837036133,111.4600067138672,10,120607.2393380833,-0.2272796630859375,-0.8435211181640625,-0.046661376953125,120607.2259167083,0.6523921753917299,-0.1913465264255392,0.490496482196941,120607.1741350417,-2.075212145858566,-1.520126079572461,1.254444611013323,0.5345157384872437,-0.09438520669937134,0.3524469435214996,0.01384250074625015,0.025190569460392,0.02968812175095081,XTrueNorthZVertical,0.2641840516261952,0.6498679584726454,0.710903558798708,0.04994593275763175,-0.3107022345066071,-0.9503767490386963,-0.01575684733688831,-24.99421501159668,-30.97625732421875,10.34810256958008,2,0.0.0.0,10.83.46.32,1,0
2015-02-26 20:00:16.100,18,1425009615.1363,37.75989073122574,-122.4613369379479,128.3441,-1,-1,10,65,-9999,1425009616.07034,-26.54776763916016,-27.88397216796875,13.52382659912109,121.3421325683594,107.5641555786133,10,120607.288374625,-0.224700927734375,-0.7567291259765625,0.014617919921875,120607.277698,0.7166736935712995,-0.6387211042519172,0.7035048946130756,120607.277698,-1.894000998633518,-1.71736668179161,1.197545709510492,0.7112011313438416,-0.6290653347969055,0.7411524057388306,0.1428694874048233,0.1533759534358978,-0.07968311011791229,XTrueNorthZVertical,0.292397897109217,0.6641768680062315,0.6873210643941015,0.03102184563232417,-0.3607344925403595,-0.9311469197273254,0.05325488373637199,-26.35846328735352,-28.74117279052734,13.05752563476562,2,0.0.0.0,10.83.46.32,1,0
2015-02-26 20:00:16.103,19,1425009615.1363,37.75989073122574,-122.4613369379479,128.3441,-1,-1,10,65,-9999,1425009616.07034,-26.54776763916016,-27.88397216796875,13.52382659912109,121.3421325683594,107.5641555786133,10,120607.3373984583,-0.268798828125,-0.68359375,0.0964202880859375,120607.3294792083,0.7284784214191847,-0.7381614088266039,0.935957578780097,120607.277698,-1.894000998633518,-1.71736668179161,1.197545709510492,0.7112011313438416,-0.6290653347969055,0.7411524057388306,0.1428694874048233,0.1533759534358978,-0.07968311011791229,XTrueNorthZVertical,0.292397897109217,0.6641768680062315,0.6873210643941015,0.03102184563232417,-0.3607344925403595,-0.9311469197273254,0.05325488373637199,-26.35846328735352,-28.74117279052734,13.05752563476562,2,0.0.0.0,10.83.46.32,1,0
2015-02-26 20:00:16.158,20,1425009615.1363,37.75989073122574,-122.4613369379479,128.3441,-1,-1,10,65,-9999,1425009616.122148,-27.12752532958984,-26.38859558105469,15.12142944335938,120.2041854858398,106.4262084960938,10,120607.386444,-0.2413330078125,-0.5436859130859375,0.1501617431640625,120607.3812609583,0.6565541635433058,-0.63855119457437,0.8039116603473522,120607.3294792083,-1.825213553799503,-1.816171441916699,1.1464645672855,0.7230059504508972,-0.7285057306289673,0.973604679107666,0.1372794806957245,0.2018719166517258,-0.01952305994927883,XTrueNorthZVertical,0.3198481675852092,0.6691066701211328,0.6704530447101109,0.0220492908155944,-0.399379700422287,-0.911314070224762,0.1000131741166115,-26.74874877929688,-27.84149360656738,14.166090965271,2,0.0.0.0,10.83.46.32,1,0
2015-02-26 20:00:16.199,21,1425009615.1363,37.75989073122574,-122.4613369379479,128.3441,-1,-1,10,65,-9999,1425009616.173548,-27.26393890380859,-24.2474365234375,16.95200347900391,118.673583984375,104.8956069946289,10,120607.4354616667,-0.2120819091796875,-0.308135986328125,0.1025848388671875,120607.43304225,0.4006645965191512,-0.3841455409096077,0.637708037773251,120607.3812609583,-1.778954030591791,-1.892994099243659,1.092809208548604,0.6510817408561707,-0.6288955807685852,0.8415583968162537,0.1879704594612122,0.3062576055526733,-2.780022441584151e-05,XTrueNorthZVertical,0.3471694546284726,0.6725341710959578,0.6534553661529063,0.01293389430713446,-0.4363225102424622,-0.8879226446151733,0.1456576883792877,-27.75856399536133,-25.10154151916504,17.04985046386719,2,0.0.0.0,10.83.46.32,1,0
2015-02-26 20:00:16.254,22,1425009615.1363,37.75989073122574,-122.4613369379479,128.3441,-1,-1,10,65,-9999,1425009616.225426,-28.28704833984375,-22.85400390625,18.34989929199219,116.246826171875,102.4688491821289,10,120607.4844969583,-0.2171630859375,-0.252044677734375,0.0860443115234375,120607.4848234583,0.01641412706259438,-0.242493067792729,0.311894246851867,120607.43304225,-1.752872177698051,-1.939725074844921,1.047635623641264,0.3951922059059143,-0.3744900226593018,0.6753544211387634,0.2445829957723618,0.507266104221344,-0.05471367761492729,XTrueNorthZVertical,0.3678766600882343,0.6743533818543683,0.6402345618567096,0.003745376187349982,-0.4660032987594604,-0.866244375705719,0.1801714450120926,-28.20389175415039,-23.61040115356445,18.39597511291504,2,0.0.0.0,10.83.46.32,1,0
2015-02-26 20:00:16.285,23,1425009615.1363,37.75989073122574,-122.4613369379479,128.3441,-1,-1,10,65,-9999,1425009616.27726,-28.45756530761719,-21.698486328125,19.4482536315918,116.3644638061523,102.5864868164062,10,120607.5335142917,-0.3735198974609375,-0.8127288818359375,0.1718902587890625,120607.4848234583,0.01641412706259438,-0.242493067792729,0.311894246851867,120607.4848234583,-1.753023361563134,-1.954762389015597,1.022429559153512,0.01094178482890129,-0.2328376770019531,0.3495402336120605,0.266173779964447,0.6013323664665222,-0.1092328727245331,XTrueNorthZVertical,0.3806221082103443,0.6728784466249672,0.6343195805262729,-0.0003453473502899334,-0.483336865901947,-0.8533770442008972,0.1952771842479706,-28.44969177246094,-22.8495979309082,18.96927642822266,2,0.0.0.0,10.83.46.32,1,0
2015-02-26 20:00:16.391,24,1425009615.1363,37.75989073122574,-122.4613369379479,128.3441,-1,-1,10,65,-9999,1425009616.381117,-27.82666015625,-21.51156616210938,19.76445007324219,119.2134475708008,105.4354705810547,10,120607.582547875,-0.4263916015625,-0.8546142578125,0.016815185546875,120607.5883864167,-0.2164548091828063,0.02813256849116104,-0.2094906429322491,120607.5366051667,-1.776553359820711,-1.940447638778563,1.019933869855873,-0.3116560280323029,0.001473444863222539,0.03097653575241566,0.1145470887422562,0.03934452682733536,-0.01721718534827232,XTrueNorthZVertical,0.3847407679033443,0.6682277035767491,0.6367450874951923,0.001419130425087089,-0.4880669713020325,-0.8520734310150146,0.1891074478626251,-28.71832656860352,-22.19479370117188,19.33834075927734,2,0.0.0.0,10.83.46.32,1,0
2015-02-26 20:00:16.394,25,1425009615.1363,37.75989073122574,-122.4613369379479,128.3441,-1,-1,10,65,-9999,1425009616.381117,-27.82666015625,-21.51156616210938,19.76445007324219,119.2134475708008,105.4354705810547,10,120607.6315602917,-0.3987274169921875,-0.8585052490234375,0.037750244140625,120607.5883864167,-0.2164548091828063,0.02813256849116104,-0.2094906429322491,120607.5883864167,-1.800178163779259,-1.915992948359341,1.031074849689141,-0.222338005900383,0.0377836711704731,-0.1719319224357605,0.05719023570418358,0.003237589029595256,-0.1570782214403152,XTrueNorthZVertical,0.3813064837216763,0.6644938430412676,0.6426734811159942,0.004912982499674284,-0.4835818409919739,-0.8578518629074097,0.1738934069871902,-28.61771774291992,-22.67336654663086,18.92794609069824,2,0.0.0.0,10.83.46.32,1,0
2015-02-26 20:00:16.456,26,1425009615.1363,37.75989073122574,-122.4613369379479,128.3441,-1,-1,10,65,-9999,1425009616.432672,-27.40036773681641,-22.31024169921875,19.41497802734375,120.7668380737305,106.9888610839844,10,120607.68059725,-0.766265869140625,-1.179031372070312,0.187286376953125,120607.6401677083,-0.2190428691301453,-0.1207386690764864,0.09273499758208519,120607.6401677083,-1.816139125708317,-1.9030972528149,1.036475948159049,-0.2249754518270493,-0.111072264611721,0.1302616149187088,0.0826696902513504,0.002109680324792862,-0.1283788233995438,XTrueNorthZVertical,0.3807506632258856,0.6618862956635063,0.6456587983535528,0.007760339507353996,-0.4813970923423767,-0.8606149554252625,0.1661290675401688,-28.52847671508789,-22.92585945129395,18.75776290893555,2,0.0.0.0,10.83.46.32,1,0
2015-02-26 20:00:16.513,27,1425009615.1363,37.75989073122574,-122.4613369379479,128.3441,-1,-1,10,65,-9999,1425009616.432672,-27.40036773681641,-22.31024169921875,19.41497802734375,120.7668380737305,106.9888610839844,10,120607.7296165417,-0.448974609375,-1.1732177734375,0.087310791015625,120607.6919494583,-0.7760672458861376,-0.6755214631429591,-0.5503467666387277,120607.6919494583,-1.867680023949051,-1.880088580709802,1.049078274089144,-0.7819997668266296,-0.6658551096916199,-0.5128206014633179,-0.2595610320568085,-0.3300267457962036,0.00919240340590477,XTrueNorthZVertical,0.3862761011115989,0.6531760160787715,0.6509130774323839,0.02154237804243241,-0.4747224152088165,-0.8669642210006714,0.1516962647438049,-28.24458312988281,-23.43529510498047,18.55675315856934,2,0.0.0.0,10.83.46.32,1,0
2015-02-26 20:00:16.571,28,1425009615.1363,37.75989073122574,-122.4613369379479,128.3441,-1,-1,10,65,-9999,1425009616.536298,-25.37118530273438,-24.80824279785156,19.39833831787109,128.8380737304688,115.0600967407227,10,120607.7786485,-0.7451324462890625,-1.064498901367188,0.1058807373046875,120607.74373075,-0.6210598188508387,-0.2866607955233662,-0.2375142881348259,120607.74373075,-1.915885307759657,-1.861505777860194,1.084365876074291,-0.6269922852516174,-0.2769945859909058,-0.199988454580307,-0.03944604843854904,-0.3102067112922668,0.0007880374905653298,XTrueNorthZVertical,0.3847422802085817,0.64727876603234,0.6565378416575333,0.04429087976043435,-0.4478586316108704,-0.8840071558952332,0.1339928507804871,-27.119873046875,-24.7651252746582,18.50739288330078,2,0.0.0.0,10.83.46.32,1,0
2015-02-26 20:00:16.603,29,1425009615.1363,37.75989073122574,-122.4613369379479,128.3441,-1,-1,10,65,-9999,1425009616.587864,-24.62090301513672,-26.30363464355469,18.53296661376953,131.73583984375,117.9578628540039,10,120607.82765875,-0.4967041015625,-1.111038208007812,0.0371246337890625,120607.7955120417,-0.8521806561567113,-0.07572592033196711,-0.5054144453591288,120607.7955120417,-1.997166572687841,-1.798477241688138,1.107423956926121,-0.8581130504608154,-0.06605979800224304,-0.4678889214992523,-0.280464231967926,-0.1406975537538528,-0.01540927495807409,XTrueNorthZVertical,0.3826377130597201,0.635635812725557,0.6678430024271261,0.05950849459532317,-0.4354323744773865,-0.8945502638816833,0.1008890122175217,-26.80953788757324,-25.30234909057617,18.23080825805664,2,0.0.0.0,10.83.46.32,1,0
2015-02-26 20:00:16.638,30,1425009615.1363,37.75989073122574,-122.4613369379479,128.3441,-1,-1,10,65,-9999,1425009616.587864,-24.62090301513672,-26.30363464355469,18.53296661376953,131.73583984375,117.9578628540039,10,120607.87677325,-0.462066650390625,-0.99444580078125,0.00396728515625,120607.8472937083,-0.694878915842309,0.1470871859534033,-0.1137784975675643,120607.8472937083,-2.073060119858811,-1.726377506044356,1.12766034097985,-0.7008112668991089,0.156753197312355,-0.07625341415405273,-0.09448579698801041,-0.2031711637973785,-0.01802434958517551,XTrueNorthZVertical,0.3758930538990483,0.6260388608158793,0.6796417092013078,0.06976350469593919,-0.4235958755016327,-0.9034114480018616,0.06644048541784286,-26.13837814331055,-26.97963333129883,16.73938751220703,2,0.0.0.0,10.83.46.32,1,0
2015-02-26 20:00:16.683,31,1425009615.1363,37.75989073122574,-122.4613369379479,128.3441,-1,-1,10,65,-9999,1425009616.640022,-24.34806823730469,-27.93498229980469,17.70088958740234,134.3973083496094,120.6193389892578,10,120607.925712125,-0.342071533203125,-1.044906616210938,-0.0981903076171875,120607.899075,-0.7919125217398911,0.3668389885657277,0.0692222146338846,120607.899075,-2.163441207971144,-1.629095252979318,1.130580420628194,-0.7978459596633911,0.3765053749084473,0.1067454516887665,0.01432390231639147,-0.06094700843095779,-0.05205081775784492,XTrueNorthZVertical,0.3695553125840054,0.6130607142069651,0.6945783992366957,0.07173786758403543,-0.4254109263420105,-0.9046596884727478,0.02482913620769978,-26.29527282714844,-27.54684066772461,15.52587604522705,2,0.0.0.0,10.83.46.32,1,0
2015-02-26 20:00:16.737,32,1425009615.1363,37.75989073122574,-122.4613369379479,128.3441,-1,-1,10,65,-9999,1425009616.692211,-24.33102416992188,-29.34542846679688,16.51933288574219,135.6795349121094,121.9015579223633,10,120607.97486575,-0.368988037109375,-1.00115966796875,-0.191009521484375,120607.9508562917,-0.8351255062197348,0.03403147030568655,0.3773877696435316,120607.9508562917,-2.259001683348678,-1.5304965267279,1.118565437213492,-0.8410589098930359,0.04369776695966721,0.4149106740951538,0.07374928891658783,-0.2038427591323853,-0.09233440458774567,XTrueNorthZVertical,0.3674816984053109,0.5967869094263473,0.7097390135385977,0.07122612884669838,-0.4366185665130615,-0.8994745016098022,-0.01760517247021198,-26.54484176635742,-27.82869148254395,14.56907558441162,2,0.0.0.0,10.83.46.32,1,0
2015-02-26 20:00:16.781,33,1425009615.1363,37.75989073122574,-122.4613369379479,128.3441,-1,-1,10,65,-9999,1425009616.745719,-24.50154113769531,-30.1611328125,15.28785705566406,136.5139465332031,122.7359771728516,10,120608.023763,-0.5841064453125,-1.10699462890625,-0.11767578125,120608.0026380833,-0.7009589126109599,-0.591293933663132,0.6180035751838637,120607.9508562917,-2.259001683348678,-1.5304965267279,1.118565437213492,-0.8410589098930359,0.04369776695966721,0.4149106740951538,0.07374928891658783,-0.2038427591323853,-0.09233440458774567,XTrueNorthZVertical,0.3674816984053109,0.5967869094263473,0.7097390135385977,0.07122612884669838,-0.4366185665130615,-0.8994745016098022,-0.01760517247021198,-26.54484176635742,-27.82869148254395,14.56907558441162,2,0.0.0.0,10.83.46.32,1,0
2015-02-26 20:00:16.835,34,1425009615.1363,37.75989073122574,-122.4613369379479,128.3441,-1,-1,10,65,-9999,1425009616.79944,-24.68910980224609,-30.721923828125,14.40586090087891,138.1945343017578,124.4165649414062,10,120608.0729060417,-0.4995269775390625,-0.7790374755859375,0.0851593017578125,120608.0544195417,-0.6493939886365188,-0.4143548424188125,0.3541237259411444,120608.0544195417,-2.405047247360024,-1.443063582443958,1.057696732592203,-0.6553272604942322,-0.4046887457370758,0.3916458189487457,-0.1163141280412674,0.07365026324987411,-0.004012476187199354,XTrueNorthZVertical,0.3956889584769989,0.5587170094502559,0.7247418003209356,0.07755589631131972,-0.4868810474872589,-0.8712271451950073,-0.06253110617399216,-27.80541229248047,-27.4608325958252,12.80954933166504,2,0.0.0.0,10.83.46.32,1,0
2015-02-26 20:00:16.882,35,1425009615.1363,37.75989073122574,-122.4613369379479,128.3441,-1,-1,10,65,-9999,1425009616.873678,-25.11540222167969,-30.77288818359375,13.15773010253906,139.6589050292969,125.8809280395508,10,120608.1218252083,-0.86700439453125,-1.333511352539062,0.1189727783203125,120608.106200625,-0.7984910622646049,0.05098062643127785,0.2019752023360455,120608.106200625,-2.483044786833738,-1.387383390406348,1.031908388632935,-0.8044242858886719,0.06064662337303162,0.2394969314336777,-0.2657198905944824,-0.5128138661384583,0.2324523478746414,XTrueNorthZVertical,0.4036062142958526,0.5387980534588713,0.7348708343105963,0.08224099309397016,-0.5045742988586426,-0.8582798838615417,-0.09359735995531082,-27.98454284667969,-27.3884449005127,12.57223224639893,2,0.0.0.0,10.83.46.32,1,0
2015-02-26 20:00:16.933,36,1425009615.1363,37.75989073122574,-122.4613369379479,128.3441,-1,-1,10,65,-9999,1425009616.925441,-25.25181579589844,-31.3846435546875,12.4920654296875,140.8442535400391,127.0662841796875,10,120608.1708596667,-0.79376220703125,-1.201751708984375,0.1264190673828125,120608.1579825833,0.007139135934175414,0.380897549644147,-0.5759751647568873,120608.1579825833,-2.519620794424637,-1.338376026610538,1.05035848631697,0.001205949229188263,0.3905634582042694,-0.5384537577629089,-0.1257447153329849,-0.1033457219600677,0.1205170750617981,XTrueNorthZVertical,0.3906716957453771,0.5386165733070498,0.7412456039300337,0.08844665313925303,-0.4838896989822388,-0.8676015138626099,-0.1145356297492981,-27.99785614013672,-28.00128936767578,11.10722541809082,2,0.0.0.0,10.83.46.32,1,0
2015-02-26 20:00:16.983,37,1425009615.1363,37.75989073122574,-122.4613369379479,128.3441,-1,-1,10,65,-9999,1425009616.977727,-24.82553100585938,-32.1153564453125,12.40885925292969,141.5654449462891,127.7874755859375,10,120608.2198878333,-0.7436981201171875,-1.13232421875,0.0496826171875,120608.2097637083,0.4116221728242822,-1.087801969388709,-0.565311335119992,120608.1579825833,-2.519620794424637,-1.338376026610538,1.05035848631697,0.001205949229188263,0.3905634582042694,-0.5384537577629089,-0.1257447153329849,-0.1033457219600677,0.1205170750617981,XTrueNorthZVertical,0.3906716957453771,0.5386165733070498,0.7412456039300337,0.08844665313925303,-0.4838896989822388,-0.8676015138626099,-0.1145356297492981,-27.99785614013672,-28.00128936767578,11.10722541809082,2,0.0.0.0,10.83.46.32,1,0
2015-02-26 20:00:17.031,38,1425009615.1363,37.75989073122574,-122.4613369379479,128.3441,-1,-1,10,65,-9999,1425009616.977727,-24.82553100585938,-32.1153564453125,12.40885925292969,141.5654449462891,127.7874755859375,10,120608.2689424167,-1.16778564453125,-1.16876220703125,-0.1859893798828125,120608.2615450417,0.5398206224301895,1.076502176883503,-0.1700375092793792,120608.2615450417,-2.483885905983246,-1.384481189051389,1.104002642506761,0.5338875651359558,1.086167931556702,-0.1325168907642365,-0.9787224531173706,-0.2819567322731018,-0.08408766239881516,XTrueNorthZVertical,0.3839701872017071,0.5575712976109815,0.7284511679437278,0.105071794677945,-0.4422370195388794,-0.8930158019065857,-0.08336228877305984,-26.60810661315918,-28.82818603515625,12.33964157104492,2,0.0.0.0,10.83.46.32,1,0
2015-02-26 20:00:17.081,39,1425009615.1363,37.75989073122574,-122.4613369379479,128.3441,-1,-1,10,65,-9999,1425009617.031146,-23.83652496337891,-32.523193359375,12.44214630126953,142.1644134521484,128.3864440917969,10,120608.31796325,0.5464019775390625,-0.68341064453125,-0.30804443359375,120608.2615450417,0.5398206224301895,1.076502176883503,-0.1700375092793792,120608.2615450417,-2.483885905983246,-1.384481189051389,1.104002642506761,0.5338875651359558,1.086167931556702,-0.1325168907642365,-0.9787224531173706,-0.2819567322731018,-0.08408766239881516,XTrueNorthZVertical,0.3839701872017071,0.5575712976109815,0.7284511679437278,0.105071794677945,-0.4422370195388794,-0.8930158019065857,-0.08336228877305984,-26.60810661315918,-28.82818603515625,12.33964157104492,2,0.0.0.0,10.83.46.32,1,0
2015-02-26 20:00:17.129,40,1425009615.1363,37.75989073122574,-122.4613369379479,128.3441,-1,-1,10,65,-9999,1425009617.107783,-22.96687316894531,-32.64213562011719,12.32565307617188,145.8105621337891,132.0325927734375,10,120608.3670189167,-0.918182373046875,-0.9965057373046875,0.30047607421875,120608.3651082917,0.1884980093235905,-0.7515895996750014,-0.5550501754399166,120608.3133267917,-2.454695326027919,-1.376519854323755,1.109970297580144,0.02308985963463783,-0.1543385088443756,-0.3424798250198364,0.8765691518783569,0.04978398978710175,-0.2774312198162079,XTrueNorthZVertical,0.3712849048747408,0.5649977939624088,0.7307994498114756,0.09411279976572584,-0.4363225698471069,-0.8956854939460754,-0.08585002273321152,-23.84012603759766,-32.35309982299805,12.285400390625,2,0.0.0.0,10.83.46.32,1,0
2015-02-26 20:00:17.181,41,1425009615.1363,37.75989073122574,-122.4613369379479,128.3441,-1,-1,10,65,-9999,1425009617.15874,-22.59172821044922,-32.71009826660156,12.75833892822266,146.3768157958984,132.5988464355469,10,120608.416034,-0.3400421142578125,-0.9539947509765625,-0.087158203125,120608.4168894583,0.8951172045154048,1.26587077356744,0.3150514243241558,120608.3651082917,-2.464719391658456,-1.405781991157819,1.128277431460548,0.1825650483369827,-0.7419240474700928,-0.5175303220748901,-0.2512905299663544,0.08443151414394379,0.2750383913516998,XTrueNorthZVertical,0.3798291071079991,0.5661792885691587,0.7229349910481229,0.1119638513174917,-0.4224002659320831,-0.90367591381073,-0.07034172862768173,-23.03597259521484,-32.71247863769531,12.85470294952393,2,0.0.0.0,10.83.46.32,1,0
2015-02-26 20:00:17.228,42,1425009615.1363,37.75989073122574,-122.4613369379479,128.3441,-1,-1,10,65,-9999,1425009617.212396,-22.69403839111328,-32.30229187011719,13.69027709960938,145.0231628417969,131.2451934814453,10,120608.4650778333,-0.0004119873046875,-1.05572509765625,-0.0412139892578125,120608.4686713333,0.5260129311264556,-0.4422719611777861,0.1753539777635044,120608.4168894583,-2.359236568485654,-1.489732802099031,1.128499423925462,0.8891843557357788,1.275536179542542,0.3525709211826324,0.08656890690326691,-0.05022381618618965,-0.05249965935945511,XTrueNorthZVertical,0.3796244772206825,0.5818556389262446,0.7125107872777356,0.0982735592733333,-0.4266110062599182,-0.903770923614502,-0.03465854376554489,-22.36346054077148,-32.86731338500977,13.62427806854248,2,0.0.0.0,10.83.46.32,1,0
2015-02-26 20:00:17.284,43,1425009615.1363,37.75989073122574,-122.4613369379479,128.3441,-1,-1,10,65,-9999,1425009617.268289,-23.37610626220703,-31.55458068847656,14.48907470703125,143.0949554443359,129.3169860839844,10,120608.5141050417,-0.6187286376953125,-0.933929443359375,0.0551300048828125,120608.4686713333,0.5260129311264556,-0.4422719611777861,0.1753539777635044,120608.4686713333,-2.28180918046821,-1.528908504359976,1.119156385870605,0.5200800895690918,-0.4326066374778748,0.2128730863332748,0.4356468915939331,-0.1559925228357315,-0.02293774113059044,XTrueNorthZVertical,0.3735262964279182,0.5927393878997829,0.7091469436616544,0.07904921820676276,-0.4360588788986206,-0.8997325897216797,-0.01827624812722206,-23.74182891845703,-31.5246524810791,14.44048118591309,2,0.0.0.0,10.83.46.32,1,0
2015-02-26 20:00:17.325,44,1425009615.1363,37.75989073122574,-122.4613369379479,128.3441,-1,-1,10,65,-9999,1425009617.268289,-23.37610626220703,-31.55458068847656,14.48907470703125,143.0949554443359,129.3169860839844,10,120608.5632507917,-0.52716064453125,-0.6231536865234375,0.2132110595703125,120608.5722340417,0.5593261468861479,-0.01349157408234142,0.7161373329277575,120608.5204525417,-2.223003564476372,-1.600963736995753,1.100242256490947,0.5964511036872864,0.3481351435184479,0.3826234340667725,-0.1655546277761459,-0.0426122210919857,0.04145476967096329,XTrueNorthZVertical,0.3870107344498231,0.5975452359235461,0.6984343133432722,0.07315692096531945,-0.4531740248203278,-0.8913172483444214,0.01367523521184921,-23.72366714477539,-31.12039566040039,15.32038974761963,2,0.0.0.0,10.83.46.32,1,0
2015-02-26 20:00:17.381,45,1425009615.1363,37.75989073122574,-122.4613369379479,128.3441,-1,-1,10,65,-9999,1425009617.340359,-23.97291564941406,-29.260498046875,15.50421142578125,139.6663513183594,125.8883743286133,10,120608.612167875,-0.509918212890625,-0.8108673095703125,0.347747802734375,120608.5722340417,0.5593261468861479,-0.01349157408234142,0.7161373329277575,120608.5722340417,-2.164888028283519,-1.629127582882625,1.075843243344614,0.5531375408172607,-0.003831049427390099,0.7536822557449341,-0.0529780425131321,0.2568373084068298,0.1855199784040451,XTrueNorthZVertical,0.3867272750004732,0.6035623870148679,0.6952564099248837,0.05265953764245467,-0.4741826057434082,-0.8799909949302673,0.0276910811662674,-24.34813499450684,-30.28299713134766,16.00356292724609,2,0.0.0.0,10.83.46.32,1,0
2015-02-26 20:00:17.423,46,1425009615.1363,37.75989073122574,-122.4613369379479,128.3441,-1,-1,10,65,-9999,1425009617.392513,-25.09834289550781,-27.73109436035156,16.36957550048828,136.465087890625,122.6871109008789,10,120608.6613190833,-0.6351318359375,-0.9556884765625,0.163543701171875,120608.6240156667,0.6972062523189293,0.08922175547205266,0.2680482289809114,120608.6240156667,-2.106941179744602,-1.689042696412048,1.048401434523041,0.6910176873207092,0.09888216853141785,0.3055927157402039,0.002369910012930632,0.02588269859552383,0.3056394755840302,XTrueNorthZVertical,0.3981777454384208,0.6090038754400717,0.6847587332748861,0.04091799891312728,-0.4954729378223419,-0.8666267395019531,0.05886247381567955,-25.59427642822266,-28.57487297058105,17.15853500366211,2,0.0.0.0,10.83.46.32,1,0
2015-02-26 20:00:17.493,47,1425009615.1363,37.75989073122574,-122.4613369379479,128.3441,-1,-1,10,65,-9999,1425009617.445518,-26.10440063476562,-26.59254455566406,16.88547515869141,132.8309631347656,119.0529937744141,10,120608.71023075,-0.460174560546875,-0.7563323974609375,0.1893157958984375,120608.6757969583,0.5455709198558886,0.9636651067612814,0.07010345463859181,120608.6757969583,-2.046276779232774,-1.703288702105137,1.033979748306317,0.5393823981285095,0.9733254313468933,0.1076475530862808,-0.1214512437582016,-0.1131015792489052,0.06436855345964432,XTrueNorthZVertical,0.3888489330222465,0.6185272645349844,0.6825304996752056,0.0193051812261649,-0.5069209337234497,-0.859341025352478,0.06755893677473068,-26.021728515625,-27.98455619812012,17.48542404174805,2,0.0.0.0,10.83.46.32,1,0
2015-02-26 20:00:17.522,48,1425009615.1363,37.75989073122574,-122.4613369379479,128.3441,-1,-1,10,65,-9999,1425009617.497735,-26.47953796386719,-25.912841796875,16.85218811035156,130.7882995605469,117.0103302001953,10,120608.759277625,-0.5615692138671875,-0.8218231201171875,0.354156494140625,120608.7275783333,0.2829387615838714,0.3216145185145471,-0.03186791823610618,120608.7275783333,-2.004819791234662,-1.702665724408571,1.030775721324877,0.2767502665519714,0.3312747478485107,0.005675849504768848,0.01605269499123096,0.09315646439790726,0.1352302730083466,XTrueNorthZVertical,0.3767279178703636,0.6260019821290944,0.6827761212849418,0.003795413722675975,-0.5096898078918457,-0.8576980829238892,0.06760480999946594,-26.90134811401367,-27.39834976196289,17.0778694152832,2,0.0.0.0,10.83.46.32,1,0
2015-02-26 20:00:17.592,49,1425009615.1363,37.75989073122574,-122.4613369379479,128.3441,-1,-1,10,65,-9999,1425009617.573249,-27.60496520996094,-25.1651611328125,16.18653106689453,126.0497512817383,112.2717742919922,10,120608.8082975,-0.5026397705078125,-0.7217864990234375,0.2332305908203125,120608.7793602917,0.272640583964644,0.7729612011067782,-0.2964484451616254,120608.7793602917,-1.979149096101643,-1.709086889782457,1.030350520722696,0.2664521932601929,0.7826213240623474,-0.2589050829410553,-0.06387998908758163,-0.05072373524308205,0.2188532054424286,XTrueNorthZVertical,0.3709850676160503,0.6307402886946503,0.6815623346258872,-0.003097505019341993,-0.5096063613891602,-0.8574793934822083,0.07092646509408951,-27.43535995483398,-26.96487236022949,16.91751861572266,2,0.0.0.0,10.83.46.32,1,0
2015-02-26 20:00:17.619,50,1425009615.1363,37.75989073122574,-122.4613369379479,128.3441,-1,-1,10,65,-9999,1425009617.573249,-27.60496520996094,-25.1651611328125,16.18653106689453,126.0497512817383,112.2717742919922,10,120608.85744775,-0.502899169921875,-0.953948974609375,0.1960296630859375,120608.8311415,0.4362825118861979,1.349386972720107,-0.04952680679220359,120608.8311415,-1.941811123669675,-1.679962599164929,1.034035219229925,0.4300941824913025,1.359046936035156,-0.01198382768779993,0.02329553663730621,0.09682668745517731,0.136335164308548,XTrueNorthZVertical,0.3480230386908125,0.6377585271738268,0.6867159648432618,-0.02377502642697087,-0.50831139087677,-0.8593693971633911,0.05571194738149643,-27.72917556762695,-27.0074291229248,16.36145782470703,2,0.0.0.0,10.83.46.32,1,0
2015-02-26 20:00:17.687,51,1425009615.1363,37.75989073122574,-122.4613369379479,128.3441,-1,-1,10,65,-9999,1425009617.684056,-29.63413238525391,-24.808349609375,13.50721740722656,118.5634765625,104.7854995727539,10,120608.9063682917,-0.41461181640625,-1.034912109375,0.03125,120608.8829230417,0.1443814142858828,0.863160070382781,-0.2593522090734756,120608.8829230417,-1.92075581448554,-1.645136753573516,1.039564768427566,0.1381965279579163,0.8728187680244446,-0.2218095362186432,0.1201256364583969,0.004136336967349052,0.169435903429985,XTrueNorthZVertical,0.3275266940456674,0.6415132059137268,0.692511295605303,-0.04018979322668041,-0.5051964521408081,-0.8621838092803955,0.03762585669755936,-28.60224151611328,-26.79196357727051,15.16932106018066,2,0.0.0.0,10.83.46.32,1,0
2015-02-26 20:00:17.718,52,1425009615.1363,37.75989073122574,-122.4613369379479,128.3441,-1,-1,10,65,-9999,1425009617.684056,-29.63413238525391,-24.808349609375,13.50721740722656,118.5634765625,104.7854995727539,10,120608.9554064167,-0.5658721923828125,-0.9223480224609375,-0.073028564453125,120608.9347047917,-0.06401653365110671,0.5786479132268908,-0.4731971203880043,120608.9347047917,-1.910519632962967,-1.615351584727108,1.060573341177405,-0.07015835493803024,0.5882947444915771,-0.4357112348079681,0.06605803966522217,-0.07372972369194031,-0.03568361327052116,XTrueNorthZVertical,0.3071593116715162,0.6453908324755017,0.6978698497617987,-0.04584262316049007,-0.4878872632980347,-0.8726356029510498,0.02175233885645866,-28.92985725402832,-27.31543731689453,13.52537727355957,2,0.0.0.0,10.83.46.32,1,0
2015-02-26 20:00:17.786,53,1425009615.1363,37.75989073122574,-122.4613369379479,128.3441,-1,-1,10,65,-9999,1425009617.756603,-30.12863922119141,-25.67498779296875,12.35894012451172,117.6027450561523,103.8247680664062,10,120609.0044290417,-0.2931365966796875,-0.8611602783203125,-0.160919189453125,120608.986486,-0.4585300270005018,0.03697186646524304,-0.3328237635426907,120608.986486,-1.939955137779155,-1.577113911789257,1.074250560024401,-0.4646717607975006,0.04661861062049866,-0.2953382730484009,0.002901667961850762,-0.2335901111364365,-0.3447912335395813,XTrueNorthZVertical,0.2988318022396113,0.6420314365657174,0.7047325442362979,-0.04297990484577747,-0.4763818979263306,-0.8792333602905273,0.00300962314940989,-28.80163955688477,-27.69395446777344,13.01983261108398,2,0.0.0.0,10.83.46.32,1,0
2015-02-26 20:00:17.815,54,1425009615.1363,37.75989073122574,-122.4613369379479,128.3441,-1,-1,10,65,-9999,1425009617.80699,-29.70234680175781,-26.8475341796875,11.84304809570312,119.6274566650391,105.849479675293,10,120609.0535850833,-0.55712890625,-0.758880615234375,-0.407989501953125,120609.038267375,-0.6902937513935196,-0.3953689006915286,-0.06584292952668305,120609.038267375,-2.009804810324956,-1.537696186715397,1.081519117129905,-0.6964353919029236,-0.3857222497463226,-0.02835783362388611,0.125812828540802,0.4036383628845215,-0.05002844333648682,XTrueNorthZVertical,0.304799130099054,0.6319181706306892,0.7120251964950696,-0.02823257282840104,-0.4697306752204895,-0.8826727867126465,-0.01555383205413818,-28.51440048217773,-28.2735424041748,12.39119148254395,2,0.0.0.0,10.83.46.32,1,0
2015-02-26 20:00:17.884,55,1425009615.1363,37.75989073122574,-122.4613369379479,128.3441,-1,-1,10,65,-9999,1425009617.858782,-29.61708831787109,-27.54425048828125,10.76134490966797,120.5627899169922,106.7848129272461,10,120609.102498125,-0.508209228515625,-0.7653961181640625,0.002044677734375,120609.0900491667,-1.038453860705649,1.326960226864441,0.1812025458334274,120609.038267375,-2.009804810324956,-1.537696186715397,1.081519117129905,-0.6964353919029236,-0.3857222497463226,-0.02835783362388611,0.125812828540802,0.4036383628845215,-0.05002844333648682,XTrueNorthZVertical,0.304799130099054,0.6319181706306892,0.7120251964950696,-0.02823257282840104,-0.4697306752204895,-0.8826727867126465,-0.01555383205413818,-28.51440048217773,-28.2735424041748,12.39119148254395,2,0.0.0.0,10.83.46.32,1,0
2015-02-26 20:00:17.913,56,1425009615.1363,37.75989073122574,-122.4613369379479,128.3441,-1,-1,10,65,-9999,1425009617.858782,-29.61708831787109,-27.54425048828125,10.76134490966797,120.5627899169922,106.7848129272461,10,120609.151538875,-0.5215606689453125,-0.702392578125,-0.084014892578125,120609.1418307083,0.3356376595504684,-1.017502506093887,0.4128408353391024,120609.1418307083,-2.146377492320493,-1.381308787757545,1.061354973214974,0.3294960856437683,-1.007856130599976,0.4503251910209656,0.1728996932506561,0.2990882694721222,0.2633068561553955,XTrueNorthZVertical,0.2965764437257251,0.605072609572729,0.7380871466988839,-0.03401406686182227,-0.4789604842662811,-0.8730170726776123,-0.09185910224914551,-28.84147262573242,-29.22832107543945,8.937587738037109,2,0.0.0.0,10.83.46.32,1,0
2015-02-26 20:00:17.986,57,1425009615.1363,37.75989073122574,-122.4613369379479,128.3441,-1,-1,10,65,-9999,1425009617.967814,-30.28211975097656,-27.731201171875,8.980690002441406,119.4413299560547,105.6633529663086,10,120609.2005574583,-0.493011474609375,-1.2210693359375,-0.4975433349609375,120609.193612125,0.2135005645855814,0.1870766802498152,-0.4601401741955637,120609.1418307083,-2.146377492320493,-1.381308787757545,1.061354973214974,0.3294960856437683,-1.007856130599976,0.4503251910209656,0.1728996932506561,0.2990882694721222,0.2633068561553955,XTrueNorthZVertical,0.2965764437257251,0.605072609572729,0.7380871466988839,-0.03401406686182227,-0.4789604842662811,-0.8730170726776123,-0.09185910224914551,-28.84147262573242,-29.22832107543945,8.937587738037109,2,0.0.0.0,10.83.46.32,1,0
2015-02-26 20:00:18.013,58,1425009615.1363,37.75989073122574,-122.4613369379479,128.3441,-1,-1,10,65,-9999,1425009617.967814,-30.28211975097656,-27.731201171875,8.980690002441406,119.4413299560547,105.6633529663086,10,120609.2496067917,-0.5185546875,-0.88726806640625,-0.087493896484375,120609.2453937917,-0.5689404247374429,-2.414912132222521,1.395283091998206,120609.193612125,-2.115393470157036,-1.450389090654064,1.056628095263262,0.2073590606451035,0.1967230290174484,-0.4226562082767487,0.08384638279676437,-0.2521921992301941,-0.4660108387470245,XTrueNorthZVertical,0.3139026541884474,0.6098588539981232,0.7272291494177464,-0.02598285637522309,-0.4882500767707825,-0.8707020878791809,-0.05907460302114487,-29.00615119934082,-28.71854591369629,9.994696617126465,2,0.0.0.0,10.83.46.32,1,0
2015-02-26 20:00:18.108,59,1425009615.1363,37.75989073122574,-122.4613369379479,128.3441,-1,-1,10,65,-9999,1425009618.044789,-30.36738586425781,-26.89852905273438,11.39373016357422,121.8672409057617,108.0892639160156,10,120609.2986264167,-0.18646240234375,-0.5673828125,0.352264404296875,120609.2971752083,-0.1603691692579555,-1.589182258328586,0.9810542170989537,120609.2453937917,-2.122289666516162,-1.482717562334997,1.029559001106323,-0.5750818252563477,-2.405266046524048,1.432766675949097,-0.1135091632604599,-0.1839284896850586,-0.1963189244270325,XTrueNorthZVertical,0.3359158573841913,0.6037391047914009,0.7225868634107164,-0.02297602281759238,-0.5131998062133789,-0.8570718765258789,-0.04531925916671753,-28.92695999145508,-28.2982234954834,11.33345794677734,2,0.0.0.0,10.83.46.32,1,0
2015-02-26 20:00:18.113,60,1425009615.1363,37.75989073122574,-122.4613369379479,128.3441,-1,-1,10,65,-9999,1425009618.044789,-30.36738586425781,-26.89852905273438,11.39373016357422,121.8672409057617,108.0892639160156,10,120609.3476792083,-0.7366943359375,-0.537445068359375,-0.1635894775390625,120609.3489565833,1.355748465615979,-0.1955260914403096,1.854442157648184,120609.2971752083,-2.157068766154739,-1.57718627237647,0.957529125401606,-0.1665105670690536,-1.579536080360413,1.018537402153015,0.4322506487369537,0.2002792954444885,0.1665646433830261,XTrueNorthZVertical,0.4013851006237285,0.583719822242615,0.7057635912384664,-0.007678938419006492,-0.5755306482315063,-0.8177719712257385,0.003677659668028355,-29.24100494384766,-27.17816162109375,13.12694835662842,2,0.0.0.0,10.83.46.32,1,0
2015-02-26 20:00:18.155,61,1425009615.1363,37.75989073122574,-122.4613369379479,128.3441,-1,-1,10,65,-9999,1425009618.117172,-30.72547912597656,-23.48287963867188,14.63885498046875,122.6177978515625,108.8398208618164,10,120609.396709375,-0.334320068359375,-0.7728118896484375,0.2204742431640625,120609.3489565833,1.355748465615979,-0.1955260914403096,1.854442157648184,120609.3489565833,-2.106087609839541,-1.634831914111686,0.8845516679424448,1.349607110023499,-0.1858800202608109,1.891924977302551,-0.1043565422296524,0.2361859232187271,-0.2041370421648026,XTrueNorthZVertical,0.4278872743790439,0.5806774149193114,0.6917505386821012,-0.03474845543117182,-0.6323378086090088,-0.7736309766769409,0.04054756090044975,-29.50988388061523,-25.70758056640625,15.30662536621094,2,0.0.0.0,10.83.46.32,1,0
2015-02-26 20:00:18.207,62,1425009615.1363,37.75989073122574,-122.4613369379479,128.3441,-1,-1,10,65,-9999,1425009618.169217,-31.81679534912109,-19.914306640625,16.26973724365234,117.9823150634766,104.2043380737305,10,120609.4457635,-0.868743896484375,-0.75262451171875,0.1624908447265625,120609.4525198333,0.9231166149520619,-0.9735925723567698,1.553156346682539,120609.4007384583,-2.074754729138408,-1.684155200532812,0.7829347887142005,0.4772190153598785,-0.08786486834287643,2.227398872375488,0.3699769377708435,-0.06744912266731262,0.1402921825647354,XTrueNorthZVertical,0.4645960474122913,0.5694221148992671,0.6747591869241882,-0.06788998562866894,-0.7042970061302185,-0.7053627967834473,0.08018206804990768,-32.14722061157227,-20.61745834350586,17.53517723083496,2,0.0.0.0,10.83.46.32,1,0
2015-02-26 20:00:18.254,63,1425009615.1363,37.75989073122574,-122.4613369379479,128.3441,-1,-1,10,65,-9999,1425009618.223586,-33.69248962402344,-15.49603271484375,17.63434600830078,110.7097320556641,96.93175506591797,10,120609.4948003333,-0.7475128173828125,-0.6026611328125,0.117279052734375,120609.4525198333,0.9231166149520619,-0.9735925723567698,1.553156346682539,120609.4525198333,-2.015892362408849,-1.738550393714585,0.6780187591949303,0.9169754385948181,-0.9639467000961304,1.590638518333435,-0.1008596867322922,-0.1253732740879059,0.0324530340731144,XTrueNorthZVertical,0.4947347950787212,0.5659119962409662,0.6503039336998826,-0.1099360339386946,-0.7678841948509216,-0.6272512078285217,0.1300378143787384,-33.43128204345703,-18.01141357421875,17.99844932556152,2,0.0.0.0,10.83.46.32,1,0
2015-02-26 20:00:18.305,64,1425009615.1363,37.75989073122574,-122.4613369379479,128.3441,-1,-1,10,65,-9999,1425009618.300549,-35.03958892822266,-8.341888427734375,20.14723205566406,99.22259521484375,85.44461822509766,10,120609.5438674167,-1.04095458984375,-0.315765380859375,0.23779296875,120609.5043012083,0.2730994466204646,-1.210771302194246,2.672208114618346,120609.5043012083,-2.026126450629055,-1.790136202596728,0.5586459488190004,0.2669582962989807,-1.201125502586365,2.709689855575562,0.0801444798707962,-0.07262264937162399,-0.06722760200500488,XTrueNorthZVertical,0.5450836558283068,0.5432652525711199,0.6239677543781312,-0.135686984227404,-0.8276572823524475,-0.5300384759902954,0.1845066547393799,-34.07034683227539,-14.45195293426514,19.90874481201172,2,0.0.0.0,10.83.46.32,1,0
2015-02-26 20:00:18.353,65,1425009615.1363,37.75989073122574,-122.4613369379479,128.3441,-1,-1,10,65,-9999,1425009618.300549,-35.03958892822266,-8.341888427734375,20.14723205566406,99.22259521484375,85.44461822509766,10,120609.5929222083,-0.8251953125,-0.5029754638671875,0.2144927978515625,120609.55608325,0.5481291523990187,0.5415639276797554,2.046452876449589,120609.55608325,-2.021941369913724,-1.783720190639669,0.4535848689958445,0.542070746421814,0.5510868430137634,2.084040880203247,0.03626715764403343,0.08368326723575592,0.03781741112470627,XTrueNorthZVertical,0.5675716470870961,0.5223386757888197,0.6114058048389756,-0.1766570624174352,-0.8785828351974487,-0.4381907284259796,0.1899505406618118,-35.2573127746582,-7.851039886474609,21.47763252258301,2,0.0.0.0,10.83.46.32,1,0
2015-02-26 20:00:18.404,66,1425009615.1363,37.75989073122574,-122.4613369379479,128.3441,-1,-1,10,65,-9999,1425009618.375911,-35.58524322509766,-1.646575927734375,21.51184463500977,89.71477508544922,75.93679809570312,10,120609.641956625,-1.097702026367188,-0.132568359375,0.277587890625,120609.6078645,0.6270956071453943,-0.1361383980798696,1.86648284156865,120609.6078645,-2.017634182768575,-1.786954230336924,0.3447967520853847,0.6210372447967529,-0.1266155540943146,1.904070496559143,0.09587831795215607,-0.03409543260931969,0.2493929415941238,XTrueNorthZVertical,0.5923454328960537,0.5000544998970754,0.5936906930226018,-0.2158791073099605,-0.9192425608634949,-0.338005393743515,0.2018552273511887,-35.91305923461914,-5.209475517272949,21.19242858886719,2,0.0.0.0,10.83.46.32,1,0
2015-02-26 20:00:18.452,67,1425009615.1363,37.75989073122574,-122.4613369379479,128.3441,-1,-1,10,65,-9999,1425009618.429398,-35.99449157714844,2.771697998046875,21.81139373779297,81.85525512695312,68.07727813720703,10,120609.6909885,-1.30145263671875,-0.3504791259765625,0.3010101318359375,120609.6596460417,0.4331064259701694,-0.3736819809866863,1.585373405337554,120609.6596460417,-2.009437558530231,-1.808773774403322,0.250967744060678,0.4270481467247009,-0.3641592562198639,1.622960686683655,-0.1103550344705582,0.08574384450912476,0.1339674293994904,XTrueNorthZVertical,0.6167217179747843,0.4835603166127643,0.5704004386893418,-0.2459006405305418,-0.941372275352478,-0.2483415007591248,0.2283525168895721,-36.01787948608398,-1.422137260437012,21.60314178466797,2,0.0.0.0,10.83.46.32,1,0
2015-02-26 20:00:18.501,68,1425009615.1363,37.75989073122574,-122.4613369379479,128.3441,-1,-1,10,65,-9999,1425009618.47999,-35.78987884521484,6.57818603515625,22.01109313964844,75.15312194824219,61.37514877319336,10,120609.740047125,-1.228668212890625,0.014556884765625,0.3861083984375,120609.71142775,0.3411131187516713,-0.04164118680447897,1.089095200414051,120609.71142775,-1.996932290876493,-1.813335696576315,0.1829698096924879,0.3350549042224884,-0.0321185402572155,1.126682162284851,-0.009461741894483566,-0.03202339261770248,0.07821734249591827,XTrueNorthZVertical,0.6287011252628643,0.4720324544553144,0.554943859122691,-0.2719514900691747,-0.9545274972915649,-0.1819506138563156,0.2361594885587692,-35.49588012695312,3.568766593933105,22.21062850952148,2,0.0.0.0,10.83.46.32,3,0
2015-02-26 20:00:18.552,69,1425009615.1363,37.75989073122574,-122.4613369379479,128.3441,-1,-1,10,65,-9999,1425009618.532038,-35.61936187744141,9.365081787109375,21.87796401977539,69.74162292480469,55.96364974975586,10,120609.7891818333,-1.065750122070312,-0.0912017822265625,0.580047607421875,120609.7632090833,0.4582717003747642,-0.1788882588461485,0.4978699763070433,120609.7632090833,-1.994735720841664,-1.811846800949055,0.1361169471642033,0.4522135257720947,-0.1693657040596008,0.5354564785957336,-0.2800056040287018,0.04136717692017555,0.02416637353599072,XTrueNorthZVertical,0.6368193093559399,0.4612142195585087,0.5461097813501372,-0.2889753628199032,-0.9621055722236633,-0.1356970071792603,0.2365147769451141,-35.37278747558594,4.921285152435303,22.14842224121094,2,0.0.0.0,10.83.46.32,3,0
2015-02-26 20:00:18.599,70,1425009615.1363,37.75989073122574,-122.4613369379479,128.3441,-1,-1,10,65,-9999,1425009618.583307,-34.88612365722656,10.94546508789062,21.49520111083984,61.96678161621094,48.18880844116211,10,120609.8381280833,-1.024917602539062,-0.1102142333984375,0.34747314453125,120609.8149905417,0.1429688736437048,-0.2938691736458836,-0.1176057263701172,120609.8149905417,-1.993212052326432,-1.828873292418637,0.1223283879399085,0.1369107812643051,-0.2843466997146606,-0.08001956343650818,-0.3770583868026733,0.2351827025413513,0.214657336473465,XTrueNorthZVertical,0.6436683798939216,0.4608126003915961,0.5377190290531701,-0.2901741762009762,-0.9596573114395142,-0.1220235228538513,0.2533144652843475,-35.12934112548828,6.268018245697021,22.19565582275391,2,0.0.0.0,10.83.46.32,3,0
2015-02-26 20:00:18.640,71,1425009615.1363,37.75989073122574,-122.4613369379479,128.3441,-1,-1,10,65,-9999,1425009618.635824,-34.7838134765625,11.18338012695312,21.89460372924805,61.46474075317383,47.686767578125,10,120609.8871673333,-1.068954467773438,-0.0274810791015625,0.3679962158203125,120609.8667725417,0.03119041005479002,-0.338751427496989,-0.5994397444893574,120609.8149905417,-1.993212052326432,-1.828873292418637,0.1223283879399085,0.1369107812643051,-0.2843466997146606,-0.08001956343650818,-0.3770583868026733,0.2351827025413513,0.214657336473465,XTrueNorthZVertical,0.6436683798939216,0.4608126003915961,0.5377190290531701,-0.2901741762009762,-0.9596573114395142,-0.1220235228538513,0.2533144652843475,-35.12934112548828,6.268018245697021,22.19565582275391,2,0.0.0.0,10.83.46.32,3,0
2015-02-26 20:00:18.698,72,1425009615.1363,37.75989073122574,-122.4613369379479,128.3441,-1,-1,10,65,-9999,1425009618.68733,-34.42573547363281,9.80694580078125,22.11094284057617,63.2308464050293,49.45287322998047,10,120609.936219875,-1.090408325195312,-0.324127197265625,0.394195556640625,120609.9185538333,-0.1438474504873219,-0.2646377848889559,-0.905575970748364,120609.9185538333,-1.970731872215988,-1.858724063464302,0.1732883883814632,-0.1499054133892059,-0.2551155090332031,-0.8679906129837036,-0.260695606470108,-0.02499579824507236,0.1384999305009842,XTrueNorthZVertical,0.6366959706856192,0.4842259020480972,0.5351467510689888,-0.2715907108379074,-0.9444741010665894,-0.1724224090576172,0.279712975025177,-34.67581176757812,5.650448799133301,23.05789184570312,2,0.0.0.0,10.83.46.32,3,0
2015-02-26 20:00:18.737,73,1425009615.1363,37.75989073122574,-122.4613369379479,128.3441,-1,-1,10,65,-9999,1425009618.68733,-34.42573547363281,9.80694580078125,22.11094284057617,63.2308464050293,49.45287322998047,10,120609.9853500417,-0.9955902099609375,-0.1361083984375,0.406341552734375,120609.9703352083,-0.3427059553996477,-0.2779951356523573,-0.8718550250257807,120609.9703352083,-1.971738259786627,-1.861903795777609,0.2239336027012821,-0.3487638831138611,-0.2684729695320129,-0.8342700004577637,0.1159849613904953,0.0618036575615406,0.02415386214852333,XTrueNorthZVertical,0.6278040522826456,0.495767655304074,0.5441806016065863,-0.2528715472757149,-0.9340086579322815,-0.2220667153596878,0.2798469960689545,-34.54010391235352,4.1810302734375,23.56917572021484,2,0.0.0.0,10.83.46.32,3,0
2015-02-26 20:00:18.795,74,1425009615.1363,37.75989073122574,-122.4613369379479,128.3441,-1,-1,10,65,-9999,1425009618.790644,-33.57315826416016,5.79656982421875,23.80839157104492,72.31977844238281,58.54180526733398,10,120610.0343024583,-0.8787078857421875,-0.40045166015625,0.3390350341796875,120610.0221171667,-0.3980475081159303,-0.3125832066258704,-1.345488104884231,120610.0221171667,-1.973324949961745,-1.882955204934434,0.2829269380464297,-0.4041053652763367,-0.3030611276626587,-1.307903409004211,-0.1461761742830276,-0.05527472868561745,0.08565038442611694,XTrueNorthZVertical,0.6218810692565494,0.5106034117273108,0.5489531581168673,-0.22627099796706,-0.913836658000946,-0.2791674137115479,0.2949038147926331,-34.24677658081055,0.9101028442382812,24.33794593811035,2,0.0.0.0,10.83.46.32,3,0
2015-02-26 20:00:18.835,75,1425009615.1363,37.75989073122574,-122.4613369379479,128.3441,-1,-1,10,65,-9999,1425009618.790644,-33.57315826416016,5.79656982421875,23.80839157104492,72.31977844238281,58.54180526733398,10,120610.08343625,-1.074066162109375,-0.2122955322265625,0.263885498046875,120610.0738987083,-0.6525791293002535,0.1431145485553321,-1.286812540799278,120610.0221171667,-1.973324949961745,-1.882955204934434,0.2829269380464297,-0.4041053652763367,-0.3030611276626587,-1.307903409004211,-0.1461761742830276,-0.05527472868561745,0.08565038442611694,XTrueNorthZVertical,0.6218810692565494,0.5106034117273108,0.5489531581168673,-0.22627099796706,-0.913836658000946,-0.2791674137115479,0.2949038147926331,-34.24677658081055,0.9101028442382812,24.33794593811035,2,0.0.0.0,10.83.46.32,3,0
2015-02-26 20:00:18.895,76,1425009615.1363,37.75989073122574,-122.4613369379479,128.3441,-1,-1,10,65,-9999,1425009618.843336,-33.69252014160156,3.060638427734375,24.29099655151367,77.78632354736328,64.00834655761719,10,120610.132481875,-0.8255462646484375,-0.4010162353515625,0.535888671875,120610.12568,-0.7230871181084283,0.2196953435972147,-1.341217193444071,120610.12568,-1.988364282999942,-1.871194065254254,0.4183334935242908,-0.7291448712348938,0.2292172312736511,-1.303633332252502,0.1153556704521179,-0.1718104928731918,0.2528094947338104,XTrueNorthZVertical,0.5929262063877144,0.5325696694291321,0.5776871586773914,-0.1763112315673376,-0.8728477358818054,-0.4062382280826569,0.2703838646411896,-33.79319381713867,2.272433280944824,24.14576721191406,2,0.0.0.0,10.83.46.32,3,0
2015-02-26 20:00:18.936,77,1425009615.1363,37.75989073122574,-122.4613369379479,128.3441,-1,-1,10,65,-9999,1425009618.895657,-33.77777099609375,0.154815673828125,24.5073356628418,84.36313629150391,70.58515930175781,10,120610.1814057917,-0.84136962890625,-0.738800048828125,0.284423828125,120610.12568,-0.7230871181084283,0.2196953435972147,-1.341217193444071,120610.12568,-1.988364282999942,-1.871194065254254,0.4183334935242908,-0.7291448712348938,0.2292172312736511,-1.303633332252502,0.1153556704521179,-0.1718104928731918,0.2528094947338104,XTrueNorthZVertical,0.5929262063877144,0.5325696694291321,0.5776871586773914,-0.1763112315673376,-0.8728477358818054,-0.4062382280826569,0.2703838646411896,-33.79319381713867,2.272433280944824,24.14576721191406,2,0.0.0.0,10.83.46.32,3,0
2015-02-26 20:00:18.992,78,1425009615.1363,37.75989073122574,-122.4613369379479,128.3441,-1,-1,10,65,-9999,1425009618.945755,-33.88008117675781,-3.005950927734375,24.20778656005859,89.89854431152344,76.12056732177734,10,120610.2305537917,-0.89556884765625,-0.4993438720703125,0.1104888916015625,120610.2292432917,-0.7212053284821783,0.07746017083382671,-1.703369551123477,120610.1774620417,-1.996400668393851,-1.865311310084742,0.4963231138031273,-0.3189151883125305,-0.007889683358371258,-1.634766459465027,-0.03245408833026886,-0.06037978455424309,-0.05169868096709251,XTrueNorthZVertical,0.5751330177256709,0.5448371094412163,0.5922406803782264,-0.1470562997541063,-0.8414778113365173,-0.4761955440044403,0.2552509307861328,-34.06137847900391,-2.342586517333984,23.75914001464844,2,0.0.0.0,10.83.46.32,3,0
2015-02-26 20:00:19.031,79,1425009615.1363,37.75989073122574,-122.4613369379479,128.3441,-1,-1,10,65,-9999,1425009618.997905,-33.28326416015625,-6.11572265625,23.69189453125,96.08344268798828,82.30546569824219,10,120610.2795785,-0.7163543701171875,-0.7310791015625,0.3905029296875,120610.281024875,-0.9532915616832047,0.6416868004418294,-2.013213430252092,120610.2292432917,-2.003184423166018,-1.859075501356369,0.5857519496088563,-0.7272629141807556,0.0869818702340126,-1.665786385536194,-0.08324606716632843,0.06390401721000671,0.06126338988542557,XTrueNorthZVertical,0.5531710100572916,0.5589777614058891,0.6071196634428251,-0.1138044500081555,-0.7989103198051453,-0.5528261065483093,0.2369086146354675,-33.88474655151367,-4.335578918457031,23.73159790039062,2,0.0.0.0,10.83.46.32,3,0
2015-02-26 20:00:19.091,80,1425009615.1363,37.75989073122574,-122.4613369379479,128.3441,-1,-1,10,65,-9999,1425009619.048488,-32.05552673339844,-10.0921630859375,23.3923454284668,103.3454437255859,89.56746673583984,10,120610.328520375,-0.5994720458984375,-0.8449859619140625,0.2354278564453125,120610.281024875,-0.9532915616832047,0.6416868004418294,-2.013213430252092,120610.281024875,-2.018151331271717,-1.83463971604022,0.6807317834894158,-0.9593490958213806,0.6512084007263184,-1.975630640983582,0.03386592119932175,-0.1017172336578369,0.1878375560045242,XTrueNorthZVertical,0.5253217182798841,0.5704119375355076,0.6261945789675852,-0.08091789534335592,-0.7502202987670898,-0.6293618679046631,0.2026653736829758,-33.54230117797852,-7.611000061035156,23.39121246337891,2,0.0.0.0,10.83.46.32,3,0
2015-02-26 20:00:19.132,81,1425009615.1363,37.75989073122574,-122.4613369379479,128.3441,-1,-1,10,65,-9999,1425009619.102027,-30.93011474609375,-14.71429443359375,22.22743988037109,110.859748840332,97.08177185058594,10,120610.3775393333,-0.566925048828125,-0.6441802978515625,-0.04559326171875,120610.3328067917,-0.8477246550207908,0.2463424008323295,-2.052350979315788,120610.3328067917,-2.032298984069738,-1.800972423561878,0.7883079048614551,-0.8537821769714355,0.2558639049530029,-2.014768600463867,0.08697959035634995,-0.1358246803283691,0.07457225024700165,XTrueNorthZVertical,0.4894324577042152,0.5838524415164829,0.6460900494055873,-0.04625890870600972,-0.6864516139030457,-0.7091612815856934,0.1608556061983109,-32.78142547607422,-13.70866870880127,21.62434768676758,2,0.0.0.0,10.83.46.32,3,0
2015-02-26 20:00:19.188,82,1425009615.1363,37.75989073122574,-122.4613369379479,128.3441,-1,-1,10,65,-9999,1425009619.152447,-29.27608489990234,-19.01359558105469,20.2470817565918,118.1937713623047,104.4157943725586,10,120610.4266985833,-0.3608245849609375,-0.7657470703125,-0.1998443603515625,120610.436369625,-1.182908778237619,0.81822561857431,-2.17382894191088,120610.3845880417,-2.061108337024544,-1.75779270959622,0.9093123463774387,-0.5719597339630127,0.5258095264434814,-2.386606454849243,0.03665468469262123,0.1449012160301208,-0.1597947180271149,XTrueNorthZVertical,0.4491752996113085,0.5961059299978767,0.6654894122441961,-0.004811998136311306,-0.6035797595977783,-0.7890815138816833,0.1142014563083649,-31.98957061767578,-16.39943695068359,20.92577171325684,2,0.0.0.0,10.83.46.32,3,0
2015-02-26 20:00:19.228,83,1425009615.1363,37.75989073122574,-122.4613369379479,128.3441,-1,-1,10,65,-9999,1425009619.204798,-26.99113464355469,-24.14555358886719,18.58292388916016,126.3448944091797,112.5669174194336,10,120610.4757216667,-0.3575897216796875,-0.3240509033203125,0.17083740234375,120610.436369625,-1.182908778237619,0.81822561857431,-2.17382894191088,120610.436369625,-2.098806762582037,-1.693865332933483,1.042700824177054,-1.188966155052185,0.8277469277381897,-2.136247158050537,0.1392535865306854,0.09802122414112091,-0.2617011070251465,XTrueNorthZVertical,0.3990871810569641,0.6096374234789227,0.6838589800527038,0.03753094597787647,-0.5000781416893005,-0.8637682795524597,0.06185673177242279,-30.45838165283203,-20.43741989135742,19.61531639099121,2,0.0.0.0,10.83.46.32,3,0
2015-02-26 20:00:19.287,84,1425009615.1363,37.75989073122574,-122.4613369379479,128.3441,-1,-1,10,65,-9999,1425009619.256642,-24.79145050048828,-28.41082763671875,16.96867370605469,132.9752197265625,119.1972427368164,10,120610.524663625,-0.799713134765625,-0.65289306640625,-0.039276123046875,120610.488151375,-0.257618224887725,0.8005065425775768,-1.543865909219797,120610.488151375,-2.161838425893858,-1.600553789596485,1.134551159874111,-0.2636755108833313,0.8100277781486511,-1.506284713745117,0.05983400344848633,0.4358856379985809,0.1637587249279022,XTrueNorthZVertical,0.357890202900622,0.6149801011642431,0.6997426022947227,0.06383111363833281,-0.4223523139953613,-0.9063445925712585,0.0125718442723155,-27.6148796081543,-26.38690567016602,16.47153282165527,2,0.0.0.0,10.83.46.32,3,0
2015-02-26 20:00:19.326,85,1425009615.1363,37.75989073122574,-122.4613369379479,128.3441,-1,-1,10,65,-9999,1425009619.309001,-23.20563507080078,-30.806884765625,15.886962890625,136.4346160888672,122.6566467285156,10,120610.5737374167,-0.416656494140625,-0.8677978515625,-0.0601348876953125,120610.5399330417,-0.303157480579753,-0.7988804164159744,0.3436385944133935,120610.5399330417,-2.170716093888183,-1.60732826704329,1.159122938801491,-0.309373140335083,-0.7893370389938354,0.3812424540519714,-0.254511833190918,0.2530766427516937,0.02762155793607235,XTrueNorthZVertical,0.3553972969577575,0.6172520929807095,0.6976019983436591,0.07774387196247234,-0.399876594543457,-0.9164525270462036,0.01461477018892765,-26.8775749206543,-27.41384506225586,16.0074634552002,2,0.0.0.0,10.83.46.32,3,0
2015-02-26 20:00:19.386,86,1425009615.1363,37.75989073122574,-122.4613369379479,128.3441,-1,-1,10,65,-9999,1425009619.360429,-22.74523162841797,-31.53756713867188,15.70390319824219,138.3086853027344,124.5307159423828,10,120610.6228315833,-0.4738311767578125,-1.006668090820312,-0.1221466064453125,120610.5917144583,0.5988541153656489,1.222905729385083,-0.5787219491051949,120610.5917144583,-2.127999990941429,-1.635170974379724,1.14162908241457,0.5926385521888733,1.232449054718018,-0.5411184430122375,0.02622907981276512,-0.09431900829076767,-0.2326555252075195,XTrueNorthZVertical,0.3573043868265976,0.6210619264726749,0.6945193853628128,0.0652573726908382,-0.4152519106864929,-0.9093126058578491,0.02676868252456188,-26.59993743896484,-27.3154125213623,16.62748908996582,2,0.0.0.0,10.83.46.32,3,0
2015-02-26 20:00:19.424,87,1425009615.1363,37.75989073122574,-122.4613369379479,128.3441,-1,-1,10,65,-9999,1425009619.413325,-23.58077239990234,-30.67091369628906,16.15322875976562,135.9595031738281,122.1815338134766,10,120610.6718506667,-0.3259429931640625,-0.4852142333984375,0.1823883056640625,120610.6434962083,-0.1346693984225819,-0.9790411336309628,0.9276858004343108,120610.6434962083,-2.148395312859742,-1.604828206969005,1.108751570841676,-0.1408849209547043,-0.9694979786872864,0.9652888774871826,0.2265424877405167,0.2241833806037903,-0.08192498981952667,XTrueNorthZVertical,0.3631985600537513,0.6129198143769191,0.6998483632422786,0.05126810198241852,-0.445521354675293,-0.8951428532600403,0.01516778580844402,-28.00080490112305,-26.32258415222168,15.91346263885498,2,0.0.0.0,10.83.46.32,3,0
2015-02-26 20:00:19.483,88,1425009615.1363,37.75989073122574,-122.4613369379479,128.3441,-1,-1,10,65,-9999,1425009619.467502,-24.84261322021484,-29.00558471679688,16.88545989990234,134.3497467041016,120.57177734375,10,120610.7207859583,-0.513336181640625,-0.84185791015625,-0.086456298828125,120610.6952776667,0.3087613041454977,-1.695764894630756,1.889301604736776,120610.6952776667,-2.134632683376058,-1.670406149521295,1.053086401924455,0.3025458455085754,-1.686221837997437,1.926904201507568,-0.2149743139743805,0.193432942032814,0.02833058498799801,XTrueNorthZVertical,0.3987599061170681,0.6046468617862109,0.6879197962336953,0.04646618609393887,-0.492438405752182,-0.8689547777175903,0.04921457916498184,-28.19483184814453,-25.62798118591309,16.68592071533203,2,0.0.0.0,10.83.46.32,3,0
2015-02-26 20:00:19.521,89,1425009615.1363,37.75989073122574,-122.4613369379479,128.3441,-1,-1,10,65,-9999,1425009619.467502,-24.84261322021484,-29.00558471679688,16.88545989990234,134.3497467041016,120.57177734375,10,120610.7698817917,-0.592742919921875,-0.994415283203125,0.0514373779296875,120610.747059125,0.4748565360632326,1.219700881329281,1.492475688612865,120610.747059125,-2.111606689330382,-1.711891211139115,0.9677946721902485,0.4686411321163177,1.229243755340576,1.530077934265137,0.2395670413970947,0.2440777122974396,-0.08843438327312469,XTrueNorthZVertical,0.4315785828549933,0.5946561966376132,0.6780300141779462,0.01998192157799591,-0.5614817142486572,-0.8236370086669922,0.07975213229656219,-28.86845016479492,-23.35224723815918,18.74691581726074,2,0.0.0.0,10.83.46.32,3,0
2015-02-26 20:00:19.582,90,1425009615.1363,37.75989073122574,-122.4613369379479,128.3441,-1,-1,10,65,-9999,1425009619.542711,-27.14461517333984,-25.18209838867188,17.73418426513672,128.1486053466797,114.3706283569336,10,120610.81885525,-0.142852783203125,-0.6831512451171875,0.1183013916015625,120610.7988410417,0.6417552436818444,0.472751573537634,1.821728419449869,120610.7988410417,-2.084375668049872,-1.684756423908783,0.8701955562538671,0.6355398893356323,0.4822944402694702,1.859330296516418,0.2203599810600281,0.1115772128105164,-0.1485649049282074,XTrueNorthZVertical,0.4428287710732585,0.5835725799726784,0.6799021735802672,-0.03284509810212748,-0.6404954791069031,-0.7644550204277039,0.0733085498213768,-29.02478981018066,-23.91656494140625,16.90509033203125,2,0.0.0.0,10.83.46.32,3,0
2015-02-26 20:00:19.620,91,1425009615.1363,37.75989073122574,-122.4613369379479,128.3441,-1,-1,10,65,-9999,1425009619.59436,-29.9752197265625,-21.443603515625,17.63432312011719,122.8690948486328,109.0911178588867,10,120610.867919125,-0.4330291748046875,-0.639404296875,0.1714324951171875,120610.8506226667,0.5185451611137645,-1.437783148254235,2.094027852478873,120610.8506226667,-2.059575609344587,-1.71495080356515,0.760025306560549,0.5123277902603149,-1.428239107131958,2.13162636756897,0.1150209605693817,0.05077145248651505,-0.2219069451093674,XTrueNorthZVertical,0.4769577145316818,0.5697135361888339,0.6653420772333796,-0.07251060742699052,-0.7173005938529968,-0.6889398097991943,0.1041243523359299,-30.64237976074219,-21.80588912963867,16.90474700927734,2,0.0.0.0,10.83.46.32,3,0
2015-02-26 20:00:19.682,92,1425009615.1363,37.75989073122574,-122.4613369379479,128.3441,-1,-1,10,65,-9999,1425009619.645664,-32.07259368896484,-17.58612060546875,19.04885864257812,116.1387100219727,102.3607330322266,10,120610.9169196667,-0.5939178466796875,-0.5813446044921875,0.326019287109375,120610.9024039167,0.6093781290453151,-1.215375907718993,2.236258497868409,120610.9024039167,-2.043549870317148,-1.787061815652457,0.6451826619935527,0.6031607985496521,-1.20583188533783,2.27385687828064,-0.1005881577730179,-0.1631819754838943,-0.1924157291650772,XTrueNorthZVertical,0.5267955191313125,0.5551680468673905,0.6359185104310446,-0.09941132504151622,-0.7803780436515808,-0.6013444066047668,0.1714501529932022,-31.85588645935059,-18.29264831542969,18.72976684570312,2,0.0.0.0,10.83.46.32,3,0
2015-02-26 20:00:19.718,93,1425009615.1363,37.75989073122574,-122.4613369379479,128.3441,-1,-1,10,65,-9999,1425009619.699588,-33.21506500244141,-13.18484497070312,20.92936706542969,109.0212173461914,95.24324035644531,10,120610.9660564583,-0.7110748291015625,-0.628753662109375,0.3910369873046875,120610.9541860417,0.2883313964751729,-0.3423658697284446,2.146295850981096,120610.9024039167,-2.043549870317148,-1.787061815652457,0.6451826619935527,0.6031607985496521,-1.20583188533783,2.27385687828064,-0.1005881577730179,-0.1631819754838943,-0.1924157291650772,XTrueNorthZVertical,0.5267955191313125,0.5551680468673905,0.6359185104310446,-0.09941132504151622,-0.7803780436515808,-0.6013444066047668,0.1714501529932022,-31.85588645935059,-18.29264831542969,18.72976684570312,2,0.0.0.0,10.83.46.32,3,0
2015-02-26 20:00:19.782,94,1425009615.1363,37.75989073122574,-122.4613369379479,128.3441,-1,-1,10,65,-9999,1425009619.774959,-34.86909484863281,-6.234649658203125,21.84465789794922,98.34853363037109,84.570556640625,10,120611.0149895833,-0.958160400390625,-0.28271484375,0.3350372314453125,120611.0059673333,0.5726981450355447,0.347557968589663,2.118582730361622,120611.0059673333,-2.060020692841667,-1.770252238482368,0.4197013670321205,0.5664809942245483,0.3571017384529114,2.156180143356323,-0.1395773440599442,0.1518267393112183,0.06013363599777222,XTrueNorthZVertical,0.581087398946908,0.5027995840476482,0.6139341915110854,-0.1805958589087538,-0.8951058983802795,-0.4074877500534058,0.1809399724006653,-34.08186721801758,-9.602078437805176,21.12933921813965,2,0.0.0.0,10.83.46.32,3,0
2015-02-26 20:00:19.816,95,1425009615.1363,37.75989073122574,-122.4613369379479,128.3441,-1,-1,10,65,-9999,1425009619.774959,-34.86909484863281,-6.234649658203125,21.84465789794922,98.34853363037109,84.570556640625,10,120611.0640080417,-0.872955322265625,-0.335723876953125,0.305908203125,120611.05774875,1.066172840279521,-0.886182565374298,1.385559890858326,120611.0059673333,-2.060020692841667,-1.770252238482368,0.4197013670321205,0.5664809942245483,0.3571017384529114,2.156180143356323,-0.1395773440599442,0.1518267393112183,0.06013363599777222,XTrueNorthZVertical,0.581087398946908,0.5027995840476482,0.6139341915110854,-0.1805958589087538,-0.8951058983802795,-0.4074877500534058,0.1809399724006653,-34.08186721801758,-9.602078437805176,21.12933921813965,2,0.0.0.0,10.83.46.32,3,0
2015-02-26 20:00:19.881,96,1425009615.1363,37.75989073122574,-122.4613369379479,128.3441,-1,-1,10,65,-9999,1425009619.827842,-35.80693054199219,-1.833404541015625,21.99442672729492,90.05059051513672,76.27261352539062,10,120611.1130435833,-1.156036376953125,-0.290435791015625,0.52056884765625,120611.10953075,0.4882708784739617,-0.8251865890315592,0.8982195208692382,120611.05774875,-2.040288507138597,-1.790220508721525,0.3306429078930175,1.059955716133118,-0.8766388893127441,1.423157095909119,-0.07862971723079681,0.006139216478914022,-0.07758153229951859,XTrueNorthZVertical,0.6020180619478637,0.4904212170177357,0.5929061531120718,-0.2133626473494317,-0.9231555461883545,-0.3246511816978455,0.2058774381875992,-35.25218200683594,-5.837608337402344,20.57737731933594,2,0.0.0.0,10.83.46.32,3,0
2015-02-26 20:00:19.914,97,1425009615.1363,37.75989073122574,-122.4613369379479,128.3441,-1,-1,10,65,-9999,1425009619.879355,-35.67051696777344,2.346954345703125,22.59352874755859,82.09097290039062,68.31299591064453,10,120611.1620616667,-1.207550048828125,-0.3218841552734375,0.374725341796875,120611.10953075,0.4882708784739617,-0.8251865890315592,0.8982195208692382,120611.10953075,-2.013969251635774,-1.85251442623214,0.2611101183341763,0.4820538461208344,-0.8156430125236511,0.9358163475990295,-0.3203173279762268,-0.1580760478973389,0.1584951132535934,XTrueNorthZVertical,0.6281016332979781,0.4896732649818383,0.559128718919236,-0.2303986766127473,-0.9280194640159607,-0.2581532001495361,0.2685831487178802,-34.31293869018555,-0.7491083145141602,22.85352516174316,2,0.0.0.0,10.83.46.32,3,0
2015-02-26 20:00:19.984,98,1425009615.1363,37.75989073122574,-122.4613369379479,128.3441,-1,-1,10,65,-9999,1425009619.931169,-35.09074401855469,5.13385009765625,23.32575988769531,77.06328582763672,63.28531265258789,10,120611.2110984167,-1.049407958984375,-0.09136962890625,0.3155975341796875,120611.213093625,0.1692843673231048,-0.5569575314126314,0.1103896250804385,120611.1613122917,-2.015995467261316,-1.83645316678483,0.2111387244633443,0.1441107392311096,0.7942742705345154,0.6902812719345093,-0.3682295680046082,0.01456614769995213,0.05668745189905167,XTrueNorthZVertical,0.6341013344516174,0.4756804662101253,0.5553851944477315,-0.2513780423899117,-0.9434922337532043,-0.2095734775066376,0.2567128241062164,-34.04632949829102,0.573760986328125,23.25383758544922,2,0.0.0.0,10.83.46.32,3,0
2015-02-26 20:00:20.011,99,1425009615.1363,37.75989073122574,-122.4613369379479,128.3441,-1,-1,10,65,-9999,1425009619.982293,-35.07369232177734,6.782196044921875,23.20927429199219,75.12285614013672,61.34487915039062,10,120611.260115625,-1.113189697265625,-0.2032318115234375,0.43572998046875,120611.213093625,0.1692843673231048,-0.5569575314126314,0.1103896250804385,120611.213093625,-2.017803578985425,-1.824639819623599,0.1938460876601425,0.1630674600601196,-0.5474141836166382,0.1479856371879578,-0.0995827317237854,0.1012647375464439,0.06917483359575272,XTrueNorthZVertical,0.634627608879382,0.4695307764737963,0.5561781502961274,-0.2597201490448199,-0.9498252272605896,-0.1926343590021133,0.2464227080345154,-34.67380905151367,1.914426803588867,22.23250961303711,2,0.0.0.0,10.83.46.32,3,0
2015-02-26 20:00:20.081,100,1425009615.1363,37.75989073122574,-122.4613369379479,128.3441,-1,-1,10,65,-9999,1425009620.034649,-34.40867614746094,6.76519775390625,23.55875015258789,74.40664672851562,60.6286735534668,10,120611.309165375,-1.0687255859375,-0.293121337890625,0.4064788818359375,120611.3166570417,-0.3546054917823397,-0.1356049669135267,-0.8265003263972952,120611.26487575,-2.008643119277984,-1.86697431573953,0.2057866045413144,0.003671742975711823,-0.654711902141571,-0.5022140741348267,-0.1769114136695862,0.001105419127270579,0.1500214338302612,XTrueNorthZVertical,0.6417744776319084,0.4806035684748198,0.5437349839725075,-0.2479879830328676,-0.9362782835960388,-0.2043372243642807,0.2857085466384888,-33.90684127807617,2.095860481262207,23.36997985839844,2,0.0.0.0,10.83.46.32,3,0
2015-02-26 20:00:20.111,101,1425009615.1363,37.75989073122574,-122.4613369379479,128.3441,-1,-1,10,65,-9999,1425009620.086142,-33.93122863769531,5.88153076171875,24.5572509765625,75.7542724609375,61.97629928588867,10,120611.358294625,-0.99261474609375,-0.4167022705078125,0.3842926025390625,120611.3166570417,-0.3546054917823397,-0.1356049669135267,-0.8265003263972952,120611.3166570417,-2.006020655678303,-1.883458796931653,0.2370593824204915,-0.3608222901821136,-0.1260617524385452,-0.7889050245285034,-0.1438188701868057,-0.05827606841921806,0.1074882820248604,XTrueNorthZVertical,0.6395058495280705,0.4904361008105719,0.544006901865742,-0.233583460155622,-0.9249067306518555,-0.2348452657461166,0.2989906072616577,-33.54055786132812,1.577648162841797,23.93249893188477,2,0.0.0.0,10.83.46.32,3,0
2015-02-26 20:00:20.181,102,1425009615.1363,37.75989073122574,-122.4613369379479,128.3441,-1,-1,10,65,-9999,1425009620.138078,-33.2491455078125,4.182220458984375,25.12306213378906,80.23606872558594,66.45809173583984,10,120611.4072395417,-1.058731079101562,-0.144195556640625,0.4120635986328125,120611.3684384167,-0.4231075876574669,-0.2113415398898541,-1.140053189976064,120611.3684384167,-2.00923478824523,-1.890022825763229,0.2903154130828326,-0.4293242990970612,-0.2017984390258789,-1.102458238601685,-0.01426494587212801,-0.1883396655321121,0.1844079047441483,XTrueNorthZVertical,0.6313884668942369,0.5016954852030091,0.5520228709560393,-0.2119458342030985,-0.9097462892532349,-0.2862544655799866,0.3006995022296906,-33.39126968383789,0.1644306182861328,24.1912956237793,2,0.0.0.0,10.83.46.32,3,0
2015-02-26 20:00:20.209,103,1425009615.1363,37.75989073122574,-122.4613369379479,128.3441,-1,-1,10,65,-9999,1425009620.19034,-33.01041412353516,1.837127685546875,25.12306213378906,84.70193481445312,70.92395782470703,10,120611.4563456667,-0.8657379150390625,-0.497650146484375,0.5205230712890625,120611.4202204583,-0.3373849595416694,0.00292335192857998,-1.40738316441098,120611.4202204583,-2.015884628092522,-1.889520133318624,0.3545140121958464,-0.3436016142368317,0.01246635522693396,-1.369788646697998,-0.1241108998656273,0.1329012364149094,0.03498838469386101,XTrueNorthZVertical,0.6194776578096991,0.513012621072958,0.5640299733604972,-0.186910978650674,-0.890583336353302,-0.3471346497535706,0.2938690483570099,-33.07029342651367,-3.444221496582031,24.38679122924805,2,0.0.0.0,10.83.46.32,3,0
2015-02-26 20:00:20.285,104,1425009615.1363,37.75989073122574,-122.4613369379479,128.3441,-1,-1,10,65,-9999,1425009620.242326,-33.02745056152344,-1.306640625,24.97328948974609,90.7928466796875,77.01486968994141,10,120611.5053189583,-0.883636474609375,-0.65252685546875,0.306365966796875,120611.4720020833,-0.6526869873244017,0.1329359468690493,-1.567893214890601,120611.4720020833,-2.014290263341786,-1.881132286390619,0.4314877795272858,-0.6589035391807556,0.1424788534641266,-1.530298948287964,-0.0804043710231781,0.007944361306726933,0.1623082906007767,XTrueNorthZVertical,0.5996827213920375,0.5282756076281673,0.5790207771449543,-0.1613706862416978,-0.8649539351463318,-0.4182226955890656,0.2773889601230621,-32.94394683837891,-5.067085266113281,24.27433967590332,2,0.0.0.0,10.83.46.32,3,0
2015-02-26 20:00:20.307,105,1425009615.1363,37.75989073122574,-122.4613369379479,128.3441,-1,-1,10,65,-9999,1425009620.294311,-32.72052001953125,-4.841217041015625,24.57389450073242,96.72377014160156,82.94579315185547,10,120611.5543380833,-0.7923431396484375,-0.6009979248046875,0.3692169189453125,120611.523783375,-0.6270958734615033,0.1382201911039845,-1.844518420478222,120611.523783375,-2.011834399526127,-1.884056835046434,0.5195881391359312,-0.6333124041557312,0.1477630138397217,-1.80692458152771,-0.02176899090409279,-0.2405989021062851,0.09357668459415436,XTrueNorthZVertical,0.5793146827088087,0.5460224532468464,0.5913246336897715,-0.1287990653486183,-0.82578045129776,-0.4965226650238037,0.2674920558929443,-32.64149856567383,-7.932859420776367,23.91286087036133,2,0.0.0.0,10.83.46.32,3,0
2015-02-26 20:00:20.383,106,1425009615.1363,37.75989073122574,-122.4613369379479,128.3441,-1,-1,10,65,-9999,1425009620.345602,-31.73152160644531,-8.78363037109375,24.07464981079102,104.0670394897461,90.2890625,10,120611.60338825,-0.59381103515625,-0.8126983642578125,0.3903656005859375,120611.5755654583,-0.7553020462345719,0.417798576024394,-1.829328015936519,120611.5755654583,-2.030022097936787,-1.853870087708466,0.6170421220917472,-0.7616341114044189,0.4273603856563568,-1.79171085357666,-0.04593690112233162,-0.01642172783613205,-0.02339539676904678,XTrueNorthZVertical,0.5511549778865136,0.5568925010605876,0.6139917293804412,-0.09546272340839299,-0.7831341624259949,-0.5786252617835999,0.2278021275997162,-31.59947776794434,-13.37166500091553,22.86688232421875,2,0.0.0.0,10.83.46.32,3,0
2015-02-26 20:00:20.404,107,1425009615.1363,37.75989073122574,-122.4613369379479,128.3441,-1,-1,10,65,-9999,1425009620.397512,-30.86186218261719,-13.21890258789062,22.72667694091797,112.1624908447266,98.38451385498047,10,120611.6524149167,-0.5457000732421875,-0.73712158203125,0.21539306640625,120611.6273467917,-0.7213041317586203,0.4419009828379381,-2.22998728613349,120611.6273467917,-2.042561150582478,-1.82404097617392,0.7249199962460795,-0.7276361584663391,0.4514626860618591,-2.192370653152466,0.1597509980201721,-0.09202087670564651,0.01757673360407352,XTrueNorthZVertical,0.5171530956876486,0.5712497351650634,0.6345438615081165,-0.05983766549279324,-0.7246771454811096,-0.6630755662918091,0.1875471621751785,-31.05795669555664,-15.62999534606934,22.16594505310059,2,0.0.0.0,10.83.46.32,3,0
2015-02-26 20:00:20.486,108,1425009615.1363,37.75989073122574,-122.4613369379479,128.3441,-1,-1,10,65,-9999,1425009620.448777,-29.10552978515625,-18.06198120117188,21.81138610839844,121.2555694580078,107.4775924682617,10,120611.70145775,-0.3954315185546875,-0.849273681640625,0.0352630615234375,120611.679128375,-0.8714579477072498,0.06059517059868191,-2.563813729826595,120611.679128375,-2.052177424233178,-1.812680042436173,0.8488487826143212,-0.8777899146080017,0.07015680521726608,-2.526197195053101,0.1353685557842255,-0.07231007516384125,0.004822338465601206,XTrueNorthZVertical,0.4820038131436589,0.5889137309061973,0.648582920500327,-0.013898906256075,-0.6416093707084656,-0.7505201101303101,0.1582941114902496,-29.73287391662598,-19.30899047851562,21.05568313598633,2,0.0.0.0,10.83.46.32,3,0
2015-02-26 20:00:20.505,109,1425009615.1363,37.75989073122574,-122.4613369379479,128.3441,-1,-1,10,65,-9999,1425009620.448777,-29.10552978515625,-18.06198120117188,21.81138610839844,121.2555694580078,107.4775924682617,10,120611.750480875,-0.459136962890625,-0.4587249755859375,-0.080474853515625,120611.7309102083,-0.9217179227475523,0.6567195458469997,-2.452782282923448,120611.679128375,-2.052177424233178,-1.812680042436173,0.8488487826143212,-0.8777899146080017,0.07015680521726608,-2.526197195053101,0.1353685557842255,-0.07231007516384125,0.004822338465601206,XTrueNorthZVertical,0.4820038131436589,0.5889137309061973,0.648582920500327,-0.013898906256075,-0.6416093707084656,-0.7505201101303101,0.1582941114902496,-29.73287391662598,-19.30899047851562,21.05568313598633,2,0.0.0.0,10.83.46.32,3,0
2015-02-26 20:00:20.587,110,1425009615.1363,37.75989073122574,-122.4613369379479,128.3441,-1,-1,10,65,-9999,1425009620.504811,-26.68417358398438,-22.75209045410156,20.64646911621094,129.9084625244141,116.1304931640625,10,120611.799528625,-0.6446075439453125,-0.62481689453125,0.08392333984375,120611.7826918333,-0.7379712591247721,0.6439467589428707,-1.340891488842754,120611.7826918333,-2.146225855722515,-1.691414923710587,1.084911740091504,-0.7443031072616577,0.653508186340332,-1.30327582359314,0.04089889675378799,0.5219117403030396,-0.05407032370567322,XTrueNorthZVertical,0.399792760234859,0.606845447184769,0.683544322991232,0.06834876221338237,-0.4635978639125824,-0.8842622041702271,0.05619129538536072,-24.27786636352539,-28.07891082763672,17.95501327514648,2,0.0.0.0,10.83.46.32,3,0
2015-02-26 20:00:20.600,111,1425009615.1363,37.75989073122574,-122.4613369379479,128.3441,-1,-1,10,65,-9999,1425009620.58553,-23.37611389160156,-28.83566284179688,17.71755218505859,140.1271514892578,126.3491744995117,10,120611.8485498333,-0.447723388671875,-0.5889739990234375,0.0765533447265625,120611.8344731667,-0.1299851643812415,-0.08304481963972286,-0.5114185420367124,120611.8344731667,-2.179327864529317,-1.629546163641709,1.127949210426431,-0.1363169699907303,-0.07348347455263138,-0.4738031625747681,-0.07080646604299545,0.2038740366697311,0.01733509264886379,XTrueNorthZVertical,0.3753767035467319,0.6096496105608448,0.6939561353670521,0.07645003373810584,-0.4277744591236115,-0.9035353064537048,0.02516063489019871,-22.72280311584473,-30.31029319763184,16.28443908691406,2,0.0.0.0,10.83.46.32,3,0
2015-02-26 20:00:20.685,112,1425009615.1363,37.75989073122574,-122.4613369379479,128.3441,-1,-1,10,65,-9999,1425009620.656322,-22.38710784912109,-30.94281005859375,16.086669921875,142.4036254882812,128.6256561279297,10,120611.8975894583,-0.5528564453125,-0.7237548828125,-0.0384063720703125,120611.8862552917,-0.03080025695509341,-0.3389628824875413,0.4636459594545441,120611.8344731667,-2.179327864529317,-1.629546163641709,1.127949210426431,-0.1363169699907303,-0.07348347455263138,-0.4738031625747681,-0.07080646604299545,0.2038740366697311,0.01733509264886379,XTrueNorthZVertical,0.3753767035467319,0.6096496105608448,0.6939561353670521,0.07645003373810584,-0.4277744591236115,-0.9035353064537048,0.02516063489019871,-22.72280311584473,-30.31029319763184,16.28443908691406,2,0.0.0.0,10.83.46.32,3,0
2015-02-26 20:00:20.698,113,1425009615.1363,37.75989073122574,-122.4613369379479,128.3441,-1,-1,10,65,-9999,1425009620.656322,-22.38710784912109,-30.94281005859375,16.086669921875,142.4036254882812,128.6256561279297,10,120611.9466144583,-0.510467529296875,-1.049346923828125,-0.095489501953125,120611.938036625,-0.1234926439597373,1.186475549885562,0.7629085669400562,120611.8862552917,-2.18443667982027,-1.637547120964636,1.121749885435766,-0.03713199868798256,-0.3294016420841217,0.5012609362602234,-0.2502706050872803,-0.036913201212883,0.08128929138183594,XTrueNorthZVertical,0.3816015079430088,0.6073368252705845,0.6923654729934721,0.07843700852994916,-0.4331400394439697,-0.9008614420890808,0.02895545959472656,-22.12841033935547,-31.03869247436523,15.72118282318115,2,0.0.0.0,10.83.46.32,3,0
2015-02-26 20:00:20.789,114,1425009615.1363,37.75989073122574,-122.4613369379479,128.3441,-1,-1,10,65,-9999,1425009620.769168,-23.81946563720703,-29.61732482910156,15.98682403564453,139.5852355957031,125.8072662353516,10,120611.9957027917,-0.3747711181640625,-0.56207275390625,0.1187591552734375,120611.9898182083,0.404556540136193,-0.5981710145460436,0.8400409026436941,120611.9898182083,-2.180516015831806,-1.621181145586335,1.060470289500924,0.3982182741165161,-0.5886002779006958,0.8777617216110229,0.2308229357004166,0.4007225036621094,0.07833514362573624,XTrueNorthZVertical,0.3932896990839951,0.5980163357451959,0.6965479536854861,0.05020623156145557,-0.4878419637680054,-0.8725852966308594,0.02460065111517906,-23.99516487121582,-29.99854469299316,14.98472785949707,2,0.0.0.0,10.83.46.32,3,0
2015-02-26 20:00:20.798,115,1425009615.1363,37.75989073122574,-122.4613369379479,128.3441,-1,-1,10,65,-9999,1425009620.769168,-23.81946563720703,-29.61732482910156,15.98682403564453,139.5852355957031,125.8072662353516,10,120612.0446727917,-0.486968994140625,-0.5961761474609375,-0.0396728515625,120611.9898182083,0.404556540136193,-0.5981710145460436,0.8400409026436941,120611.9898182083,-2.180516015831806,-1.621181145586335,1.060470289500924,0.3982182741165161,-0.5886002779006958,0.8777617216110229,0.2308229357004166,0.4007225036621094,0.07833514362573624,XTrueNorthZVertical,0.3932896990839951,0.5980163357451959,0.6965479536854861,0.05020623156145557,-0.4878419637680054,-0.8725852966308594,0.02460065111517906,-23.99516487121582,-29.99854469299316,14.98472785949707,2,0.0.0.0,10.83.46.32,3,0
2015-02-26 20:00:20.880,116,1425009615.1363,37.75989073122574,-122.4613369379479,128.3441,-1,-1,10,65,-9999,1425009620.838027,-25.78041076660156,-27.0853271484375,16.73570251464844,134.8767700195312,121.0987930297852,10,120612.0937054167,-0.5676422119140625,-0.8966217041015625,-0.060150146484375,120612.0933814583,0.5238941201631887,0.6601116141274336,1.760942033884919,120612.0416,-2.151367416670533,-1.678459436382081,0.9879819023425902,0.5053273439407349,-0.4066821038722992,1.121289014816284,-0.02901310473680496,0.129228487610817,-0.1089607328176498,XTrueNorthZVertical,0.4259955469902305,0.5899984626829271,0.6851779647602105,0.03099689142580866,-0.5471892952919006,-0.8349169492721558,0.05914078280329704,-25.65488052368164,-27.67773056030273,16.6130313873291,2,0.0.0.0,10.83.46.32,3,0
2015-02-26 20:00:20.896,117,1425009615.1363,37.75989073122574,-122.4613369379479,128.3441,-1,-1,10,65,-9999,1425009620.838027,-25.78041076660156,-27.0853271484375,16.73570251464844,134.8767700195312,121.0987930297852,10,120612.1427240417,-0.3910369873046875,-0.905242919921875,-0.0074462890625,120612.1451631667,0.5819643477323665,0.06148786219607648,2.353305226725718,120612.0933814583,-2.121690522112609,-1.666958123208349,0.9028629001046454,0.517555832862854,0.6696822643280029,1.798662781715393,-0.008084557950496674,-0.2413859516382217,-0.1606485247612,XTrueNorthZVertical,0.4381979520463126,0.5811336347426129,0.6856279146643346,-0.01344093452936982,-0.6165034770965576,-0.7851033210754395,0.05946749448776245,-26.68927574157715,-26.44771003723145,16.9830436706543,2,0.0.0.0,10.83.46.32,3,0
2015-02-26 20:00:20.988,118,1425009615.1363,37.75989073122574,-122.4613369379479,128.3441,-1,-1,10,65,-9999,1425009620.941318,-30.93007659912109,-20.49195861816406,17.73419952392578,120.8093643188477,107.0313873291016,10,120612.19176525,-0.4159393310546875,-0.6709442138671875,0.1794586181640625,120612.1451631667,0.5819643477323665,0.06148786219607648,2.353305226725718,120612.1451631667,-2.103581817028014,-1.656497074601737,0.8076826036882149,0.5756246447563171,0.0710594654083252,2.391023397445679,0.2976014614105225,-0.1825555264949799,-0.06660802662372589,XTrueNorthZVertical,0.4564744174271677,0.5667556588775781,0.6834961791486777,-0.05702758234975652,-0.68863844871521,-0.7226873636245728,0.05916174128651619,-29.31710052490234,-23.82823181152344,16.52106475830078,2,0.0.0.0,10.83.46.32,3,0
2015-02-26 20:00:20.995,119,1425009615.1363,37.75989073122574,-122.4613369379479,128.3441,-1,-1,10,65,-9999,1425009620.941318,-30.93007659912109,-20.49195861816406,17.73419952392578,120.8093643188477,107.0313873291016,10,120612.2409008333,-0.6395416259765625,-0.524200439453125,0.1063079833984375,120612.1969449167,0.3440503191179197,-0.8344109800992666,1.962903920415514,120612.1969449167,-2.074802024479186,-1.72500757823567,0.7066959268718189,0.3377106785774231,-0.8248394727706909,2.000621795654297,0.3355471789836884,-0.02161967940628529,0.06264347583055496,XTrueNorthZVertical,0.499108395782635,0.5561460069845529,0.6591891908033938,-0.08403619218597698,-0.7514864802360535,-0.6493245363235474,0.1168151423335075,-32.07162475585938,-18.46257209777832,18.18700218200684,2,0.0.0.0,10.83.46.32,3,0
2015-02-26 20:00:21.084,120,1425009615.1363,37.75989073122574,-122.4613369379479,128.3441,-1,-1,10,65,-9999,1425009621.069898,-34.8349609375,-8.953521728515625,20.14724731445312,100.723014831543,86.94503784179688,10,120612.2898340417,-1.215911865234375,-0.7116851806640625,0.25946044921875,120612.300507875,0.5853281865052455,-0.3450071928975851,1.761741514844161,120612.2487264167,-2.059504750129498,-1.756279746519369,0.594535798046272,0.7201353907585144,0.1073768138885498,2.079151153564453,0.1746575087308884,0.03592382743954659,-0.04646853357553482,XTrueNorthZVertical,0.5343718064373675,0.5392912310451641,0.6394606052695091,-0.1212514643447183,-0.8141991496086121,-0.5601242780685425,0.1527765244245529,-32.77883148193359,-16.14546585083008,19.10745429992676,2,0.0.0.0,10.83.46.32,3,0
2015-02-26 20:00:21.091,121,1425009615.1363,37.75989073122574,-122.4613369379479,128.3441,-1,-1,10,65,-9999,1425009621.069898,-34.8349609375,-8.953521728515625,20.14724731445312,100.723014831543,86.94503784179688,10,120612.338968625,-0.666259765625,-0.381866455078125,0.3778839111328125,120612.300507875,0.5853281865052455,-0.3450071928975851,1.761741514844161,120612.300507875,-2.049970216118132,-1.750678403662036,0.4841671329470353,0.5789886713027954,-0.3354358673095703,1.799458742141724,-0.3384614586830139,-0.1486796140670776,-0.07305313646793365,XTrueNorthZVertical,0.5573393343883415,0.5182159287161893,0.6272163583711136,-0.1656043479344246,-0.8707823157310486,-0.4654713869094849,0.1583497673273087,-34.09724807739258,-12.31497764587402,19.6453971862793,2,0.0.0.0,10.83.46.32,3,0
2015-02-26 20:00:21.154,122,1425009615.1363,37.75989073122574,-122.4613369379479,128.3441,-1,-1,10,65,-9999,1425009621.122247,-35.94333648681641,-4.518310546875,20.66313171386719,92.71585845947266,78.93788146972656,10,120612.3878992083,-0.77386474609375,-0.39776611328125,0.4038848876953125,120612.3522900833,0.5853955644808245,-0.3067080069450466,2.261067707635259,120612.3522900833,-2.037971307356197,-1.761459555740024,0.3776028024181806,0.5790561437606812,-0.2971367835998535,2.298784494400024,-0.1912057846784592,-0.1165362820029259,-0.02787446975708008,XTrueNorthZVertical,0.5824358168846984,0.4988468808764917,0.6083482118591031,-0.204530693227715,-0.9127065539360046,-0.3686932027339935,0.1761593818664551,-35.51772308349609,-6.094164848327637,20.03933715820312,2,0.0.0.0,10.83.46.32,3,0
2015-02-26 20:00:21.190,123,1425009615.1363,37.75989073122574,-122.4613369379479,128.3441,-1,-1,10,65,-9999,1425009621.17324,-35.94333648681641,-0.40594482421875,21.09580993652344,84.96239471435547,71.18441772460938,10,120612.436917375,-1.173477172851562,-0.19952392578125,0.2971649169921875,120612.404071375,0.3796288197008333,-0.0548744342610827,1.686286704311164,120612.404071375,-2.032793874797932,-1.788509116448546,0.2910763822005267,0.3732894361019135,-0.04530329629778862,1.724003195762634,0.1252945065498352,-0.1039009019732475,0.2009714990854263,XTrueNorthZVertical,0.6081413244644807,0.4833422406424849,0.58622338646057,-0.2299708497847479,-0.9353225827217102,-0.2869834899902344,0.2069111913442612,-35.45875930786133,-3.629376411437988,20.7298469543457,2,0.0.0.0,10.83.46.32,3,0
2015-02-26 20:00:21.253,124,1425009615.1363,37.75989073122574,-122.4613369379479,128.3441,-1,-1,10,65,-9999,1425009621.225856,-36.0968017578125,3.621429443359375,21.27886962890625,78.23164367675781,64.45366668701172,10,120612.4859612917,-1.034774780273438,-0.211029052734375,0.19085693359375,120612.4558528333,0.4070900052811853,0.6334749432205701,1.277433153756128,120612.4558528333,-2.026462912269384,-1.779915698842,0.2138004323075399,0.4007506966590881,0.643045961856842,1.315149307250977,0.01297916099429131,0.02404971607029438,0.2457517981529236,XTrueNorthZVertical,0.6200591723419875,0.4657923952895907,0.5749325088480021,-0.2608001538523808,-0.9559417963027954,-0.2121753245592117,0.2028718590736389,-35.39881134033203,-0.6856832504272461,21.13472366333008,2,0.0.0.0,10.83.46.32,3,0
2015-02-26 20:00:21.287,125,1425009615.1363,37.75989073122574,-122.4613369379479,128.3441,-1,-1,10,65,-9999,1425009621.278464,-35.90922546386719,6.731201171875,21.59505462646484,73.72145080566406,59.94347381591797,10,120612.5350907917,-1.2567138671875,-0.28179931640625,0.46636962890625,120612.507634875,0.5799765642947313,-0.9739196085386315,0.7489085954056186,120612.507634875,-2.008402356494663,-1.792485367470983,0.1576253127696273,0.5736373066902161,-0.9643486738204956,0.7866243124008179,-0.03674937412142754,-0.08402390778064728,-0.009998472407460213,XTrueNorthZVertical,0.6305050487170518,0.4593901172923502,0.5583213742939572,-0.2823143449732305,-0.9634337425231934,-0.1569734066724777,0.2171517908573151,-35.4985466003418,3.410037517547607,20.69897270202637,2,0.0.0.0,10.83.46.32,3,0
2015-02-26 20:00:21.353,126,1425009615.1363,37.75989073122574,-122.4613369379479,128.3441,-1,-1,10,65,-9999,1425009621.32948,-35.51704406738281,8.48150634765625,22.44377899169922,68.88418579101562,55.10620880126953,10,120612.5840277917,-1.2525634765625,0.034912109375,0.4494476318359375,120612.5594164583,-0.1186209233776554,-0.04707323647991359,0.3659172685124513,120612.5594164583,-2.006313065924913,-1.833944543558818,0.1279749853530651,-0.1250462532043457,-0.03748669475317001,0.4036446809768677,-0.4463119208812714,-0.08698891848325729,0.3181468546390533,XTrueNorthZVertical,0.6469996679645096,0.4586814651557228,0.5390787864456331,-0.2835433791775879,-0.9576797485351562,-0.1276259571313858,0.2579945027828217,-34.73391723632812,4.468091011047363,21.76726341247559,2,0.0.0.0,10.83.46.32,3,0
2015-02-26 20:00:21.388,127,1425009615.1363,37.75989073122574,-122.4613369379479,128.3441,-1,-1,10,65,-9999,1425009621.32948,-35.51704406738281,8.48150634765625,22.44377899169922,68.88418579101562,55.10620880126953,10,120612.6330612083,-0.8650665283203125,-0.25311279296875,0.2242431640625,120612.6111978333,-0.002488191406461032,0.5734179974781931,-0.3263903652973862,120612.6111978333,-2.014390774864807,-1.797180904853231,0.1256538427821202,-0.008913463912904263,0.5830044746398926,-0.2886632680892944,-0.08524630963802338,0.02661434188485146,0.09779413044452667,XTrueNorthZVertical,0.639241615229508,0.4502368982751881,0.5516091819192912,-0.2904896657496903,-0.9668014049530029,-0.1253234446048737,0.2226862162351608,-34.38000106811523,5.117991924285889,22.18206977844238,2,0.0.0.0,10.83.46.32,3,0
2015-02-26 20:00:21.452,128,1425009615.1363,37.75989073122574,-122.4613369379479,128.3441,-1,-1,10,65,-9999,1425009621.43408,-35.36357116699219,8.56646728515625,22.79325485229492,69.84501647949219,56.06703948974609,10,120612.682119125,-1.209030151367188,-0.22967529296875,0.36199951171875,120612.6629799167,-0.01524553197626761,-1.386395590808393,-0.6878905148258321,120612.6629799167,-2.007722793302115,-1.833225006623981,0.1521190451126177,-0.02167073264718056,-1.376809239387512,-0.6501638293266296,-0.1403298079967499,0.04812423139810562,0.07804161310195923,XTrueNorthZVertical,0.6426279107527979,0.4639449227020757,0.5442099335931728,-0.2749910323877899,-0.9546103477478027,-0.1515330523252487,0.2564310431480408,-34.65837860107422,4.26499605178833,21.92782211303711,2,0.0.0.0,10.83.46.32,3,0
2015-02-26 20:00:21.483,129,1425009615.1363,37.75989073122574,-122.4613369379479,128.3441,-1,-1,10,65,-9999,1425009621.43408,-35.36357116699219,8.56646728515625,22.79325485229492,69.84501647949219,56.06703948974609,10,120612.7311420833,-0.9686737060546875,-0.1177978515625,0.4034881591796875,120612.7147612917,-0.6302868730796362,0.1608237708560321,-0.8004620677873725,120612.6629799167,-2.007722793302115,-1.833225006623981,0.1521190451126177,-0.02167073264718056,-1.376809239387512,-0.6501638293266296,-0.1403298079967499,0.04812423139810562,0.07804161310195923,XTrueNorthZVertical,0.6426279107527979,0.4639449227020757,0.5442099335931728,-0.2749910323877899,-0.9546103477478027,-0.1515330523252487,0.2564310431480408,-34.65837860107422,4.26499605178833,21.92782211303711,2,0.0.0.0,10.83.46.32,3,0
2015-02-26 20:00:21.551,130,1425009615.1363,37.75989073122574,-122.4613369379479,128.3441,-1,-1,10,65,-9999,1425009621.536595,-34.10174560546875,4.86199951171875,24.49070358276367,76.6265869140625,62.84860992431641,10,120612.7801934167,-0.9428253173828125,-0.2895050048828125,0.383453369140625,120612.7665429167,-0.4041445491155577,0.09796677754354585,-1.169913617382468,120612.7665429167,-2.024473489830365,-1.849021342143731,0.2425998304820582,-0.4105696380138397,0.1075529456138611,-1.132187724113464,-0.05214735120534897,-0.01299247052520514,0.1294961720705032,XTrueNorthZVertical,0.6334025720295384,0.4817722991868069,0.5581406502558174,-0.234895063186445,-0.9333873391151428,-0.2402271330356598,0.2666067183017731,-33.77658843994141,1.765185356140137,23.58493041992188,2,0.0.0.0,10.83.46.32,3,0
2015-02-26 20:00:21.593,131,1425009615.1363,37.75989073122574,-122.4613369379479,128.3441,-1,-1,10,65,-9999,1425009621.536595,-34.10174560546875,4.86199951171875,24.49070358276367,76.6265869140625,62.84860992431641,10,120612.8292276667,-1.000030517578125,-0.44219970703125,0.4887237548828125,120612.81832475,-0.2769815365414732,-0.6202131999403024,-1.266993295966908,120612.7665429167,-2.024473489830365,-1.849021342143731,0.2425998304820582,-0.4105696380138397,0.1075529456138611,-1.132187724113464,-0.05214735120534897,-0.01299247052520514,0.1294961720705032,XTrueNorthZVertical,0.6334025720295384,0.4817722991868069,0.5581406502558174,-0.234895063186445,-0.9333873391151428,-0.2402271330356598,0.2666067183017731,-33.77658843994141,1.765185356140137,23.58493041992188,2,0.0.0.0,10.83.46.32,3,0
2015-02-26 20:00:21.682,132,1425009621.603071,37.75996871621771,-122.4614363316746,126.7738,-1,-1,10,65,-9999,1425009621.640077,-34.06766510009766,-0.337890625,24.12458419799805,85.44661712646484,71.66864013671875,10,120612.8782727917,-0.893096923828125,-0.560699462890625,0.3404083251953125,120612.870106375,-0.5964873641048956,0.1882732385275878,-1.494775328214149,120612.870106375,-2.025424352263848,-1.876581825179997,0.3820013093145431,-0.6029123067855835,0.1978591978549957,-1.457050085067749,-0.1070073246955872,-0.0834137424826622,0.06117178872227669,XTrueNorthZVertical,0.6122986826045591,0.5145502873459047,0.5734355536536818,-0.1774824880758428,-0.8848749995231628,-0.3727782666683197,0.2793433368206024,-33.37579345703125,-3.266426086425781,23.99186325073242,2,0.0.0.0,10.83.46.32,3,0
2015-02-26 20:00:21.685,133,1425009621.603071,37.75996871621771,-122.4614363316746,126.7738,-1,-1,10,65,-9999,1425009621.640077,-34.06766510009766,-0.337890625,24.12458419799805,85.44661712646484,71.66864013671875,10,120612.9272936667,-0.907012939453125,-0.440521240234375,0.4263763427734375,120612.92188775,-0.8580832863967629,0.5828165592811918,-1.551971506313562,120612.870106375,-2.025424352263848,-1.876581825179997,0.3820013093145431,-0.6029123067855835,0.1978591978549957,-1.457050085067749,-0.1070073246955872,-0.0834137424826622,0.06117178872227669,XTrueNorthZVertical,0.6122986826045591,0.5145502873459047,0.5734355536536818,-0.1774824880758428,-0.8848749995231628,-0.3727782666683197,0.2793433368206024,-33.37579345703125,-3.266426086425781,23.99186325073242,2,0.0.0.0,10.83.46.32,3,0
2015-02-26 20:00:21.738,134,1425009621.603071,37.75996871621771,-122.4614363316746,126.7738,-1,-1,10,65,-9999,1425009621.69153,-33.91419982910156,-3.685577392578125,24.14122009277344,92.99604034423828,79.21806335449219,10,120612.9763477917,-0.5329742431640625,-0.7814483642578125,0.2186126708984375,120612.973669875,-0.2047275793226424,0.1376809009832435,-2.043422465445188,120612.92188775,-2.039990602784945,-1.843190466311958,0.463037863659109,-0.8645082116127014,0.5924023985862732,-1.514246702194214,0.0443442277610302,-0.06019831448793411,0.2608023285865784,XTrueNorthZVertical,0.5880484862653134,0.5239781755282608,0.5970562655554554,-0.1522159907067908,-0.8617118000984192,-0.4466681480407715,0.2407083064317703,-33.16141891479492,-6.10427188873291,23.73353576660156,2,0.0.0.0,10.83.46.32,3,0
2015-02-26 20:00:21.782,135,1425009621.603071,37.75996871621771,-122.4614363316746,126.7738,-1,-1,10,65,-9999,1425009621.743178,-33.14686584472656,-7.78094482421875,23.92488098144531,101.1231307983398,87.34515380859375,10,120613.0253774583,-0.97650146484375,-0.7427215576171875,0.1496734619140625,120612.973669875,-0.2047275793226424,0.1376809009832435,-2.043422465445188,120612.973669875,-2.042289176041106,-1.828323938870543,0.5571392057614789,-0.2111524045467377,0.147266685962677,-2.005697965621948,0.1455491334199905,-0.1848323196172714,-0.08690150827169418,XTrueNorthZVertical,0.5616608168035192,0.5409474216764296,0.6142476752558588,-0.1208836216645029,-0.8207810521125793,-0.5287601947784424,0.2161739766597748,-33.86022186279297,-7.007758140563965,23.47190856933594,2,0.0.0.0,10.83.46.32,3,0
2015-02-26 20:00:21.836,136,1425009621.603071,37.75996871621771,-122.4614363316746,126.7738,-1,-1,10,65,-9999,1425009621.795461,-31.71451568603516,-11.85931396484375,23.05952072143555,108.9645843505859,95.18660736083984,10,120613.0744207917,-0.2024383544921875,-0.9167633056640625,0.3694000244140625,120613.077232875,-1.203599675694771,0.575498725237872,-2.294878401886578,120613.02545125,-2.057218457812944,-1.823155082947804,0.6629461597652135,-1.20093560218811,-0.07606691122055054,-2.059444665908813,-0.2132837027311325,-0.1272799223661423,-0.04712680727243423,XTrueNorthZVertical,0.5373883335288223,0.5564296123354178,0.6288386541390192,-0.07849748568409981,-0.7632177472114563,-0.615441620349884,0.1968002617359161,-33.4338493347168,-9.24671745300293,23.30728912353516,2,0.0.0.0,10.83.46.32,3,0
2015-02-26 20:00:21.879,137,1425009621.603071,37.75996871621771,-122.4614363316746,126.7738,-1,-1,10,65,-9999,1425009621.846965,-29.94112396240234,-16.88932800292969,22.22743988037109,118.107536315918,104.3295593261719,10,120613.12343875,-0.7274017333984375,-0.38299560546875,-0.0324554443359375,120613.077232875,-1.203599675694771,0.575498725237872,-2.294878401886578,120613.077232875,-2.076511024579748,-1.797032310750671,0.7816478170028197,-1.210024356842041,0.5850842595100403,-2.257154941558838,0.4892292022705078,-0.2123133838176727,0.2101944386959076,XTrueNorthZVertical,0.5027743971016246,0.5716823434591191,0.6474039785261435,-0.03557154873539804,-0.6916675567626953,-0.7044498920440674,0.1592055857181549,-32.30404663085938,-13.30704307556152,22.93305587768555,2,0.0.0.0,10.83.46.32,3,0
2015-02-26 20:00:21.936,138,1425009621.603071,37.75996871621771,-122.4614363316746,126.7738,-1,-1,10,65,-9999,1425009621.899456,-27.99722290039062,-21.51148986816406,20.62983703613281,126.6827163696289,112.9047393798828,10,120613.1725201667,-0.312835693359375,-0.60931396484375,0.0209503173828125,120613.180796375,-0.770194709366404,0.2611575659764404,-1.644311823422098,120613.129014875,-2.140756831127574,-1.718023545825975,0.8920042143487842,-0.6392963528633118,0.06122631952166557,-2.081044435501099,-0.1063406616449356,0.3953360617160797,-0.1245589777827263,XTrueNorthZVertical,0.4641777036025053,0.5749702824337236,0.6737459008144684,0.00383896168460416,-0.6210610866546631,-0.7783316373825073,0.09210353344678879,-30.56995391845703,-20.14453315734863,20.1551399230957,2,0.0.0.0,10.83.46.32,3,0
2015-02-26 20:00:21.982,139,1425009621.603071,37.75996871621771,-122.4614363316746,126.7738,-1,-1,10,65,-9999,1425009621.950922,-25.96805572509766,-25.74281311035156,19.18201446533203,134.2722015380859,120.4942245483398,10,120613.2215053333,-0.5177764892578125,-0.726409912109375,0.00653076171875,120613.180796375,-0.770194709366404,0.2611575659764404,-1.644311823422098,120613.180796375,-2.177071432816691,-1.68751421657878,1.002677518676075,-0.7766192555427551,0.2707429826259613,-1.606588840484619,0.2215509414672852,0.2336006760597229,-0.04170694947242737,XTrueNorthZVertical,0.4323262765369001,0.5868753053825058,0.6829249565956802,0.04780076256133334,-0.5343866348266602,-0.8429146409034729,0.06265726685523987,-29.11627769470215,-22.5075626373291,19.80418586730957,2,0.0.0.0,10.83.46.32,3,0
2015-02-26 20:00:22.031,140,1425009621.603071,37.75996871621771,-122.4614363316746,126.7738,-1,-1,10,65,-9999,1425009622.00368,-23.99004364013672,-28.8355712890625,17.55113983154297,139.5077972412109,125.7298278808594,10,120613.2705597083,-0.6157989501953125,-0.6360626220703125,0.078948974609375,120613.23257775,-0.8093389163328246,0.9510960516805433,-0.4788150587075264,120613.23257775,-2.219268614599345,-1.618458573952637,1.069120377613863,-0.8157634139060974,0.9606813788414001,-0.4410925209522247,0.05487354472279549,0.02359790541231632,-0.02089773491024971,XTrueNorthZVertical,0.4012882123432892,0.5919659769622476,0.6958383149306508,0.06597829129840983,-0.4803496301174164,-0.8767778277397156,0.02291189506649971,-27.25835037231445,-25.47124481201172,18.83485412597656,2,0.0.0.0,10.83.46.32,3,0
2015-02-26 20:00:22.083,141,1425009621.603071,37.75996871621771,-122.4614363316746,126.7738,-1,-1,10,65,-9999,1425009622.054206,-23.1885986328125,-30.41590881347656,16.30301666259766,141.9225311279297,128.1445617675781,10,120613.3195784583,-0.4394683837890625,-0.688873291015625,0.0370635986328125,120613.284359875,0.07570088661772036,0.9882178541151578,-0.8617589813332903,120613.284359875,-2.2233444752751,-1.580913166286232,1.090315546469777,0.06927645951509476,0.9978030323982239,-0.8240367770195007,-0.1693029701709747,0.1090475842356682,-0.08075630664825439,XTrueNorthZVertical,0.3830589009706881,0.5963253044815113,0.702562826578023,0.06377716697679797,-0.4621820151805878,-0.8867728114128113,0.004675980657339096,-26.78312301635742,-27.33368492126465,16.79546737670898,2,0.0.0.0,10.83.46.32,3,0
2015-02-26 20:00:22.131,142,1425009621.603071,37.75996871621771,-122.4614363316746,126.7738,-1,-1,10,65,-9999,1425009622.106742,-23.64899444580078,-30.77276611328125,15.68726348876953,141.2357330322266,127.4577560424805,10,120613.36861325,-0.580230712890625,-0.9232940673828125,-0.2174072265625,120613.3361414167,0.1167364705903153,0.05011962645085523,0.6101299394210444,120613.3361414167,-2.229867916359592,-1.56849078327552,1.073383335179257,0.1103120967745781,0.0597047433257103,0.6478517651557922,0.1587167829275131,0.1985220462083817,0.1077895537018776,XTrueNorthZVertical,0.3856584652967736,0.5922140654418214,0.7052432227275474,0.05641000203330096,-0.4771524369716644,-0.8788198828697205,-0.001100097666494548,-26.80585861206055,-27.66392517089844,16.20823669433594,2,0.0.0.0,10.83.46.32,3,0
2015-02-26 20:00:22.180,143,1425009621.603071,37.75996871621771,-122.4614363316746,126.7738,-1,-1,10,65,-9999,1425009622.158477,-24.80851745605469,-30.12704467773438,15.38771820068359,138.9582061767578,125.1802291870117,10,120613.417623875,-0.4019775390625,-0.5566864013671875,0.045867919921875,120613.3879227083,0.01058100532699382,0.1548782637224302,0.7899337930499623,120613.3879227083,-2.210488505413614,-1.559140369936791,1.040357104620723,0.004156697075814009,0.1644632816314697,0.8276552557945251,-0.06296968460083008,-0.008737686090171337,-0.2339103668928146,XTrueNorthZVertical,0.3863811743256494,0.5897128188221779,0.7083158934894437,0.03517125486118908,-0.5058779716491699,-0.8625849485397339,-0.005896758753806353,-27.61693382263184,-26.85415077209473,16.20843315124512,2,0.0.0.0,10.83.46.32,3,0
2015-02-26 20:00:22.228,144,1425009621.603071,37.75996871621771,-122.4614363316746,126.7738,-1,-1,10,65,-9999,1425009622.210378,-26.0362548828125,-28.35975646972656,15.38771820068359,135.6937561035156,121.9157867431641,10,120613.4666650833,-0.242034912109375,-0.655059814453125,-0.0676422119140625,120613.4397049167,0.2746464768976917,-0.7393899250374574,1.890906691925767,120613.4397049167,-2.19441015291937,-1.59443785757533,0.963586718317463,0.2682222127914429,-0.7298049926757812,1.928627729415894,0.09123171120882034,0.07987982034683228,-0.2014000713825226,XTrueNorthZVertical,0.4165385657874537,0.577269144871052,0.7022083962743753,0.01262412325954184,-0.5704187154769897,-0.8212433457374573,0.01348808500915766,-26.06661033630371,-28.58079147338867,15.6796817779541,2,0.0.0.0,10.83.46.32,3,0
2015-02-26 20:00:22.280,145,1425009621.603071,37.75996871621771,-122.4614363316746,126.7738,-1,-1,10,65,-9999,1425009622.261997,-27.77553558349609,-25.87875366210938,16.38621520996094,132.0714263916016,118.29345703125,10,120613.5156855833,-0.6045379638671875,-1.165924072265625,-0.2653045654296875,120613.4914864167,0.7527475421169678,0.3926652595528801,1.767283020440398,120613.4914864167,-2.16375088260161,-1.63026218674568,0.8782731141002487,0.7463233470916748,0.4022500813007355,1.805003643035889,0.2983176410198212,0.1580041348934174,0.1120026558637619,XTrueNorthZVertical,0.4446406348888481,0.5668045848095928,0.6933186342853322,-0.01834618466916021,-0.6373527050018311,-0.7696374654769897,0.0379454642534256,-27.26481056213379,-26.98712158203125,16.44711112976074,2,0.0.0.0,10.83.46.32,3,0
2015-02-26 20:00:22.327,146,1425009621.603071,37.75996871621771,-122.4614363316746,126.7738,-1,-1,10,65,-9999,1425009622.313746,-29.37840270996094,-22.81996154785156,17.45127105712891,126.7669372558594,112.9889602661133,10,120613.56485375,-0.366912841796875,-0.484771728515625,0.25567626953125,120613.5432679583,0.2455956504626713,-0.8145456625800386,1.830472109940817,120613.5432679583,-2.12002093957063,-1.682909058028441,0.782624495325278,0.2391715347766876,-0.8049609065055847,1.868192434310913,0.4283687472343445,0.008716392330825329,-0.2481978535652161,XTrueNorthZVertical,0.477027597454201,0.5586672414395296,0.6764022297558175,-0.05306270710682099,-0.7046138644218445,-0.7051427960395813,0.07932882755994797,-29.3611888885498,-24.25164604187012,17.08684730529785,2,0.0.0.0,10.83.46.32,3,0
2015-02-26 20:00:22.380,147,1425009621.603071,37.75996871621771,-122.4614363316746,126.7738,-1,-1,10,65,-9999,1425009622.365592,-31.42462158203125,-18.12982177734375,18.61618804931641,118.8997192382812,105.1217422485352,10,120613.6137636667,-0.578125,-1.014739990234375,0.2342071533203125,120613.59504975,0.9783425864770351,-0.5050735607395986,2.176075584606471,120613.5432679583,-2.12002093957063,-1.682909058028441,0.782624495325278,0.2391715347766876,-0.8049609065055847,1.868192434310913,0.4283687472343445,0.008716392330825329,-0.2481978535652161,XTrueNorthZVertical,0.477027597454201,0.5586672414395296,0.6764022297558175,-0.05306270710682099,-0.7046138644218445,-0.7051427960395813,0.07932882755994797,-29.3611888885498,-24.25164604187012,17.08684730529785,2,0.0.0.0,10.83.46.32,3,0
2015-02-26 20:00:22.425,148,1425009621.603071,37.75996871621771,-122.4614363316746,126.7738,-1,-1,10,65,-9999,1425009622.417784,-33.26622009277344,-13.54165649414062,20.147216796875,110.3126068115234,96.53462982177734,10,120613.6629201667,-0.8466796875,-0.3835906982421875,0.4471282958984375,120613.6468312917,0.4962409206682419,-0.8092369172630746,2.052512899510064,120613.6468312917,-2.082632683055437,-1.753253976409369,0.561157463331398,0.4899131655693054,-0.7997163534164429,2.090291261672974,0.2802942991256714,0.02516272477805614,-0.05878685042262077,XTrueNorthZVertical,0.5479255235376753,0.5259160891807888,0.6380523911656343,-0.1268032989290613,-0.8325861692428589,-0.5321664810180664,0.1536202281713486,-32.80080032348633,-16.09761810302734,20.17811584472656,2,0.0.0.0,10.83.46.32,3,0
2015-02-26 20:00:22.483,149,1425009621.603071,37.75996871621771,-122.4614363316746,126.7738,-1,-1,10,65,-9999,1425009622.468512,-34.37458801269531,-9.0384521484375,20.92937469482422,102.2021179199219,88.42414093017578,10,120613.7118412083,-0.731048583984375,-0.5960235595703125,0.410980224609375,120613.6986127917,0.7579875778778077,-0.2721537581173775,1.656843061615357,120613.6986127917,-2.069034238433076,-1.779389105903479,0.4562096690217192,0.7516598701477051,-0.2626333236694336,1.694621205329895,-0.2498742938041687,-0.2455476075410843,0.01114727556705475,XTrueNorthZVertical,0.5777693927905923,0.5090529364018942,0.6169968768988333,-0.162365431317178,-0.8782690167427063,-0.4405485987663269,0.1859047263860703,-33.55292129516602,-12.59018230438232,21.39791297912598,2,0.0.0.0,10.83.46.32,3,0
