loggingTime,loggingSample,locationTimestamp_since1970,locationLatitude,locationLongitude,locationAltitude,locationSpeed,locationCourse,locationVerticalAccuracy,locationHorizontalAccuracy,locationFloor,locationHeadingTimestamp_since1970,locationHeadingX,locationHeadingY,locationHeadingZ,locationTrueHeading,locationMagneticHeading,locationHeadingAccuracy,accelerometerTimestamp_sinceReboot,accelerometerAccelerationX,accelerometerAccelerationY,accelerometerAccelerationZ,gyroTimestamp_sinceReboot,gyroRotationX,gyroRotationY,gyroRotationZ,motionTimestamp_sinceReboot,motionYaw,motionRoll,motionPitch,motionRotationRateX,motionRotationRateY,motionRotationRateZ,motionUserAccelerationX,motionUserAccelerationY,motionUserAccelerationZ,motionAttitudeReferenceFrame,motionQuaternionX,motionQuaternionY,motionQuaternionZ,motionQuaternionW,motionGravityX,motionGravityY,motionGravityZ,motionMagneticFieldX,motionMagneticFieldY,motionMagneticFieldZ,motionMagneticFieldCalibrationAccuracy,IP_en0,IP_pdp_ip0,deviceOrientation,state
2015-02-21 18:57:33.863,1,1424570238.46698,39.63840509428377,-106.3699295056471,2516.945,-1,-1,10,65,-9999,1424570253.817528,8.954483032226562,-41.50685119628906,-17.14475250244141,249.1776733398438,240.0516204833984,10,22121.383706125,-0.3054962158203125,-0.7927703857421875,-0.5090789794921875,22121.37552658334,0.001501756538695682,-0.04797205334781533,-0.03304183964461311,22121.37552658334,1.586863068399953,-0.5150471920981087,0.9359740505250627,-0.007697827182710171,-0.03605243936181068,0.00243656150996685,0.00389122636988759,0.003251446411013603,0.01944146119058132,XTrueNorthZVertical,0.467975907515459,0.1514881393109752,0.5345674990114075,0.6872317822633383,-0.2921144962310791,-0.8051770925521851,-0.5160998106002808,11.83611965179443,-41.12786865234375,-20.44868659973145,2,192.168.1.118,10.97.20.126,1,0
2015-02-21 18:57:33.899,2,1424570238.46698,39.63840509428377,-106.3699295056471,2516.945,-1,-1,10,65,-9999,1424570253.871942,8.954486846923828,-41.50685119628906,-17.84366607666016,250.2492980957031,241.1232299804688,10,22121.43274354167,-0.2772064208984375,-0.8025970458984375,-0.51239013671875,22121.37552658334,0.001501756538695682,-0.04797205334781533,-0.03304183964461311,22121.37552658334,1.586863068399953,-0.5150471920981087,0.9359740505250627,-0.007697827182710171,-0.03605243936181068,0.00243656150996685,0.00389122636988759,0.003251446411013603,0.01944146119058132,XTrueNorthZVertical,0.467975907515459,0.1514881393109752,0.5345674990114075,0.6872317822633383,-0.2921144962310791,-0.8051770925521851,-0.5160998106002808,11.83611965179443,-41.12786865234375,-20.44868659973145,2,192.168.1.118,10.97.20.126,1,0
2015-02-21 18:57:33.961,3,1424570238.46698,39.63840509428377,-106.3699295056471,2516.945,-1,-1,10,65,-9999,1424570253.922508,9.039768218994141,-41.15020751953125,-17.59404754638672,250.3355712890625,241.2095031738281,10,22121.48181008334,-0.25531005859375,-0.810394287109375,-0.5128936767578125,22121.47908479167,0.03544507621230061,0.02551468113961315,-0.02394900873475557,22121.4273055,1.593567603070573,-0.5149135544644453,0.9375189210018769,0.08036771416664124,0.2267812788486481,0.03968470543622971,0.004597887396812439,-0.004668192472308874,0.005167904309928417,XTrueNorthZVertical,0.4678319942347259,0.15364057196056,0.5365356916752057,0.6853154684490749,-0.2914325892925262,-0.8060923218727112,-0.5150555968284607,11.81513214111328,-41.19921875,-20.31676864624023,2,192.168.1.118,10.97.20.126,1,0
2015-02-21 18:57:33.994,4,1424570238.46698,39.63840509428377,-106.3699295056471,2516.945,-1,-1,10,65,-9999,1424570253.972532,9.346771240234375,-41.21812438964844,-17.39434814453125,250.3161010742188,241.1900329589844,10,22121.530847,-0.273529052734375,-0.8195648193359375,-0.521209716796875,22121.53086383333,0.06306658409027545,0.129229625579986,-0.007045658979913633,22121.47908479167,1.592821578875536,-0.506197252242513,0.9415797104694733,0.0262464378029108,0.03743722289800644,0.0115229245275259,0.039737269282341,-0.006620466243475676,-0.001236349809914827,XTrueNorthZVertical,0.4666087872100961,0.1578660740333043,0.5373609349690318,0.6845420424311546,-0.2853427529335022,-0.8084887862205505,-0.5147090554237366,12.00168514251709,-41.26737976074219,-20.06757164001465,2,192.168.1.118,10.97.20.126,1,0
2015-02-21 18:57:34.093,5,1424570238.46698,39.63840509428377,-106.3699295056471,2516.945,-1,-1,10,65,-9999,1424570254.07693,9.380886077880859,-41.76155090332031,-17.09481811523438,249.3042907714844,240.17822265625,10,22121.579905625,-0.2358856201171875,-0.8198089599609375,-0.5241851806640625,22121.582642875,0.03780357167367478,0.04337437204190254,-0.004832838430166794,22121.53086383333,1.595662763628601,-0.5025231792936258,0.9427590486011889,0.05386786162853241,0.1411528736352921,0.0284243505448103,0.009461255744099617,-0.01038254052400589,-0.006291699595749378,XTrueNorthZVertical,0.4657020724698722,0.1601954153537107,0.5389119230721591,0.6833981180004517,-0.2829903066158295,-0.8091822862625122,-0.5149180293083191,12.13041591644287,-41.29288482666016,-19.93727493286133,2,192.168.1.118,10.97.20.126,1,0
2015-02-21 18:57:34.096,6,1424570238.46698,39.63840509428377,-106.3699295056471,2516.945,-1,-1,10,65,-9999,1424570254.07693,9.380886077880859,-41.76155090332031,-17.09481811523438,249.3042907714844,240.17822265625,10,22121.62894325,-0.2670440673828125,-0.8175506591796875,-0.5176544189453125,22121.582642875,0.03780357167367478,0.04337437204190254,-0.004832838430166794,22121.582642875,1.596168865423471,-0.496284822508598,0.9450283161526269,0.02861310541629791,0.05528374016284943,0.03069961629807949,0.04301188886165619,-0.009295440278947353,-0.009127850644290447,XTrueNorthZVertical,0.4645709149357146,0.1632335743104153,0.5400033975774114,0.6825870169710715,-0.2788974940776825,-0.8105134963989258,-0.5150573253631592,12.27777481079102,-41.35529327392578,-19.71649169921875,2,192.168.1.118,10.97.20.126,1,0
2015-02-21 18:57:34.149,7,1424570238.46698,39.63840509428377,-106.3699295056471,2516.945,-1,-1,10,65,-9999,1424570254.129604,9.261493682861328,-41.88043212890625,-16.91176605224609,248.8677978515625,239.7417297363281,10,22121.67811433334,-0.249847412109375,-0.813385009765625,-0.5020751953125,22121.68620120833,0.0117701067537142,-0.1123134926519117,0.04684926463223792,22121.634421875,1.594408909850802,-0.4938674453264922,0.9467243126361872,0.007091275416314602,-0.04232245311141014,0.007506474386900663,0.009955518878996372,-0.006044927053153515,-0.003135503036901355,XTrueNorthZVertical,0.4645059898112164,0.1642398475586605,0.539566943214474,0.6827349497517858,-0.2769995927810669,-0.8115057349205017,-0.5145189166069031,12.44193744659424,-41.34797286987305,-19.62874984741211,2,192.168.1.118,10.97.20.126,1,0
2015-02-21 18:57:34.198,8,1424570238.46698,39.63840509428377,-106.3699295056471,2516.945,-1,-1,10,65,-9999,1424570254.184145,8.886257171630859,-41.77853393554688,-16.84520721435547,248.6355590820312,239.5095062255859,10,22121.72705404167,-0.2788238525390625,-0.7942657470703125,-0.4918670654296875,22121.68620120833,0.0117701067537142,-0.1123134926519117,0.04684926463223792,22121.68620120833,1.596293457534064,-0.4977488876371478,0.9477968337810792,0.002584646921604872,-0.1003962382674217,0.08236660808324814,0.02873144671320915,-0.001253022579476237,0.01059964671730995,XTrueNorthZVertical,0.4656782636385445,0.1637263987361627,0.5390560297132826,0.6824632282256717,-0.2785788476467133,-0.8121320009231567,-0.512674868106842,12.44075012207031,-41.36421203613281,-19.59525871276855,2,192.168.1.118,10.97.20.126,1,0
2015-02-21 18:57:34.247,9,1424570238.46698,39.63840509428377,-106.3699295056471,2516.945,-1,-1,10,65,-9999,1424570254.184145,8.886257171630859,-41.77853393554688,-16.84520721435547,248.6355590820312,239.5095062255859,10,22121.77612466667,-0.304412841796875,-0.7994842529296875,-0.4858551025390625,22121.73798008333,0.01714330056905807,-0.1916669047046758,0.003584348511137647,22121.73798008333,1.600632210550102,-0.5098300762527724,0.9471213066000169,0.007961058989167213,-0.1797475516796112,0.03909758850932121,0.003891846165060997,0.01658689230680466,0.01033051311969757,XTrueNorthZVertical,0.4684039370035668,0.1603820819413623,0.5378744000894716,0.6823243431382757,-0.2850197851657867,-0.8117376565933228,-0.5097506642341614,12.20306587219238,-41.41438674926758,-19.63869094848633,2,192.168.1.118,10.97.20.126,1,0
2015-02-21 18:57:34.292,10,1424570238.46698,39.63840509428377,-106.3699295056471,2516.945,-1,-1,10,65,-9999,1424570254.258321,9.039764404296875,-42.3729248046875,-16.79528045654297,248.4541015625,239.3280334472656,10,22121.825153875,-0.299224853515625,-0.810546875,-0.5056915283203125,22121.78975933334,0.1401754839763207,-0.02042857608977982,0.06754042840549956,22121.78975933334,1.611398490488595,-0.5240223912933852,0.9489884932397958,0.1309974789619446,-0.008510686457157135,0.1030565053224564,-0.01329732034355402,-0.01119367312639952,0.01618204452097416,XTrueNorthZVertical,0.4718408999480578,0.1587310720637823,0.5377624111963387,0.6804279836404175,-0.2914664745330811,-0.8128266930580139,-0.5043412446975708,11.95650863647461,-41.4863395690918,-19.63848114013672,2,192.168.1.118,10.97.20.126,1,0
2015-02-21 18:57:34.345,11,1424570238.46698,39.63840509428377,-106.3699295056471,2516.945,-1,-1,10,65,-9999,1424570254.310831,9.176216125488281,-42.30497741699219,-16.99497222900391,249.3639221191406,240.2378540039062,10,22121.87422383334,-0.290679931640625,-0.8161773681640625,-0.5066375732421875,22121.84153845833,0.08340115059357547,0.0196852878295387,0.01280794063051808,22121.84153845833,1.618361051127205,-0.5291379368979042,0.9514218809674716,0.07422244548797607,0.03160281479358673,0.04832420870661736,-0.006242563016712666,-0.003430963028222322,-0.009073422290384769,XTrueNorthZVertical,0.4732807679205353,0.1594928240618586,0.5383366872235632,0.6787937867257303,-0.293043315410614,-0.8142417669296265,-0.5011346936225891,11.77257347106934,-41.63482666015625,-19.43429565429688,2,192.168.1.118,10.97.20.126,1,0
2015-02-21 18:57:34.397,12,1424570238.46698,39.63840509428377,-106.3699295056471,2516.945,-1,-1,10,65,-9999,1424570254.362469,9.210323333740234,-41.89739990234375,-17.12808990478516,250.2208862304688,241.0948333740234,10,22121.92326154167,-0.28887939453125,-0.8138275146484375,-0.4904022216796875,22121.89331716667,0.03997031953656326,0.08955544955663958,-0.01456509431775236,22121.89331716667,1.62262915491124,-0.5289954585579151,0.9520169836007707,0.0307906623929739,0.1014732420444489,0.02095010690391064,0.006548740901052952,-0.004535219632089138,-0.006123673170804977,XTrueNorthZVertical,0.473050809972143,0.1607604143640869,0.5396747096489478,0.6775915200491259,-0.2927273213863373,-0.8145871162414551,-0.5007580518722534,11.71028709411621,-41.72328567504883,-19.2816162109375,2,192.168.1.118,10.97.20.126,1,0
2015-02-21 18:57:34.443,13,1424570238.46698,39.63840509428377,-106.3699295056471,2516.945,-1,-1,10,65,-9999,1424570254.414331,9.005649566650391,-41.79551696777344,-17.09480285644531,250.1944274902344,241.068359375,10,22121.97233058334,-0.27545166015625,-0.8179168701171875,-0.4922943115234375,22121.94509641667,0.02000273663147615,0.1428000292305938,0.001251685712337242,22121.94509641667,1.625041556539248,-0.5244166251309149,0.9526447584666129,0.01082444936037064,0.1547186374664307,0.03676461055874825,0.002180889016017318,-0.00581919401884079,0.009569692425429821,XTrueNorthZVertical,0.4717761132973264,0.1631015280476243,0.5414221606822216,0.6765258859140332,-0.2901752591133118,-0.8149510622024536,-0.5016503930091858,11.78903198242188,-41.75236511230469,-19.17037582397461,2,192.168.1.118,10.97.20.126,1,0
2015-02-21 18:57:34.501,14,1424570238.46698,39.63840509428377,-106.3699295056471,2516.945,-1,-1,10,65,-9999,1424570254.466166,8.818035125732422,-42.05024719238281,-16.64550018310547,250.1289367675781,241.0028839111328,10,22122.021360875,-0.2705841064453125,-0.816558837890625,-0.498382568359375,22121.99687575,0.01180233100290416,0.07858216060107709,0.005334045347319706,22121.99687575,1.627885496222416,-0.5197129897928447,0.9532652225563026,0.002626861678436399,0.09050225466489792,0.04084322601556778,0.0181216187775135,-0.0005769612034782767,0.01055107172578573,XTrueNorthZVertical,0.4704231769306651,0.1655798051766138,0.5433424887575572,0.6753253605143624,-0.2875613272190094,-0.8153104782104492,-0.5025707483291626,11.8577995300293,-41.79167556762695,-19.04186820983887,2,192.168.1.118,10.97.20.126,1,0
2015-02-21 18:57:34.541,15,1424570238.46698,39.63840509428377,-106.3699295056471,2516.945,-1,-1,10,65,-9999,1424570254.517832,8.886257171630859,-42.22006225585938,-16.37924194335938,250.0396728515625,240.9136047363281,10,22122.07042175,-0.2830963134765625,-0.8206024169921875,-0.498443603515625,22122.048654625,0.01246492548211587,-0.03033766587374665,-0.004149737610561469,22122.048654625,1.627949198470117,-0.5179905598515804,0.9533372379811274,0.003290926339104772,-0.01841521449387074,0.03135403990745544,0.01910330913960934,0.0001666396419750527,-0.001227673259563744,XTrueNorthZVertical,0.4699679341168606,0.1662017022724686,0.5437516913817911,0.6751601832914023,-0.2866661846637726,-0.815352201461792,-0.5030142664909363,11.93898582458496,-41.81182098388672,-18.94667434692383,2,192.168.1.118,10.97.20.126,1,0
2015-02-21 18:57:34.592,16,1424570238.46698,39.63840509428377,-106.3699295056471,2516.945,-1,-1,10,65,-9999,1424570254.569646,8.613357543945312,-42.22006225585938,-16.47907257080078,248.1659240722656,239.0398712158203,10,22122.11946725,-0.2880401611328125,-0.809783935546875,-0.49859619140625,22122.100433625,-0.004756938339099535,-0.02645877174604624,-0.01033253239728943,22122.100433625,1.629214457558311,-0.5204014695400168,0.9528494504097595,-0.01392894424498081,-0.01453572977334261,0.02516933158040047,-0.001063008909113705,-0.00663137249648571,0.001873234403319657,XTrueNorthZVertical,0.4703955779027209,0.1655133063780765,0.5437288192318622,0.6750498920502559,-0.2880757749080658,-0.8150696754455566,-0.502666711807251,11.90247821807861,-41.81791687011719,-18.95619201660156,2,192.168.1.118,10.97.20.126,1,0
2015-02-21 18:57:34.640,17,1424570238.46698,39.63840509428377,-106.3699295056471,2516.945,-1,-1,10,65,-9999,1424570254.622263,8.596298217773438,-42.13516235351562,-16.69541168212891,248.5658569335938,239.4398040771484,10,22122.16864091667,-0.272735595703125,-0.81341552734375,-0.502349853515625,22122.152213,0.006065615698764473,0.009987386720015159,-0.02228107094403894,22122.152213,1.629933009310804,-0.5203477406728568,0.9517143614579698,-0.003106434131041169,0.02191044017672539,0.01322019379585981,0.007243313360959291,0.005436304491013288,0.00281318393535912,XTrueNorthZVertical,0.4700358344295921,0.165299815584219,0.5442558806100707,0.674928041838707,-0.2885085642337799,-0.8144115209579468,-0.5034845471382141,11.85394668579102,-41.81832885742188,-18.98566818237305,2,192.168.1.118,10.97.20.126,1,0
2015-02-21 18:57:34.692,18,1424570238.46698,39.63840509428377,-106.3699295056471,2516.945,-1,-1,10,65,-9999,1424570254.673215,8.818031311035156,-42.2540283203125,-17.01158142089844,248.5069580078125,239.3809051513672,10,22122.217637375,-0.271697998046875,-0.7998809814453125,-0.49591064453125,22122.20399179167,0.01862135497405205,-0.03283437939569594,-0.00287461608063153,22122.152213,1.629933009310804,-0.5203477406728568,0.9517143614579698,-0.003106434131041169,0.02191044017672539,0.01322019379585981,0.007243313360959291,0.005436304491013288,0.00281318393535912,XTrueNorthZVertical,0.4700358344295921,0.165299815584219,0.5442558806100707,0.674928041838707,-0.2885085642337799,-0.8144115209579468,-0.5034845471382141,11.85394668579102,-41.81832885742188,-18.98566818237305,2,192.168.1.118,10.97.20.126,1,0
2015-02-21 18:57:34.738,19,1424570238.46698,39.63840509428377,-106.3699295056471,2516.945,-1,-1,10,65,-9999,1424570254.72515,8.800971984863281,-42.33894348144531,-16.86182403564453,248.5260009765625,239.3999481201172,10,22122.26676295833,-0.24151611328125,-0.800689697265625,-0.48199462890625,22122.25577108334,0.04711371652848279,-0.06988294490033325,0.02614318715687185,22122.25577108334,1.632359770210409,-0.5226782973512245,0.9522353059863442,0.03794226795434952,-0.05795557424426079,0.06163478642702103,0.03109227865934372,0.01577877439558506,0.01268177945166826,XTrueNorthZVertical,0.470600502035065,0.1652682707035266,0.544401589701751,0.6744245808333146,-0.2894693613052368,-0.814713716506958,-0.5024431347846985,11.82819652557373,-41.82984924316406,-18.97634506225586,2,192.168.1.118,10.97.20.126,1,0
2015-02-21 18:57:34.792,20,1424570238.46698,39.63840509428377,-106.3699295056471,2516.945,-1,-1,10,65,-9999,1424570254.776621,8.493961334228516,-42.71257019042969,-16.82853698730469,248.5194091796875,239.3933410644531,10,22122.315700375,-0.21270751953125,-0.77435302734375,-0.46575927734375,22122.307550125,0.1347631416929527,-0.3412161830858573,0.04873744584510411,22122.25577108334,1.632359770210409,-0.5226782973512245,0.9522353059863442,0.03794226795434952,-0.05795557424426079,0.06163478642702103,0.03109227865934372,0.01577877439558506,0.01268177945166826,XTrueNorthZVertical,0.470600502035065,0.1652682707035266,0.544401589701751,0.6744245808333146,-0.2894693613052368,-0.814713716506958,-0.5024431347846985,11.82819652557373,-41.82984924316406,-18.97634506225586,2,192.168.1.118,10.97.20.126,1,0
2015-02-21 18:57:34.836,21,1424570238.46698,39.63840509428377,-106.3699295056471,2516.945,-1,-1,10,65,-9999,1424570254.828756,7.99932861328125,-43.20506286621094,-16.54563903808594,248.0047607421875,238.8786926269531,10,22122.36488766667,-0.259490966796875,-0.78277587890625,-0.46826171875,22122.35932920834,0.2642657412846718,-0.8317217200305046,0.03764671148546912,22122.307550125,1.637783323518977,-0.5346880252192512,0.9554315654803629,0.1255943030118942,-0.3292833566665649,0.08421766757965088,0.0840558186173439,0.04001264646649361,0.03092812746763229,XTrueNorthZVertical,0.4742159034866913,0.1636324377134014,0.5426224834089222,0.6737244114817129,-0.2941540777683258,-0.8165629506111145,-0.4966874122619629,11.77014923095703,-41.88292694091797,-18.89519500732422,2,192.168.1.118,10.97.20.126,1,0
2015-02-21 18:57:34.895,22,1424570238.46698,39.63840509428377,-106.3699295056471,2516.945,-1,-1,10,65,-9999,1424570254.879715,7.180637359619141,-43.10316467285156,-16.27938079833984,249.2085876464844,240.0825347900391,10,22122.41380295833,-0.381561279296875,-0.8260498046875,-0.5602569580078125,22122.41110825,0.08354842340185685,-1.183445138881161,0.2352245022295757,22122.35932920834,1.652016919548828,-0.576312392216742,0.9628152449189759,0.2550970911979675,-0.8197878003120422,0.0731242299079895,0.05750461667776108,0.04294037073850632,0.01169357821345329,XTrueNorthZVertical,0.4861014260509857,0.1556640458040673,0.5356089791885542,0.6727534241954313,-0.3112735450267792,-0.8208029270172119,-0.4789482057094574,11.18353843688965,-42.09523391723633,-18.77935028076172,2,192.168.1.118,10.97.20.126,1,0
2015-02-21 18:57:34.934,23,1424570238.46698,39.63840509428377,-106.3699295056471,2516.945,-1,-1,10,65,-9999,1424570254.879715,7.180637359619141,-43.10316467285156,-16.27938079833984,249.2085876464844,240.0825347900391,10,22122.46298766667,-0.8927001953125,-0.93365478515625,-0.4985198974609375,22122.46288758333,-0.2331613513330913,0.4917617500308376,1.236900640913449,22122.41110825,1.671288957109059,-0.6417287938723631,0.9661700083454865,0.07437968254089355,-1.171511292457581,0.2707015872001648,0.01047810446470976,0.02117038704454899,-0.1022496372461319,XTrueNorthZVertical,0.5028104464618143,0.1396348079437502,0.5250679587324205,0.6723001219477265,-0.3402663171291351,-0.8227145671844482,-0.4553675651550293,10.27497005462646,-42.33662796020508,-18.75577926635742,2,192.168.1.118,10.97.20.126,1,0
2015-02-21 18:57:34.991,24,1424570238.46698,39.63840509428377,-106.3699295056471,2516.945,-1,-1,10,65,-9999,1424570254.984104,3.035984039306641,-43.01826477050781,-17.22791290283203,246.2771911621094,237.1511383056641,10,22122.51192716667,-0.499969482421875,-0.9171905517578125,-0.5472564697265625,22122.46288758333,-0.2331613513330913,0.4917617500308376,1.236900640913449,22122.46288758333,1.718279188983763,-0.7076186298477453,0.9323093579935211,-0.2423299849033356,0.5036954879760742,1.272377371788025,-0.4925253093242645,-0.09951318055391312,-0.01669597998261452,XTrueNorthZVertical,0.5097353933022548,0.1171460704464431,0.5328782122494755,0.665197322471108,-0.387403279542923,-0.802998423576355,-0.4528932571411133,8.565437316894531,-42.51688003540039,-19.20136070251465,2,192.168.1.118,10.97.20.126,1,0
2015-02-21 18:57:35.032,25,1424570238.46698,39.63840509428377,-106.3699295056471,2516.945,-1,-1,10,65,-9999,1424570254.984104,3.035984039306641,-43.01826477050781,-17.22791290283203,246.2771911621094,237.1511383056641,10,22122.5611005,-0.3954315185546875,-0.775115966796875,-0.513580322265625,22122.56644575,-0.6546710423365107,0.5486466045988211,1.396461807096675,22122.51466641667,1.793318180553036,-0.7003441109238095,0.8749160650008549,-0.4414310157299042,1.355303645133972,1.557037949562073,-0.08681774884462357,-0.1497008502483368,-0.05708787590265274,XTrueNorthZVertical,0.4911720351316138,0.1169005329394867,0.5740104056105392,0.6446676597076458,-0.413151741027832,-0.7674896717071533,-0.4901686012744904,6.119468688964844,-42.78591156005859,-19.53617858886719,2,192.168.1.118,10.97.20.126,1,0
2015-02-21 18:57:35.092,26,1424570238.46698,39.63840509428377,-106.3699295056471,2516.945,-1,-1,10,65,-9999,1424570255.036272,0.5798912048339844,-42.95030212402344,-17.96010589599609,240.870361328125,231.7442932128906,10,22122.610034,-0.500091552734375,-0.6002349853515625,-0.5096893310546875,22122.56644575,-0.6546710423365107,0.5486466045988211,1.396461807096675,22122.56644575,1.852287101223227,-0.6951302662691784,0.8050236709305295,-0.6638334393501282,0.5605596899986267,1.432015657424927,0.04848525673151016,-0.05426891893148422,0.01869541965425014,XTrueNorthZVertical,0.4718171089630149,0.1060695266944477,0.6112734798804728,0.6264843524864704,-0.4439167678356171,-0.7208470702171326,-0.5322757363319397,4.276037216186523,-42.71311187744141,-20.17547607421875,2,192.168.1.118,10.97.20.126,1,0
2015-02-21 18:57:35.130,27,1424570238.46698,39.63840509428377,-106.3699295056471,2516.945,-1,-1,10,65,-9999,1424570255.088434,-1.637413024902344,-42.1351318359375,-18.92527008056641,236.5367431640625,227.4106750488281,10,22122.65919529167,-0.41876220703125,-0.5500640869140625,-0.5279541015625,22122.61822483334,-0.4789173240933854,0.3131230293788295,1.249190863028056,22122.61822483334,1.89765585394186,-0.7098784222358023,0.7374259638813175,-0.488079696893692,0.3250359892845154,1.284744262695312,-0.01767128892242908,0.0721498504281044,0.05171013250946999,XTrueNorthZVertical,0.460370523835722,0.08578606755109043,0.6378772870490392,0.611401944700274,-0.4824202656745911,-0.6723848581314087,-0.5613994598388672,2.034442901611328,-42.30720901489258,-21.34725570678711,2,192.168.1.118,10.97.20.126,1,0
2015-02-21 18:57:35.193,28,1424570238.46698,39.63840509428377,-106.3699295056471,2516.945,-1,-1,10,65,-9999,1424570255.140293,-3.701206207275391,-40.89537048339844,-19.84050750732422,232.389404296875,223.2633514404297,10,22122.70811558333,-0.3553466796875,-0.5048370361328125,-0.5176239013671875,22122.670003875,-0.190767555204556,0.565280442451347,1.005005356362581,22122.670003875,1.940903961521318,-0.7126864665683791,0.6876399806443997,-0.1999298185110092,0.5771932601928711,1.040558457374573,0.1193187162280083,0.09044951200485229,0.06222023069858551,XTrueNorthZVertical,0.449469200777623,0.07512976780561231,0.6616152053716717,0.5954815828233285,-0.5052745342254639,-0.6347152590751648,-0.5846658945083618,-0.5772819519042969,-41.77390289306641,-22.45779037475586,2,192.168.1.118,10.97.20.126,1,0
2015-02-21 18:57:35.228,29,1424570238.46698,39.63840509428377,-106.3699295056471,2516.945,-1,-1,10,65,-9999,1424570255.1913,-5.543277740478516,-40.45382690429688,-20.53942108154297,228.6487426757812,219.5226898193359,10,22122.75728541667,-0.354156494140625,-0.477752685546875,-0.490631103515625,22122.72178295834,0.04031253573663843,0.09558963995454112,0.6115653832485972,22122.72178295834,1.978211409159311,-0.719620393092831,0.6574416196166701,0.03115036524832249,0.1075023263692856,0.6471180319786072,0.1699698269367218,0.1121466010808945,0.07841989398002625,XTrueNorthZVertical,0.444454712232762,0.06936821989828039,0.677703826687824,0.5816920336861185,-0.5217154622077942,-0.6110937595367432,-0.5952961444854736,-1.899850845336914,-41.56476593017578,-22.77070236206055,2,192.168.1.118,10.97.20.126,1,0
2015-02-21 18:57:35.293,30,1424570238.46698,39.63840509428377,-106.3699295056471,2516.945,-1,-1,10,65,-9999,1424570255.243593,-6.958934783935547,-40.30096435546875,-20.45622253417969,226.2560729980469,217.1300048828125,10,22122.80622304167,-0.3158721923828125,-0.4960784912109375,-0.4886016845703125,22122.77356233334,0.2919458387066284,-0.1408884122001349,0.01526444042000717,22122.77356233334,2.000425299888235,-0.7354014636252653,0.6525835428966343,0.2827837467193604,-0.1289758235216141,0.05081682652235031,0.183313712477684,0.1301292777061462,0.09902559220790863,XTrueNorthZVertical,0.448118250102877,0.06781000548621921,0.6816609561920298,0.5743955238361786,-0.5330299139022827,-0.6072410941123962,-0.5891836881637573,-2.91169548034668,-41.55774688720703,-22.67642211914062,2,192.168.1.118,10.97.20.126,1,0
2015-02-21 18:57:35.326,31,1424570238.46698,39.63840509428377,-106.3699295056471,2516.945,-1,-1,10,65,-9999,1424570255.29524,-7.641185760498047,-40.40286254882812,-20.09012603759766,226.0234680175781,216.8973999023438,10,22122.85530804167,-0.239532470703125,-0.533111572265625,-0.4299468994140625,22122.825341125,0.4839842543833702,-0.4809756812999077,-0.6651617665025509,22122.825341125,2.001702695235929,-0.752955152343338,0.6783511874619194,0.4748222529888153,-0.4690632224082947,-0.6296097636222839,0.2150433659553528,0.1257248222827911,0.08091512322425842,XTrueNorthZVertical,0.4588514100986099,0.07342515459204123,0.6723582537185731,0.5761931522494339,-0.5324109196662903,-0.6275100708007812,-0.5681282877922058,-3.024875640869141,-41.97703552246094,-21.87516403198242,2,192.168.1.118,10.97.20.126,1,0
2015-02-21 18:57:35.395,32,1424570238.46698,39.63840509428377,-106.3699295056471,2516.945,-1,-1,10,65,-9999,1424570255.347309,-6.703098297119141,-41.77848815917969,-18.8753662109375,226.7674865722656,217.6414337158203,10,22122.90435729167,-0.2689971923828125,-0.57843017578125,-0.4949798583984375,22122.8771205,0.7236461156212359,-0.7671680267875289,-1.252847116888625,22122.8771205,1.985079182918632,-0.7695709159057943,0.732674163763429,0.7144842147827148,-0.7552556991577148,-1.217295408248901,0.2969939708709717,0.1215882375836372,0.09567607939243317,XTrueNorthZVertical,0.4749385524849478,0.08648191701187148,0.6511933492047683,0.5855779292834621,-0.5172698497772217,-0.6688599586486816,-0.533908486366272,-2.080410003662109,-42.56842041015625,-20.81695747375488,2,192.168.1.118,10.97.20.126,1,0
2015-02-21 18:57:35.424,33,1424570238.46698,39.63840509428377,-106.3699295056471,2516.945,-1,-1,10,65,-9999,1424570255.399273,-4.792808532714844,-42.89933776855469,-17.44425201416016,229.5444641113281,220.4184112548828,10,22122.95354379167,-0.3722686767578125,-0.7392578125,-0.4197235107421875,22122.92889954167,1.006260504184336,-1.467559419770193,-2.035652160332664,22122.92889954167,1.946416681375687,-0.8049446831366631,0.8224970178926503,0.9970986843109131,-1.455647230148315,-2.00010085105896,0.1391955316066742,0.1108683049678802,0.03635850176215172,XTrueNorthZVertical,0.5037625383449309,0.1020567259478765,0.6091177033202972,0.6039730069049897,-0.4904223382472992,-0.7328470945358276,-0.4716154634952545,-0.3445339202880859,-43.32073211669922,-19.31165313720703,2,192.168.1.118,10.97.20.126,1,0
2015-02-21 18:57:35.494,34,1424570238.46698,39.63840509428377,-106.3699295056471,2516.945,-1,-1,10,65,-9999,1424570255.450746,-1.876201629638672,-44.37684631347656,-15.19774627685547,236.7773742675781,227.6513061523438,10,22123.00247808333,-0.5177459716796875,-0.9699554443359375,-0.3880767822265625,22122.980678625,1.061467833581678,-1.333686572829654,-2.806083358403867,22122.980678625,1.878997892151201,-0.8202941801268343,0.949964121862845,1.052306056022644,-1.321774482727051,-2.770532369613647,0.007784946355968714,-0.04224196076393127,0.008746110834181309,XTrueNorthZVertical,0.5337809138485575,0.129275928722447,0.5507339006299884,0.6285363003676091,-0.4254332482814789,-0.8133946061134338,-0.3967313468456268,3.745964050292969,-44.25817489624023,-16.64109420776367,2,192.168.1.118,10.97.20.126,1,0
2015-02-21 18:57:35.522,35,1424570238.46698,39.63840509428377,-106.3699295056471,2516.945,-1,-1,10,65,-9999,1424570255.502921,2.728969573974609,-45.12411499023438,-13.36727142333984,247.6378784179688,238.5118103027344,10,22123.05155933333,-0.452484130859375,-1.072265625,-0.326629638671875,22123.03245770833,0.8208879807160623,-0.3811593383793018,-3.067000973566091,22123.03245770833,1.740956480366019,-0.7471493341852368,1.087563431381101,0.8117263913154602,-0.3692473769187927,-3.031450271606445,-0.1948404312133789,-0.1017920225858688,-0.02686022035777569,XTrueNorthZVertical,0.5492319362399806,0.1670508357662825,0.4875302730399929,0.6578393202541133,-0.3157491683959961,-0.8854973912239075,-0.3408766090869904,8.588605880737305,-44.18170547485352,-14.96519088745117,2,192.168.1.118,10.97.20.126,1,0
2015-02-21 18:57:35.592,36,1424570238.46698,39.63840509428377,-106.3699295056471,2516.945,-1,-1,10,65,-9999,1424570255.553199,9.466163635253906,-44.83541870117188,-11.28717041015625,254.6340026855469,245.5079498291016,10,22123.10061041667,-0.2850799560546875,-1.174285888671875,-0.3160247802734375,22123.084236875,0.8059585659611871,0.6712478885417089,-2.86113196340024,22123.084236875,1.5080476468303,-0.519681637927112,1.206725550974658,0.7967970967292786,0.6831597685813904,-2.825581789016724,-0.2121305018663406,-0.2632988691329956,-0.0421258769929409,XTrueNorthZVertical,0.5445571597651711,0.2211838443554775,0.4385122754723952,0.6798839834292459,-0.1768312901258469,-0.9344550371170044,-0.3090704083442688,14.36649703979492,-43.14543914794922,-13.48404598236084,2,192.168.1.118,10.97.20.126,1,0
2015-02-21 18:57:35.620,37,1424570238.46698,39.63840509428377,-106.3699295056471,2516.945,-1,-1,10,65,-9999,1424570255.606259,16.51037216186523,-43.76548767089844,-9.440055847167969,262.7860107421875,253.6599578857422,10,22123.14970470834,-0.0897369384765625,-1.11517333984375,-0.2555084228515625,22123.13601583333,0.7409819627371068,0.6984941570220916,-2.394436950813665,22123.13601583333,1.16143772063772,-0.1529678069878019,1.289093561773764,0.7318205237388611,0.7104058861732483,-2.358886957168579,-0.0894014909863472,-0.1271393001079559,0.0174673106521368,XTrueNorthZVertical,0.5343813749284639,0.2776034387006918,0.3988900253352237,0.6915632035889094,-0.0423581525683403,-0.9605834484100342,-0.274745762348175,21.82906341552734,-40.72407531738281,-10.7138204574585,2,192.168.1.118,10.97.20.126,1,0
2015-02-21 18:57:35.692,38,1424570238.46698,39.63840509428377,-106.3699295056471,2516.945,-1,-1,10,65,-9999,1424570255.657951,22.42886352539062,-42.0162353515625,-7.160270690917969,267.1781921386719,258.0521240234375,10,22123.19871970834,0.017669677734375,-1.053909301757812,-0.2134857177734375,22123.18779520833,0.5158124915192343,0.2110451300605283,-1.937702427020094,22123.13601583333,1.16143772063772,-0.1529678069878019,1.289093561773764,0.7318205237388611,0.7104058861732483,-2.358886957168579,-0.0894014909863472,-0.1271393001079559,0.0174673106521368,XTrueNorthZVertical,0.5343813749284639,0.2776034387006918,0.3988900253352237,0.6915632035889094,-0.0423581525683403,-0.9605834484100342,-0.274745762348175,21.82906341552734,-40.72407531738281,-10.7138204574585,2,192.168.1.118,10.97.20.126,1,0
2015-02-21 18:57:35.719,39,1424570238.46698,39.63840509428377,-106.3699295056471,2516.945,-1,-1,10,65,-9999,1424570255.710428,27.05109024047852,-39.75752258300781,-6.012046813964844,271.9754333496094,262.849365234375,10,22123.24790970833,-0.0501708984375,-0.935333251953125,-0.14410400390625,22123.23957433334,0.09923683906740463,0.1114298558022234,-1.300817039707569,22123.23957433334,0.4635594053073804,0.5487278500870182,1.296475520214517,0.09007563441991806,0.1233413368463516,-1.265267848968506,-0.1757071316242218,0.002495883032679558,0.07348458468914032,XTrueNorthZVertical,0.5160462268061178,0.343707324568909,0.3354754489946712,0.7092374989223644,0.1412985622882843,-0.9626094102859497,-0.2311231344938278,29.31346702575684,-36.46592712402344,-7.791084289550781,2,192.168.1.118,10.97.20.126,1,0
2015-02-21 18:57:35.760,40,1424570238.46698,39.63840509428377,-106.3699295056471,2516.945,-1,-1,10,65,-9999,1424570255.710428,27.05109024047852,-39.75752258300781,-6.012046813964844,271.9754333496094,262.849365234375,10,22123.296833875,-0.0003509521484375,-0.870330810546875,-0.111785888671875,22123.23957433334,0.09923683906740463,0.1114298558022234,-1.300817039707569,22123.23957433334,0.4635594053073804,0.5487278500870182,1.296475520214517,0.09007563441991806,0.1233413368463516,-1.265267848968506,-0.1757071316242218,0.002495883032679558,0.07348458468914032,XTrueNorthZVertical,0.5160462268061178,0.343707324568909,0.3354754489946712,0.7092374989223644,0.1412985622882843,-0.9626094102859497,-0.2311231344938278,29.31346702575684,-36.46592712402344,-7.791084289550781,2,192.168.1.118,10.97.20.126,1,0
2015-02-21 18:57:35.817,41,1424570238.46698,39.63840509428377,-106.3699295056471,2516.945,-1,-1,10,65,-9999,1424570255.763106,30.34293556213379,-37.73655700683594,-4.930397033691406,275.6626892089844,266.53662109375,10,22123.345903625,0.039154052734375,-0.8230133056640625,-0.0850372314453125,22123.34313245834,-0.3390600878673292,0.9656342480712859,-0.5044905947769803,22123.29135325,0.3282472492413215,0.6998064937924122,1.264012286406651,-0.1820447444915771,0.6811003684997559,-0.8238263726234436,-0.2054613083600998,0.07743994891643524,0.1196266189217567,XTrueNorthZVertical,0.5023183084662985,0.3635497613978662,0.3236371215296286,0.7146796075543942,0.1945054978132248,-0.9533097147941589,-0.2310157716274261,31.9802303314209,-34.26904296875,-7.255467414855957,2,192.168.1.118,10.97.20.126,1,0
2015-02-21 18:57:35.892,42,1424570238.46698,39.63840509428377,-106.3699295056471,2516.945,-1,-1,10,65,-9999,1424570255.865392,33.44716262817383,-35.76652526855469,-3.099922180175781,275.8524475097656,266.7263793945312,10,22123.39493395833,0.0643463134765625,-0.7512969970703125,-0.1060791015625,22123.39491191667,-0.4575193573668168,1.073075487508898,-0.3345178003120901,22123.34313245834,0.2855892480328622,0.784367874331505,1.233022084975596,-0.3482211232185364,0.9775454998016357,-0.4689421355724335,-0.196807935833931,0.1102884113788605,0.1459144502878189,XTrueNorthZVertical,0.4844773594696818,0.3847046679466583,0.3260352523032948,0.7148321906544488,0.2340851575136185,-0.9434946179389954,-0.2345680147409439,33.34394454956055,-33.10963439941406,-6.455829620361328,2,192.168.1.118,10.97.20.126,1,0
2015-02-21 18:57:35.915,43,1424570238.46698,39.63840509428377,-106.3699295056471,2516.945,-1,-1,10,65,-9999,1424570255.865392,33.44716262817383,-35.76652526855469,-3.099922180175781,275.8524475097656,266.7263793945312,10,22123.44399108334,0.1000518798828125,-0.57208251953125,-0.1390228271484375,22123.44669083333,-0.5668855296403378,1.294052876854876,-0.2236948789222957,22123.39491191667,0.2923392174251526,0.8294757816295489,1.20513483638875,-0.4666802883148193,1.084986686706543,-0.2989696860313416,-0.2059942632913589,0.1553229838609695,0.1372799873352051,XTrueNorthZVertical,0.4648260771325441,0.403993628015517,0.3357655197871116,0.7127323636411471,0.2637335360050201,-0.9338874220848083,-0.2414517402648926,34.28261947631836,-32.3148193359375,-5.495349884033203,2,192.168.1.118,10.97.20.126,1,0
2015-02-21 18:57:35.962,44,1424570238.46698,39.63840509428377,-106.3699295056471,2516.945,-1,-1,10,65,-9999,1424570255.916833,34.19763565063477,-34.88339233398438,-2.068191528320312,274.1654663085938,265.0393981933594,10,22123.49303133334,0.235107421875,-0.474456787109375,-0.096221923828125,22123.44669083333,-0.5668855296403378,1.294052876854876,-0.2236948789222957,22123.44669083333,0.3236389977604419,0.859615449407405,1.179073785770222,-0.576046347618103,1.30596387386322,-0.1881471574306488,-0.1891822963953018,0.3521702885627747,0.1101767271757126,XTrueNorthZVertical,0.4430020272518311,0.4232604724528854,0.3503838476714668,0.7084002932803189,0.2892341613769531,-0.9242528080940247,-0.2491995543241501,35.14593887329102,-31.58665084838867,-4.097630023956299,2,192.168.1.118,10.97.20.126,1,0
2015-02-21 18:57:36.013,45,1424570238.46698,39.63840509428377,-106.3699295056471,2516.945,-1,-1,10,65,-9999,1424570255.968948,34.82871246337891,-34.08518981933594,-0.7868499755859375,272.1403198242188,263.0142517089844,10,22123.54219708333,0.21356201171875,-0.6791534423828125,-0.05615234375,22123.55024916667,-0.411651467596273,2.475705708322414,0.3834880064364671,22123.49846991667,0.3804993679966731,0.8914521694760221,1.158976187489509,-0.6840675473213196,2.14206862449646,0.2643209099769592,-0.07630285620689392,0.4419369995594025,0.1552659273147583,XTrueNorthZVertical,0.416963798218387,0.447657531848929,0.3745881279689881,0.6967264165064261,0.3114102780818939,-0.9163937568664551,-0.2514878511428833,35.57479476928711,-31.25931739807129,-2.652046680450439,2,192.168.1.118,10.97.20.126,1,0
2015-02-21 18:57:36.061,46,1424570238.46698,39.63840509428377,-106.3699295056471,2516.945,-1,-1,10,65,-9999,1424570256.02292,35.1868896484375,-34.13615417480469,1.060272216796875,268.6076049804688,259.4815368652344,10,22123.59111995834,0.4897918701171875,-0.825347900390625,-0.0748138427734375,22123.55024916667,-0.411651467596273,2.475705708322414,0.3834880064364671,22123.55024916667,0.4722275042719042,0.9302688081931423,1.158806207587038,-0.4208121299743652,2.487616300582886,0.4190350472927094,-0.1074980422854424,0.2371722906827927,0.183154284954071,XTrueNorthZVertical,0.3879779172266372,0.4793952634792627,0.413725184132837,0.6696900992484172,0.3210600614547729,-0.9163257479667664,-0.239306628704071,35.28662872314453,-31.69534683227539,-0.05348300933837891,2,192.168.1.118,10.97.20.126,1,0
2015-02-21 18:57:36.112,47,1424570238.46698,39.63840509428377,-106.3699295056471,2516.945,-1,-1,10,65,-9999,1424570256.100082,34.14646911621094,-34.900390625,4.538177490234375,260.8906860351562,251.7646179199219,10,22123.6402525,0.40948486328125,-0.837860107421875,-0.0976409912109375,22123.60202816667,-0.3776495583786864,1.524962259170197,0.2533039039217966,22123.60202816667,0.5323687770315126,0.9769317311873374,1.159539507020089,-0.3867340087890625,1.536818861961365,0.2889454662799835,0.1530434489250183,0.08376389741897583,0.136810377240181,XTrueNorthZVertical,0.3634561810810695,0.5060164445152632,0.4423582476623829,0.6451094348698818,0.3313162922859192,-0.9166191220283508,-0.223693922162056,34.30308532714844,-32.51353454589844,3.989060401916504,2,192.168.1.118,10.97.20.126,1,0
2015-02-21 18:57:36.164,48,1424570238.46698,39.63840509428377,-106.3699295056471,2516.945,-1,-1,10,65,-9999,1424570256.150678,33.49833679199219,-35.40988159179688,6.268814086914062,256.7950439453125,247.6689910888672,10,22123.68921379167,0.44317626953125,-0.85845947265625,-0.1186370849609375,22123.65380754167,-0.2257729435208845,0.9917217751613752,0.2505912080354419,22123.65380754167,0.5834222810730898,0.9860757686843969,1.162471579193415,-0.2348573356866837,1.003578186035156,0.2862324118614197,0.08223998546600342,0.06511091440916061,0.1158076003193855,XTrueNorthZVertical,0.3494651700056021,0.5179659981576544,0.4606292351137867,0.6304015128336578,0.3311053514480591,-0.9177873134613037,-0.2191706448793411,33.60512924194336,-33.01263427734375,5.532214164733887,2,192.168.1.118,10.97.20.126,1,0
2015-02-21 18:57:36.210,49,1424570238.46698,39.63840509428377,-106.3699295056471,2516.945,-1,-1,10,65,-9999,1424570256.202307,32.76491546630859,-35.83444213867188,7.184059143066406,254.252197265625,245.1261291503906,10,22123.738275625,0.486572265625,-0.9525909423828125,-0.1606292724609375,22123.70558658334,-0.2012423004040557,0.8100827372252838,0.3847926890544969,22123.70558658334,0.6331497291184538,0.9890875912072166,1.171893417395781,-0.2103265970945358,0.8219391107559204,0.4204335510730743,0.1353908181190491,0.04772362858057022,0.08670257031917572,XTrueNorthZVertical,0.3394342855920664,0.5273315732110291,0.4777273989293945,0.6152091919749869,0.3245243430137634,-0.9214876890182495,-0.2134115546941757,32.85599899291992,-33.54705429077148,6.694969177246094,2,192.168.1.118,10.97.20.126,1,0
2015-02-21 18:57:36.248,50,1424570238.46698,39.63840509428377,-106.3699295056471,2516.945,-1,-1,10,65,-9999,1424570256.202307,32.76491546630859,-35.83444213867188,7.184059143066406,254.252197265625,245.1261291503906,10,22123.78729654167,0.3516845703125,-0.979522705078125,-0.1967926025390625,22123.75736570833,-0.1214739678534573,0.2360657948179318,0.5508186787838898,22123.75736570833,0.6880060581648757,0.9624406213658419,1.189200857225747,-0.1305581778287888,0.2479220479726791,0.586459219455719,0.1608419418334961,-0.03320153057575226,0.06152849644422531,XTrueNorthZVertical,0.3381544591440999,0.5284261897857452,0.491740625803949,0.6038282210715211,0.3055887222290039,-0.9280716776847839,-0.2128346413373947,31.61832427978516,-34.50812530517578,7.695143699645996,2,192.168.1.118,10.97.20.126,1,0
2015-02-21 18:57:36.307,51,1424570238.46698,39.63840509428377,-106.3699295056471,2516.945,-1,-1,10,65,-9999,1424570256.253887,31.82682609558105,-36.59866333007812,7.766494750976562,251.5343933105469,242.4083251953125,10,22123.83635875,0.337677001953125,-0.9712066650390625,-0.1483306884765625,22123.80914483334,0.03532976133710018,0.5117991077564847,0.6561118124862436,22123.80914483334,0.7442948586701971,0.926962275880074,1.212248865631329,0.02624597959220409,0.5236560702323914,0.6917501091957092,0.06504162400960922,-0.02677301317453384,-0.008641886524856091,XTrueNorthZVertical,0.3411016997980468,0.5275685215290838,0.504568402797399,0.5922261833995166,0.2806614935398102,-0.9364075064659119,-0.2106421738862991,30.61446762084961,-35.35579681396484,7.903565406799316,2,192.168.1.118,10.97.20.126,1,0
2015-02-21 18:57:36.346,52,1424570238.46698,39.63840509428377,-106.3699295056471,2516.945,-1,-1,10,65,-9999,1424570256.307301,30.41116333007812,-37.53274536132812,7.882987976074219,249.0360717773438,239.9100036621094,10,22123.88540045833,0.3256988525390625,-1.114059448242188,-0.2053680419921875,22123.86092420833,-0.3082300035080269,0.656898510272253,0.6322706617756362,22123.86092420833,0.824427664356648,0.8836998557793008,1.236824301979814,-0.3173137009143829,0.6687553524971008,0.6679085493087769,0.05661020055413246,-0.06140151619911194,0.020268265157938,XTrueNorthZVertical,0.3405772377056883,0.5291944050559911,0.5222292239521488,0.5755320185563192,0.2534178793430328,-0.9447478055953979,-0.2079208493232727,29.27082443237305,-36.31121826171875,8.628934860229492,2,192.168.1.118,10.97.20.126,1,0
2015-02-21 18:57:36.406,53,1424570238.46698,39.63840509428377,-106.3699295056471,2516.945,-1,-1,10,65,-9999,1424570256.383815,28.3132495880127,-38.84042358398438,7.9661865234375,245.119384765625,235.9933319091797,10,22123.93450483333,0.288360595703125,-1.085693359375,-0.2301483154296875,22123.912703125,-0.5982333325155516,0.8824389598299736,0.6270974713581573,22123.912703125,0.950944247928877,0.8025268433949264,1.246521947482334,-0.6073169708251953,0.8942956924438477,0.6627350449562073,0.04779147729277611,-0.1487975120544434,0.001512838178314269,XTrueNorthZVertical,0.3325458600899043,0.5279295665524064,0.5448553755706825,0.5602109275331579,0.2291250228881836,-0.9478821754455566,-0.2214072495698929,27.34751892089844,-37.68371963500977,9.044045448303223,2,192.168.1.118,10.97.20.126,1,0
2015-02-21 18:57:36.444,54,1424570238.46698,39.63840509428377,-106.3699295056471,2516.945,-1,-1,10,65,-9999,1424570256.43652,26.67585754394531,-39.58769226074219,8.465408325195312,240.4894714355469,231.3634033203125,10,22123.98361304167,0.3903350830078125,-1.098556518554688,-0.230987548828125,22123.96448245833,-0.7432789391773001,1.302955558062902,0.6277507447735537,22123.96448245833,1.099913715364221,0.7206843810388674,1.244485597377584,-0.7523624300956726,1.314812064170837,0.6633879542350769,0.1112075373530388,-0.1710852682590485,0.0544915646314621,XTrueNorthZVertical,0.3152570851177142,0.5293291909012137,0.5726258477880156,0.5408541913556573,0.2115311175584793,-0.9472314119338989,-0.2408471554517746,25.78852462768555,-38.7374153137207,9.171098709106445,2,192.168.1.118,10.97.20.126,1,0
2015-02-21 18:57:36.503,55,1424570238.46698,39.63840509428377,-106.3699295056471,2516.945,-1,-1,10,65,-9999,1424570256.488039,25.14079856872559,-40.50477600097656,8.56524658203125,236.4173583984375,227.2912902832031,10,22124.032571,0.3781585693359375,-1.057815551757812,-0.2624664306640625,22124.01626158334,-0.7904744147512484,0.5862453791846688,0.6104556440223612,22124.01626158334,1.251930300670484,0.6264846706546717,1.233526240011759,-0.7995578050613403,0.5981018543243408,0.6460924744606018,0.2248243987560272,-0.1354247629642487,0.0281102042645216,XTrueNorthZVertical,0.2986506411854097,0.5260920391660608,0.5991151398085394,0.5244959961875881,0.1940141022205353,-0.9436615705490112,-0.2680699229240417,24.12244033813477,-39.78539276123047,9.218169212341309,2,192.168.1.118,10.97.20.126,1,0
2015-02-21 18:57:36.543,56,1424570238.46698,39.63840509428377,-106.3699295056471,2516.945,-1,-1,10,65,-9999,1424570256.539849,23.84452819824219,-41.42185974121094,7.833061218261719,232.9845581054688,223.8584899902344,10,22124.08160833333,0.25848388671875,-1.007858276367188,-0.295684814453125,22124.06804070833,-0.5703369864130805,0.1309367118387268,0.5457152631869709,22124.01626158334,1.251930300670484,0.6264846706546717,1.233526240011759,-0.7995578050613403,0.5981018543243408,0.6460924744606018,0.2248243987560272,-0.1354247629642487,0.0281102042645216,XTrueNorthZVertical,0.2986506411854097,0.5260920391660608,0.5991151398085394,0.5244959961875881,0.1940141022205353,-0.9436615705490112,-0.2680699229240417,24.12244033813477,-39.78539276123047,9.218169212341309,2,192.168.1.118,10.97.20.126,1,0
2015-02-21 18:57:36.601,57,1424570238.46698,39.63840509428377,-106.3699295056471,2516.945,-1,-1,10,65,-9999,1424570256.591506,22.49708938598633,-42.28799438476562,6.751411437988281,231.1123352050781,221.9862823486328,10,22124.13067804167,0.231689453125,-1.02899169921875,-0.3262176513671875,22124.11981983333,-0.400591625905283,-0.1189908364530674,0.4709882945798925,22124.11981983333,1.482828334674599,0.4256315650789547,1.213642338850687,-0.4096748530864716,-0.107134573161602,0.5066244602203369,0.1165424585342407,-0.07460951805114746,0.03069679625332355,XTrueNorthZVertical,0.2939132982227058,0.5043874620889454,0.6310765260488301,0.5108333577639962,0.1443523168563843,-0.9368956089019775,-0.3184165358543396,21.22287178039551,-41.78586578369141,7.299007415771484,2,192.168.1.118,10.97.20.126,1,0
2015-02-21 18:57:36.641,58,1424570238.46698,39.63840509428377,-106.3699295056471,2516.945,-1,-1,10,65,-9999,1424570256.591506,22.49708938598633,-42.28799438476562,6.751411437988281,231.1123352050781,221.9862823486328,10,22124.17977020833,0.21630859375,-1.03033447265625,-0.3478851318359375,22124.17159920833,-0.307526928980246,-0.2716821122883245,0.4979171142583377,22124.11981983333,1.482828334674599,0.4256315650789547,1.213642338850687,-0.4096748530864716,-0.107134573161602,0.5066244602203369,0.1165424585342407,-0.07460951805114746,0.03069679625332355,XTrueNorthZVertical,0.2939132982227058,0.5043874620889454,0.6310765260488301,0.5108333577639962,0.1443523168563843,-0.9368956089019775,-0.3184165358543396,21.22287178039551,-41.78586578369141,7.299007415771484,2,192.168.1.118,10.97.20.126,1,0
2015-02-21 18:57:36.699,59,1424570238.46698,39.63840509428377,-106.3699295056471,2516.945,-1,-1,10,65,-9999,1424570256.695741,20.26273345947266,-43.69758605957031,3.939132690429688,233.4364624023438,224.3103942871094,10,22124.22879495833,0.1058197021484375,-1.053268432617188,-0.3271026611328125,22124.22337808333,-0.2311522626067356,-0.3066398300211406,0.5219034072483544,22124.17159920833,1.569463361391611,0.3341016720591855,1.206603980332883,-0.3166100680828094,-0.2598259747028351,0.533552885055542,0.1173882633447647,-0.08173204958438873,-0.00772391352802515,XTrueNorthZVertical,0.2991123620306194,0.4922217390408173,0.6405422681215452,0.507892899305335,0.1168036311864853,-0.9344117641448975,-0.3364990949630737,20.5943603515625,-42.19291305541992,6.736072540283203,2,192.168.1.118,10.97.20.126,1,0
2015-02-21 18:57:36.739,60,1424570238.46698,39.63840509428377,-106.3699295056471,2516.945,-1,-1,10,65,-9999,1424570256.695741,20.26273345947266,-43.69758605957031,3.939132690429688,233.4364624023438,224.3103942871094,10,22124.2778335,0.13885498046875,-0.9984283447265625,-0.3165283203125,22124.27515745833,0.08862334317511185,-0.3913531200837981,0.4158257062888632,22124.22337808333,1.654070170009782,0.2391602909335564,1.201036237180943,-0.2402353286743164,-0.2947838008403778,0.5575388073921204,0.02384230680763721,-0.1254625171422958,0.01693812757730484,XTrueNorthZVertical,0.3074218375132739,0.479519561842741,0.6484764247613597,0.505006108950979,0.08560898900032043,-0.9324140548706055,-0.3511056005954742,22.00666427612305,-42.94190216064453,1.752708435058594,2,192.168.1.118,10.97.20.126,1,0
2015-02-21 18:57:36.799,61,1424570238.46698,39.63840509428377,-106.3699295056471,2516.945,-1,-1,10,65,-9999,1424570256.747796,19.05173873901367,-43.95233154296875,3.023887634277344,232.6501159667969,223.5240631103516,10,22124.32703858333,0.148834228515625,-1.034591674804688,-0.3099517822265625,22124.32693658333,0.5362985918885598,-0.7017349577526091,0.3347865132660791,22124.27515745833,1.724150664503987,0.1590569630421484,1.202533869772682,0.07954037189483643,-0.379497230052948,0.4514607787132263,0.07840317487716675,-0.05801253765821457,0.03143042698502541,XTrueNorthZVertical,0.3172855090443662,0.4707488700941859,0.6533186356489257,0.5008993983708769,0.05701857805252075,-0.9329542517662048,-0.3554508090019226,20.98096084594727,-43.47259140014648,1.142565727233887,2,192.168.1.118,10.97.20.126,1,0
2015-02-21 18:57:36.837,62,1424570238.46698,39.63840509428377,-106.3699295056471,2516.945,-1,-1,10,65,-9999,1424570256.800036,17.63607406616211,-43.83346557617188,3.173652648925781,231.9649353027344,222.8388671875,10,22124.37604379167,-0.0019989013671875,-1.167236328125,-0.319915771484375,22124.32693658333,0.5362985918885598,-0.7017349577526091,0.3347865132660791,22124.32693658333,1.776386194969583,0.08355732395202319,1.221301311409916,0.5272157192230225,-0.6898791790008545,0.3704212307929993,0.132782980799675,-0.07095229625701904,0.009136511012911797,XTrueNorthZVertical,0.3348430757227455,0.4661177065849932,0.6502553944068488,0.4977774203519547,0.02857870608568192,-0.939545750617981,-0.3412287831306458,20.39233589172363,-43.75524139404297,1.001863479614258,2,192.168.1.118,10.97.20.126,1,0
2015-02-21 18:57:36.898,63,1424570238.46698,39.63840509428377,-106.3699295056471,2516.945,-1,-1,10,65,-9999,1424570256.851398,17.07321929931641,-44.08821105957031,3.989051818847656,231.790771484375,222.6647033691406,10,22124.42501466667,0.49053955078125,-1.300872802734375,-0.310577392578125,22124.43049483333,1.127948323873326,-0.7115870558892482,-0.29475600628888,22124.37871575,1.81788821406183,0.007951209581941704,1.253678984896704,0.7907829880714417,-0.6213846802711487,0.261799544095993,-0.004478293005377054,-0.2170980721712112,-0.008096604607999325,XTrueNorthZVertical,0.3579619351014483,0.4647081550899695,0.6403105831370617,0.4958951307009928,0.002479391871020198,-0.95013827085495,-0.3118191659450531,19.26885414123535,-44.24330902099609,1.61650562286377,2,192.168.1.118,10.97.20.126,1,0
2015-02-21 18:57:36.935,64,1424570238.46698,39.63840509428377,-106.3699295056471,2516.945,-1,-1,10,65,-9999,1424570256.903267,16.78326416015625,-44.13916015625,5.303672790527344,232.0506286621094,222.9245758056641,10,22124.47415666667,-0.2775115966796875,-1.204055786132812,-0.4140167236328125,22124.43049483333,1.127948323873326,-0.7115870558892482,-0.29475600628888,22124.43049483333,1.827375605087583,-0.02806418657813756,1.3089803837142,1.118865609169006,-0.6997315287590027,-0.2591219842433929,0.4978025853633881,-0.334951251745224,-0.05184416472911835,XTrueNorthZVertical,0.3806231420409142,0.4751414627927878,0.6228713796974759,0.4913226010990844,-0.007263044361025095,-0.9659215211868286,-0.2587332427501678,18.9227409362793,-44.32259750366211,2.96815013885498,2,192.168.1.118,10.97.20.126,1,0
2015-02-21 18:57:36.994,65,1424570238.46698,39.63840509428377,-106.3699295056471,2516.945,-1,-1,10,65,-9999,1424570256.954483,17.36317443847656,-43.76556396484375,6.801338195800781,234.7813720703125,225.6553039550781,10,22124.52311758334,-0.17584228515625,-1.1824951171875,-0.1814117431640625,22124.48227420833,0.7285189014677539,-1.424862555909607,0.1300727823811051,22124.48227420833,1.836233547349474,-0.09962174031166045,1.347582616361752,0.7194362878799438,-1.413007020950317,0.1657064408063889,-0.2554953098297119,-0.2288646996021271,-0.1937493979930878,XTrueNorthZVertical,0.409379414598276,0.4714603193077627,0.6012020952728943,0.4986880214922473,-0.02201629616320133,-0.975191056728363,-0.2202673256397247,19.23849487304688,-44.09862899780273,4.069857597351074,2,192.168.1.118,10.97.20.126,1,0
2015-02-21 18:57:37.033,66,1424570238.46698,39.63840509428377,-106.3699295056471,2516.945,-1,-1,10,65,-9999,1424570257.006768,17.73840713500977,-43.35798645019531,7.666656494140625,236.5810546875,227.4549865722656,10,22124.572152125,-0.026763916015625,-0.8315887451171875,-0.056549072265625,22124.53405304167,0.3043559030702886,-0.18676668829893,-0.2368040230721017,22124.53405304167,1.830206544657766,-0.1337303575198855,1.37226287265217,0.2952733933925629,-0.1749113798141479,-0.2011707723140717,-0.1911251246929169,-0.05731706693768501,0.05383888632059097,XTrueNorthZVertical,0.4263920016392612,0.4695256949996131,0.5860767077607538,0.5042317078610641,-0.02629735507071018,-0.9803568720817566,-0.1954709589481354,19.57048225402832,-43.9093017578125,4.510218620300293,2,192.168.1.118,10.97.20.126,1,0
2015-02-21 18:57:37.092,67,1424570238.46698,39.63840509428377,-106.3699295056471,2516.945,-1,-1,10,65,-9999,1424570257.057631,18.06247329711914,-43.30705261230469,8.382209777832031,237.5199890136719,228.3939208984375,10,22124.62122858334,-0.150970458984375,-0.9795074462890625,-0.2127838134765625,22124.58583245834,0.1949881329001136,0.04053490968766005,-0.0649805979657154,22124.58583245834,1.801883545966301,-0.09408913699977679,1.386101098248934,0.185977429151535,0.05233916640281677,-0.02925724349915981,0.01510222721844912,0.1008053794503212,0.05591223016381264,XTrueNorthZVertical,0.4245885544201101,0.4778149642914897,0.5837426361018926,0.5006615564134635,-0.01725371740758419,-0.9829922914505005,-0.1828348338603973,19.92504119873047,-43.67783355712891,5.15866231918335,2,192.168.1.118,10.97.20.126,1,0
2015-02-21 18:57:37.131,68,1424570238.46698,39.63840509428377,-106.3699295056471,2516.945,-1,-1,10,65,-9999,1424570257.110784,17.9942512512207,-43.47686767578125,8.382209777832031,237.8565673828125,228.7305145263672,10,22124.67026958333,-0.2850799560546875,-0.881927490234375,-0.2395782470703125,22124.63761154167,-0.03311054920073715,-0.8028669022517141,0.06069290861068782,22124.63761154167,1.826878853148903,-0.1497945084899467,1.388477335515784,-0.04212117567658424,-0.7910627126693726,0.0964159369468689,-0.1835591644048691,-0.01234743557870388,-0.05137142166495323,XTrueNorthZVertical,0.4353629632550609,0.4699136865711073,0.5774265792204912,0.5061806030732708,-0.02705790661275387,-0.9834258556365967,-0.1792804300785065,19.97074508666992,-43.61975860595703,5.464301109313965,2,192.168.1.118,10.97.20.126,1,0
2015-02-21 18:57:37.197,69,1424570238.46698,39.63840509428377,-106.3699295056471,2516.945,-1,-1,10,65,-9999,1424570257.164093,18.23303985595703,-43.20515441894531,7.882987976074219,238.5484924316406,229.4224243164062,10,22124.71933491667,-0.1974945068359375,-0.9983673095703125,-0.248504638671875,22124.68939054167,-0.3256388212377659,0.03776895057950375,0.08892454669439981,22124.68939054167,1.835730483764869,-0.1743329612068333,1.379242240281925,-0.3346493542194366,0.04957297816872597,0.1246472224593163,-0.2248968034982681,0.1456957459449768,-0.02960286289453506,XTrueNorthZVertical,0.4384100018860882,0.4626522195516988,0.5768209600998244,0.5109082245360882,-0.03302250802516937,-0.9817095398902893,-0.1874991953372955,19.94119262695312,-43.75140762329102,4.419928550720215,2,192.168.1.118,10.97.20.126,1,0
2015-02-21 18:57:37.229,70,1424570238.46698,39.63840509428377,-106.3699295056471,2516.945,-1,-1,10,65,-9999,1424570257.214472,18.06248092651367,-42.76362609863281,6.884544372558594,239.0681762695312,229.9421081542969,10,22124.76837083334,-0.1761474609375,-1.022415161132812,-0.1948089599609375,22124.74116983333,-0.4741228351829158,0.2287937671453614,0.1993503907656634,22124.74116983333,1.880428353568768,-0.2067751051831483,1.355607185062399,-0.4831332564353943,0.240597665309906,0.2350726723670959,-0.1028892993927002,-0.1512530595064163,-0.01545781642198563,XTrueNorthZVertical,0.4326938368782289,0.4563816248408084,0.5876296281686264,0.509100497006865,-0.04383921250700951,-0.9769360423088074,-0.2089837193489075,19.523193359375,-43.9969482421875,3.806056976318359,2,192.168.1.118,10.97.20.126,1,0
2015-02-21 18:57:37.292,71,1424570238.46698,39.63840509428377,-106.3699295056471,2516.945,-1,-1,10,65,-9999,1424570257.26588,17.51668167114258,-42.86552429199219,6.052505493164062,237.8185424804688,228.6924896240234,10,22124.8174445,0.2540740966796875,-1.021270751953125,-0.190948486328125,22124.79294920833,-0.330817870609643,0.6959947803390523,0.2337808026026438,22124.79294920833,1.905507275247002,-0.2062779701329802,1.332986373554248,-0.339828222990036,0.7077986001968384,0.269502729177475,0.06704885512590408,0.004693138878792524,0.1197714060544968,XTrueNorthZVertical,0.4222795765139463,0.4543012140511112,0.6003105000615888,0.5048937607117641,-0.04825003072619438,-0.9718562364578247,-0.2305807322263718,19.15352439880371,-44.1978645324707,3.326188087463379,2,192.168.1.118,10.97.20.126,1,0
2015-02-21 18:57:37.328,72,1424570238.46698,39.63840509428377,-106.3699295056471,2516.945,-1,-1,10,65,-9999,1424570257.318268,16.47625732421875,-43.32406616210938,5.303665161132812,236.4466247558594,227.3205718994141,10,22124.86647541667,-0.004058837890625,-1.077484130859375,-0.1137847900390625,22124.84472825,-0.3405855465397266,0.1063765076337981,0.4395038715407578,22124.84472825,1.975046579315343,-0.250831083527386,1.311530769569577,-0.3495957851409912,0.1181801855564117,0.4752254784107208,0.1313520818948746,0.04720596969127655,0.04394135624170303,XTrueNorthZVertical,0.4159463012932683,0.4503494504349272,0.6143352501989096,0.4967557621361087,-0.06363358348608017,-0.9665785431861877,-0.2483480870723724,18.01652526855469,-44.70338439941406,2.895614624023438,2,192.168.1.118,10.97.20.126,1,0
2015-02-21 18:57:37.397,73,1424570238.46698,39.63840509428377,-106.3699295056471,2516.945,-1,-1,10,65,-9999,1424570257.369514,15.55522155761719,-43.69769287109375,4.638046264648438,234.784423828125,225.6583709716797,10,22124.91554479167,-0.414215087890625,-0.7404022216796875,-0.2220916748046875,22124.89650729167,-0.3651484139057454,-0.1332182419445977,0.04071414042902238,22124.89650729167,2.02298023797102,-0.2991410324137219,1.289917248536803,-0.3741585910320282,-0.1214146986603737,0.07643534988164902,-0.3675736784934998,0.189816027879715,0.07494860142469406,XTrueNorthZVertical,0.4163512438024864,0.4406888203213084,0.6222623213232108,0.49521172119444,-0.08169084787368774,-0.9608121514320374,-0.2648900151252747,17.04654693603516,-45.11697387695312,2.290478706359863,2,192.168.1.118,10.97.20.126,1,0
2015-02-21 18:57:37.426,74,1424570238.46698,39.63840509428377,-106.3699295056471,2516.945,-1,-1,10,65,-9999,1424570257.421935,14.97531127929688,-43.66371154785156,3.972412109375,234.3973083496094,225.2712554931641,10,22124.964581125,-0.154083251953125,-1.010711669921875,-0.343017578125,22124.94828666667,-0.2452840606151321,0.7406381486403776,-0.03538222561057474,22124.94828666667,2.013923847374909,-0.2684777429832909,1.278207609991664,-0.2542941570281982,0.7524415850639343,0.0003386254538781941,-0.1047485247254372,-0.1116219013929367,0.00252541434019804,XTrueNorthZVertical,0.4067010652884144,0.4422043318264463,0.6296263297271046,0.4925650182874799,-0.07651063054800034,-0.9575003981590271,-0.2780991494655609,16.86777496337891,-45.20800018310547,1.757092475891113,2,192.168.1.118,10.97.20.126,1,0
2015-02-21 18:57:37.496,75,1424570238.46698,39.63840509428377,-106.3699295056471,2516.945,-1,-1,10,65,-9999,1424570257.473765,14.89002227783203,-43.57879638671875,3.389999389648438,233.9650268554688,224.8389587402344,10,22125.013654,-0.1877899169921875,-0.9627685546875,-0.284423828125,22125.000065625,-0.3670818688571429,0.3902300650521117,0.1229136727387541,22125.000065625,2.00793221620595,-0.2354663649447546,1.260597537134607,-0.376091867685318,0.4020333886146545,0.1586342006921768,-0.129790723323822,-0.004254801198840141,-0.009220617823302746,XTrueNorthZVertical,0.3943374018283879,0.4428154881234279,0.639617742037648,0.4891846696155576,-0.07121329754590988,-0.952272891998291,-0.2968249022960663,16.73946380615234,-45.26362609863281,1.538445472717285,2,192.168.1.118,10.97.20.126,1,0
2015-02-21 18:57:37.523,76,1424570238.46698,39.63840509428377,-106.3699295056471,2516.945,-1,-1,10,65,-9999,1424570257.473765,14.89002227783203,-43.57879638671875,3.389999389648438,233.9650268554688,224.8389587402344,10,22125.06269375,-0.0814056396484375,-1.01434326171875,-0.2545166015625,22125.051845,-0.291697632093033,0.5227606788032509,0.2087271146477233,22125.000065625,2.00793221620595,-0.2354663649447546,1.260597537134607,-0.376091867685318,0.4020333886146545,0.1586342006921768,-0.129790723323822,-0.004254801198840141,-0.009220617823302746,XTrueNorthZVertical,0.3943374018283879,0.4428154881234279,0.639617742037648,0.4891846696155576,-0.07121329754590988,-0.952272891998291,-0.2968249022960663,16.73946380615234,-45.26362609863281,1.538445472717285,2,192.168.1.118,10.97.20.126,1,0
2015-02-21 18:57:37.595,77,1424570238.46698,39.63840509428377,-106.3699295056471,2516.945,-1,-1,10,65,-9999,1424570257.577832,14.41244888305664,-43.91850280761719,2.591239929199219,231.7257995605469,222.5997314453125,10,22125.1117735,-0.1334991455078125,-0.9574432373046875,-0.2368011474609375,22125.10362408333,-0.257417688857642,0.3416867636504743,0.2230224307470507,22125.10362408333,2.056383826153713,-0.2349290062590388,1.225650440772667,-0.2664274871349335,0.3534898161888123,0.2587422132492065,-0.05539992451667786,-0.04563771560788155,0.05371071025729179,XTrueNorthZVertical,0.377056728370108,0.4396681399976011,0.660895775992669,0.477217941255254,-0.07875534892082214,-0.9410260915756226,-0.3290402889251709,16.01879119873047,-45.53917694091797,0.9768037796020508,2,192.168.1.118,10.97.20.126,1,0
2015-02-21 18:57:37.624,78,1424570238.46698,39.63840509428377,-106.3699295056471,2516.945,-1,-1,10,65,-9999,1424570257.577832,14.41244888305664,-43.91850280761719,2.591239929199219,231.7257995605469,222.5997314453125,10,22125.16081904167,0.0348358154296875,-0.9268341064453125,-0.3707275390625,22125.10362408333,-0.257417688857642,0.3416867636504743,0.2230224307470507,22125.10362408333,2.056383826153713,-0.2349290062590388,1.225650440772667,-0.2664274871349335,0.3534898161888123,0.2587422132492065,-0.05539992451667786,-0.04563771560788155,0.05371071025729179,XTrueNorthZVertical,0.377056728370108,0.4396681399976011,0.660895775992669,0.477217941255254,-0.07875534892082214,-0.9410260915756226,-0.3290402889251709,16.01879119873047,-45.53917694091797,0.9768037796020508,2,192.168.1.118,10.97.20.126,1,0
2015-02-21 18:57:37.693,79,1424570238.46698,39.63840509428377,-106.3699295056471,2516.945,-1,-1,10,65,-9999,1424570257.680751,13.15029144287109,-44.05433654785156,1.293258666992188,230.3056945800781,221.1796264648438,10,22125.20989045834,0.0645751953125,-1.154388427734375,-0.367889404296875,22125.207182375,-0.2598845749753825,0.1147406976694099,-0.06603760660236785,22125.15540329167,2.076131330467224,-0.2385466132945811,1.219059270321385,-0.377135694026947,0.1789003163576126,0.1703560948371887,0.1240268051624298,-0.03308713063597679,0.04154473170638084,XTrueNorthZVertical,0.3727333246118591,0.4400947950823504,0.6666807760516462,0.4721474587746549,-0.08140900731086731,-0.9387756586074829,-0.3347728848457336,15.27869892120361,-45.79291534423828,0.9709682464599609,2,192.168.1.118,10.97.20.126,1,0
2015-02-21 18:57:37.720,80,1424570238.46698,39.63840509428377,-106.3699295056471,2516.945,-1,-1,10,65,-9999,1424570257.680751,13.15029144287109,-44.05433654785156,1.293258666992188,230.3056945800781,221.1796264648438,10,22125.25902970833,0.1210784912109375,-1.350082397460938,-0.3278350830078125,22125.25896179167,-0.1489540618775489,0.1909635638607858,-0.6663103878807021,22125.207182375,2.077034597818745,-0.2395544218759405,1.205271296459245,-0.2688581347465515,0.1265544593334198,-0.03034644015133381,0.04516732692718506,-0.1052178293466568,0.060397919267416,XTrueNorthZVertical,0.3704199547625383,0.4349399248128696,0.6704093467484801,0.4734634797201853,-0.08480966091156006,-0.9339362382888794,-0.3472326397895813,15.01876544952393,-45.88764190673828,0.3655357360839844,2,192.168.1.118,10.97.20.126,1,0
2015-02-21 18:57:37.795,81,1424570238.46698,39.63840509428377,-106.3699295056471,2516.945,-1,-1,10,65,-9999,1424570257.784211,14.68534851074219,-43.2052001953125,-0.1711273193359375,233.0277404785156,223.9016876220703,10,22125.30798779167,0.0941009521484375,-0.95623779296875,-0.242706298828125,22125.31074070833,-0.172686555615681,-0.1633575023171334,-0.856706432113192,22125.25896179167,2.01990739774278,-0.1778627576817327,1.19779193549935,-0.1579275578260422,0.2027772068977356,-0.6306195855140686,0.09628921747207642,-0.3762736618518829,-0.08821819722652435,XTrueNorthZVertical,0.3607826130995324,0.436466409250479,0.670032844025971,0.4799885493702019,-0.06447464227676392,-0.9312366843223572,-0.3586659729480743,15.04864406585693,-45.87928771972656,0.03943443298339844,2,192.168.1.118,10.97.20.126,1,0
2015-02-21 18:57:37.818,82,1424570238.46698,39.63840509428377,-106.3699295056471,2516.945,-1,-1,10,65,-9999,1424570257.784211,14.68534851074219,-43.2052001953125,-0.1711273193359375,233.0277404785156,223.9016876220703,10,22125.35701908333,0.001190185546875,-0.9539794921875,-0.1121673583984375,22125.31074070833,-0.172686555615681,-0.1633575023171334,-0.856706432113192,22125.31074070833,1.912874689783099,-0.07622974464322105,1.190714628560049,-0.1816586256027222,-0.1515416204929352,-0.8210229873657227,0.1223545297980309,-0.02760346420109272,0.1272127032279968,XTrueNorthZVertical,0.3488129998694046,0.4397385469566048,0.6637424840902713,0.4943738020721281,-0.0282535795122385,-0.9286343455314636,-0.3699190020561218,16.94505310058594,-45.20880889892578,-0.6336278915405273,2,192.168.1.118,10.97.20.126,1,0
2015-02-21 18:57:37.894,83,1424570238.46698,39.63840509428377,-106.3699295056471,2516.945,-1,-1,10,65,-9999,1424570257.836407,16.68092346191406,-42.81460571289062,-0.2876129150390625,235.498046875,226.3719787597656,10,22125.406076,0.113128662109375,-1.00946044921875,-0.2592926025390625,22125.41429920834,0.2796108754857084,-0.4181317374767629,-0.8535330093582535,22125.362520125,1.80665164628156,0.007855161753033604,1.194034734648934,0.1768676936626434,-0.3278728127479553,-0.745047926902771,-0.001699786749668419,-0.02411853708326817,0.2557325065135956,XTrueNorthZVertical,0.3454353551243744,0.4435363446705016,0.6508918444701599,0.5101860181420456,0.002889972180128098,-0.9298609495162964,-0.3678998649120331,18.62730979919434,-44.53704071044922,-0.920654296875,2,192.168.1.118,10.97.20.126,1,0
2015-02-21 18:57:37.916,84,1424570238.46698,39.63840509428377,-106.3699295056471,2516.945,-1,-1,10,65,-9999,1424570257.887615,18.31831741333008,-42.44097900390625,-0.3541717529296875,238.4762268066406,229.3501739501953,10,22125.45510391667,0.2382965087890625,-0.9180755615234375,-0.190216064453125,22125.41429920834,0.2796108754857084,-0.4181317374767629,-0.8535330093582535,22125.41429920834,1.708185379565746,0.08008723664987651,1.204700383976124,0.2706466019153595,-0.4063147008419037,-0.8178533911705017,0.08449023962020874,-0.07572844624519348,0.09753289818763733,XTrueNorthZVertical,0.3470184083745089,0.4485147433837649,0.635682088337541,0.523756691319945,0.02863842248916626,-0.9337320327758789,-0.3568255007266998,19.60962677001953,-44.11342239379883,-0.9170017242431641,2,192.168.1.118,10.97.20.126,1,0
2015-02-21 18:57:37.992,85,1424570238.46698,39.63840509428377,-106.3699295056471,2516.945,-1,-1,10,65,-9999,1424570257.940279,20.34800720214844,-41.8126220703125,0.2948150634765625,241.0398559570312,231.9137878417969,10,22125.5041695,0.5260009765625,-0.7640533447265625,-0.451141357421875,22125.466078375,0.2994487624457086,0.3094177733542022,-1.285379760132815,22125.466078375,1.552732919768889,0.2248560357643129,1.208805697975958,0.2904855012893677,0.3212350904941559,-1.249701499938965,0.1351051181554794,0.08210534602403641,0.1599036753177643,XTrueNorthZVertical,0.3381963819269365,0.4615326328508985,0.6184051453411471,0.5386891053286835,0.07896043360233307,-0.9351937174797058,-0.3452216684818268,22.37946510314941,-42.78152847290039,-0.5219573974609375,2,192.168.1.118,10.97.20.126,1,0
2015-02-21 18:57:38.014,86,1424570238.46698,39.63840509428377,-106.3699295056471,2516.945,-1,-1,10,65,-9999,1424570257.992062,23.07699966430664,-40.58984375,1.093574523925781,244.6289367675781,235.5028686523438,10,22125.55331320834,0.18157958984375,-1.068206787109375,-0.2217559814453125,22125.5178575,0.9320539172542588,-0.2985938877357932,-1.186765035496053,22125.5178575,1.335510364575357,0.4339286576615053,1.216518200938425,0.9230907559394836,-0.2867766916751862,-1.151087164878845,0.5547056794166565,0.06474347412586212,-0.08112739026546478,XTrueNorthZVertical,0.3287922990226425,0.4842671545682521,0.5928399425049802,0.5531019703449274,0.1458558142185211,-0.9378971457481384,-0.3147619068622589,24.92574501037598,-41.34912490844727,0.5741167068481445,2,192.168.1.118,10.97.20.126,1,0
2015-02-21 18:57:38.093,87,1424570238.46698,39.63840509428377,-106.3699295056471,2516.945,-1,-1,10,65,-9999,1424570258.043841,25.41369438171387,-38.90853881835938,1.409744262695312,249.9942321777344,240.8681640625,10,22125.60227070834,-0.04925537109375,-0.827728271484375,-0.10498046875,22125.56963691667,0.2430821590258545,-1.435211333589546,-0.4963013744249867,22125.56963691667,1.228901308162337,0.4772576172065428,1.223293096564988,0.2341155707836151,-1.423408627510071,-0.4605562090873718,-0.05872855708003044,-0.002355255885049701,0.1043163612484932,XTrueNorthZVertical,0.3443265318555035,0.4797817024923831,0.5695176745511251,0.571750308882055,0.1564305871725082,-0.9402258992195129,-0.3024975061416626,26.39809036254883,-40.40517044067383,1.39116096496582,2,192.168.1.118,10.97.20.126,1,0
2015-02-21 18:57:38.113,88,1424570238.46698,39.63840509428377,-106.3699295056471,2516.945,-1,-1,10,65,-9999,1424570258.095476,26.55645751953125,-37.66880798339844,1.626075744628906,254.5571899414062,245.4311218261719,10,22125.65143570834,0.4280548095703125,-1.0419921875,-0.3330078125,22125.62141579167,0.2597562106108406,0.2294038973510986,-0.7144962930640507,22125.62141579167,1.143567652136875,0.5338947649296092,1.220316182069327,0.2507897019386292,0.2412064671516418,-0.6787514686584473,-0.1702559590339661,-0.004792280029505491,0.1736020743846893,XTrueNorthZVertical,0.3478001452221851,0.4808869664134789,0.5548889274291561,0.5829932269354116,0.1747267842292786,-0.9392079710960388,-0.2955655753612518,27.98674201965332,-39.34572601318359,0.1680421829223633,2,192.168.1.118,10.97.20.126,1,0
2015-02-21 18:57:38.192,89,1424570238.46698,39.63840509428377,-106.3699295056471,2516.945,-1,-1,10,65,-9999,1424570258.147539,27.40926551818848,-36.47999572753906,1.892326354980469,256.5870056152344,247.4609375,10,22125.700375875,0.3918914794921875,-0.8255615234375,-0.1142425537109375,22125.67319520834,0.2879822560562635,0.03074859162994588,-0.7352191484542843,22125.67319520834,1.033454845947019,0.6493457294642287,1.213363368414461,0.2790158689022064,0.04255102574825287,-0.6994746923446655,0.167412593960762,0.08950800448656082,0.01775481179356575,XTrueNorthZVertical,0.3403353991856479,0.4948124823469338,0.5427987397610229,0.5871132696572537,0.211554691195488,-0.9367980360984802,-0.2786648571491241,29.19924354553223,-38.44143295288086,1.016277313232422,2,192.168.1.118,10.97.20.126,1,0
2015-02-21 18:57:38.211,90,1424570238.46698,39.63840509428377,-106.3699295056471,2516.945,-1,-1,10,65,-9999,1424570258.200095,28.55203437805176,-35.47801208496094,2.474761962890625,258.8627319335938,249.7366638183594,10,22125.749522875,0.514923095703125,-0.7997894287109375,-0.1317138671875,22125.72497433333,0.5146345753690922,0.1230614781792535,-0.7183850408877844,22125.72497433333,0.9221885160524234,0.7577892395225527,1.205823708655102,0.5056682229042053,0.1348637938499451,-0.6826409697532654,0.2979997992515564,0.08145714551210403,0.09806035459041595,XTrueNorthZVertical,0.3362474526949479,0.507257874130561,0.5283302256362921,0.5920256010400077,0.2453199177980423,-0.9341335296630859,-0.2592541873455048,30.00155258178711,-37.80504989624023,1.434390068054199,2,192.168.1.118,10.97.20.126,1,0
2015-02-21 18:57:38.293,91,1424570238.46698,39.63840509428377,-106.3699295056471,2516.945,-1,-1,10,65,-9999,1424570258.250991,30.07003784179688,-34.57792663574219,3.190315246582031,261.1466064453125,252.0205383300781,10,22125.79849325,0.515106201171875,-0.8837738037109375,-0.1927490234375,22125.77675354167,0.6575914647878917,-0.5422076137152275,-0.5636242225694268,22125.77675354167,0.8045699051524022,0.8578142447635002,1.205037479611106,0.6486252546310425,-0.5304054021835327,-0.5278804302215576,0.2479405254125595,0.1023096516728401,0.1154111847281456,XTrueNorthZVertical,0.3400892719996932,0.517076937506277,0.5102307535852858,0.5971895392458025,0.2705378532409668,-0.9338526129722595,-0.233941450715065,31.81818771362305,-36.20709991455078,2.832210540771484,2,192.168.1.118,10.97.20.126,1,0
2015-02-21 18:57:38.309,92,1424570238.46698,39.63840509428377,-106.3699295056471,2516.945,-1,-1,10,65,-9999,1424570258.302741,31.31514167785645,-33.91558837890625,3.639625549316406,264.3773193359375,255.2512664794922,10,22125.847641125,0.4344329833984375,-0.8148956298828125,-0.1472625732421875,22125.828532625,0.6524755323338494,-0.9020214496414353,-0.4884783387228789,22125.828532625,0.6973054415821277,0.9161083597685759,1.205815753524684,0.6435093879699707,-0.8902193903923035,-0.4527349770069122,0.1309463530778885,0.1105985939502716,0.04599868133664131,XTrueNorthZVertical,0.3535512212001666,0.5160733681912559,0.4880514355949854,0.6086671083311891,0.2831314206123352,-0.9341306686401367,-0.2173396199941635,32.71272277832031,-35.40121459960938,2.829171180725098,2,192.168.1.118,10.97.20.126,1,0
2015-02-21 18:57:38.394,93,1424570238.46698,39.63840509428377,-106.3699295056471,2516.945,-1,-1,10,65,-9999,1424570258.354244,32.23617553710938,-33.13436889648438,3.939155578613281,267.2684020996094,258.142333984375,10,22125.89659704167,0.4545440673828125,-0.87261962890625,-0.191131591796875,22125.88031208334,0.5278079017011691,-0.6066731563261216,-0.5544245988998571,22125.88031208334,0.5914572893295655,0.9784726077898045,1.202037302908167,0.5188418626785278,-0.5948712229728699,-0.5186815857887268,0.07738172262907028,0.02281749807298183,0.001701190951280296,XTrueNorthZVertical,0.3645190491527078,0.5162418764845139,0.4663822919848334,0.6189570141863662,0.2990525960922241,-0.9327753782272339,-0.2012403756380081,33.27460098266602,-34.8914909362793,2.599455833435059,2,192.168.1.118,10.97.20.126,1,0
2015-02-21 18:57:38.408,94,1424570238.46698,39.63840509428377,-106.3699295056471,2516.945,-1,-1,10,65,-9999,1424570258.354244,32.23617553710938,-33.13436889648438,3.939155578613281,267.2684020996094,258.142333984375,10,22125.94563370834,0.262786865234375,-0.9351806640625,-0.2107391357421875,22125.93209091667,0.4513898258018904,-0.7518742915955309,-0.4478725889502227,22125.88031208334,0.5914572893295655,0.9784726077898045,1.202037302908167,0.5188418626785278,-0.5948712229728699,-0.5186815857887268,0.07738172262907028,0.02281749807298183,0.001701190951280296,XTrueNorthZVertical,0.3645190491527078,0.5162418764845139,0.4663822919848334,0.6189570141863662,0.2990525960922241,-0.9327753782272339,-0.2012403756380081,33.27460098266602,-34.8914909362793,2.599455833435059,2,192.168.1.118,10.97.20.126,1,0
2015-02-21 18:57:38.494,95,1424570238.46698,39.63840509428377,-106.3699295056471,2516.945,-1,-1,10,65,-9999,1424570258.457776,33.72006225585938,-31.14735412597656,3.356727600097656,272.9061584472656,263.7800903320312,10,22125.99469366667,0.4982452392578125,-0.874969482421875,-0.1250152587890625,22125.98387033333,0.4117582603559852,-0.1013969290275679,-0.4874634080314497,22125.98387033333,0.4219812299373966,1.079260020295021,1.182610783164967,0.402792364358902,-0.08959518373012543,-0.4517211019992828,0.04182134568691254,0.04345626011490822,0.03057803213596344,XTrueNorthZVertical,0.3782884262505865,0.5172747874474769,0.4292372418788827,0.6364590253419351,0.3336974382400513,-0.9255973696708679,-0.1786493211984634,35.48126983642578,-32.69923400878906,1.792166233062744,2,192.168.1.118,10.97.20.126,1,0
2015-02-21 18:57:38.505,96,1424570238.46698,39.63840509428377,-106.3699295056471,2516.945,-1,-1,10,65,-9999,1424570258.457776,33.72006225585938,-31.14735412597656,3.356727600097656,272.9061584472656,263.7800903320312,10,22126.04373258333,0.471771240234375,-0.8620758056640625,-0.1336669921875,22126.0356495,0.2365179995710272,-0.3526027946426001,-0.367048845659626,22125.98387033333,0.4219812299373966,1.079260020295021,1.182610783164967,0.402792364358902,-0.08959518373012543,-0.4517211019992828,0.04182134568691254,0.04345626011490822,0.03057803213596344,XTrueNorthZVertical,0.3782884262505865,0.5172747874474769,0.4292372418788827,0.6364590253419351,0.3336974382400513,-0.9255973696708679,-0.1786493211984634,35.48126983642578,-32.69923400878906,1.792166233062744,2,192.168.1.118,10.97.20.126,1,0
2015-02-21 18:57:38.592,97,1424570238.46698,39.63840509428377,-106.3699295056471,2516.945,-1,-1,10,65,-9999,1424570258.563406,35.03338623046875,-29.19430541992188,2.907432556152344,278.7903442382812,269.6642761230469,10,22126.092805,0.407958984375,-0.8408355712890625,-0.154296875,22126.08742845833,0.152117364620345,-0.2192652430811669,-0.4791290454000467,22126.0356495,0.3596505470615218,1.127959480310099,1.172940367242669,0.2275522202253342,-0.3408011794090271,-0.3313069045543671,0.1353884786367416,0.05408069491386414,0.04269938170909882,XTrueNorthZVertical,0.380543401785381,0.5217051479947027,0.4169648379289847,0.6396489832425788,0.3500699102878571,-0.9218937754631042,-0.1660209149122238,35.93650054931641,-32.18490982055664,2.017828464508057,2,192.168.1.118,10.97.20.126,1,0
2015-02-21 18:57:38.602,98,1424570238.46698,39.63840509428377,-106.3699295056471,2516.945,-1,-1,10,65,-9999,1424570258.563406,35.03338623046875,-29.19430541992188,2.907432556152344,278.7903442382812,269.6642761230469,10,22126.14185079167,0.428192138671875,-0.877227783203125,-0.120452880859375,22126.13920791667,0.03533082660153621,-0.009656622112627317,-0.5686123232911452,22126.08742845833,0.3200937313958688,1.148953464627533,1.157818332618552,0.1431516706943512,-0.2074637413024902,-0.4433874785900116,0.04647234082221985,0.06450453400611877,0.04169026389718056,XTrueNorthZVertical,0.3809296590831761,0.5222355968332393,0.4054824426271462,0.646333199573643,0.3661558330059052,-0.9159296751022339,-0.1643251478672028,36.88519287109375,-31.10188674926758,1.878212451934814,2,192.168.1.118,10.97.20.126,1,0
2015-02-21 18:57:38.691,99,1424570238.46698,39.63840509428377,-106.3699295056471,2516.945,-1,-1,10,65,-9999,1424570258.665522,36.15909576416016,-27.835693359375,3.20697021484375,280.8305969238281,271.7045288085938,10,22126.190924125,0.4344940185546875,-0.86712646484375,-0.10321044921875,22126.19098716667,-0.08034064586885641,-0.1734215880765429,-0.5716097110980294,22126.13920791667,0.2894950407543296,1.173194603231034,1.13646536061148,0.02636522427201271,0.002144763246178627,-0.5328710675239563,0.003379697445780039,0.01634367182850838,0.03973919153213501,XTrueNorthZVertical,0.3761987694933983,0.5263127950123376,0.3960149956334359,0.6516452184972876,0.3879777193069458,-0.9071517586708069,-0.16293865442276,37.5333137512207,-30.32292556762695,1.772812843322754,2,192.168.1.118,10.97.20.126,1,0
2015-02-21 18:57:38.701,100,1424570238.46698,39.63840509428377,-106.3699295056471,2516.945,-1,-1,10,65,-9999,1424570258.665522,36.15909576416016,-27.835693359375,3.20697021484375,280.8305969238281,271.7045288085938,10,22126.23996166667,0.490509033203125,-0.9041748046875,-0.084564208984375,22126.19098716667,-0.08034064586885641,-0.1734215880765429,-0.5716097110980294,22126.19098716667,0.2662463278172326,1.192604949302927,1.112042686571686,-0.08930614590644836,-0.1616203337907791,-0.5358688831329346,0.02295609563589096,0.0294786561280489,0.06030059605836868,XTrueNorthZVertical,0.369545128154779,0.530736163459288,0.3870689810948866,0.6572162253373879,0.4115379154682159,-0.8966051340103149,-0.1635110527276993,38.00785827636719,-29.72516632080078,1.785905838012695,2,192.168.1.118,10.97.20.126,1,0
2015-02-21 18:57:38.794,101,1424570238.46698,39.63840509428377,-106.3699295056471,2516.945,-1,-1,10,65,-9999,1424570258.769375,37.89882659912109,-25.59396362304688,3.373382568359375,282.181640625,273.0555725097656,10,22126.28904175,0.6361236572265625,-0.835693359375,-0.106353759765625,22126.29454533333,-0.02603799229381372,0.1909656943896579,-0.500174409598289,22126.24276620834,0.2508491452607234,1.19957553153152,1.084906955679814,-0.07582193613052368,0.04196330159902573,-0.5434792041778564,0.05532326176762581,-0.01991483755409718,0.08483980596065521,XTrueNorthZVertical,0.3623089343119267,0.5329448642025451,0.3775483153644583,0.6649506126941462,0.4351857602596283,-0.8842599391937256,-0.1694040149450302,39.19790649414062,-28.16075325012207,1.366892337799072,2,192.168.1.118,10.97.20.126,1,0
2015-02-21 18:57:38.798,102,1424570238.46698,39.63840509428377,-106.3699295056471,2516.945,-1,-1,10,65,-9999,1424570258.769375,37.89882659912109,-25.59396362304688,3.373382568359375,282.181640625,273.0555725097656,10,22126.33808754167,0.5571136474609375,-0.727020263671875,-0.10546875,22126.29454533333,-0.02603799229381372,0.1909656943896579,-0.500174409598289,22126.29454533333,0.2365532418086564,1.218300429616689,1.058664815048376,-0.03500332310795784,0.2027667313814163,-0.4644342362880707,0.1762176007032394,0.03600861132144928,0.06282707303762436,XTrueNorthZVertical,0.352962811353611,0.5392836325547244,0.3704354463492794,0.6688557673122959,0.4599060714244843,-0.8717019557952881,-0.16918084025383,39.88973236083984,-27.1711311340332,1.38253927230835,2,192.168.1.118,10.97.20.126,1,0
2015-02-21 18:57:38.860,103,1424570238.46698,39.63840509428377,-106.3699295056471,2516.945,-1,-1,10,65,-9999,1424570258.821774,38.47873687744141,-24.43913269042969,3.206977844238281,286.8589172363281,277.7328491210938,10,22126.387156625,0.4779205322265625,-0.64849853515625,-0.1647491455078125,22126.346324625,-0.2324271178205565,-0.2187115718905394,-0.6925142951104277,22126.346324625,0.2334466852576073,1.220588523840029,1.03199979193111,-0.2413923591375351,-0.2069106549024582,-0.6567744612693787,0.07515482604503632,0.1313065439462662,0.07057345658540726,XTrueNorthZVertical,0.3435304457282465,0.5421860647454267,0.3638600274710691,0.675001499540073,0.48195880651474,-0.85832679271698,-0.1760422140359879,40.27370071411133,-26.58942413330078,1.550455570220947,2,192.168.1.118,10.97.20.126,1,0
2015-02-21 18:57:38.897,104,1424570238.46698,39.63840509428377,-106.3699295056471,2516.945,-1,-1,10,65,-9999,1424570258.873296,38.93925476074219,-23.47108459472656,2.591262817382812,288.753173828125,279.6271057128906,10,22126.436197375,0.5645904541015625,-0.6718597412109375,-0.3102874755859375,22126.39810366667,-0.4273814285748261,-0.08620625816975594,-0.8459645718563573,22126.39810366667,0.2389820336593204,1.208609163013139,0.9930480830095926,-0.436346560716629,-0.0744054764509201,-0.8102251291275024,-0.002025583991780877,0.1816581636667252,0.05909352377057076,XTrueNorthZVertical,0.3296571817068706,0.5427449168140331,0.3549892867439972,0.6861025754488717,0.5107078552246094,-0.837694525718689,-0.193508192896843,41.43717193603516,-24.77352714538574,0.7778139114379883,2,192.168.1.118,10.97.20.126,1,0
2015-02-21 18:57:38.962,105,1424570238.46698,39.63840509428377,-106.3699295056471,2516.945,-1,-1,10,65,-9999,1424570258.925869,39.91145706176758,-22.06149291992188,2.2418212890625,290.0661315917969,280.9400634765625,10,22126.48526570834,0.526641845703125,-0.5460662841796875,-0.1521453857421875,22126.44988308334,-0.8039263077333476,-0.1866053007368711,-1.0396911653481,22126.44988308334,0.2604806535417888,1.188783363901559,0.9380043586418754,-0.8128913640975952,-0.1748046427965164,-1.003952145576477,0.0180347878485918,0.1558057516813278,0.001091294223442674,XTrueNorthZVertical,0.3064268055914446,0.5439385631824164,0.3469559119449122,0.6998964833341577,0.548768162727356,-0.806379497051239,-0.2204669117927551,42.36603546142578,-23.16147613525391,0.193842887878418,2,192.168.1.118,10.97.20.126,1,0
2015-02-21 18:57:38.997,106,1424570238.46698,39.63840509428377,-106.3699295056471,2516.945,-1,-1,10,65,-9999,1424570258.976973,40.79837799072266,-19.4801025390625,1.176811218261719,292.1741333007812,283.0480651855469,10,22126.53430004167,0.52227783203125,-0.6940460205078125,-0.2258758544921875,22126.50166220833,-0.9314166228054028,0.1493476770866626,-1.299924614426283,22126.50166220833,0.2941041575451472,1.167722644012053,0.8709136739777088,-0.9403815865516663,0.1611482352018356,-1.264185905456543,0.04907893761992455,0.2307533472776413,0.07965347170829773,XTrueNorthZVertical,0.2749140212129222,0.5459793688925287,0.3408621676836338,0.7142421383853282,0.5925073623657227,-0.76491779088974,-0.2526576220989227,43.03668212890625,-21.88566207885742,-0.4840192794799805,2,192.168.1.118,10.97.20.126,1,0
2015-02-21 18:57:39.060,107,1424570238.46698,39.63840509428377,-106.3699295056471,2516.945,-1,-1,10,65,-9999,1424570259.029025,41.77058029174805,-16.84776306152344,0.1284332275390625,294.890869140625,285.7648010253906,10,22126.58336954167,0.7256011962890625,-0.6852874755859375,-0.2033538818359375,22126.55344141667,-1.27031079573682,-0.07599383433762907,-1.428180588311736,22126.55344141667,0.3332975483220298,1.134809809827765,0.7864733921338648,-1.27927565574646,-0.06419339776039124,-1.392442226409912,-0.1731986403465271,0.07462693005800247,0.09391716122627258,XTrueNorthZVertical,0.236312449279986,0.5431479872831017,0.3322934987217897,0.7339807632709572,0.6402701735496521,-0.7078666687011719,-0.2982933819293976,44.82564544677734,-17.85313034057617,-1.81649112701416,2,192.168.1.118,10.97.20.126,1,0
2015-02-21 18:57:39.098,108,1424570238.46698,39.63840509428377,-106.3699295056471,2516.945,-1,-1,10,65,-9999,1424570259.08057,42.45282745361328,-13.82479858398438,-1.069694519042969,297.7483215332031,288.6222534179688,10,22126.63241616667,0.87506103515625,-0.4224090576171875,-0.2921142578125,22126.60522054167,-1.072158827461692,0.2493408539036497,-1.496686678928498,22126.60522054167,0.361951566878013,1.125241327253705,0.6962952588718248,-1.081058502197266,0.2610937058925629,-1.460863828659058,0.07212924212217331,-0.1141897290945053,0.1296834945678711,XTrueNorthZVertical,0.1936110259913845,0.5451549303219131,0.3221150625036325,0.7493749388573983,0.6923208236694336,-0.641379714012146,-0.3306417465209961,45.88016128540039,-14.82570266723633,-2.565471649169922,2,192.168.1.118,10.97.20.126,1,0
2015-02-21 18:57:39.162,109,1424570238.46698,39.63840509428377,-106.3699295056471,2516.945,-1,-1,10,65,-9999,1424570259.133139,43.54442596435547,-10.66598510742188,-1.66876220703125,299.8847045898438,290.7586364746094,10,22126.68148929167,0.3738250732421875,-0.5061798095703125,-0.2144317626953125,22126.65699975,-1.147858648814977,-0.2154310900597798,-1.412648500202176,22126.65699975,0.3824947432437193,1.103981720617612,0.6020536607973255,-1.156758189201355,-0.2036783546209335,-1.376825928688049,0.1431879848241806,0.06183489784598351,-0.02735494822263718,XTrueNorthZVertical,0.1526678572726384,0.5396620911555606,0.3072202419473249,0.7688127961878569,0.7359929084777832,-0.5663362145423889,-0.3709146976470947,46.50370788574219,-12.70064163208008,-2.733390808105469,2,192.168.1.118,10.97.20.126,1,0
2015-02-21 18:57:39.199,110,1424570238.46698,39.63840509428377,-106.3699295056471,2516.945,-1,-1,10,65,-9999,1424570259.184446,43.69792938232422,-6.810882568359375,-2.617279052734375,303.3576354980469,294.2315673828125,10,22126.73052233334,0.928863525390625,-0.4992523193359375,-0.403533935546875,22126.70877883333,-1.153008137098754,0.1793375341220449,-1.860513898617456,22126.70877883333,0.4100619628968936,1.08616420037642,0.5023852599984627,-1.16190767288208,0.1910901665687561,-1.824691653251648,-0.07737633585929871,0.1507679224014282,-0.009224725887179375,XTrueNorthZVertical,0.1064269895926053,0.5333993876341027,0.2945929880768117,0.7857311247830082,0.7755117416381836,-0.4815174341201782,-0.4083167910575867,47.56772613525391,-7.054689407348633,-4.349123001098633,2,192.168.1.118,10.97.20.126,1,0
2015-02-21 18:57:39.261,111,1424570238.46698,39.63840509428377,-106.3699295056471,2516.945,-1,-1,10,65,-9999,1424570259.23589,43.61264801025391,-2.310394287109375,-3.033302307128906,306.6356811523438,297.5096130371094,10,22126.779583875,1.120040893554688,-0.1843109130859375,-0.480316162109375,22126.760558125,-1.319721755021605,0.1379906266180197,-1.758867964027965,22126.760558125,0.4286809584633593,1.085953957318763,0.4007123761524033,-1.32862114906311,0.1497431397438049,-1.723046183586121,-0.06617225706577301,0.1408678442239761,0.1065624356269836,XTrueNorthZVertical,0.05879286340680853,0.5310076755699645,0.2789450510692679,0.7979749031775069,0.8146616220474243,-0.3900743722915649,-0.4291484951972961,47.99151229858398,-3.153379440307617,-4.271203994750977,2,192.168.1.118,10.97.20.126,1,0
2015-02-21 18:57:39.301,112,1424570238.46698,39.63840509428377,-106.3699295056471,2516.945,-1,-1,10,65,-9999,1424570259.23589,43.61264801025391,-2.310394287109375,-3.033302307128906,306.6356811523438,297.5096130371094,10,22126.82861783334,0.720458984375,-0.1081390380859375,-0.166900634765625,22126.81233741667,-1.156365584285017,-0.03099839614019531,-1.423405274161115,22126.81233741667,0.4432531304448277,1.084507027687863,0.3020487277910131,-1.165264964103699,-0.01924600265920162,-1.38758385181427,0.1489458978176117,0.04003052040934563,-0.009741340763866901,XTrueNorthZVertical,0.01356742591248008,0.5260420961480098,0.2618841632992542,0.8090193835541536,0.8440502882003784,-0.2974767982959747,-0.446191281080246,48.10097885131836,-0.5706272125244141,-4.164407730102539,2,192.168.1.118,10.97.20.126,1,0
2015-02-21 18:57:39.348,113,1424570238.46698,39.63840509428377,-106.3699295056471,2516.945,-1,-1,10,65,-9999,1424570259.340487,42.96451568603516,5.90936279296875,-2.933448791503906,313.293212890625,304.1671447753906,10,22126.8776845,1.076950073242188,-0.0261688232421875,-0.3964996337890625,22126.864116625,-0.8761051638094381,-0.09600855519401058,-1.684033670028957,22126.864116625,0.4608499000238555,1.079055663528125,0.2133132545428288,-0.8850044012069702,-0.08425626903772354,-1.648212432861328,0.3137297034263611,0.2945391833782196,0.1280243843793869,XTrueNorthZVertical,-0.02774609995867663,0.5181702765228255,0.2480786475296565,0.8180383505827669,0.8615327477455139,-0.2116992175579071,-0.4614594280719757,47.86411285400391,5.052699089050293,-3.856080055236816,2,192.168.1.118,10.97.20.126,1,0
2015-02-21 18:57:39.399,114,1424570238.46698,39.63840509428377,-106.3699295056471,2516.945,-1,-1,10,65,-9999,1424570259.340487,42.96451568603516,5.90936279296875,-2.933448791503906,313.293212890625,304.1671447753906,10,22126.926719125,1.094558715820312,0.0732574462890625,-0.55535888671875,22126.91589570833,-0.4483466316242569,0.06767065698280443,-1.457747002733796,22126.864116625,0.4608499000238555,1.079055663528125,0.2133132545428288,-0.8850044012069702,-0.08425626903772354,-1.648212432861328,0.3137297034263611,0.2945391833782196,0.1280243843793869,XTrueNorthZVertical,-0.02774609995867663,0.5181702765228255,0.2480786475296565,0.8180383505827669,0.8615327477455139,-0.2116992175579071,-0.4614594280719757,47.86411285400391,5.052699089050293,-3.856080055236816,2,192.168.1.118,10.97.20.126,1,0
2015-02-21 18:57:39.447,115,1424570238.46698,39.63840509428377,-106.3699295056471,2516.945,-1,-1,10,65,-9999,1424570259.392672,42.31637954711914,9.543701171875,-3.000022888183594,316.6716613769531,307.5455932617188,10,22126.97577770834,1.039779663085938,0.0669403076171875,-0.5761871337890625,22126.967675125,-0.2896501938469801,-0.1215349542424201,-0.9101499499205751,22126.967675125,0.4390841038854706,1.070631525004566,0.07190193825313661,-0.2985492944717407,-0.109782911837101,-0.8743295669555664,0.1415636837482452,0.1222550421953201,-0.07003931701183319,XTrueNorthZVertical,-0.08084891967107684,0.5042796165264971,0.2050905082973241,0.8349272087249457,0.8752362132072449,-0.07184000313282013,-0.4783310294151306,46.93778228759766,10.6226634979248,-3.921234130859375,2,192.168.1.118,10.97.20.126,4,0
2015-02-21 18:57:39.501,116,1424570238.46698,39.63840509428377,-106.3699295056471,2516.945,-1,-1,10,65,-9999,1424570259.444336,41.56591033935547,12.80441284179688,-3.033302307128906,320.1999206542969,311.0738525390625,10,22127.02481745834,0.940673828125,0.0385589599609375,-0.573516845703125,22126.967675125,-0.2896501938469801,-0.1215349542424201,-0.9101499499205751,22126.967675125,0.4390841038854706,1.070631525004566,0.07190193825313661,-0.2985492944717407,-0.109782911837101,-0.8743295669555664,0.1415636837482452,0.1222550421953201,-0.07003931701183319,XTrueNorthZVertical,-0.08084891967107684,0.5042796165264971,0.2050905082973241,0.8349272087249457,0.8752362132072449,-0.07184000313282013,-0.4783310294151306,46.93778228759766,10.6226634979248,-3.921234130859375,2,192.168.1.118,10.97.20.126,4,0
2015-02-21 18:57:39.544,117,1424570238.46698,39.63840509428377,-106.3699295056471,2516.945,-1,-1,10,65,-9999,1424570259.496319,40.52547836303711,15.13104248046875,-2.950103759765625,323.2073669433594,314.081298828125,10,22127.07388908333,1.314895629882812,0.1707000732421875,-0.4928741455078125,22127.07123341667,0.2335166170225079,0.02701697031052685,0.5505659447964413,22127.01945404167,0.4373921251306594,1.068205276202807,0.04587575732812827,-0.2742513120174408,0.01423505321145058,-0.05550774931907654,0.1236843168735504,0.08573088049888611,-0.1180826798081398,XTrueNorthZVertical,-0.09114568409023792,0.5010957638538107,0.198089127466943,0.8374701410903251,0.8754154443740845,-0.04585966840386391,-0.4811910092830658,46.10445404052734,13.80771923065186,-3.885675430297852,2,192.168.1.118,10.97.20.126,4,0
2015-02-21 18:57:39.598,118,1424570238.46698,39.63840509428377,-106.3699295056471,2516.945,-1,-1,10,65,-9999,1424570259.548236,40.04790878295898,15.43673706054688,-2.484153747558594,323.3506469726562,314.2245788574219,10,22127.12292841667,1.175567626953125,0.2181854248046875,-0.3876800537109375,22127.12301258334,0.8713642044368791,7.803061993932168e-05,0.9965729894030635,22127.07123341667,0.4468195304548395,1.075294020310868,0.05773580666346183,0.2246177047491074,0.03876878693699837,0.5863856673240662,0.4575054943561554,0.2461650371551514,-0.05867435410618782,XTrueNorthZVertical,-0.0892396120471607,0.504673768529217,0.2046329709024026,0.833946081074084,0.8782641291618347,-0.05770373716950417,-0.4746813476085663,46.16481018066406,13.70033264160156,-3.533218383789062,2,192.168.1.118,10.97.20.126,4,0
2015-02-21 18:57:39.643,119,1424570238.46698,39.63840509428377,-106.3699295056471,2516.945,-1,-1,10,65,-9999,1424570259.602104,40.42314147949219,14.41775512695312,-2.018218994140625,321.9454040527344,312.8193359375,10,22127.17203558333,0.995880126953125,-0.02752685546875,-0.383941650390625,22127.17479175,1.229688534365405,-0.1111616754804524,1.407290486405046,22127.12301258334,0.4449722333676002,1.076112557114386,0.1102120920154394,0.8624653816223145,0.01182971801608801,1.032392263412476,0.3007885813713074,0.3281745314598083,0.08419288694858551,XTrueNorthZVertical,-0.06677680552067705,0.5095138755696257,0.2167204351926915,0.8300414216985437,0.8747790455818176,-0.1099891066551208,-0.4718729257583618,46.3947868347168,12.90744113922119,-3.506288528442383,2,192.168.1.118,10.97.20.126,4,0
2015-02-21 18:57:39.696,120,1424570238.46698,39.63840509428377,-106.3699295056471,2516.945,-1,-1,10,65,-9999,1424570259.676857,42.33343505859375,10.81735229492188,-3.049949645996094,319.1309509277344,310.0048828125,10,22127.22104058334,1.046127319335938,-0.2027435302734375,-0.4385223388671875,22127.17479175,1.229688534365405,-0.1111616754804524,1.407290486405046,22127.17479175,0.4269628163831326,1.072922460937921,0.1925042968296971,1.220789790153503,-0.09941010177135468,1.443109393119812,0.1335095316171646,0.1637906730175018,0.08479558676481247,XTrueNorthZVertical,-0.02705366346385592,0.5146838632563615,0.2292619372858258,0.8257164308814605,0.8623706102371216,-0.1913175284862518,-0.4687372446060181,47.26235580444336,8.890361785888672,-4.313196182250977,2,192.168.1.118,10.97.20.126,4,0
2015-02-21 18:57:39.742,121,1424570238.46698,39.63840509428377,-106.3699295056471,2516.945,-1,-1,10,65,-9999,1424570259.729145,43.57853698730469,6.860382080078125,-3.299568176269531,316.2564086914062,307.1303405761719,10,22127.27022720833,0.8978118896484375,-0.4324493408203125,-0.3960418701171875,22127.27835029167,1.568598952579472,0.1567427428015946,1.9943987297829,22127.22657091667,0.400423648779985,1.077840833665681,0.295672933424861,1.490881562232971,-0.0551745742559433,1.722845315933228,0.2034164071083069,0.08864011615514755,0.01417395006865263,XTrueNorthZVertical,0.02294335494523951,0.5226140619758946,0.2429118858621217,0.8169100319587195,0.8427109122276306,-0.2913836538791656,-0.452696293592453,47.72918319702148,5.448487281799316,-4.859134674072266,2,192.168.1.118,10.97.20.126,4,0
2015-02-21 18:57:39.798,122,1424570238.46698,39.63840509428377,-106.3699295056471,2516.945,-1,-1,10,65,-9999,1424570259.780784,44.39723205566406,1.935302734375,-3.432685852050781,312.491943359375,303.3658752441406,10,22127.319159625,0.8715057373046875,-0.5460662841796875,-0.3727264404296875,22127.27835029167,1.568598952579472,0.1567427428015946,1.9943987297829,22127.27835029167,0.3779922024808225,1.087531154801108,0.4158736318851309,1.5597003698349,0.1684940904378891,2.030216932296753,0.08780467510223389,-0.02846008911728859,0.02902405709028244,XTrueNorthZVertical,0.07841540047286902,0.5303942507398622,0.2622153448197694,0.8023566018989341,0.8100072145462036,-0.4039892554283142,-0.4250659346580505,47.93186569213867,2.774628639221191,-5.119590759277344,2,192.168.1.118,10.97.20.126,4,0
2015-02-21 18:57:39.839,123,1424570238.46698,39.63840509428377,-106.3699295056471,2516.945,-1,-1,10,65,-9999,1424570259.832778,44.60190963745117,-3.669036865234375,-3.066596984863281,308.3574523925781,299.2313842773438,10,22127.36833220833,0.841644287109375,-0.630218505859375,-0.264556884765625,22127.33012920833,1.539669566290159,0.09878889537205331,2.309055473633506,22127.33012920833,0.3582031573383797,1.103174458915075,0.5479143601298946,1.530771017074585,0.1105401143431664,2.344873428344727,0.1128455549478531,-0.08726152032613754,0.07510144263505936,XTrueNorthZVertical,0.1368602250460721,0.537475576741314,0.2855748636412949,0.7815601834677621,0.7619713544845581,-0.5209080576896667,-0.3847785592079163,47.78604125976562,-5.129125595092773,-4.643138885498047,2,192.168.1.118,10.97.20.126,4,0
2015-02-21 18:57:39.898,124,1424570238.46698,39.63840509428377,-106.3699295056471,2516.945,-1,-1,10,65,-9999,1424570259.884291,43.61264801025391,-9.680999755859375,-2.434257507324219,303.6033325195312,294.4772644042969,10,22127.417263,0.5470733642578125,-0.8609771728515625,-0.2282562255859375,22127.38190866667,1.758442390885771,-0.1063932855486656,2.525457818542838,22127.38190866667,0.3329369698171581,1.119022324079455,0.6949925454012148,1.749544024467468,-0.09464218467473984,2.561275482177734,0.1349406838417053,-0.03625602647662163,0.0960017591714859,XTrueNorthZVertical,0.201934503817729,0.5399720202424371,0.310292729696201,0.7558909546620102,0.6910023093223572,-0.6403797268867493,-0.3353053331375122,46.96026229858398,-10.52857398986816,-3.905787467956543,2,192.168.1.118,10.97.20.126,4,0
2015-02-21 18:57:39.938,125,1424570238.46698,39.63840509428377,-106.3699295056471,2516.945,-1,-1,10,65,-9999,1424570259.884291,43.61264801025391,-9.680999755859375,-2.434257507324219,303.6033325195312,294.4772644042969,10,22127.46636958333,0.34515380859375,-0.7154998779296875,-0.1885223388671875,22127.43368775,2.042604342358315,0.04154344879247306,2.752399889782267,22127.43368775,0.2935679544852837,1.143762010582583,0.8585330567698586,2.033705949783325,0.05329444259405136,2.788217067718506,-0.07003254443407059,-0.1044434681534767,0.08916377276182175,XTrueNorthZVertical,0.2742410746035176,0.5380061982048486,0.3346607200287555,0.7234247756901084,0.5948585867881775,-0.7568846344947815,-0.2706823348999023,46.00654983520508,-14.2705192565918,-3.334957122802734,2,192.168.1.118,10.97.20.126,4,0
2015-02-21 18:57:39.995,126,1424570238.46698,39.63840509428377,-106.3699295056471,2516.945,-1,-1,10,65,-9999,1424570259.937232,42.26521301269531,-16.1514892578125,-0.3208770751953125,297.1991271972656,288.0730590820312,10,22127.51536341667,0.203460693359375,-0.3936614990234375,-0.0411376953125,22127.485467,1.88711008947575,-0.003564374802962052,3.090200835086207,22127.485467,0.2366834751783956,1.192733943366754,1.034189366445795,1.878211855888367,0.008186501450836658,3.126017808914185,-0.1868825852870941,0.1771209537982941,0.0358097106218338,XTrueNorthZVertical,0.3485198917115584,0.5330877011132306,0.3606226043055651,0.6813976556945456,0.4751211106777191,-0.859448254108429,-0.1887027770280838,41.93814086914062,-23.92349243164062,-0.4805421829223633,2,192.168.1.118,10.97.20.126,4,0
2015-02-21 18:57:40.034,127,1424570238.46698,39.63840509428377,-106.3699295056471,2516.945,-1,-1,10,65,-9999,1424570259.987657,39.57033538818359,-22.23136901855469,1.942268371582031,291.2687683105469,282.1427001953125,10,22127.56442579167,0.3886566162109375,-0.2754974365234375,-0.18121337890625,22127.537246125,1.196227246849105,0.4046159286285017,2.079327203261636,22127.537246125,0.1671451209827167,1.267812281334925,1.190561593819953,1.187329053878784,0.4163666963577271,2.115143537521362,-0.02613884583115578,0.7411843538284302,-0.07793844491243362,XTrueNorthZVertical,0.409285993911328,0.5264187836794966,0.3866547011092697,0.6370764643325737,0.3542333245277405,-0.9285775423049927,-0.1107364818453789,38.3189697265625,-29.3128662109375,1.945508003234863,2,192.168.1.118,10.97.20.126,4,0
2015-02-21 18:57:40.095,128,1424570238.46698,39.63840509428377,-106.3699295056471,2516.945,-1,-1,10,65,-9999,1424570260.039463,36.65372467041016,-26.69786071777344,4.222053527832031,284.9634399414062,275.8373718261719,10,22127.61346816667,0.4690399169921875,-0.770477294921875,-0.3457489013671875,22127.5890255,0.248608484603878,-0.1003162182572137,-0.1544846485133164,22127.5890255,0.1010175028875841,1.330723113854898,1.239152390894899,0.2397720366716385,-0.08861041814088821,-0.1185873821377754,0.148370161652565,0.4222692251205444,-0.07396380603313446,XTrueNorthZVertical,0.4308680432455161,0.5250175328333649,0.3903635667229147,0.621550999694866,0.3162599802017212,-0.9455083608627319,-0.07741864025592804,36.29663848876953,-31.64897346496582,3.502697944641113,2,192.168.1.118,10.97.20.126,4,0
2015-02-21 18:57:40.133,129,1424570238.46698,39.63840509428377,-106.3699295056471,2516.945,-1,-1,10,65,-9999,1424570260.091893,35.1868896484375,-29.07546997070312,4.787841796875,283.1957092285156,274.0696411132812,10,22127.662647375,0.1566314697265625,-0.676055908203125,0.019439697265625,22127.6408045,-1.045464365959174,-0.6629260427674293,-1.134875472184731,22127.6408045,0.1525819533164258,1.26064243917468,1.189071453885903,-1.054300785064697,-0.6512203216552734,-1.098978519439697,-0.09308984875679016,0.1106101348996162,-0.1605964004993439,XTrueNorthZVertical,0.4139592758202243,0.5213347478719467,0.3801852203750827,0.6421113896755107,0.3547475636005402,-0.9280234575271606,-0.1136955991387367,36.46155548095703,-31.48225212097168,3.285617113113403,2,192.168.1.118,10.97.20.126,4,0
2015-02-21 18:57:40.197,130,1424570238.46698,39.63840509428377,-106.3699295056471,2516.945,-1,-1,10,65,-9999,1424570260.143694,35.52801513671875,-28.66789245605469,4.188766479492188,284.0783386230469,274.9522705078125,10,22127.71158275,0.5290679931640625,-0.77252197265625,0.1024169921875,22127.69258379167,-1.3820852645841,0.06121701871321542,-2.087084725200928,22127.69258379167,0.2356381865499133,1.19828979176858,1.09809655916825,-1.390921473503113,0.07292258739471436,-2.051188230514526,0.04591903835535049,0.3987804651260376,-0.05150488764047623,XTrueNorthZVertical,0.3714407244647859,0.5283746785895013,0.3750690643937071,0.6649625734493042,0.4240669310092926,-0.8903423547744751,-0.1657039672136307,38.11491394042969,-29.59914016723633,1.586355686187744,2,192.168.1.118,10.97.20.126,4,0
2015-02-21 18:57:40.232,131,1424570238.46698,39.63840509428377,-106.3699295056471,2516.945,-1,-1,10,65,-9999,1424570260.195349,37.23363494873047,-26.08648681640625,2.491409301757812,286.7962646484375,277.6701965332031,10,22127.76065208334,0.296142578125,-0.8198089599609375,-0.05584716796875,22127.74436295834,-1.957113142941246,-0.7414235148458419,-2.522047374450882,22127.74436295834,0.3029127959047967,1.135001622345187,0.9666793460019464,-1.965949296951294,-0.729718029499054,-2.486150979995728,-0.2457485347986221,0.3848631381988525,-0.03169894963502884,XTrueNorthZVertical,0.315592835943547,0.5296304843623055,0.3596028693034107,0.7004131125578594,0.5149440765380859,-0.8230040073394775,-0.2397854179143906,39.75813293457031,-27.39119529724121,0.6209659576416016,2,192.168.1.118,10.97.20.126,4,0
2015-02-21 18:57:40.292,132,1424570238.46698,39.63840509428377,-106.3699295056471,2516.945,-1,-1,10,65,-9999,1424570260.24763,39.72383880615234,-21.63697814941406,0.5943679809570312,290.7021484375,281.5760803222656,10,22127.80969258333,0.5121307373046875,-0.581390380859375,-0.24176025390625,22127.79614195833,-1.789341451117306,-0.06078824977771266,-2.511397126935547,22127.74436295834,0.3029127959047967,1.135001622345187,0.9666793460019464,-1.965949296951294,-0.729718029499054,-2.486150979995728,-0.2457485347986221,0.3848631381988525,-0.03169894963502884,XTrueNorthZVertical,0.315592835943547,0.5296304843623055,0.3596028693034107,0.7004131125578594,0.5149440765380859,-0.8230040073394775,-0.2397854179143906,39.75813293457031,-27.39119529724121,0.6209659576416016,2,192.168.1.118,10.97.20.126,4,0
2015-02-21 18:57:40.330,133,1424570238.46698,39.63840509428377,-106.3699295056471,2516.945,-1,-1,10,65,-9999,1424570260.299433,41.92408752441406,-16.21940612792969,-1.618843078613281,296.0189208984375,286.8928527832031,10,22127.858769125,0.6975555419921875,-0.5277862548828125,-0.217987060546875,22127.84792141667,-1.75725888209734,0.3335047338334239,-2.324471714235648,22127.84792141667,0.3678690070992354,1.080667047361771,0.6634188089527225,-1.766094923019409,0.3452099561691284,-2.288576126098633,0.02648401632905006,-0.1460419893264771,0.1387600600719452,XTrueNorthZVertical,0.1855962265872748,0.529252333327945,0.3129934561171663,0.7664731858912598,0.6951346397399902,-0.6158140897750854,-0.3708920180797577,45.16098785400391,-16.4426383972168,-4.636493682861328,2,192.168.1.118,10.97.20.126,4,0
2015-02-21 18:57:40.397,134,1424570238.46698,39.63840509428377,-106.3699295056471,2516.945,-1,-1,10,65,-9999,1424570260.351027,43.37386322021484,-10.699951171875,-3.06658935546875,301.0227355957031,291.8966674804688,10,22127.907809,0.639251708984375,-0.409942626953125,-0.4008331298828125,22127.8997005,-1.686263801125789,-0.2313184438587565,-2.355599273688712,22127.84792141667,0.3678690070992354,1.080667047361771,0.6634188089527225,-1.766094923019409,0.3452099561691284,-2.288576126098633,0.02648401632905006,-0.1460419893264771,0.1387600600719452,XTrueNorthZVertical,0.1855962265872748,0.529252333327945,0.3129934561171663,0.7664731858912598,0.6951346397399902,-0.6158140897750854,-0.3708920180797577,45.16098785400391,-16.4426383972168,-4.636493682861328,2,192.168.1.118,10.97.20.126,4,0
2015-02-21 18:57:40.428,135,1424570238.46698,39.63840509428377,-106.3699295056471,2516.945,-1,-1,10,65,-9999,1424570260.403568,43.80027008056641,-4.16156005859375,-3.981842041015625,306.5328674316406,297.4067993164062,10,22127.95698829167,1.390899658203125,-0.233245849609375,-0.479705810546875,22127.95147975,-1.092978888231714,0.7559774238870159,-2.351007717653307,22127.8997005,0.3845415456096078,1.079999124465996,0.5168636694225288,-1.695099711418152,-0.2196133434772491,-2.319704055786133,0.155857190489769,0.03295903280377388,-0.0386643186211586,XTrueNorthZVertical,0.1201781819391658,0.5297893141489559,0.2874291197760497,0.7888377705353088,0.7667502164840698,-0.4941559433937073,-0.409760981798172,46.77436828613281,-10.93385791778564,-4.897098541259766,2,192.168.1.118,10.97.20.126,4,0
2015-02-21 18:57:40.498,136,1424570238.46698,39.63840509428377,-106.3699295056471,2516.945,-1,-1,10,65,-9999,1424570260.454379,43.49325561523438,1.81640625,-4.181526184082031,311.9664001464844,302.84033203125,10,22128.00592758333,0.9459228515625,-0.1270599365234375,-0.4068756103515625,22128.00325883333,-1.40306404975509,0.09605249735199689,-1.899552111772491,22127.95147975,0.4012999779191482,1.06900389136271,0.3730251648596253,-1.1018146276474,0.7676823735237122,-2.315113067626953,0.483803004026413,0.05039307847619057,0.04220321401953697,XTrueNorthZVertical,0.05659963942579603,0.5223379202598817,0.2610998554750245,0.8098064480265323,0.8164288997650146,-0.3644342124462128,-0.4479191601276398,47.88549041748047,-1.576169967651367,-5.988964080810547,2,192.168.1.118,10.97.20.126,4,0
2015-02-21 18:57:40.526,137,1424570238.46698,39.63840509428377,-106.3699295056471,2516.945,-1,-1,10,65,-9999,1424570260.506509,42.99862670898438,7.369873046875,-4.031768798828125,316.0538940429688,306.9278259277344,10,22128.0549945,0.9424896240234375,-0.0590057373046875,-0.4954833984375,22128.05503833334,-1.264939732450348,-0.5751447911290005,-1.672463832989217,22128.00325883333,0.4174461259549809,1.065359632566675,0.2519980864087206,-1.41189980506897,0.1077573746442795,-1.863657712936401,-0.06633783131837845,0.09037336707115173,0.0638219490647316,XTrueNorthZVertical,0.00150876950032525,0.5153146748066447,0.2395201139115342,0.8228478987603348,0.8473284244537354,-0.2493394315242767,-0.4688970148563385,47.97280883789062,1.874938011169434,-5.144577980041504,2,192.168.1.118,10.97.20.126,4,0
2015-02-21 18:57:40.595,138,1424570238.46698,39.63840509428377,-106.3699295056471,2516.945,-1,-1,10,65,-9999,1424570260.558318,41.54884719848633,11.25894165039062,-3.615745544433594,319.0322265625,309.9061584472656,10,22128.10402841667,1.215972900390625,0.3392333984375,-0.447601318359375,22128.05503833334,-1.264939732450348,-0.5751447911290005,-1.672463832989217,22128.05503833334,0.4269562579130636,1.062534618118045,0.1479932160218387,-1.273775339126587,-0.5634400248527527,-1.636569738388062,0.07844707369804382,0.08844784647226334,-0.01414364762604237,XTrueNorthZVertical,-0.04474806518064996,0.5072748124637394,0.2187630940965513,0.8323536651464601,0.8640425205230713,-0.1474535763263702,-0.4813397526741028,47.60769653320312,6.277981758117676,-5.046430587768555,2,192.168.1.118,10.97.20.126,4,0
2015-02-21 18:57:40.624,139,1424570238.46698,39.63840509428377,-106.3699295056471,2516.945,-1,-1,10,65,-9999,1424570260.61042,40.28668975830078,14.5196533203125,-3.549186706542969,322.4069519042969,313.2808837890625,10,22128.1531035,0.9751434326171875,0.216888427734375,-0.4799957275390625,22128.158596625,-0.377066858732177,-0.08989127417009858,-0.9487117235565954,22128.10681720834,0.4273185868343835,1.063851031140191,0.05784162192187811,-0.6167739629745483,0.2737932205200195,-1.36776077747345,0.3432032465934753,0.3970427811145782,0.03709574416279793,XTrueNorthZVertical,-0.08314433251451138,0.5007379449123125,0.1969971259330615,0.8387733321874269,0.8727696537971497,-0.05780937522649765,-0.4846970736980438,46.39485931396484,12.54677772521973,-4.633299827575684,2,192.168.1.118,10.97.20.126,4,0
2015-02-21 18:57:40.692,140,1424570238.46698,39.63840509428377,-106.3699295056471,2516.945,-1,-1,10,65,-9999,1424570260.663685,39.41682434082031,16.94821166992188,-3.066596984863281,324.6344604492188,315.5083923339844,10,22128.20214075,0.8790435791015625,0.2223663330078125,-0.5591278076171875,22128.158596625,-0.377066858732177,-0.08989127417009858,-0.9487117235565954,22128.158596625,0.4262386271834632,1.058759895495974,-0.002703502516169548,-0.3859023451805115,-0.07818674296140671,-0.9128183722496033,0.1033980399370193,0.2141849249601364,0.009956009685993195,XTrueNorthZVertical,-0.107952237833563,0.4933259022166213,0.1818909431884795,0.8437366847861146,0.8717454075813293,0.002703499281778932,-0.4899517297744751,45.87289810180664,14.4950647354126,-4.116111755371094,2,192.168.1.118,10.97.20.126,4,0
2015-02-21 18:57:40.722,141,1424570238.46698,39.63840509428377,-106.3699295056471,2516.945,-1,-1,10,65,-9999,1424570260.71408,39.05864715576172,18.3577880859375,-2.617294311523438,325.576904296875,316.4508361816406,10,22128.25132916667,1.213287353515625,0.3074951171875,-0.5411834716796875,22128.21037575,-0.2633003453895181,-0.1236324599169665,-0.008638761943999033,22128.21037575,0.4295640653829348,1.056370270650633,-0.02584578684804377,-0.2721357345581055,-0.1119280532002449,0.02725422568619251,0.00875905342400074,0.1965234279632568,-0.067256860435009,XTrueNorthZVertical,-0.1183087211484657,0.4899669101196786,0.1777109147446549,0.8451948557507808,0.8702844977378845,0.02584290876984596,-0.4918709397315979,45.17891693115234,16.5501537322998,-4.041072845458984,2,192.168.1.118,10.97.20.126,4,0
2015-02-21 18:57:40.762,142,1424570238.46698,39.63840509428377,-106.3699295056471,2516.945,-1,-1,10,65,-9999,1424570260.71408,39.05864715576172,18.3577880859375,-2.617294311523438,325.576904296875,316.4508361816406,10,22128.30025829167,1.123214721679688,0.249481201171875,-0.422119140625,22128.26215491667,0.2898358161749586,0.05038461097931812,0.4972768903322827,22128.26215491667,0.4334966528946605,1.061015510575259,-0.01410669041159389,0.2810004949569702,0.06208889186382294,0.5331694483757019,0.312858521938324,0.3550954461097717,-0.02018027566373348,XTrueNorthZVertical,-0.1147505144978403,0.4928119512724926,0.1820060253560642,0.8431147886014944,0.8727646470069885,0.01410622242838144,-0.4879373908042908,45.09892272949219,16.82601165771484,-3.787433624267578,2,192.168.1.118,10.97.20.126,4,0
2015-02-21 18:57:40.819,143,1424570238.46698,39.63840509428377,-106.3699295056471,2516.945,-1,-1,10,65,-9999,1424570260.766094,39.5191650390625,18.30685424804688,-2.43426513671875,325.3637390136719,316.2376708984375,10,22128.34932741667,1.114776611328125,0.1127166748046875,-0.4365386962890625,22128.31393408333,0.7745849304233996,-0.03290681737734609,1.067302020581715,22128.31393408333,0.4321508527356037,1.06223704881872,0.03878636621723641,0.7657497525215149,-0.02120265178382397,1.103194236755371,0.2723515629768372,0.2492258548736572,0.07735820859670639,XTrueNorthZVertical,-0.09224000117742166,0.498212006297841,0.194421571804777,0.8399267059091553,0.8727900385856628,-0.03877664357423782,-0.4865531623363495,45.38886260986328,16.01284599304199,-3.848653793334961,2,192.168.1.118,10.97.20.126,4,0
2015-02-21 18:57:40.880,144,1424570238.46698,39.63840509428377,-106.3699295056471,2516.945,-1,-1,10,65,-9999,1424570260.869781,41.13950347900391,13.94223022460938,-3.116523742675781,321.7238464355469,312.5977783203125,10,22128.398373125,1.028350830078125,-0.0266876220703125,-0.4097442626953125,22128.36571329167,1.177080982824198,-0.1309843824222392,1.542438188559406,22128.36571329167,0.4207051956488681,1.058307104631553,0.1231262226591057,1.168245792388916,-0.1192803233861923,1.578330039978027,0.2204136252403259,0.2045872062444687,0.09306608885526657,XTrueNorthZVertical,-0.05326637186095454,0.5038300071882615,0.2102790383673589,0.8361224691561167,0.8649287819862366,-0.1228153556585312,-0.4866360425949097,46.08240509033203,13.76033973693848,-4.293889045715332,2,192.168.1.118,10.97.20.126,4,0
2015-02-21 18:57:40.919,145,1424570238.46698,39.63840509428377,-106.3699295056471,2516.945,-1,-1,10,65,-9999,1424570260.869781,41.13950347900391,13.94223022460938,-3.116523742675781,321.7238464355469,312.5977783203125,10,22128.44743970834,0.9049835205078125,-0.22320556640625,-0.4083709716796875,22128.417492375,1.382734276941752,-0.2002233749709913,1.751762650239634,22128.417492375,0.4050951208485586,1.053145355725572,0.2284996598833958,1.373899221420288,-0.1885194331407547,1.787654161453247,0.1944967657327652,0.1726529151201248,0.09438953548669815,XTrueNorthZVertical,-0.003897867350963552,0.5089162892325146,0.2289035112435133,0.8298145814838929,0.846396803855896,-0.2265164405107498,-0.4819780290126801,47.28147888183594,7.978420257568359,-5.672653198242188,2,192.168.1.118,10.97.20.126,4,0
2015-02-21 18:57:40.959,146,1424570238.46698,39.63840509428377,-106.3699295056471,2516.945,-1,-1,10,65,-9999,1424570260.921664,42.0605354309082,9.526702880859375,-3.715591430664062,318.4677124023438,309.3416442871094,10,22128.49647270834,0.90460205078125,-0.347381591796875,-0.3418121337890625,22128.46927179167,1.503383730121721,0.1651849634571458,1.87687449614214,22128.46927179167,0.3851378226894947,1.059139588021698,0.344366301831773,1.494548797607422,0.1768887788057327,1.912765622138977,0.0981871485710144,0.06741287559270859,0.07359322905540466,XTrueNorthZVertical,0.04988312357046177,0.5167914441535748,0.2476755610711361,0.8179823553106691,0.8207429051399231,-0.3376002609729767,-0.4608765542507172,47.60667419433594,5.191397666931152,-6.166521072387695,2,192.168.1.118,10.97.20.126,4,0
2015-02-21 18:57:41.017,147,1424570238.46698,39.63840509428377,-106.3699295056471,2516.945,-1,-1,10,65,-9999,1424570260.973659,43.4761962890625,4.992279052734375,-4.131607055664062,315.2981567382812,306.1720886230469,10,22128.54564554167,0.82666015625,-0.50836181640625,-0.34033203125,22128.52105095833,1.564657207850046,0.2043558020344673,2.051917949322541,22128.52105095833,0.3645099203951129,1.08083920839099,0.4688462929526453,1.555822372436523,0.2160595059394836,2.087808847427368,0.2173475623130798,0.04234199598431587,0.05397753044962883,XTrueNorthZVertical,0.1051805945145951,0.5282362572281579,0.2686963671635891,0.7985648384941628,0.7871385216712952,-0.4518573880195618,-0.4198069870471954,47.88137054443359,0.76708984375,-6.177202224731445,2,192.168.1.118,10.97.20.126,4,0
2015-02-21 18:57:41.096,148,1424570238.46698,39.63840509428377,-106.3699295056471,2516.945,-1,-1,10,65,-9999,1424570261.077195,43.73204040527344,-5.520111083984375,-2.983390808105469,307.3021545410156,298.1760864257812,10,22128.59456841667,0.8508148193359375,-0.5627593994140625,-0.2574615478515625,22128.572830125,1.593312554863189,0.160554258953716,2.281712266089445,22128.572830125,0.3458541512803484,1.096838689388141,0.602769080943325,1.584536075592041,0.1722154468297958,2.317680597305298,0.08187057077884674,0.03343268483877182,0.1038674116134644,XTrueNorthZVertical,0.16387085204493,0.5340015396713128,0.2926621103019126,0.7761041351464002,0.732964038848877,-0.5669257044792175,-0.3759773969650269,47.44569778442383,-7.395868301391602,-5.057579040527344,2,192.168.1.118,10.97.20.126,4,0
