loggingTime,loggingSample,locationTimestamp_since1970,locationLatitude,locationLongitude,locationAltitude,locationSpeed,locationCourse,locationVerticalAccuracy,locationHorizontalAccuracy,locationFloor,accelerometerTimestamp_sinceReboot,accelerometerAccelerationX,accelerometerAccelerationY,accelerometerAccelerationZ,gyroTimestamp_sinceReboot,gyroRotationX,gyroRotationY,gyroRotationZ,motionTimestamp_sinceReboot,motionYaw,motionRoll,motionPitch,motionRotationRateX,motionRotationRateY,motionRotationRateZ,motionUserAccelerationX,motionUserAccelerationY,motionUserAccelerationZ,motionAttitudeReferenceFrame,motionQuaternionX,motionQuaternionY,motionQuaternionZ,motionQuaternionW,motionGravityX,motionGravityY,motionGravityZ,motionMagneticFieldX,motionMagneticFieldY,motionMagneticFieldZ,motionMagneticFieldCalibrationAccuracy,IP_en0,IP_pdp_ip0,deviceOrientation,state
2015-02-08 21:20:27.186,1,1423459226.241843,37.77933189648928,-122.4388240837701,62.17062,0.34,84.375,4,10,-9999,2713.286613166667,0.083038330078125,-0.5816497802734375,-0.8796539306640625,2713.290206666667,-0.565345157265836,-0.3388760634360047,-0.02712695886354712,2713.253957875,-1.74293045232278,0.1417007266311447,0.6446706546497275,-0.7061468362808228,-0.2539829313755035,0.04519521072506905,-0.003507418790832162,-0.01146101392805576,0.07107171416282654,XArbitraryZVertical,0.2547876034699534,-0.1985950633267242,-0.7096035949641819,0.6261836918622141,0.1128824204206467,-0.6009352207183838,-0.7912865281105042,0,0,0,-1,192.168.1.8,10.227.79.254,1,0
2015-02-08 21:20:27.275,2,1423459227.220436,37.77933118402751,-122.4388176297047,61.92923,0.38,84.375,4,10,-9999,2713.34549825,0.139373779296875,-0.545501708984375,-0.7664337158203125,2713.3264545,-0.4248168044450797,-0.4299356663763211,-0.09358028491207633,2713.3264545,-1.737839381170445,0.1146072286655318,0.6043507787819361,-0.4276295304298401,-0.4206635355949402,-0.06607873737812042,0.05371122062206268,-0.0179384108632803,0.04794170707464218,XArbitraryZVertical,0.2335825031567507,-0.1915795791107308,-0.7168315672369719,0.6284019281473913,0.09410066902637482,-0.5682279467582703,-0.8174729347229004,0,0,0,-1,192.168.1.8,10.227.79.254,1,0
2015-02-08 21:20:27.294,3,1423459227.220436,37.77933118402751,-122.4388176297047,61.92923,0.38,84.375,4,10,-9999,2713.404380041667,0.0409698486328125,-0.554779052734375,-0.7986602783203125,2713.398951166667,-0.04341964578043388,-0.3292902814083735,0.003497529459601063,2713.362702375,-1.735997656944636,0.09552518111401649,0.594329038835567,-0.1690821051597595,-0.5039792060852051,0.08616151660680771,0.01434389967471361,-0.01280093379318714,-0.07433126866817474,XArbitraryZVertical,0.2238774658567352,-0.1936629319176654,-0.719725420525352,0.6279879522190027,0.07902462780475616,-0.559952974319458,-0.8247470855712891,0,0,0,-1,192.168.1.8,10.227.79.254,1,0
2015-02-08 21:20:27.356,4,1423459227.220436,37.77933118402751,-122.4388176297047,61.92923,0.38,84.375,4,10,-9999,2713.463279125,0.034698486328125,-0.56488037109375,-0.8180389404296875,2713.471446916667,0.08298782799239518,-0.1166901315873479,-0.02289066851755808,2713.435199041667,-1.732833241513532,0.06796528175040972,0.5905634284578739,0.05689847469329834,-0.3193717896938324,-0.06568871438503265,0.001939258654601872,0.008855476975440979,0.03061366267502308,XArbitraryZVertical,0.213107327539497,-0.2005756306951839,-0.7222100043379424,0.6267115707838687,0.05641034990549088,-0.5568290948867798,-0.8287093639373779,0,0,0,-1,192.168.1.8,10.227.79.254,1,0
2015-02-08 21:20:27.454,5,1423459227.220436,37.77933118402751,-122.4388176297047,61.92923,0.38,84.375,4,10,-9999,2713.522173458333,0.032806396484375,-0.547821044921875,-0.736083984375,2713.507695708333,-0.06219359988494747,-0.06379735549339319,0.08489997765507207,2713.507695708333,-1.731083540161309,0.05845311653200357,0.5946976192495352,-0.06497356295585632,-0.05449512228369713,0.1125469356775284,0.01093597337603569,0.03839246928691864,0.08000080287456512,XArbitraryZVertical,0.211115612814006,-0.2048867123458311,-0.7221708197855246,0.626035893683883,0.04839019849896431,-0.5602583289146423,-0.8269032835960388,0,0,0,-1,192.168.1.8,10.227.79.254,1,0
2015-02-08 21:20:27.472,6,1423459227.220436,37.77933118402751,-122.4388176297047,61.92923,0.38,84.375,4,10,-9999,2713.58106425,0.0502777099609375,-0.5438385009765625,-0.7569427490234375,2713.580191458334,-0.01615500148852967,0.03048280815315597,-0.003187271192606832,2713.543943583334,-1.726149827733023,0.05486399672791265,0.5916878853235821,-0.1380231231451035,0.03771280869841576,0.06753965467214584,-0.02395362965762615,-0.01370940543711185,-0.03167629614472389,XArbitraryZVertical,0.2094007675703992,-0.2043906507779699,-0.7213626220957156,0.6277035509368024,0.0455143004655838,-0.5577627420425415,-0.8287515640258789,0,0,0,-1,192.168.1.8,10.227.79.254,1,0
2015-02-08 21:20:27.568,7,1423459227.220436,37.77933118402751,-122.4388176297047,61.92923,0.38,84.375,4,10,-9999,2713.639955416667,0.0369873046875,-0.573272705078125,-0.8183135986328125,2713.616440291667,-0.01708790681838442,-0.01690201817429689,0.005349757997751173,2713.616440291667,-1.723564951573184,0.05645292982972953,0.5883280166563096,-0.0198672991245985,-0.007599812466651201,0.03299606963992119,0.01246592123061419,0.03276938945055008,-0.01322071999311447,XArbitraryZVertical,0.2092014910647377,-0.2023918641992775,-0.7207840617395804,0.6290807625292762,0.04693654552102089,-0.554970920085907,-0.8305445313453674,0,0,0,-1,192.168.1.8,10.227.79.254,1,0
2015-02-08 21:20:27.588,8,1423459227.220436,37.77933118402751,-122.4388176297047,61.92923,0.38,84.375,4,10,-9999,2713.698870416667,0.034698486328125,-0.54559326171875,-0.8209381103515625,2713.688936041667,0.130304743712051,-0.01725488701873239,0.02466539906798688,2713.688936041667,-1.7202782288097,0.05317664526709853,0.589257851155755,0.1275212615728378,-0.007953696884214878,0.05231166630983353,-0.0171949528157711,-0.02021406404674053,0.03814023360610008,XArbitraryZVertical,0.2086418907465423,-0.2034194251099378,-0.7199816361318939,0.6298535881825891,0.0441877506673336,-0.5557441711425781,-0.8301782011985779,0,0,0,-1,192.168.1.8,10.227.79.254,1,0
2015-02-08 21:20:27.647,9,1423459227.220436,37.77933118402751,-122.4388176297047,61.92923,0.38,84.375,4,10,-9999,2713.757764833334,0.04803466796875,-0.5382537841796875,-0.7818450927734375,2713.761432708333,-0.02332503009135,-0.006333796020535452,-0.0475036033120704,2713.725184791667,-1.71992898226425,0.05330152524663787,0.5901410554348363,-0.01028471812605858,0.02690832875669003,-0.009483247064054012,-0.0169672816991806,0.007177078630775213,0.04325948283076286,XArbitraryZVertical,0.2089953640016452,-0.2036659823735354,-0.7197540454176032,0.6299168354272083,0.0442652553319931,-0.5564782023429871,-0.8296822309494019,0,0,0,-1,192.168.1.8,10.227.79.254,1,0
2015-02-08 21:20:27.706,10,1423459227.220436,37.77933118402751,-122.4388176297047,61.92923,0.38,84.375,4,10,-9999,2713.816654125,0.0539703369140625,-0.540496826171875,-0.801361083984375,2713.797680583334,-0.07882690510525538,0.0317408854521094,-0.04958832581338442,2713.797680583334,-1.721388798233423,0.05617276803631686,0.5882964101780637,-0.08161158859729767,0.04104257002472878,-0.02194327116012573,-0.006467413622885942,0.001599907642230392,0.03966635465621948,XArbitraryZVertical,0.2093109525267207,-0.20224079904133,-0.7201322259296844,0.6298389965165945,0.04670483991503716,-0.554944634437561,-0.830575168132782,0,0,0,-1,192.168.1.8,10.227.79.254,1,0
2015-02-08 21:20:27.766,11,1423459227.220436,37.77933118402751,-122.4388176297047,61.92923,0.38,84.375,4,10,-9999,2713.875567083333,0.0865020751953125,-0.540802001953125,-0.851837158203125,2713.870177291667,-0.04719014925176807,0.08098300032378353,-0.03865631585471816,2713.833929416667,-1.7221463210607,0.05919944132420776,0.5827979573424628,-0.201194167137146,0.1158823221921921,-0.01505617331713438,0.002298488048836589,0.006828850135207176,0.01469206530600786,XArbitraryZVertical,0.2086275948067135,-0.1993559955756064,-0.7207056315737165,0.6303293633737419,0.04939828813076019,-0.5503621697425842,-0.8334634304046631,0,0,0,-1,192.168.1.8,10.227.79.254,1,0
2015-02-08 21:20:27.858,12,1423459227.220436,37.77933118402751,-122.4388176297047,61.92923,0.38,84.375,4,10,-9999,2713.93444875,0.037567138671875,-0.5384979248046875,-0.8034820556640625,2713.906425125,-0.05029379718614641,-0.01144573373294255,-0.01552276704574486,2713.906425125,-1.722431647308123,0.06527056242465569,0.5765201780476933,-0.05307663977146149,-0.002140988362953067,0.01211948785930872,0.01083955634385347,0.01060976181179285,0.03010664321482182,XArbitraryZVertical,0.2088497136425435,-0.1951719406186645,-0.7209031375295796,0.6313385597336599,0.0546816848218441,-0.5451098680496216,-0.836579442024231,0,0,0,-1,192.168.1.8,10.227.79.254,1,0
2015-02-08 21:20:27.887,13,1423459227.220436,37.77933118402751,-122.4388176297047,61.92923,0.38,84.375,4,10,-9999,2713.993337291667,0.0643463134765625,-0.5249481201171875,-0.8186187744140625,2713.978921875,-0.1306679988847378,0.07135673824758311,-0.07495972888635132,2713.978921875,-1.72456086159603,0.07073051786925512,0.5657521090163092,-0.13344906270504,0.08066141605377197,-0.04731772094964981,0.0168018750846386,0.003976912703365088,0.01379731390625238,XArbitraryZVertical,0.2072921945847183,-0.1897168812245437,-0.7222723870063693,0.6319494046288808,0.0596599169075489,-0.5360509157180786,-0.8420749306678772,0,0,0,-1,192.168.1.8,10.227.79.254,1,0
2015-02-08 21:20:27.958,14,1423459227.220436,37.77933118402751,-122.4388176297047,61.92923,0.38,84.375,4,10,-9999,2714.052226833333,0.0656585693359375,-0.520660400390625,-0.8409271240234375,2714.051418583334,-0.1982220094117968,-0.1269531554801863,-0.06493931896881917,2714.015169708333,-1.726030384922975,0.07309706433073447,0.562269206048587,-0.1291952133178711,-0.01152563281357288,-0.04377534613013268,0.002405191538855433,0.004817630164325237,0.0368882492184639,XArbitraryZVertical,0.2069344916310326,-0.1878403030625038,-0.7228986046962371,0.6319111836698398,0.06178853288292885,-0.5331073999404907,-0.8437882661819458,0,0,0,-1,192.168.1.8,10.227.79.254,1,0
2015-02-08 21:20:28.003,15,1423459227.220436,37.77933118402751,-122.4388176297047,61.92923,0.38,84.375,4,10,-9999,2714.11111475,0.0662994384765625,-0.49853515625,-0.8186492919921875,2714.123914375,0.02046612666114994,0.07180095351740833,0.04707829648598474,2714.087666458333,-1.729036489243869,0.07009576127397994,0.5500929100863251,-0.09924574941396713,-0.08294282853603363,0.01301387511193752,0.02185219712555408,0.01176484767347574,0.02744551748037338,XArbitraryZVertical,0.2018128953500057,-0.1846084804415396,-0.7255607431763874,0.6314688212262207,0.05970602855086327,-0.5227664113044739,-0.8503825068473816,0,0,0,-1,192.168.1.8,10.227.79.254,1,0
2015-02-08 21:20:28.061,16,1423459227.220436,37.77933118402751,-122.4388176297047,61.92923,0.38,84.375,4,10,-9999,2714.170012625,0.0926513671875,-0.505706787109375,-0.8275909423828125,2714.160163208333,-0.005104747177463884,0.03046389970941641,-0.008099471823257987,2714.123914375,-1.728160643079913,0.07132836686665255,0.5489718276397566,0.01768581010401249,0.0811174213886261,0.07471078634262085,0.006327513605356216,0.01775157265365124,0.0425579771399498,XArbitraryZVertical,0.2019946951903637,-0.183717117043878,-0.7252876534179107,0.631984164215821,0.06079589948058128,-0.5218104124069214,-0.8508923053741455,0,0,0,-1,192.168.1.8,10.227.79.254,1,0
2015-02-08 21:20:28.158,17,1423459227.220436,37.77933118402751,-122.4388176297047,61.92923,0.38,84.375,4,10,-9999,2714.228913333333,0.059051513671875,-0.5081939697265625,-0.808624267578125,2714.232658916667,0.08308183757887497,-0.1271486315041981,0.02630111260951355,2714.196411083334,-1.725703146612878,0.07475331418208425,0.549838786555725,0.04688699170947075,-0.06498012691736221,0.1054419875144958,0.03126419708132744,0.009442484006285667,0.01107056625187397,XArbitraryZVertical,0.2037284767527198,-0.1827043306055436,-0.7240637915670383,0.6331235748884667,0.06367599219083786,-0.5225498080253601,-0.8502276539802551,0,0,0,-1,192.168.1.8,10.227.79.254,1,0
2015-02-08 21:20:28.177,18,1423459227.220436,37.77933118402751,-122.4388176297047,61.92923,0.38,84.375,4,10,-9999,2714.287791833333,0.05682373046875,-0.513397216796875,-0.798095703125,2714.268907791667,-0.1125792761287016,-0.07529262402261122,-0.08352232442317407,2714.268907791667,-1.722668141551502,0.06700448257884555,0.5536235281451443,-0.1153158992528915,-0.06593336910009384,-0.05570635199546814,-0.01798209920525551,-0.003264538245275617,0.06200354173779488,XArbitraryZVertical,0.2023747376461671,-0.1862427750367008,-0.7234565799429614,0.6332208708235204,0.05695304647088051,-0.5257729291915894,-0.8487161993980408,0,0,0,-1,192.168.1.8,10.227.79.254,1,0
2015-02-08 21:20:28.257,19,1423459228.187521,37.77933151930364,-122.4388134387531,61.57016,0.39,84.375,4,10,-9999,2714.346682208333,0.0411376953125,-0.50390625,-0.7430419921875,2714.341403541667,-0.1386588137355206,0.1574455510132665,-0.2300198865112339,2714.341403541667,-1.732649244909912,0.07862002795830317,0.5481165460174906,-0.1413888186216354,0.1668046414852142,-0.2022031247615814,-0.02179136499762535,0.001625656033866107,0.1048993319272995,XArbitraryZVertical,0.203967037569189,-0.1815542360980862,-0.7260630893496034,0.6310846989304911,0.06703367084264755,-0.5210806131362915,-0.8508710265159607,0,0,0,-1,192.168.1.8,10.227.79.254,1,0
2015-02-08 21:20:28.296,20,1423459228.187521,37.77933151930364,-122.4388134387531,61.57016,0.39,84.375,4,10,-9999,2714.405675958334,0.1141815185546875,-0.4983367919921875,-0.7713165283203125,2714.413900458334,-0.2855949984551164,-0.09103350396163357,0.01137249680296537,2714.377652416667,-1.741224313675773,0.08535857677069097,0.5393855389734344,-0.2839310169219971,-0.02205482311546803,-0.2130815386772156,0.01823404990136623,0.01119797769933939,0.06516662985086441,XArbitraryZVertical,0.2029720797337763,-0.1770651807562082,-0.7290847603731327,0.6291944602457638,0.07315083593130112,-0.5136088728904724,-0.8549005389213562,0,0,0,-1,192.168.1.8,10.227.79.254,1,0
2015-02-08 21:20:28.369,21,1423459228.187521,37.77933151930364,-122.4388134387531,61.57016,0.39,84.375,4,10,-9999,2714.46446975,0.0869293212890625,-0.5012969970703125,-0.839324951171875,2714.450148208333,-0.3001393201163662,0.4659823506788706,-0.110305469189992,2714.450148208333,-1.742158354726463,0.09116911059704039,0.519380985501581,-0.3028667271137238,0.4753443598747253,-0.0824911966919899,-0.05611803010106087,0.01259346026927233,0.1020853221416473,XArbitraryZVertical,0.1988881067442414,-0.1678776407309026,-0.731069069578971,0.6307127985408608,0.07903673499822617,-0.4963428378105164,-0.8645212650299072,0,0,0,-1,192.168.1.8,10.227.79.254,1,0
2015-02-08 21:20:28.420,22,1423459228.187521,37.77933151930364,-122.4388134387531,61.57016,0.39,84.375,4,10,-9999,2714.523358875,0.1209564208984375,-0.4483489990234375,-0.84051513671875,2714.522645166667,-0.2263545779029578,0.05289357504228177,-0.0816613074534267,2714.486397083333,-1.747017726107391,0.1125366344863512,0.5115003627845771,-0.1503511667251587,0.4347162842750549,-0.125773698091507,0.04137129709124565,-0.01080378703773022,-0.02210046350955963,XArbitraryZVertical,0.2038955721559643,-0.1586790363997436,-0.7313433221598911,0.6311770783184101,0.09792619198560715,-0.4894861280918121,-0.8664951324462891,0,0,0,-1,192.168.1.8,10.227.79.254,1,0
2015-02-08 21:20:28.472,23,1423459228.187521,37.77933151930364,-122.4388134387531,61.57016,0.39,84.375,4,10,-9999,2714.582255291667,0.018035888671875,-0.5096588134765625,-0.9175567626953125,2714.558892875,-0.4697472615119156,-0.1163676227793393,-0.1283262813382312,2714.558892875,-1.751877186887982,0.1214791459095865,0.4907357240575022,-0.4724754691123962,-0.1070018783211708,-0.100515715777874,-0.01328221149742603,0.005118908360600471,0.02607554011046886,XArbitraryZVertical,0.2004762102268865,-0.1485463347543674,-0.7343221470398861,0.6312798586449834,0.1068796217441559,-0.4712749123573303,-0.8754865527153015,0,0,0,-1,192.168.1.8,10.227.79.254,1,0
2015-02-08 21:20:28.550,24,1423459228.187521,37.77933151930364,-122.4388134387531,61.57016,0.39,84.375,4,10,-9999,2714.641148125,-0.0240325927734375,-0.4149322509765625,-0.811859130859375,2714.631389625,-0.1750599647791596,-0.1725067922421007,-0.8124353737322597,2714.631389625,-1.786000294182714,0.1199191465958836,0.4730688039757222,-0.1777866035699844,-0.1631456613540649,-0.7846217155456543,-0.1427328884601593,0.04254951700568199,0.1048201397061348,XArbitraryZVertical,0.1920604053844145,-0.1456782113705642,-0.7471008551372873,0.6194602260585991,0.1064932718873024,-0.4556201994419098,-0.8837813138961792,0,0,0,-1,192.168.1.8,10.227.79.254,1,0
2015-02-08 21:20:28.590,25,1423459228.187521,37.77933151930364,-122.4388134387531,61.57016,0.39,84.375,4,10,-9999,2714.700045583334,0.113739013671875,-0.38885498046875,-0.8753662109375,2714.667637541667,-0.2326034190847198,0.007152185423516802,-0.7226804534099732,2714.667637541667,-1.815885713733741,0.1317929870543223,0.4609128874122611,-0.2353300452232361,0.01651326380670071,-0.694866955280304,0.02411662973463535,-0.0149508798494935,0.05813724920153618,XArbitraryZVertical,0.1907909884959655,-0.140210405908677,-0.7564787085705462,0.6096554799746199,0.1176985576748848,-0.4447659254074097,-0.8878796696662903,0,0,0,-1,192.168.1.8,10.227.79.254,1,0
2015-02-08 21:20:28.658,26,1423459228.187521,37.77933151930364,-122.4388134387531,61.57016,0.39,84.375,4,10,-9999,2714.75893875,0.047119140625,-0.4263153076171875,-0.9469757080078125,2714.74013425,0.09803309025468881,-1.192603749869943,-0.2758717973152371,2714.74013425,-1.832117520383008,0.1104382031661656,0.4537173844136739,0.09530650824308395,-1.183242797851562,-0.2480586916208267,-0.05095188319683075,0.04057423397898674,-0.04941606149077415,XArbitraryZVertical,0.1794114680523246,-0.1453871171739682,-0.7641467834532042,0.6022904653315233,0.09906284511089325,-0.4383098185062408,-0.893348217010498,0,0,0,-1,192.168.1.8,10.227.79.254,5,0
2015-02-08 21:20:28.723,27,1423459228.187521,37.77933151930364,-122.4388134387531,61.57016,0.39,84.375,4,10,-9999,2714.817965,-0.0839385986328125,-0.439727783203125,-0.8281402587890625,2714.812631291667,0.4132043568278982,-1.29876853619708,-0.09027583463150601,2714.77638225,-1.84316191540609,0.06025218921392898,0.4602012938934372,0.3008586168289185,-1.655420541763306,-0.2328378260135651,-0.0222280602902174,0.02716679871082306,-0.06130541115999222,XArbitraryZVertical,0.1611843076096191,-0.163862671035875,-0.7710586195719912,0.5938326777848449,0.05395108088850975,-0.4441284537315369,-0.8943372964859009,0,0,0,-1,192.168.1.8,10.227.79.254,5,0
2015-02-08 21:20:28.769,28,1423459228.187521,37.77933151930364,-122.4388134387531,61.57016,0.39,84.375,4,10,-9999,2714.876727416667,-0.134674072265625,-0.468780517578125,-0.832672119140625,2714.885126958333,0.3567895501923137,-0.9336867013185864,-0.3146759186104547,2714.848879,-1.856408988673623,-0.0225767574211949,0.4806225325517418,0.02165517583489418,-0.9929856657981873,-0.2857568562030792,-0.06308209151029587,-0.04244473204016685,0.06279661506414413,XArbitraryZVertical,0.1338437119000272,-0.1970918762789615,-0.779101203645729,0.5798637491406279,-0.02001727372407913,-0.4623312652111053,-0.8864812850952148,0,0,0,-1,192.168.1.8,10.227.79.254,5,0
2015-02-08 21:20:28.853,29,1423459228.187521,37.77933151930364,-122.4388134387531,61.57016,0.39,84.375,4,10,-9999,2714.935606416667,-0.1302947998046875,-0.5343170166015625,-0.8658447265625,2714.921376,-0.3359867999693777,-0.3348357817462455,-0.4924605635008744,2714.921376,-1.884381050572351,-0.07040207858574456,0.4870987309916343,-0.3387133479118347,-0.3254751563072205,-0.4646483957767487,-0.07884391397237778,-0.0126336058601737,0.1432242095470428,XArbitraryZVertical,0.1140855587680332,-0.2150157037703151,-0.7894816943091409,0.5634459927654978,-0.06216255202889442,-0.4680640399456024,-0.8815054893493652,0,0,0,-1,192.168.1.8,10.227.79.254,5,0
2015-02-08 21:20:28.887,30,1423459228.187521,37.77933151930364,-122.4388134387531,61.57016,0.39,84.375,4,10,-9999,2714.994497416667,-0.106170654296875,-0.5124359130859375,-0.9895172119140625,2714.993871791667,-0.5235044996957101,0.6274452801965217,-0.239971054240424,2714.95762375,-1.902221467815616,-0.06021515321139677,0.4723475787895477,-0.4875943660736084,0.5298186540603638,-0.3673204183578491,-0.0658564493060112,-0.03575985133647919,0.07135330885648727,XArbitraryZVertical,0.1120062332466309,-0.2073891204504747,-0.7951951656253682,0.5586671683558209,-0.0535893552005291,-0.4549780488014221,-0.8888887166976929,0,0,0,-1,192.168.1.8,10.227.79.254,5,0
2015-02-08 21:20:28.952,31,1423459228.187521,37.77933151930364,-122.4388134387531,61.57016,0.39,84.375,4,10,-9999,2715.0533935,-0.1334075927734375,-0.5286865234375,-0.927154541015625,2715.0301205,0.680625944004314,0.07781490389102526,-0.8618796225306709,2715.0301205,-1.931423672852146,-0.004346120501468736,0.4592637022174845,0.6779007911682129,0.08717347681522369,-0.83406662940979,-0.2556562423706055,0.09325160086154938,-0.2036659568548203,XArbitraryZVertical,0.1277362713960803,-0.1884094252694817,-0.8011443039714784,0.5534917683701305,-0.003895759349688888,-0.4432882368564606,-0.8963706493377686,0,0,0,-1,192.168.1.8,10.227.79.254,5,0
2015-02-08 21:20:29.003,32,1423459228.187521,37.77933151930364,-122.4388134387531,61.57016,0.39,84.375,4,10,-9999,2715.112271375,0.078399658203125,-0.5056610107421875,-0.493804931640625,2715.102616583334,0.4237872263676551,-0.5408786963312781,-1.300833817622436,2715.102616583334,-2.044572054970449,-0.002879989118058675,0.5149862936125584,0.4210619330406189,-0.5315206050872803,-1.273021101951599,0.02640171349048615,0.009872163645923138,0.3208573758602142,XArbitraryZVertical,0.1315940980427,-0.2180253688301861,-0.8253603976107879,0.5039128356794852,-0.002506449585780501,-0.4925229251384735,-0.8702958822250366,0,0,0,-1,192.168.1.8,10.227.79.254,5,0
2015-02-08 21:20:29.062,33,1423459228.187521,37.77933151930364,-122.4388134387531,61.57016,0.39,84.375,4,10,-9999,2715.171293166667,-0.0164337158203125,-0.4764556884765625,-0.850616455078125,2715.175113208334,-0.4853661686730123,-0.586721818703684,-0.2644327214850198,2715.138865291667,-2.07803526572547,0.00760380613674952,0.4981593050723431,-0.9435558915138245,-0.2149194031953812,-0.3805307447910309,0.2220038622617722,-0.1291700005531311,0.1241809502243996,XArbitraryZVertical,0.1281730606291688,-0.2106005431199093,-0.8348265641595676,0.4922232070311904,0.006679601967334747,-0.4778093695640564,-0.8784381747245789,0,0,0,-1,192.168.1.8,10.227.79.254,5,0
2015-02-08 21:20:29.120,34,1423459228.187521,37.77933151930364,-122.4388134387531,61.57016,0.39,84.375,4,10,-9999,2715.230057625,0.100921630859375,-0.4811248779296875,-0.807891845703125,2715.211361083333,-0.5352256042853668,-0.4852908012141631,-0.4479389016613657,2715.211361083333,-2.099693380117704,-0.0178182313338773,0.4562958588299158,-0.5379154086112976,-0.4759034812450409,-0.419929713010788,0.07530532777309418,-0.06805628538131714,0.08866462856531143,XArbitraryZVertical,0.1050362040357256,-0.2004825410586559,-0.8458406682490647,0.4830400713278288,-0.01599441654980183,-0.4406259655952454,-0.8975483179092407,0,0,0,-1,192.168.1.8,10.227.79.254,5,0
2015-02-08 21:20:29.180,35,1423459228.187521,37.77933151930364,-122.4388134387531,61.57016,0.39,84.375,4,10,-9999,2715.288947166667,-0.041748046875,-0.4448089599609375,-0.833740234375,2715.283857958334,-0.8573104370484219,-0.7901649554325811,0.01047687572837172,2715.247610041667,-2.108420737809753,-0.03622320129035903,0.4352745775661144,-0.6842063069343567,-0.8130227327346802,-0.01116714347153902,0.1382155567407608,-0.05024917796254158,0.1122294217348099,XArbitraryZVertical,0.09125423806515412,-0.1964508209704609,-0.8507912391980782,0.4787838826432725,-0.0328383594751358,-0.421659380197525,-0.9061594605445862,0,0,0,-1,192.168.1.8,10.227.79.254,5,0
2015-02-08 21:20:29.256,36,1423459229.188924,37.77932829227092,-122.4388020393648,61.55508,0.36,84.375,4,30,-9999,2715.347830208334,-0.0642547607421875,-0.378631591796875,-1.007949829101562,2715.320105916667,-0.7222141339031004,-0.4425079172503671,-0.5245223598643384,2715.320105916667,-2.118909675604547,-0.08320091647605315,0.3793097130167718,-0.7249038219451904,-0.4331207871437073,-0.4965137541294098,-0.003139628795906901,-0.03249166160821915,0.02614048309624195,XArbitraryZVertical,0.05655346026480692,-0.1842502077207768,-0.8595473567845382,0.4733200909866701,-0.07719789445400238,-0.3702793419361115,-0.9257071614265442,0,0,0,-1,192.168.1.8,10.227.79.254,5,0
2015-02-08 21:20:29.297,37,1423459229.188924,37.77932829227092,-122.4388020393648,61.55508,0.36,84.375,4,30,-9999,2715.4068255,-0.14202880859375,-0.4112548828125,-0.6448974609375,2715.392602875,0.2804162153993484,-1.074649948345352,-0.09080234157901468,2715.392602875,-2.155664377817847,-0.111004229438041,0.3857278502866119,0.2777264416217804,-1.065262913703918,-0.06279410421848297,0.08893469721078873,-0.1151604354381561,-0.01287815719842911,XArbitraryZVertical,0.04260377344083072,-0.1943546150813527,-0.8683013158589203,0.4543831279469311,-0.1026370897889137,-0.3762336075305939,-0.9208223819732666,0,0,0,-1,192.168.1.8,10.227.79.254,5,0
2015-02-08 21:20:29.356,38,1423459229.188924,37.77932829227092,-122.4388020393648,61.55508,0.36,84.375,4,30,-9999,2715.465734416667,-0.193115234375,-0.404815673828125,-1.305313110351562,2715.465099583334,-1.29121447976507,0.6461212299729203,-0.2378418569489056,2715.428850791667,-2.154917411452602,-0.1201223355241778,0.3681448127973082,-1.168056726455688,0.3873991966247559,0.052359689027071,-0.06573160737752914,-0.03986458852887154,0.1906319409608841,XArbitraryZVertical,0.03454871932028313,-0.1888641785796641,-0.8695197115004716,0.4550518424914707,-0.1118044033646584,-0.3598851561546326,-0.9262734055519104,0,0,0,-1,192.168.1.8,10.227.79.254,5,0
2015-02-08 21:20:29.451,39,1423459229.188924,37.77932829227092,-122.4388020393648,61.55508,0.36,84.375,4,30,-9999,2715.524497083334,-0.05377197265625,-0.271728515625,-0.9570770263671875,2715.537595416667,0.1910599702922467,0.4637144026945591,-0.2358972167209298,2715.501347666667,-2.174946672845496,-0.06539001501708087,0.3041122815362789,0.1696024090051651,0.724847137928009,-0.2557998299598694,-0.04298640042543411,0.001640523318201303,-0.2283916473388672,XArbitraryZVertical,0.04174369737114116,-0.1490652081115152,-0.8770722133232265,0.4547321850020545,-0.06234502047300339,-0.299446314573288,-0.9520740509033203,0,0,0,-1,192.168.1.8,10.227.79.254,5,0
2015-02-08 21:20:29.476,40,1423459229.188924,37.77932829227092,-122.4388020393648,61.55508,0.36,84.375,4,30,-9999,2715.583392125,0.010040283203125,-0.3010101318359375,-0.98114013671875,2715.573844541667,0.1177519339139625,0.2160481444843512,-0.08762066302469701,2715.537595416667,-2.182510291631827,-0.04248377936428998,0.3132160917639231,0.1883696764707565,0.4731011092662811,-0.2078898400068283,0.006255512591451406,0.02741916291415691,0.01689539849758148,XArbitraryZVertical,0.05332945574862358,-0.148024979851558,-0.8776798078768767,0.4526839176894836,-0.04040468111634254,-0.3081198334693909,-0.9504891633987427,0,0,0,-1,192.168.1.8,10.227.79.254,5,0
2015-02-08 21:20:29.550,41,1423459229.188924,37.77932829227092,-122.4388020393648,61.55508,0.36,84.375,4,30,-9999,2715.642288875,-0.0441741943359375,-0.2514190673828125,-0.9613800048828125,2715.64634025,0.4318621971088844,0.0779203650701924,0.04985544087071937,2715.610092458333,-2.185937707556519,-0.02749407960477223,0.3251512911193023,0.2915299236774445,0.1017777323722839,0.08019277453422546,0.01001318637281656,0.05416284501552582,-0.02031554281711578,XArbitraryZVertical,0.06237868728020803,-0.1499558720024941,-0.8772270239554385,0.4517686180639849,-0.02605017460882664,-0.319452166557312,-0.9472442865371704,0,0,0,-1,192.168.1.8,10.227.79.254,5,0
2015-02-08 21:20:29.591,42,1423459229.188924,37.77932829227092,-122.4388020393648,61.55508,0.36,84.375,4,30,-9999,2715.701296125,-0.0129852294921875,-0.2477569580078125,-0.934967041015625,2715.682589375,0.2093151406164128,0.3207066468989391,0.06736652398631739,2715.682589375,-2.178192209803102,-0.01843465407119327,0.3426971266095851,0.2066002041101456,0.3300921022891998,0.09537197649478912,0.001416293787769973,0.08593705296516418,0.003886571619659662,XArbitraryZVertical,0.07094351418214331,-0.1553098325464118,-0.8739216502215983,0.4550899064842459,-0.0173617284744978,-0.3360286056995392,-0.9416917562484741,0,0,0,-1,192.168.1.8,10.227.79.254,5,0
2015-02-08 21:20:29.651,43,1423459229.188924,37.77932829227092,-122.4388020393648,61.55508,0.36,84.375,4,30,-9999,2715.760085625,-0.0177154541015625,-0.256072998046875,-0.8786163330078125,2715.755085083334,0.08007912344981064,0.1509269316130796,-0.08713223928077649,2715.755085083334,-2.174420538621399,-0.01315765303390034,0.3468844073501897,0.07733872532844543,0.1603134870529175,-0.059129748493433,-0.02087532170116901,0.0791967436671257,0.0438096672296524,XArbitraryZVertical,0.07450069411240341,-0.15579508361784,-0.8725592260701217,0.4569660113150398,-0.01237357966601849,-0.3399694561958313,-0.9403550624847412,0,0,0,-1,192.168.1.8,10.227.79.254,5,0
2015-02-08 21:20:29.751,44,1423459229.188924,37.77932829227092,-122.4388020393648,61.55508,0.36,84.375,4,30,-9999,2715.818978208334,-0.037689208984375,-0.27215576171875,-0.8689117431640625,2715.827582166667,0.07180734510402452,0.09561307577213382,-0.1101850943087204,2715.791334166667,-2.175870809619223,-0.006292695058330172,0.3472801965854586,-0.01458638720214367,0.1359244585037231,0.001587996841408312,0.00902978703379631,0.08217818289995193,0.07625430077314377,XArbitraryZVertical,0.07747403573495744,-0.154454382670133,-0.8725999039430486,0.4568490178379456,-0.005916993599385023,-0.3403416275978088,-0.9402832388877869,0,0,0,-1,192.168.1.8,10.227.79.254,5,0
2015-02-08 21:20:29.768,45,1423459229.188924,37.77932829227092,-122.4388020393648,61.55508,0.36,84.375,4,30,-9999,2715.877861791667,-0.009246826171875,-0.3081817626953125,-0.8561859130859375,2715.863829958334,0.248172791449541,-0.02574025088394286,-0.1184470189584732,2715.863829958334,-2.179894369165011,0.0007665023876474868,0.3529039837715686,0.2454307675361633,-0.01635309867560863,-0.09044553339481354,0.01551608648151159,0.04797108098864555,0.03692922741174698,XArbitraryZVertical,0.08152637860538928,-0.1554576971121665,-0.8728047607307109,0.4554099292350419,0.0007192650809884071,-0.3456242680549622,-0.9383727312088013,0,0,0,-1,192.168.1.8,10.227.79.254,5,0
2015-02-08 21:20:29.861,46,1423459229.188924,37.77932829227092,-122.4388020393648,61.55508,0.36,84.375,4,30,-9999,2715.936751375,-0.0152130126953125,-0.3403778076171875,-0.920623779296875,2715.936326791667,0.04997155469424683,0.04265292170260007,-0.1993266886319617,2715.900079,-2.181302494292218,0.003062960639023141,0.3620516928947152,0.2333562523126602,0.1570999920368195,-0.016517398878932,-0.003474742406979203,0.0267858263105154,0.07509080320596695,XArbitraryZVertical,0.08449733279940171,-0.1589853647657914,-0.8723067062662214,0.4546040747101137,0.002864390844479203,-0.3541936576366425,-0.9351677298545837,0,0,0,-1,192.168.1.8,10.227.79.254,5,0
2015-02-08 21:20:29.885,47,1423459229.188924,37.77932829227092,-122.4388020393648,61.55508,0.36,84.375,4,30,-9999,2715.995645916667,0.000701904296875,-0.390960693359375,-0.899810791015625,2715.972574791667,-0.104189786062734,0.1386468295106152,-0.2870980865743571,2715.972574791667,-2.19221300907432,0.01421889542728674,0.3660910243882207,-0.106932669878006,0.1480252891778946,-0.2590938806533813,-0.01736557111144066,-0.01062307506799698,0.09747299551963806,XArbitraryZVertical,0.08941243273337755,-0.1587001212951784,-0.8739619667597222,0.4505664979013205,0.01327621564269066,-0.3579682409763336,-0.9336393475532532,0,0,0,-1,192.168.1.8,10.227.79.254,5,0
2015-02-08 21:20:29.959,48,1423459229.188924,37.77932829227092,-122.4388020393648,61.55508,0.36,84.375,4,30,-9999,2716.054549416667,0.0499267578125,-0.3775787353515625,-0.91229248046875,2716.045071708334,0.03112702682084614,-0.1195607529263443,-0.5120089648503831,2716.045071708334,-2.222622802133874,0.02255073656574409,0.3603489509067588,0.02839498221874237,-0.1101846322417259,-0.484003871679306,0.0254081878811121,-0.01896597817540169,0.02421999536454678,XArbitraryZVertical,0.08941037422621002,-0.1556850294717433,-0.8808203200417942,0.4380907672852398,0.0211006011813879,-0.3526007831096649,-0.9355359077453613,0,0,0,-1,192.168.1.8,10.227.79.254,5,0
2015-02-08 21:20:30.005,49,1423459229.188924,37.77932829227092,-122.4388020393648,61.55508,0.36,84.375,4,30,-9999,2716.11344675,0.05426025390625,-0.3914337158203125,-0.9448394775390625,2716.081319666667,0.08826408274406015,-0.2179813331196397,-0.4484664738733104,2716.081319666667,-2.240525303950283,0.02434347093473147,0.3635690614743736,0.08553819358348846,-0.2086009234189987,-0.4204631447792053,0.04042140766978264,-0.02793266624212265,0.009582486934959888,XArbitraryZVertical,0.08949263682549133,-0.157520600496261,-0.8843579369963901,0.4302201385858111,0.02274997904896736,-0.3556122481822968,-0.9343566298484802,0,0,0,-1,192.168.1.8,10.227.79.254,5,0
2015-02-08 21:20:30.062,50,1423459229.188924,37.77932829227092,-122.4388020393648,61.55508,0.36,84.375,4,30,-9999,2716.172435125,-0.004852294921875,-0.3914642333984375,-0.980438232421875,2716.153816541667,0.03895991621898719,-0.1895816495711437,-0.4552111956500451,2716.153816541667,-2.270780719087626,0.02342797611136976,0.374450889433128,0.03627759963274002,-0.1801761388778687,-0.4270057082176208,-0.01135035417973995,-0.04250263795256615,-0.003064257791265845,XArbitraryZVertical,0.08893695917766657,-0.1639012449838259,-0.8898731004244066,0.4163561748383512,0.02180262468755245,-0.3657615184783936,-0.9304531812667847,0,0,0,-1,192.168.1.8,10.227.79.254,5,0
2015-02-08 21:20:30.183,51,1423459229.188924,37.77932829227092,-122.4388020393648,61.55508,0.36,84.375,4,30,-9999,2716.231220916667,0.051239013671875,-0.414337158203125,-0.8850555419921875,2716.226313458334,0.3657361735583259,0.1787902545180336,-0.6351231736192201,2716.190064666667,-2.29163629929349,0.02402061076697155,0.3761312757278059,0.1452262103557587,-0.1416647583246231,-0.6263335943222046,-0.01304664276540279,-0.01843249052762985,-0.06301926821470261,XArbitraryZVertical,0.08782657213247735,-0.1654518497392895,-0.8939935600898909,0.4070475318228773,0.02233924530446529,-0.3673249483108521,-0.9298243522644043,0,0,0,-1,192.168.1.8,10.227.79.254,5,0
2015-02-08 21:20:30.193,52,1423459229.188924,37.77932829227092,-122.4388020393648,61.55508,0.36,84.375,4,30,-9999,2716.290113458334,0.0705108642578125,-0.3666534423828125,-1.003158569335938,2716.298809416667,-0.04773476569468928,-0.1069408314687859,-0.8130958376825994,2716.2625615,-2.341386448536324,0.04885467219287051,0.3893670062043721,-0.09200683981180191,0.07710281759500504,-0.7708771824836731,0.01275772228837013,-0.01979592628777027,0.00197232305072248,XArbitraryZVertical,0.09740209365457157,-0.1687897760627776,-0.9015116987390811,0.3863929356043491,0.04517989978194237,-0.3796028792858124,-0.9240456819534302,0,0,0,-1,192.168.1.8,10.227.79.254,5,0
2015-02-08 21:20:30.288,53,1423459229.188924,37.77932829227092,-122.4388020393648,61.55508,0.36,84.375,4,30,-9999,2716.349003958333,0.0491485595703125,-0.3316497802734375,-1.035858154296875,2716.335058333334,-0.0039289615561939,-0.03331348207580119,-0.740417638902119,2716.335058333334,-2.399613272459183,0.06735487176451353,0.382095647665576,-0.006609645672142506,-0.02390789799392223,-0.7122132182121277,-0.0096854567527771,0.02610982581973076,-0.09349053353071213,XArbitraryZVertical,0.09961194001009484,-0.1648842133526029,-0.9121757676645189,0.3616988063018059,0.0624503493309021,-0.3728657960891724,-0.9257813096046448,0,0,0,-1,192.168.1.8,10.227.79.254,5,0
2015-02-08 21:20:30.297,54,1423459229.188924,37.77932829227092,-122.4388020393648,61.55508,0.36,84.375,4,30,-9999,2716.407888333334,0.0136566162109375,-0.3379058837890625,-0.8669281005859375,2716.407554291667,0.2496473837451179,0.09128543900075506,-0.5544203378421129,2716.371306333333,-2.42486942861459,0.07331374465925483,0.3835019205298744,0.2273615002632141,-0.1169286221265793,-0.6258834600448608,-0.02929209172725677,0.05271339043974876,-0.1182066723704338,XArbitraryZVertical,0.1004899682944823,-0.1657326802170287,-0.9162417965978045,0.3506214698894919,0.06792734563350677,-0.3741703033447266,-0.9248688817024231,0,0,0,-1,192.168.1.8,10.227.79.254,5,0
2015-02-08 21:20:30.358,55,1423459230.290302,37.77932883709462,-122.4387961720325,61.50107,0.44,84.375,4,30,-9999,2716.466783708333,0.0374603271484375,-0.32989501953125,-0.7805633544921875,2716.44380325,0.1755031147845488,0.1605476010509908,-0.6037410159659443,2716.44380325,-2.467186036165118,0.09317986858699893,0.3952975697845545,0.1728133261203766,0.1699492186307907,-0.5755360126495361,-0.06729969382286072,0.04562054574489594,0.0723971351981163,XArbitraryZVertical,0.1079911060632694,-0.1699961525905608,-0.9212812621217569,0.3326861361388049,0.08586964011192322,-0.3850828409194946,-0.918878436088562,0,0,0,-1,192.168.1.8,10.227.79.254,5,0
2015-02-08 21:20:30.471,56,1423459230.290302,37.77932883709462,-122.4387961720325,61.50107,0.44,84.375,4,30,-9999,2716.525671541667,0.0410003662109375,-0.3211822509765625,-0.7713165283203125,2716.516299375,-0.05278012437984439,-0.06417312752320337,-0.5988812796087678,2716.516299375,-2.510580400869821,0.1187870595799312,0.3964637599777959,-0.05546987056732178,-0.05477164685726166,-0.5706767439842224,-0.06779634952545166,0.05209815129637718,0.161430686712265,XArbitraryZVertical,0.1163246343934663,-0.168827026297402,-0.9267516799065645,0.3147972973440998,0.1093155145645142,-0.38615882396698,-0.9159319996833801,0,0,0,-1,192.168.1.8,10.227.79.254,5,0
2015-02-08 21:20:30.476,57,1423459230.290302,37.77932883709462,-122.4387961720325,61.50107,0.44,84.375,4,30,-9999,2716.584583083334,0.03948974609375,-0.2848358154296875,-0.8526153564453125,2716.588796208333,0.04322496870474909,-0.09359892703970689,-0.5518288157853568,2716.552548208334,-2.53257530132943,0.1220188403651768,0.3901025309603057,-0.1173582524061203,-0.1808089911937714,-0.6138664484024048,-0.07398226857185364,0.07303226739168167,0.09833723306655884,XArbitraryZVertical,0.1150664912784764,-0.1666220307196755,-0.9306201148149265,0.3048655496535345,0.1125717461109161,-0.3802832365036011,-0.9179936051368713,0,0,0,-1,192.168.1.8,10.227.79.254,5,0
2015-02-08 21:20:30.561,58,1423459230.290302,37.77932883709462,-122.4387961720325,61.50107,0.44,84.375,4,30,-9999,2716.643478041667,-0.0352935791015625,-0.3341522216796875,-0.8451385498046875,2716.62504425,-0.2438986842160728,-0.126641831948756,-0.4501762232931413,2716.62504425,-2.570513293418961,0.1281220652936184,0.3829911911073154,-0.2465883791446686,-0.1172405481338501,-0.421972244977951,-0.1087797731161118,0.05123262852430344,0.1267049908638,XArbitraryZVertical,0.1138028992761609,-0.164543915226071,-0.9366064190744431,0.2876501622230578,0.1185148805379868,-0.3736966252326965,-0.919948399066925,0,0,0,-1,192.168.1.8,10.227.79.254,5,0
2015-02-08 21:20:30.592,59,1423459230.290302,37.77932883709462,-122.4387961720325,61.50107,0.44,84.375,4,30,-9999,2716.702372375,0.0558624267578125,-0.3602447509765625,-0.9530487060546875,2716.697541083333,-0.2388725002907663,0.6152208381608399,-0.8591173918480407,2716.661293083333,-2.586716471364477,0.1462839213840441,0.3668624044830203,-0.3957623839378357,0.7623116970062256,-0.5601140856742859,-0.1902777999639511,0.01614383421838284,0.03969857096672058,XArbitraryZVertical,0.1189288537219073,-0.1552807469021753,-0.9394462656156721,0.2813974616350525,0.1360633224248886,-0.3586883842945099,-0.923487663269043,0,0,0,-1,192.168.1.8,10.227.79.254,5,0
2015-02-08 21:20:30.651,60,1423459230.290302,37.77932883709462,-122.4387961720325,61.50107,0.44,84.375,4,30,-9999,2716.761263,0.1463775634765625,-0.3550872802734375,-0.92510986328125,2716.733789083334,0.04622981336268549,0.4041117922341497,-0.6879432454154156,2716.733789083334,-2.638422289944617,0.2071326780316393,0.3436677698497398,0.04353820905089378,0.413509339094162,-0.6597384214401245,-0.1019237712025642,0.01122853718698025,-0.008318307809531689,XArbitraryZVertical,0.1409901453826271,-0.139362562446279,-0.9447418713531316,0.261079780154578,0.1936290860176086,-0.3369426429271698,-0.921399712562561,0,0,0,-1,192.168.1.8,10.227.79.254,5,0
2015-02-08 21:20:30.726,61,1423459230.290302,37.77932883709462,-122.4387961720325,61.50107,0.44,84.375,4,30,-9999,2716.820178,0.125762939453125,-0.3621063232421875,-0.9207305908203125,2716.806286041667,0.4716133384877341,-1.054751341312498,-0.5417892311079761,2716.806286041667,-2.681304607419074,0.1827474656390249,0.3483351721435509,0.4689202606678009,-1.045355916023254,-0.5135840177536011,-0.04822845011949539,-0.01567644812166691,-0.005595410242676735,XArbitraryZVertical,0.1268619742033842,-0.1475154650316962,-0.9512963447375774,0.239124426955118,0.170817568898201,-0.3413334488868713,-0.9242904782295227,0,0,0,-1,192.168.1.8,10.227.79.254,5,0
2015-02-08 21:20:30.773,62,1423459230.290302,37.77932883709462,-122.4387961720325,61.50107,0.44,84.375,4,30,-9999,2716.879075166667,0.0347747802734375,-0.3714599609375,-0.837066650390625,2716.878783041667,0.5066847731990967,-1.140299532376896,-0.280372006925253,2716.842534041667,-2.702932846711497,0.1453696622804798,0.3660196285602523,0.6923664212226868,-1.426389813423157,-0.4468749761581421,-0.01683923415839672,0.008826250210404396,-0.009683326818048954,XArbitraryZVertical,0.1091894441156937,-0.1616244214497519,-0.9543342961830035,0.2262769604127145,0.1352626979351044,-0.3579015731811523,-0.9239104390144348,0,0,0,-1,192.168.1.8,10.227.79.254,5,0
2015-02-08 21:20:30.859,63,1423459230.290302,37.77932883709462,-122.4387961720325,61.50107,0.44,84.375,4,30,-9999,2716.93796975,0.0030364990234375,-0.431610107421875,-0.8311920166015625,2716.951279,-0.08926276815283987,-0.3043527072769805,-0.4068250207527224,2716.915031166667,-2.726375890509127,0.08301330463763242,0.395729084276671,0.1356630921363831,-0.343437135219574,-0.191876009106636,-0.059084203094244,-0.01326164696365595,0.07473541796207428,XArbitraryZVertical,0.08029486027185311,-0.1838031521249277,-0.9569266066912355,0.2099061840185955,0.0765097364783287,-0.3854810297489166,-0.9195382595062256,0,0,0,-1,192.168.1.8,10.227.79.254,5,0
2015-02-08 21:20:30.887,64,1423459230.290302,37.77932883709462,-122.4387961720325,61.50107,0.44,84.375,4,30,-9999,2716.996890375,0.0607147216796875,-0.43878173828125,-0.9077911376953125,2716.987528125,0.3255796990615661,-0.475172120652407,-0.5610510763241922,2716.951279,-2.7352515736876,0.072714404954735,0.397899232301338,-0.0919511467218399,-0.2949774265289307,-0.3786118626594543,-0.07301716506481171,-0.05506810918450356,0.04912539944052696,XArbitraryZVertical,0.07475184723990841,-0.1862570398997128,-0.9580281382035288,0.2047011549363747,0.06697468459606171,-0.3874825537204742,-0.9194409251213074,0,0,0,-1,192.168.1.8,10.227.79.254,5,0
2015-02-08 21:20:30.960,65,1423459230.290302,37.77932883709462,-122.4387961720325,61.50107,0.44,84.375,4,30,-9999,2717.05574625,0.061492919921875,-0.4528961181640625,-0.8742828369140625,2717.060024,0.0687348561544001,-0.225755100341581,-0.3271376482992625,2717.023775958333,-2.773992047238955,0.05655097343793608,0.412584543997082,0.2678073346614838,-0.4861843585968018,-0.4380374550819397,0.02361564338207245,-0.03743719309568405,0.06844694912433624,XArbitraryZVertical,0.06462781002392853,-0.1962439734765456,-0.9608674064830103,0.1845138916294603,0.05177803337574005,-0.4009783267974854,-0.9146230816841125,0,0,0,-1,192.168.1.8,10.227.79.254,5,0
2015-02-08 21:20:31.005,66,1423459230.290302,37.77932883709462,-122.4387961720325,61.50107,0.44,84.375,4,30,-9999,2717.114628208334,0.0335845947265625,-0.467864990234375,-0.8650360107421875,2717.096272958333,-0.06392279038073592,-0.01603622450391213,-0.2588014673600472,2717.096272958333,-2.798193202914371,0.0541945352954572,0.4197966690308324,-0.0665971040725708,-0.006667332258075476,-0.2305861413478851,-0.001521586207672954,-0.05577360466122627,0.04426217451691628,XArbitraryZVertical,0.06169648836626218,-0.2006937234809253,-0.9623522953981043,0.1726083202531664,0.04946470260620117,-0.4075747728347778,-0.9118311405181885,0,0,0,-1,192.168.1.8,10.227.79.254,5,0
2015-02-08 21:20:31.066,67,1423459230.290302,37.77932883709462,-122.4387961720325,61.50107,0.44,84.375,4,30,-9999,2717.173520416667,0.0042877197265625,-0.48223876953125,-0.9112701416015625,2717.168768958334,0.3557064425769785,-0.3484764928496314,-0.2303674290334892,2717.168768958334,-2.812889288310103,0.0459716784666621,0.4270699631731227,0.3530780375003815,-0.3391000926494598,-0.2019403278827667,-0.03541922569274902,-0.06801779568195343,-0.03329846635460854,XArbitraryZVertical,0.05682211680365132,-0.2053300030134465,-0.9630670104401983,0.1646595588060897,0.04182791709899902,-0.4142057001590729,-0.9092216491699219,0,0,0,-1,192.168.1.8,10.227.79.254,5,0
2015-02-08 21:20:31.159,68,1423459230.290302,37.77932883709462,-122.4387961720325,61.50107,0.44,84.375,4,30,-9999,2717.232425458334,-0.0365447998046875,-0.504852294921875,-0.8819122314453125,2717.241265916667,0.2744384840165565,-0.1055575855985987,-0.1433899194120463,2717.205018083333,-2.817913232893874,0.03823987009716005,0.444149751159026,0.3744321465492249,-0.2031057924032211,-0.0757475420832634,-0.05289286375045776,-0.06457241624593735,0.04593193158507347,XArbitraryZVertical,0.05388951946655417,-0.2143310862988659,-0.9618414717786133,0.1613043344251781,0.03452128171920776,-0.4296902716159821,-0.9023162126541138,0,0,0,-1,192.168.1.8,10.227.79.254,5,0
2015-02-08 21:20:31.186,69,1423459230.290302,37.77932883709462,-122.4387961720325,61.50107,0.44,84.375,4,30,-9999,2717.2913145,0.01068115234375,-0.50775146484375,-0.8207244873046875,2717.277513958334,0.1333569926373908,0.07002702191530655,-0.1353373192239737,2717.277513958334,-2.824255951336167,0.03179699430844005,0.4698548105777537,0.130745604634285,0.07936909794807434,-0.1068940758705139,-0.02552362903952599,-0.06889538466930389,0.07247300446033478,XArbitraryZVertical,0.05204110603967586,-0.2273764700592155,-0.9596087862354944,0.1572979387188715,0.02834650501608849,-0.4527568221092224,-0.8911833167076111,0,0,0,-1,192.168.1.8,10.227.79.254,5,0
2015-02-08 21:20:31.271,70,1423459230.290302,37.77932883709462,-122.4387961720325,61.50107,0.44,84.375,4,30,-9999,2717.350188833334,-0.0066070556640625,-0.505615234375,-0.90960693359375,2717.350010958333,-0.00102105596193638,-0.2433133214084734,-0.09415925613305956,2717.313763125,-2.827096607747925,0.03878282230396316,0.4703470389480456,-0.1496584266424179,0.1498373597860336,-0.04211415350437164,-0.002458278788253665,-0.04985608905553818,0.01252115610986948,XArbitraryZVertical,0.05510676721721328,-0.227140626053409,-0.959587404245097,0.1567239414291125,0.03456277027726173,-0.4531956613063812,-0.8907407522201538,0,0,0,-1,192.168.1.8,10.227.79.254,5,0
2015-02-08 21:20:31.299,71,1423459231.275401,37.7793316869417,-122.4387949147471,61.32187,0.48,84.375,4,30,-9999,2717.409075708334,0.0030059814453125,-0.427886962890625,-0.9242706298828125,2717.386258958334,-0.03038400487671403,-0.2728150210160442,-0.2071204295620785,2717.386258958334,-2.832178392602479,0.02626270702012105,0.4691308283578403,-0.03298843279480934,-0.2634899616241455,-0.1786688417196274,-0.04281655326485634,-0.007056292146444321,-0.008934990502893925,XArbitraryZVertical,0.04842958807438375,-0.2276567056581009,-0.9604460804293352,0.1528735619908149,0.02342263236641884,-0.4521111845970154,-0.8916540145874023,0,0,0,-1,192.168.1.8,10.227.79.254,5,0
2015-02-08 21:20:31.360,72,1423459231.275401,37.7793316869417,-122.4387949147471,61.32187,0.48,84.375,4,30,-9999,2717.467956416667,-0.0201568603515625,-0.45928955078125,-0.810302734375,2717.458755916667,0.03708851292098851,0.1565968015738583,-0.03826989118054766,2717.458755916667,-2.835257241911442,0.02047774820668997,0.4746618682776867,0.03448042646050453,0.1659148186445236,-0.009814262390136719,-0.05007295683026314,-0.001580441137775779,0.08153682947158813,XArbitraryZVertical,0.04570380559920268,-0.2308262289863693,-0.9601722485241949,0.1506640877238518,0.01821260526776314,-0.4570377171039581,-0.8892608284950256,0,0,0,-1,192.168.1.8,10.227.79.254,5,0
2015-02-08 21:20:31.425,73,1423459231.275401,37.7793316869417,-122.4387949147471,61.32187,0.48,84.375,4,30,-9999,2717.526849833333,0.0831146240234375,-0.4082794189453125,-0.8710784912109375,2717.495003958334,-0.08644541003564504,0.2634854350852786,-0.1422729896508671,2717.495003958334,-2.838798937481371,0.03088751057993421,0.4707170272984906,-0.08905347436666489,0.272803395986557,-0.113817535340786,-0.001049911719746888,0.02009954489767551,0.01566563360393047,XArbitraryZVertical,0.05001117951025446,-0.2282318371574932,-0.9606497549065348,0.1502037244202336,0.02752391062676907,-0.4535254538059235,-0.8908182382583618,0,0,0,-1,192.168.1.8,10.227.79.254,5,0
2015-02-08 21:20:31.476,74,1423459231.275401,37.7793316869417,-122.4387949147471,61.32187,0.48,84.375,4,30,-9999,2717.585878,0.056304931640625,-0.352264404296875,-0.881072998046875,2717.567501,0.2137754028100776,0.1966938875783093,0.09128410742021002,2717.567501,-2.841327384359825,0.04511820492443257,0.4768372960925747,0.2111650854349136,0.2060229629278183,0.119733102619648,0.03483368083834648,0.08159119635820389,0.004917425103485584,XArbitraryZVertical,0.05698677859574119,-0.2301718862340376,-0.9597408380759963,0.1505687005387098,0.04007171466946602,-0.4589715600013733,-0.8875468373298645,0,0,0,-1,192.168.1.8,10.227.79.254,5,0
2015-02-08 21:20:31.557,75,1423459231.275401,37.7793316869417,-122.4387949147471,61.32187,0.48,84.375,4,30,-9999,2717.644650625,0.0423736572265625,-0.4075927734375,-0.8034515380859375,2717.639998,0.1864684142568411,0.6639468324132567,0.294822052683914,2717.603749125,-2.834929926312754,0.05246566656426699,0.4828858639080779,0.2790781855583191,0.3532687425613403,0.1990681439638138,0.01297237072139978,0.09815657883882523,0.02419517561793327,XArbitraryZVertical,0.06167627499359662,-0.232327514254064,-0.9583140007822651,0.1544481761890286,0.04644535481929779,-0.4643369913101196,-0.8844399452209473,0,0,0,-1,192.168.1.8,10.227.79.254,5,0
2015-02-08 21:20:31.594,76,1423459231.275401,37.7793316869417,-122.4387949147471,61.32187,0.48,84.375,4,30,-9999,2717.703669583334,0.0908203125,-0.397674560546875,-0.8987274169921875,2717.712494,0.1815335767569242,-0.1773273801312531,-0.152420432352396,2717.676246041667,-2.818114769593878,0.08298485973308961,0.4938748268023779,0.01406615879386663,0.2895522117614746,0.0005457708612084389,0.005048893857747316,0.05350900813937187,-0.02567986585199833,XArbitraryZVertical,0.07902599206977645,-0.2345604240913533,-0.9545537534360602,0.1660223835167651,0.07298455387353897,-0.474041223526001,-0.8774725794792175,0,0,0,-1,192.168.1.8,10.227.79.254,5,0
2015-02-08 21:20:31.657,77,1423459231.275401,37.7793316869417,-122.4387949147471,61.32187,0.48,84.375,4,30,-9999,2717.762438541667,0.04718017578125,-0.399688720703125,-0.90234375,2717.748743083333,-0.03380856372244692,0.0941872193245054,-0.1160760066399757,2717.748743083333,-2.826710001044819,0.08511854666656697,0.4933825261277099,-0.03645037859678268,0.1035338491201401,-0.08763531595468521,-0.02230994030833244,0.09114615619182587,0.01176360435783863,XArbitraryZVertical,0.07900141761952885,-0.234489078466355,-0.9552355940193196,0.1621684556646221,0.07487647235393524,-0.4736077189445496,-0.8775473237037659,0,0,0,-1,192.168.1.8,10.227.79.254,5,0
2015-02-08 21:20:31.725,78,1423459231.275401,37.7793316869417,-122.4387949147471,61.32187,0.48,84.375,4,30,-9999,2717.821337791667,0.050872802734375,-0.3915863037109375,-0.7997894287109375,2717.821239041667,-0.09801364917873125,0.1273446401604279,-0.3430913148093822,2717.78499125,-2.832758930063964,0.08774885568171543,0.488908906505697,-0.01084344275295734,-0.08548960834741592,-0.2590512037277222,-0.0348278284072876,0.06814312189817429,-0.02387119829654694,XArbitraryZVertical,0.07923888695738794,-0.2323717737408879,-0.9561693490386222,0.1595767323932644,0.0773693323135376,-0.4696629047393799,-0.8794491291046143,0,0,0,-1,192.168.1.8,10.227.79.254,5,0
2015-02-08 21:20:31.770,79,1423459231.275401,37.7793316869417,-122.4387949147471,61.32187,0.48,84.375,4,30,-9999,2717.8802185,0.088592529296875,-0.424652099609375,-0.8239593505859375,2717.857488125,-0.1325655011614193,0.1553136905606581,-0.330280178385556,2717.857488125,-2.856314145418255,0.1055329953677575,0.4807976917863387,-0.1352191567420959,0.1646599173545837,-0.3018395006656647,-0.0003008703060913831,0.05487854406237602,0.07950853556394577,XArbitraryZVertical,0.08450391734155091,-0.2280620366183017,-0.9582562183825428,0.1503057395398422,0.09339474141597748,-0.4624865651130676,-0.8816936016082764,0,0,0,-1,192.168.1.8,10.227.79.254,5,0
2015-02-08 21:20:31.857,80,1423459231.275401,37.7793316869417,-122.4387949147471,61.32187,0.48,84.375,4,30,-9999,2717.939115541667,0.09381103515625,-0.4276123046875,-0.822540283203125,2717.929984291667,-0.09168091842263182,-0.3125139644375284,-0.4261859355614895,2717.929984291667,-2.883217064010957,0.1087495170884939,0.4741650594136868,-0.09433319419622421,-0.3031651675701141,-0.3977468907833099,0.01353110931813717,0.03223359957337379,0.06920253485441208,XArbitraryZVertical,0.08260049114288108,-0.2257606258604707,-0.9608582116201093,0.1376982056391239,0.09656105190515518,-0.456595778465271,-0.8844186067581177,0,0,0,-1,192.168.1.8,10.227.79.254,5,0
2015-02-08 21:20:31.888,81,1423459231.275401,37.7793316869417,-122.4387949147471,61.32187,0.48,84.375,4,30,-9999,2717.998014125,0.1372528076171875,-0.435546875,-0.8481597900390625,2718.002481333333,-0.3172714354088459,-0.1896532886044668,-0.5658820505415959,2717.966233208334,-2.899008559601738,0.1058209296482607,0.4680587427091876,-0.1291471570730209,-0.2369302809238434,-0.4299365878105164,-0.007669656071811914,0.01371570490300655,0.0352044589817524,XArbitraryZVertical,0.07908546816566804,-0.2236485798334551,-0.9627581149587368,0.1297058732077366,0.09426328539848328,-0.4511546790599823,-0.8874536156654358,0,0,0,-1,192.168.1.8,10.227.79.254,5,0
2015-02-08 21:20:31.959,82,1423459231.275401,37.7793316869417,-122.4387949147471,61.32187,0.48,84.375,4,30,-9999,2718.05690625,0.134796142578125,-0.419281005859375,-0.8546142578125,2718.038729208333,-0.3324919336708668,-0.3044832021703944,-0.4981256397716909,2718.038729208333,-2.936729446258221,0.1094896173996748,0.4443489963142164,-0.3351426720619202,-0.2951278686523438,-0.469690352678299,0.05496572703123093,0.02484088949859142,-0.01764642260968685,XArbitraryZVertical,0.07559051347201665,-0.2134103519311251,-0.9676213990942858,0.1115837083828663,0.09865976125001907,-0.4298701882362366,-0.8974841833114624,0,0,0,-1,192.168.1.8,10.227.79.254,5,0
2015-02-08 21:20:32.005,83,1423459231.275401,37.7793316869417,-122.4387949147471,61.32187,0.48,84.375,4,30,-9999,2718.115801083333,0.082305908203125,-0.4112396240234375,-0.9576263427734375,2718.111226416667,-0.5097929485073281,-0.6429648514489584,-0.6091373792827719,2718.07497825,-2.951788342058075,0.1003782629071507,0.4293748256424882,-0.5190808176994324,-0.5408751368522644,-0.4619336128234863,0.02854606509208679,-0.007006867323070765,0.06831521540880203,XArbitraryZVertical,0.06895818353333927,-0.2071715385051957,-0.9704089580497659,0.1031075976537393,0.09111335873603821,-0.4163024723529816,-0.9046494364738464,0,0,0,-1,192.168.1.8,10.227.79.254,5,0
2015-02-08 21:20:32.070,84,1423459231.275401,37.7793316869417,-122.4387949147471,61.32187,0.48,84.375,4,30,-9999,2718.174795791667,0.0816497802734375,-0.412139892578125,-1.002288818359375,2718.147474291667,-0.5348660775382061,-0.5613189903298542,-0.6246087473194782,2718.147474291667,-2.99134793467378,0.07336481589841361,0.3887314611795676,-0.53751540184021,-0.5519636273384094,-0.5961741805076599,0.01668820716440678,-0.02827277034521103,0.009739074856042862,XArbitraryZVertical,0.05036819072515909,-0.1897693126003242,-0.9772133037052266,0.08065241732133971,0.06783022731542587,-0.3790148198604584,-0.9229013323783875,0,0,0,-1,192.168.1.8,10.227.79.254,5,0
2015-02-08 21:20:32.172,85,1423459232.110915,37.77932602915706,-122.4387966749467,61.54013,0.44,84.375,4,30,-9999,2718.233582916667,0.05908203125,-0.387420654296875,-0.979583740234375,2718.219971333333,0.009016398186572268,-0.3276702805172783,-0.5984565054149001,2718.219971333333,-3.033681209280338,0.0614887499621749,0.3644412644085774,0.00639802822843194,-0.3182948529720306,-0.5698152780532837,-0.0001784438063623384,-0.03142058849334717,-0.06490970402956009,XArbitraryZVertical,0.03995477023251149,-0.1792343381281057,-0.9812480638065985,0.0585739331719705,0.05741416290402412,-0.3564273118972778,-0.9325573444366455,0,0,0,-1,192.168.1.8,10.227.79.254,5,0
2015-02-08 21:20:32.187,86,1423459232.110915,37.77932602915706,-122.4387966749467,61.54013,0.44,84.375,4,30,-9999,2718.292466875,0.0761871337890625,-0.4024505615234375,-0.864471435546875,2718.292468458334,-0.07916805604089452,0.01940112854122725,-0.7379438285655444,2718.256219416667,-3.056358850879775,0.06069043774080717,0.3671182807969288,0.182947188615799,-0.2751393616199493,-0.6372750401496887,0.009306373074650764,-0.03152992576360703,-0.02727621234953403,XArbitraryZVertical,0.03757669481458141,-0.1810094688479039,-0.9816193828660124,0.04740201869062331,0.05661159381270409,-0.3589272201061249,-0.9316471219062805,0,0,0,-1,192.168.1.8,10.227.79.254,5,0
2015-02-08 21:20:32.264,87,1423459232.110915,37.77932602915706,-122.4387966749467,61.54013,0.44,84.375,4,30,-9999,2718.351356416667,0.1367340087890625,-0.3205108642578125,-1.005294799804688,2718.3649645,0.2351525968801436,-0.1652816362047157,-0.7240597045385253,2718.328716583334,-3.109467434630225,0.07827795837584431,0.3617225930357607,-0.1576550006866455,-0.02376023307442665,-0.7959111332893372,0.001035235356539488,-0.01002098154276609,-0.03096955455839634,XArbitraryZVertical,0.04137274957346627,-0.1790977106017006,-0.9826959397910476,0.02282532733908333,0.07313773781061172,-0.3538858890533447,-0.9324246048927307,0,0,0,-1,192.168.1.8,10.227.79.254,5,0
2015-02-08 21:20:32.304,88,1423459232.110915,37.77932602915706,-122.4387966749467,61.54013,0.44,84.375,4,30,-9999,2718.410261,0.121124267578125,-0.3478546142578125,-0.83343505859375,2718.4012135,0.3351375178977515,-0.0117767646564394,-0.3635976552029923,2718.3649645,-3.138381772862672,0.08456640994847674,0.360497367570747,0.2325412482023239,-0.155906617641449,-0.6954191327095032,0.07541313767433167,0.03399882838129997,-0.05900118872523308,XArbitraryZVertical,0.04187328959812094,-0.1790470039769962,-0.9829063866558903,0.009156039326089776,0.07903632521629333,-0.3527396619319916,-0.9323775768280029,0,0,0,-1,192.168.1.8,10.227.79.254,5,0
2015-02-08 21:20:32.361,89,1423459232.110915,37.77932602915706,-122.4387966749467,61.54013,0.44,84.375,4,30,-9999,2718.469147166667,0.106689453125,-0.3577117919921875,-0.8974609375,2718.473709625,0.4246506231930588,0.01270540892855003,-0.3509210084142151,2718.437461583334,3.11348111062862,0.09237360759249361,0.3769759982713906,0.1463663280010223,-0.08577845990657806,-0.3251803517341614,0.01297439355403185,-0.0004655555239878595,0.06163649260997772,XArbitraryZVertical,0.04271737611895811,-0.1877930252323082,-0.9812658007354179,-0.005141377118436754,0.08576522767543793,-0.3681105077266693,-0.9258180260658264,0,0,0,-1,192.168.1.8,10.227.79.254,5,0
2015-02-08 21:20:32.461,90,1423459232.110915,37.77932602915706,-122.4387966749467,61.54013,0.44,84.375,4,30,-9999,2718.5280415,0.0825958251953125,-0.368804931640625,-0.8223724365234375,2718.509958791667,0.4294682816050122,0.02734453912460659,-0.3598617728258292,2718.509958791667,3.085246375554085,0.1046070957722338,0.4015294191869182,0.4268628358840942,0.03672328218817711,-0.3312236964702606,-0.006664569489657879,0.03879105299711227,0.1007202416658401,XArbitraryZVertical,0.04559947633414289,-0.2005101102823519,-0.9784796632212784,-0.01714444793422804,0.09611158818006516,-0.3908265829086304,-0.9154327511787415,0,0,0,-1,192.168.1.8,10.227.79.254,5,0
2015-02-08 21:20:32.477,91,1423459232.110915,37.77932602915706,-122.4387966749467,61.54013,0.44,84.375,4,30,-9999,2718.586942,0.0966796875,-0.330413818359375,-0.876373291015625,2718.58245475,0.0760822512858197,-0.05991153714685857,-0.7105324440975768,2718.58245475,3.04474871842668,0.1190563236391886,0.4116116845865893,0.07347524166107178,-0.05053259804844856,-0.6818949580192566,-0.01270919106900692,0.05301050469279289,0.0271465890109539,XArbitraryZVertical,0.04829531061402526,-0.2065738595100777,-0.9766058516699623,-0.03515414660857892,0.1088548228144646,-0.400086909532547,-0.909989595413208,0,0,0,-1,192.168.1.8,10.227.79.254,5,0
2015-02-08 21:20:32.559,92,1423459232.110915,37.77932602915706,-122.4387966749467,61.54013,0.44,84.375,4,30,-9999,2718.645833375,0.0798492431640625,-0.3200836181640625,-0.885711669921875,2718.618703916667,0.1159276685672583,0.06803311320716422,-0.5438079072142562,2718.618703916667,3.021502492968299,0.1306835700489049,0.4113694566108247,0.1133196130394936,0.07741238176822662,-0.5151709914207458,-0.007029024418443441,0.08681559562683105,0.002691606990993023,XArbitraryZVertical,0.05157383540136571,-0.2072700863278071,-0.9758721866180263,-0.04530702154183396,0.1194405257701874,-0.3998649120330811,-0.9087585210800171,0,0,0,-1,192.168.1.8,10.227.79.254,5,0
2015-02-08 21:20:32.594,93,1423459232.110915,37.77932602915706,-122.4387966749467,61.54013,0.44,84.375,4,30,-9999,2718.704822083334,0.03814697265625,-0.3147125244140625,-0.9308929443359375,2718.6912,0.07277353994750527,-0.2995992310472981,-0.4904139242031485,2718.6912,2.989431004163478,0.1257497557324265,0.4069474955145618,0.07014555484056473,-0.2902184724807739,-0.4617795050144196,-0.07924163341522217,0.06663010269403458,-0.0255787018686533,XArbitraryZVertical,0.04603055094003777,-0.2057672370891573,-0.9755729125778358,-0.06163217313411224,0.1151760816574097,-0.3958079516887665,-0.9110820889472961,0,0,0,-1,192.168.1.8,10.227.79.254,5,0
2015-02-08 21:20:32.661,94,1423459232.110915,37.77932602915706,-122.4387966749467,61.54013,0.44,84.375,4,30,-9999,2718.763612375,0.03057861328125,-0.35205078125,-0.8637237548828125,2718.763696958334,-0.05178996108655293,-0.4075454058275889,-0.4152957372319375,2718.727448875,2.972997901055329,0.1177174007565936,0.4068315578986428,0.1237410977482796,-0.4150719344615936,-0.4110188782215118,-0.06096943840384483,0.06650837510824203,0.01088505890220404,XArbitraryZVertical,0.04042752249813383,-0.2058007119006365,-0.9752151591033559,-0.07047748477956456,0.1078597009181976,-0.3957014977931976,-0.9120233654975891,0,0,0,-1,192.168.1.8,10.227.79.254,5,0
2015-02-08 21:20:32.725,95,1423459232.110915,37.77932602915706,-122.4387966749467,61.54013,0.44,84.375,4,30,-9999,2718.822500375,0.0501251220703125,-0.34613037109375,-0.9337005615234375,2718.799945166667,-0.2205496856749121,-0.1208404018301274,-0.3684097209766565,2718.799945166667,2.945383128050203,0.1041658972763606,0.3971495578611955,-0.2231996059417725,-0.1114659160375595,-0.3397747874259949,-0.04124303534626961,0.05651484429836273,-0.0001743560860631987,XArbitraryZVertical,0.03149484434407761,-0.2010564174454499,-0.9753177456576958,-0.08567197201487353,0.09588476270437241,-0.386791318655014,-0.9171687960624695,0,0,0,-1,192.168.1.8,10.227.79.254,5,0
2015-02-08 21:20:32.771,96,1423459232.110915,37.77932602915706,-122.4387966749467,61.54013,0.44,84.375,4,30,-9999,2718.881385208334,0.03399658203125,-0.3683319091796875,-0.8462066650390625,2718.872442125,-0.07392615606729155,-0.1784736046644232,-0.1715041120916858,2718.872442125,2.933002545282616,0.09500166649042772,0.3861118324638476,-0.07658877968788147,-0.1691074967384338,-0.1428673416376114,-0.04583738371729851,0.01455931924283504,0.06195825710892677,XArbitraryZVertical,0.02639648652286815,-0.1954526086926995,-0.9759370861570651,-0.09299627475177498,0.08787535130977631,-0.3765893578529358,-0.922203004360199,0,0,0,-1,192.168.1.8,10.227.79.254,5,0
2015-02-08 21:20:32.859,97,1423459232.110915,37.77932602915706,-122.4387966749467,61.54013,0.44,84.375,4,30,-9999,2718.940273625,0.046478271484375,-0.3708953857421875,-0.880523681640625,2718.908690291667,-0.2179459130771416,0.07061291735512398,-0.2130068145194807,2718.908690291667,2.928658101471942,0.09255673585888699,0.3811267152871713,-0.2206090539693832,0.07996874302625656,-0.1843668222427368,-0.06549862772226334,-0.009670998901128769,0.06172410771250725,XArbitraryZVertical,0.02506063617415212,-0.1929650135082789,-0.9762237410056973,-0.09551793325403228,0.08579281717538834,-0.3719665706157684,-0.9242729544639587,0,0,0,-1,192.168.1.8,10.227.79.254,5,0
2015-02-08 21:20:32.888,98,1423459232.110915,37.77932602915706,-122.4387966749467,61.54013,0.44,84.375,4,30,-9999,2718.99915675,0.052459716796875,-0.377197265625,-0.893035888671875,2718.981187291667,-0.1618674636872341,-0.08180937921003512,-0.4172057563657423,2718.981187291667,2.910820878930955,0.095187867568193,0.3714775405023166,-0.1645311862230301,-0.07247009873390198,-0.3885607123374939,-0.06761109828948975,-0.02479427680373192,0.03206604346632957,XArbitraryZVertical,0.02520945751947065,-0.1886201360808246,-0.976170920880832,-0.1042941069431903,0.08856141567230225,-0.3629925847053528,-0.9275738596916199,0,0,0,-1,192.168.1.8,10.227.79.254,5,0
2015-02-08 21:20:32.986,99,1423459232.110915,37.77932602915706,-122.4387966749467,61.54013,0.44,84.375,4,30,-9999,2719.058050916667,0.07855224609375,-0.3656005859375,-0.8475189208984375,2719.053684416667,-0.07198311373596974,-0.3178924845750524,-0.402844393871381,2719.017435291667,2.894755444459893,0.1007116723937164,0.3659736633247979,-0.07870041579008102,-0.05429940670728683,-0.435655415058136,-0.01281327847391367,-0.01270104479044676,0.0290960818529129,XArbitraryZVertical,0.02674493782490453,-0.1864473314913062,-0.9757157629693161,-0.1118072035859149,0.09388322383165359,-0.3578586578369141,-0.9290441870689392,0,0,0,-1,192.168.1.8,10.227.79.254,5,0
2015-02-08 21:20:33.025,100,1423459232.110915,37.77932602915706,-122.4387966749467,61.54013,0.44,84.375,4,30,-9999,2719.116956166667,0.043212890625,-0.379852294921875,-0.9160919189453125,2719.126180625,-0.179005437934112,-0.2902302303323994,-0.4082434203492987,2719.089932458333,2.867361620825361,0.09012287875727083,0.3572520409392712,-0.2031704932451248,-0.3778063356876373,-0.3697735071182251,-0.02981399558484554,-0.03396589308977127,0.03741410002112389,XArbitraryZVertical,0.01965195060885936,-0.1818905707484079,-0.9749568981923055,-0.1264463039290073,0.08431839197874069,-0.3497011065483093,-0.9330592155456543,0,0,0,-1,192.168.1.8,10.227.79.254,5,0
2015-02-08 21:20:33.089,101,1423459232.110915,37.77932602915706,-122.4387966749467,61.54013,0.44,84.375,4,30,-9999,2719.175850958333,0.091278076171875,-0.367156982421875,-0.9206085205078125,2719.162429583334,-0.1956664400297567,-0.1721014591241906,-0.3585978365724775,2719.162429583334,2.841755377425291,0.07884143465597114,0.3451494241973697,-0.1983190029859543,-0.1627761274576187,-0.3299494981765747,-0.003649827325716615,-0.02892650105059147,0.02684684656560421,XArbitraryZVertical,0.01276192496705441,-0.1754601617050095,-0.9743497672725653,-0.1403331605197695,0.07411491870880127,-0.3383373022079468,-0.9381017088890076,0,0,0,-1,192.168.1.8,10.227.79.254,5,0
2015-02-08 21:20:33.179,102,1423459232.110915,37.77932602915706,-122.4387966749467,61.54013,0.44,84.375,4,30,-9999,2719.234741666667,0.065765380859375,-0.414825439453125,-0.8885498046875,2719.234925708333,-0.1351881822029293,-0.003268497605854249,-0.1831567734413276,2719.198677666667,2.831914400960711,0.07626135855867158,0.3402131571051981,-0.118282824754715,-0.1845676898956299,-0.2194545120000839,0.01851136609911919,-0.05203888937830925,0.02343975380063057,XArbitraryZVertical,0.01103301502243511,-0.1729347926073605,-0.9740631970708172,-0.1455084815312319,0.07182066887617111,-0.3336880505084991,-0.9399436712265015,0,0,0,-1,192.168.1.8,10.227.79.254,5,0
2015-02-08 21:20:33.190,103,1423459233.157385,37.7793213772008,-122.4387981836893,61.71957,0.41,84.375,4,10,-9999,2719.293606666667,0.090972900390625,-0.4133758544921875,-0.9101409912109375,2719.27117475,-0.009908024519530798,-0.01066489490133132,-0.2443551500269124,2719.27117475,2.819108980528346,0.07899764065513373,0.3391832647274137,-0.0125039042904973,-0.001333215273916721,-0.2154953330755234,0.0120521318167448,-0.08697599172592163,0.02025539055466652,XArbitraryZVertical,0.01134170028385301,-0.1727093209678067,-0.973179728409807,-0.1515390131210696,0.07441942393779755,-0.3327170014381409,-0.9400857090950012,0,0,0,-1,192.168.1.8,10.227.79.254,5,0
2015-02-08 21:20:33.268,104,1423459233.157385,37.7793213772008,-122.4387981836893,61.71957,0.41,84.375,4,10,-9999,2719.352492083333,0.08453369140625,-0.4170379638671875,-0.9280242919921875,2719.343670833333,0.2457682233013085,-0.2341733525473215,-0.1168507202010797,2719.343670833333,2.808170005061857,0.07773926469257855,0.3528595822418791,0.2431901097297668,-0.2248487323522568,-0.08798978477716446,0.015518001280725,-0.06675564497709274,-0.004661832470446825,XArbitraryZVertical,0.008623070315574683,-0.1793001024337718,-0.9712261396398066,-0.1565148606551914,0.07287616282701492,-0.3455826044082642,-0.9355542063713074,0,0,0,-1,192.168.1.8,10.227.79.254,5,0
2015-02-08 21:20:33.301,105,1423459233.157385,37.7793213772008,-122.4387981836893,61.71957,0.41,84.375,4,10,-9999,2719.411377958334,0.0819549560546875,-0.40673828125,-0.9333648681640625,2719.416168208334,0.1357937850348133,0.08195478780555343,-0.04634859034730303,2719.379919958334,2.802910210807009,0.07345814044044123,0.3607931900759841,0.1868109256029129,-0.04578503966331482,-0.1168726459145546,-0.001116239349357784,-0.03820362687110901,-0.003261687932536006,XArbitraryZVertical,0.005390439211797227,-0.1828222955781524,-0.9701571043845302,-0.1591921612920876,0.06866689771413803,-0.3530164659023285,-0.9330939054489136,0,0,0,-1,192.168.1.8,10.227.79.254,5,0
2015-02-08 21:20:33.376,106,1423459233.157385,37.7793213772008,-122.4387981836893,61.71957,0.41,84.375,4,10,-9999,2719.470272125,0.0907440185546875,-0.3830718994140625,-0.9399871826171875,2719.452416083333,0.1990862051855275,-0.02939384158342257,-0.09013308919707777,2719.452416083333,2.798391458994918,0.07970082172591317,0.3784947136907257,0.196532666683197,-0.02008006721735001,-0.06126948446035385,0.01155940257012844,-0.02159113809466362,0.004763386212289333,XArbitraryZVertical,0.006456115588671592,-0.1918911956690096,-0.9682325282829435,-0.1601931920245865,0.07398136705160141,-0.3695221543312073,-0.9262721538543701,0,0,0,-1,192.168.1.8,10.227.79.254,5,0
2015-02-08 21:20:33.424,107,1423459233.157385,37.7793213772008,-122.4387981836893,61.71957,0.41,84.375,4,10,-9999,2719.529156625,0.0701904296875,-0.3531036376953125,-0.9844970703125,2719.524913208334,0.2845803340797963,-0.3534603325136056,-0.104123207035482,2719.488665166667,2.796177048711012,0.07561468239462137,0.3853395314933253,0.188486635684967,-0.3064655363559723,-0.03078661486506462,0.01601062342524529,-0.005183946806937456,-0.02725571766495705,XArbitraryZVertical,0.003664607749766714,-0.1948719729748586,-0.9674476782892431,-0.1614201801871844,0.07000316679477692,-0.3758738040924072,-0.9240229725837708,0,0,0,-1,192.168.1.8,10.227.79.254,5,0
2015-02-08 21:20:33.479,108,1423459233.157385,37.7793213772008,-122.4387981836893,61.71957,0.41,84.375,4,10,-9999,2719.588158333333,0.0472412109375,-0.332183837890625,-0.9789581298828125,2719.561161333334,0.1563480623280449,-0.266993883505349,-0.06081727823359452,2719.561161333334,2.790068375789617,0.05591101928778927,0.3975820417145535,0.1537869274616241,-0.257671058177948,-0.03195998072624207,0.006063569337129593,0.05216814577579498,-0.04312491416931152,XArbitraryZVertical,-0.00753910579519879,-0.1991571687636021,-0.9657911161421694,-0.1659129410104001,0.05152310058474541,-0.3871901333332062,-0.9205591678619385,0,0,0,-1,192.168.1.8,10.227.79.254,5,0
2015-02-08 21:20:33.563,109,1423459233.157385,37.7793213772008,-122.4387981836893,61.71957,0.41,84.375,4,10,-9999,2719.646923583333,0.02545166015625,-0.3714447021484375,-0.885498046875,2719.633658416667,-0.005487709742217278,0.3069918999172491,0.1329284900179971,2719.633658416667,2.79700807001101,0.0572186885429379,0.4011529050277029,-0.008055368438363075,0.3163165152072906,0.1617845743894577,-0.03473361954092979,0.03086083941161633,0.02873919904232025,XArbitraryZVertical,-0.006526047310216086,-0.2010099768680555,-0.9660250757592085,-0.1623205252283478,0.05264743790030479,-0.3904799818992615,-0.9191048145294189,0,0,0,-1,192.168.1.8,10.227.79.254,5,0
2015-02-08 21:20:33.596,110,1423459233.157385,37.7793213772008,-122.4387981836893,61.71957,0.41,84.375,4,10,-9999,2719.70580375,-0.0100250244140625,-0.3731536865234375,-0.8825225830078125,2719.706155791667,0.4271385482834109,0.0591091267104177,0.1714364677999978,2719.669906541667,2.802851602213469,0.06232713739978378,0.4026843055093446,0.1110399663448334,0.1203851625323296,0.1493928730487823,-0.0256273727864027,0.02436615154147148,0.0341775007545948,XArbitraryZVertical,-0.003601157002977893,-0.2021733154639074,-0.966360590212516,-0.1589345521485888,0.05730461701750755,-0.3918893337249756,-0.9182259440422058,0,0,0,-1,192.168.1.8,10.227.79.254,5,0
2015-02-08 21:20:33.663,111,1423459233.157385,37.7793213772008,-122.4387981836893,61.71957,0.41,84.375,4,10,-9999,2719.764685708334,0.0192718505859375,-0.379302978515625,-0.8044586181640625,2719.77865175,0.5636468594386924,0.5953304869273651,-0.1775044803437434,2719.742403666667,2.813790590501845,0.06891397599743161,0.4345131450880325,0.716619074344635,0.4946770071983337,0.05812826752662659,-0.09345128387212753,0.03458578139543533,0.04153398051857948,XArbitraryZVertical,-0.001960778164133856,-0.2180255368147375,-0.9640455730551747,-0.1519116641944881,0.06246068701148033,-0.4209688305854797,-0.9049220681190491,0,0,0,-1,192.168.1.8,10.227.79.254,5,0
2015-02-08 21:20:33.726,112,1423459233.157385,37.7793213772008,-122.4387981836893,61.71957,0.41,84.375,4,10,-9999,2719.823562916667,0.1073455810546875,-0.37738037109375,-0.812744140625,2719.814900875,0.4785910868598507,0.2437817714442183,-0.200280632934428,2719.77865175,2.808547806968968,0.09039827873731726,0.456302931880541,0.5610718727111816,0.6046470999717712,-0.1486448496580124,-0.0426020510494709,0.07074400782585144,0.09224921464920044,XArbitraryZVertical,0.005952568347997315,-0.2301161058184509,-0.9613246168554982,-0.1512154945785173,0.0810389444231987,-0.4406323134899139,-0.8940222859382629,0,0,0,-1,192.168.1.8,10.227.79.254,5,0
2015-02-08 21:20:33.777,113,1423459233.157385,37.7793213772008,-122.4387981836893,61.71957,0.41,84.375,4,10,-9999,2719.882462875,0.1128997802734375,-0.4049224853515625,-0.788726806640625,2719.887397,0.4401251870230732,0.5134790297721068,-0.1446362788022034,2719.851148958333,2.790988260584199,0.11448157539433,0.4869467279959012,0.4675127267837524,0.0353424996137619,-0.190373495221138,-0.05342290550470352,0.07028565555810928,0.02948520146310329,XArbitraryZVertical,0.01269528951613158,-0.2466748616667346,-0.9564726152986037,-0.1554042419936798,0.100954033434391,-0.4679296910762787,-0.8779807090759277,0,0,0,-1,192.168.1.8,10.227.79.254,5,0
2015-02-08 21:20:33.860,114,1423459233.157385,37.7793213772008,-122.4387981836893,61.71957,0.41,84.375,4,10,-9999,2719.94141525,0.1935272216796875,-0.4550628662109375,-0.766845703125,2719.92364625,0.06313875575581659,0.4898900804167299,-0.2901495365513699,2719.92364625,2.773008444127901,0.154621766888898,0.5109352786639734,0.06056125834584236,0.4992072284221649,-0.2612909972667694,0.06324820220470428,0.03930151835083961,0.1230504587292671,XArbitraryZVertical,0.02729312813056179,-0.2613705662324995,-0.9518963894133631,-0.1575873601718614,0.1343378573656082,-0.4889932870864868,-0.8618810176849365,0,0,0,-1,192.168.1.8,10.227.79.254,5,0
2015-02-08 21:20:33.890,115,1423459233.157385,37.7793213772008,-122.4387981836893,61.71957,0.41,84.375,4,10,-9999,2720.000244875,0.2088775634765625,-0.4870758056640625,-0.892120361328125,2719.996142208333,0.241250170511989,0.2942279014447173,-0.1962352912385977,2719.996142208333,2.762371775634984,0.1872531876120786,0.5033402809028308,0.2386727035045624,0.3035449385643005,-0.1673771142959595,0.03645148128271103,-0.004996233154088259,-0.05286487564444542,XArbitraryZVertical,0.04219281144328351,-0.2605532260711159,-0.9513623401878815,-0.1588756769259052,0.1630724370479584,-0.4823542237281799,-0.8606635928153992,0,0,0,-1,192.168.1.8,10.227.79.254,5,0
2015-02-08 21:20:33.958,116,1423459233.157385,37.7793213772008,-122.4387981836893,61.71957,0.41,84.375,4,10,-9999,2720.05914075,0.233306884765625,-0.5165863037109375,-0.744903564453125,2720.032391333334,0.1910575734472656,0.4574852689048637,-0.3030163330419788,2720.032391333334,2.750877401541985,0.2065194366719704,0.5130595580378965,0.1884801387786865,0.4668022096157074,-0.274158388376236,0.05514204502105713,0.001862016040831804,0.1191059798002243,XArbitraryZVertical,0.04881658285946768,-0.2669275016017215,-0.948899582036292,-0.1611093831467285,0.1786531209945679,-0.4908451735973358,-0.852733314037323,0,0,0,-1,192.168.1.8,10.227.79.254,5,0
2015-02-08 21:20:34.025,117,1423459233.157385,37.7793213772008,-122.4387981836893,61.71957,0.41,84.375,4,10,-9999,2720.118032583333,0.29156494140625,-0.487030029296875,-0.8470611572265625,2720.104887666667,-0.4306283545758507,0.2632500116449156,-0.6394960841291302,2720.104887666667,2.723227379786801,0.2532117237179333,0.485904006403122,-0.4332050681114197,0.2725672125816345,-0.6106386780738831,0.05957913026213646,-0.02298231422901154,0.04538786038756371,XArbitraryZVertical,0.07033118078268441,-0.2588921061749044,-0.9481817201981061,-0.1702346258907898,0.2215182781219482,-0.4670079350471497,-0.856056809425354,0,0,0,-1,192.168.1.8,10.227.79.254,5,0
2015-02-08 21:20:34.069,118,1423459233.157385,37.7793213772008,-122.4387981836893,61.71957,0.41,84.375,4,10,-9999,2720.176916416667,0.2978515625,-0.4619293212890625,-0.6710357666015625,2720.177384708334,-0.03541924354972684,0.529852410470023,-0.3900612206390007,2720.141136666667,2.702829867120566,0.270678967055667,0.4730321701484457,0.01973966881632805,0.3196600675582886,-0.5380249619483948,0.05441031977534294,-0.008584776893258095,0.001470746472477913,XArbitraryZVertical,0.07749934288359148,-0.2551558091542183,-0.9470633434635154,-0.1787746860580561,0.2380243688821793,-0.4555875957012177,-0.8577787280082703,0,0,0,-1,192.168.1.8,10.227.79.254,5,0
2015-02-08 21:20:34.141,119,1423459234.118069,37.77931354012134,-122.4388054759451,61.78323,0.4,84.375,4,10,-9999,2720.23582175,0.23382568359375,-0.4864501953125,-0.8384552001953125,2720.213632833334,-0.4323218587130321,-0.8383380774426974,-0.4000680484349734,2720.213632833334,2.675195467899108,0.2948601531215955,0.4594714795153567,-0.4348578751087189,-0.8289973735809326,-0.371005117893219,0.04403797537088394,-0.001319238333962858,0.1093605235219002,XArbitraryZVertical,0.08711225168995286,-0.2522074027338824,-0.9448230616295864,-0.190032270482178,0.2604664266109467,-0.4434744715690613,-0.8576057553291321,0,0,0,-1,192.168.1.8,10.227.79.254,5,0
2015-02-08 21:20:34.345,120,1423459234.118069,37.77931354012134,-122.4388054759451,61.78323,0.4,84.375,4,10,-9999,2720.294715833334,0.2863922119140625,-0.3975982666015625,-0.8680419921875,2720.286130041667,0.1036704696501686,-1.329120050508495,-0.462032882782283,2720.286130041667,2.644041543255033,0.2479949774435797,0.435501647186227,0.1011363714933395,-1.319780349731445,-0.4329697489738464,0.08795199543237686,0.01531010121107101,-0.02981648966670036,XArbitraryZVertical,0.06425879732291975,-0.2375088637499225,-0.9456403685568929,-0.212660856676536,0.222549095749855,-0.4218652844429016,-0.8789206743240356,0,0,0,-1,192.168.1.8,10.227.79.254,1,0
2015-02-08 21:20:34.388,121,1423459234.118069,37.77931354012134,-122.4388054759451,61.78323,0.4,84.375,4,10,-9999,2720.353609083334,0.061492919921875,-0.4924774169921875,-0.83038330078125,2720.322378083334,0.1786035669256191,-2.506847648845364,-0.2000263010503255,2720.322378083334,2.633826549640299,0.1876077512200805,0.4386797037600673,0.1760696172714233,-2.497506618499756,-0.1709641665220261,0.07626798003911972,-0.04197602719068527,-0.05184100940823555,XArbitraryZVertical,0.0340822179987955,-0.2326466143492891,-0.9457191097090776,-0.224341972843128,0.1688492149114609,-0.4247445464134216,-0.8894279003143311,0,0,0,-1,192.168.1.8,10.227.79.254,1,0
2015-02-08 21:20:34.391,122,1423459234.118069,37.77931354012134,-122.4388054759451,61.78323,0.4,84.375,4,10,-9999,2720.412502333334,-0.2291107177734375,-0.3505401611328125,-0.8143463134765625,2720.394875291667,-0.1499125335538684,-2.603159804403644,-0.1370681076164162,2720.394875291667,2.57824942066341,-0.05238828932558785,0.4683471596282942,-0.1524462699890137,-2.59381890296936,-0.1080063432455063,-0.03339839354157448,-0.06001678481698036,0.02694040350615978,XArbitraryZVertical,-0.08894823579068359,-0.2157371301790474,-0.9323643398539845,-0.2761203356880079,-0.04672550782561302,-0.4514120519161224,-0.8910914063453674,0,0,0,-1,192.168.1.8,10.227.79.254,1,0
2015-02-08 21:20:34.394,123,1423459234.118069,37.77931354012134,-122.4388054759451,61.78323,0.4,84.375,4,10,-9999,2720.471398666667,0.1159210205078125,-0.704620361328125,-0.935028076171875,2720.4673725,-0.7158433199434128,0.1051621061767219,-0.6802520361872668,2720.431123375,2.579336776280734,-0.09772113980718473,0.4704166461207434,-0.208559587597847,-0.4419055581092834,0.01635857857763767,-0.1873239427804947,0.2266494333744049,0.2628439962863922,XArbitraryZVertical,-0.1102106538951771,-0.21045236919959,-0.9300169414792587,-0.2804138024916445,-0.08696804940700531,-0.4532577097415924,-0.8871268033981323,0,0,0,-1,192.168.1.8,10.227.79.254,1,0
2015-02-08 21:20:34.459,124,1423459234.118069,37.77931354012134,-122.4388054759451,61.78323,0.4,84.375,4,10,-9999,2720.53028525,-0.1862030029296875,-0.5127716064453125,-0.8655548095703125,2720.539868708333,0.7463154754522084,-0.7504705393849501,-0.1548670784458518,2720.503620625,2.541100961329186,-0.1017315636637186,0.4449416022195224,0.3988257348537445,-1.186993360519409,-0.3304389417171478,0.1227046176791191,-0.3365168273448944,-0.1406510025262833,XArbitraryZVertical,-0.1125433697376916,-0.1958302589203344,-0.9271986748052394,-0.2988094996124934,-0.09166824072599411,-0.4304051697254181,-0.8979690074920654,0,0,0,-1,192.168.1.8,10.227.79.254,1,0
2015-02-08 21:20:34.479,125,1423459234.118069,37.77931354012134,-122.4388054759451,61.78323,0.4,84.375,4,10,-9999,2720.589173666667,-0.248565673828125,-0.4949951171875,-0.485870361328125,2720.576117833334,-0.63478495216078,-0.2933083119203129,-0.6605523672878417,2720.576117833334,2.526022620268929,-0.1530631667819475,0.476148175508974,-0.6373185515403748,-0.2839678525924683,-0.6314916014671326,-0.1812350153923035,-0.01429704017937183,0.1628610342741013,XArbitraryZVertical,-0.142044411129042,-0.2015819861534278,-0.9179530655616727,-0.3107253732017254,-0.1355069279670715,-0.4583592116832733,-0.8783761858940125,0,0,0,-1,192.168.1.8,10.227.79.254,1,0
2015-02-08 21:20:34.571,126,1423459234.118069,37.77931354012134,-122.4388054759451,61.78323,0.4,84.375,4,10,-9999,2720.648048541667,-0.1519927978515625,-0.251678466796875,-0.8503875732421875,2720.648614083334,-2.967658673319519,-1.249820966941968,0.8123916978903825,2720.612365916667,2.493243641899274,-0.1487707199621775,0.4109787951008902,-3.098809957504272,-0.5549730658531189,0.2335670739412308,0.2693944871425629,-0.03674196824431419,0.09628605842590332,XArbitraryZVertical,-0.1337782207890208,-0.1697096361718526,-0.9205747708845715,-0.3253369303410562,-0.1358800828456879,-0.3995068073272705,-0.9066040515899658,0,0,0,-1,192.168.1.8,10.227.79.254,1,0
2015-02-08 21:20:34.596,127,1423459234.118069,37.77931354012134,-122.4388054759451,61.78323,0.4,84.375,4,10,-9999,2720.706935375,-0.3496856689453125,0.1776123046875,-0.4909820556640625,2720.684863208333,-0.1218952799379078,0.4443548194663371,1.96570769641115,2720.684863208333,2.535806844310484,-0.2052187534911089,0.24084351130536,-0.1244288682937622,0.4536950588226318,1.994767785072327,-0.04566117748618126,0.3419764637947083,0.2812340557575226,XArbitraryZVertical,-0.1327030589687192,-0.08372752110829468,-0.9389110269570189,-0.3063097840551328,-0.1978996098041534,-0.2385218739509583,-0.9507591724395752,0,0,0,-1,192.168.1.8,10.227.79.254,1,0
2015-02-08 21:20:34.667,128,1423459234.118069,37.77931354012134,-122.4388054759451,61.78323,0.4,84.375,4,10,-9999,2720.765817875,-0.329010009765625,0.3872833251953125,-0.1607513427734375,2720.757359416667,0.2000563947706434,-1.485284088405215,0.9582130833776711,2720.757359416667,2.630947718213164,-0.2472887504570396,0.2776378853143539,0.197522833943367,-1.475943922996521,0.9872727990150452,-0.05839020386338234,0.655218780040741,0.7714851498603821,XArbitraryZVertical,-0.1528639713885932,-0.1020174179383371,-0.9466481606678041,-0.2647306415826228,-0.235402524471283,-0.274084746837616,-0.9324501156806946,0,0,0,-1,192.168.1.8,10.227.79.254,1,0
2015-02-08 21:20:34.936,129,1423459234.118069,37.77931354012134,-122.4388054759451,61.78323,0.4,84.375,4,10,-9999,2720.824702291667,-0.2584381103515625,0.7455902099609375,-0.64813232421875,2720.829856666667,-2.831530661567901,-5.735982402207697,1.680119888490976,2720.793608708334,2.649127906026389,-0.3657628705859461,0.2290936884808673,-2.131041288375854,-4.297450065612793,0.8204843997955322,-0.1038314029574394,0.7151931524276733,0.6622291803359985,XArbitraryZVertical,-0.2026177826077801,-0.06496143337532771,-0.94234802480858,-0.2582755243616378,-0.34831702709198,-0.227094978094101,-0.9094520807266235,0,0,0,-1,192.168.1.8,10.227.79.254,1,0
2015-02-08 21:20:35.374,130,1423459234.118069,37.77931354012134,-122.4388054759451,61.78323,0.4,84.375,4,10,-9999,2720.883595166667,-0.8849945068359375,0.9705657958984375,-0.6492767333984375,2720.866104791667,-2.131387741514941,-6.609127462465512,3.130838276475835,2720.866104791667,2.665998478996397,-0.7634460892554357,0.005617502481870392,-2.133921146392822,-6.599787712097168,3.159897327423096,0.1329326033592224,0.843889594078064,0.1823613941669464,XArbitraryZVertical,-0.3626496423476219,0.08521809106496307,-0.9016588247507502,-0.2196234905684372,-0.6914042830467224,-0.005617472808808088,-0.7224462032318115,0,0,0,-1,192.168.1.8,10.227.79.254,1,0
2015-02-08 21:20:35.460,131,1423459235.255534,37.77930540967526,-122.438810588906,61.82822,0.38,84.375,4,10,-9999,2720.942474958334,-1.169158935546875,0.969512939453125,-0.9667205810546875,2720.938602,-1.323752715647549,-2.393188727210744,4.473685590823144,2720.902353958334,2.671090538140463,-0.9846240603968084,-0.1645210427814301,-3.230299472808838,-5.348530769348145,4.26908540725708,-0.2156145572662354,0.9226001501083374,-0.2797937393188477,XArbitraryZVertical,-0.4412134025492254,0.1802147610259235,-0.8631240897326732,-0.1669436403174188,-0.8218152523040771,0.1637798547744751,-0.5457067489624023,0,0,0,-1,192.168.1.8,10.227.79.254,1,0
2015-02-08 21:20:35.492,132,1423459235.255534,37.77930540967526,-122.438810588906,61.82822,0.38,84.375,4,10,-9999,2721.001354,-1.365814208984375,0.793914794921875,-1.161865234375,2720.974850125,-2.317665473437732,0.501927302227779,4.858640200071918,2720.974850125,2.701813063651199,-1.122433126460042,-0.5156268605536829,-2.320198774337769,0.5112670660018921,4.887698650360107,-0.5422707200050354,0.4268415570259094,-0.4814055263996124,XArbitraryZVertical,-0.4551520474382112,0.3229109723906659,-0.8285149890536242,-0.04613058135309733,-0.7839927077293396,0.4930803179740906,-0.3771302402019501,0,0,0,-1,192.168.1.8,10.227.79.254,1,0
2015-02-08 21:20:35.495,133,1423459235.255534,37.77930540967526,-122.438810588906,61.82822,0.38,84.375,4,10,-9999,2721.060233291667,-1.14166259765625,0.6613311767578125,-0.6692047119140625,2721.047347416667,-0.5090885423990021,1.029242252811174,3.299614778979062,2721.047347416667,2.741586868658398,-1.018518202335115,-0.8029170368965357,-0.5116219520568848,1.038581848144531,3.328672885894775,-0.3856453001499176,0.04964235424995422,-0.5244424939155579,XArbitraryZVertical,-0.3720400231890562,0.423532726869997,-0.8255150374888356,0.02704021625912445,-0.59134441614151,0.7193853259086609,-0.3644124865531921,0,0,0,-1,192.168.1.8,10.227.79.254,1,0
2015-02-08 21:20:35.498,134,1423459235.255534,37.77930540967526,-122.438810588906,61.82822,0.38,84.375,4,10,-9999,2721.119110541667,-0.9564666748046875,0.5724945068359375,-0.79949951171875,2721.083595541667,-0.6095032976165489,1.138635589327814,2.865239889381688,2721.083595541667,2.811766101248165,-0.9326362876747462,-0.9066770932590221,-0.6120366454124451,1.147975206375122,2.89429783821106,-0.6514235138893127,-0.1603389978408813,-0.3128578662872314,XArbitraryZVertical,-0.3344794263146187,0.4522534959284182,-0.8244361132858969,0.06241301068522499,-0.4950608313083649,0.7874599695205688,-0.3671805858612061,0,0,0,-1,192.168.1.8,10.227.79.254,1,0
2015-02-08 21:20:35.501,135,1423459235.255534,37.77930540967526,-122.438810588906,61.82822,0.38,84.375,4,10,-9999,2721.17799475,-0.791656494140625,0.6364593505859375,-0.41131591796875,2721.156092458334,-0.3220062695108978,5.381751084558513,1.416969745386939,2721.156092458334,2.973853984041983,-0.5555812444411758,-1.012095439834636,-0.3245396018028259,5.391090393066406,1.446027278900146,-0.8108827471733093,-0.3224928081035614,0.0115753635764122,XArbitraryZVertical,-0.1999691218027841,0.4845965324323476,-0.8493144097268684,0.06199664918567957,-0.2795865833759308,0.847944438457489,-0.4503571093082428,0,0,0,-1,192.168.1.8,10.227.79.254,1,0
2015-02-08 21:20:35.557,136,1423459235.255534,37.77930540967526,-122.438810588906,61.82822,0.38,84.375,4,10,-9999,2721.236865583333,-0.6185760498046875,1.068130493164062,-0.606231689453125,2721.22858975,-0.5054807580702718,1.732354597479572,0.1565568541575071,2721.22858975,2.995504900802012,-0.2806320478778367,-1.118434409338615,-0.5079264640808105,1.741675019264221,0.1858439594507217,-0.617665708065033,0.09826342761516571,-0.1279507726430893,XArbitraryZVertical,-0.07989926496892319,0.5325597930030171,-0.8425163161645202,0.01274485506228748,-0.1210580766201019,0.8994172215461731,-0.4199923574924469,0,0,0,-1,192.168.1.8,10.227.79.254,1,0
2015-02-08 21:20:35.559,137,1423459235.255534,37.77930540967526,-122.438810588906,61.82822,0.38,84.375,4,10,-9999,2721.295753333333,-0.08782958984375,1.276168823242188,-0.703857421875,2721.264837875,0.07990362113397441,0.06792871729243312,0.8103525154437088,2721.264837875,3.049856987783164,-0.2167819027897274,-1.117634771330295,0.07745795696973801,0.07724907249212265,0.83963942527771,-0.2852573394775391,0.2591662108898163,-0.04942666366696358,XArbitraryZVertical,-0.0674593004612022,0.5307237530554028,-0.8446501539550648,0.01864559325259467,-0.09416770190000534,0.8990674614906311,-0.4275630712509155,0,0,0,-1,192.168.1.8,10.227.79.254,1,0
2015-02-08 21:20:35.562,138,1423459235.255534,37.77930540967526,-122.438810588906,61.82822,0.38,84.375,4,10,-9999,2721.354624541667,0.178802490234375,0.9589691162109375,-0.253387451171875,2721.337335208334,-0.2090653361061634,0.5469488394038956,1.025072541492438,2721.337335208334,-3.056968152555998,-0.009503794904137421,-1.128584263537926,-0.211510956287384,0.5562690496444702,1.054359078407288,0.161842867732048,0.1832288801670074,0.1596862077713013,XArbitraryZVertical,-0.02663392822127492,0.5341632730574969,-0.8440940905097801,0.03828051659075972,-0.004066990688443184,0.9038072228431702,-0.4279204607009888,0,0,0,-1,192.168.1.8,10.227.79.254,1,0
2015-02-08 21:20:35.564,139,1423459235.255534,37.77930540967526,-122.438810588906,61.82822,0.38,84.375,4,10,-9999,2721.413503541667,0.1766510009765625,0.9666290283203125,-0.09393310546875,2721.409832541667,-0.2111857449660845,0.7981144912864676,0.06830155984504421,2721.373583333333,-3.000287223274572,0.05241675219855371,-1.136091410034583,-0.06536544859409332,0.09460736066102982,0.4247888922691345,0.2883599698543549,0.07574795931577682,0.2898575663566589,XArbitraryZVertical,-0.01593067809646573,0.5380186158075063,-0.8415573875305876,0.04542406886922361,0.02206482924520969,0.9069943428039551,-0.4205643534660339,0,0,0,-1,192.168.1.8,10.227.79.254,1,0
2015-02-08 21:20:35.566,140,1423459235.255534,37.77930540967526,-122.438810588906,61.82822,0.38,84.375,4,10,-9999,2721.472389541667,0.2002716064453125,0.3491058349609375,0.216796875,2721.48232875,-0.1787178165363835,0.4603713365781826,-0.4406479655450558,2721.446080666667,-2.998424518361563,0.09552973651162223,-1.149459170418286,-0.4126394987106323,0.5461025238037109,-0.6000270843505859,-0.006188797298818827,-0.4003816246986389,0.580837607383728,XArbitraryZVertical,0.001136963478396496,0.5444635576580013,-0.8380913239052671,0.03407454315378733,0.03901045396924019,0.9125428795814514,-0.4071162939071655,0,0,0,-1,192.168.1.8,10.227.79.254,1,0
2015-02-08 21:20:35.568,141,1423459235.255534,37.77930540967526,-122.438810588906,61.82822,0.38,84.375,4,10,-9999,2721.531262958334,0.446136474609375,0.6717071533203125,-0.103363037109375,2721.518577958333,-1.122547433182646,0.375081205823414,-0.2790071368665874,2721.518577958333,-3.071122300399388,0.06514966814042776,-1.184053511345345,-1.124992966651917,0.3844011127948761,-0.2497216612100601,0.3435476720333099,-0.4332835972309113,0.2926791906356812,XArbitraryZVertical,0.007361131194291634,0.5583538275187648,-0.8294966194372181,0.01105329746699241,0.02455536834895611,0.9261425137519836,-0.3763736486434937,0,0,0,-1,192.168.1.8,10.227.79.254,1,0
2015-02-08 21:20:35.570,142,1423459235.255534,37.77930540967526,-122.438810588906,61.82822,0.38,84.375,4,10,-9999,2721.590142333333,0.445465087890625,0.855316162109375,-0.0688629150390625,2721.59107425,-0.6951966309603554,-1.973370942447852,0.1868404578611252,2721.554826083333,-3.040554836535714,0.0782255685028351,-1.216364247332624,-0.8301597237586975,-0.9481092095375061,0.5723581314086914,0.2563413977622986,-0.1124805808067322,0.3623996675014496,XArbitraryZVertical,0.003219295968549201,0.5718316165160352,-0.8201423916480697,0.01909701306199331,0.02712111361324787,0.9378437399864197,-0.3459964692592621,0,0,0,-1,192.168.1.8,10.227.79.254,1,0
2015-02-08 21:20:35.572,143,1423459235.255534,37.77930540967526,-122.438810588906,61.82822,0.38,84.375,4,10,-9999,2721.649016458333,-0.2549285888671875,1.179611206054688,-0.09271240234375,2721.627323416667,-0.1005559027553209,-2.423301622288489,0.03689197163254066,2721.627323416667,-2.96384856614777,0.003293835677990173,-1.258209813413328,-0.1030013933777809,-2.413981914520264,0.06617683917284012,-0.114629864692688,0.134197786450386,-0.1358859837055206,XArbitraryZVertical,-0.05089895079534529,0.5862164382823107,-0.8054484649310273,0.07079798468718609,0.001012921216897666,0.9515413641929626,-0.3075191676616669,0,0,0,-1,192.168.1.8,10.227.79.254,1,0
2015-02-08 21:20:35.597,144,1423459235.255534,37.77930540967526,-122.438810588906,61.82822,0.38,84.375,4,10,-9999,2721.707887375,-0.0561370849609375,1.26409912109375,0.16192626953125,2721.699819708334,-1.859252891841303,0.2036535264550134,0.3211223663451005,2721.699819708334,-3.005582330009362,-0.134874434331757,-1.329902070000272,-1.861698389053345,0.2129731029272079,0.3504067957401276,-0.1088962703943253,0.3740135431289673,0.3009644448757172,XArbitraryZVertical,-0.09473967159252922,0.6105916320965507,-0.7805180025679911,0.09483618037154644,-0.03207968175411224,0.9711250066757202,-0.2364045083522797,0,0,0,-1,192.168.1.8,10.227.79.254,1,0
2015-02-08 21:20:35.656,145,1423459235.255534,37.77930540967526,-122.438810588906,61.82822,0.38,84.375,4,10,-9999,2721.766758166667,-0.17547607421875,0.789031982421875,-0.149505615234375,2721.772317083333,-0.4578804820106315,1.429750521774338,0.6546180454308181,2721.736068916667,-2.986846815737209,-0.08137132147897788,-1.392291061943004,-1.5036461353302,1.304474711418152,0.329548716545105,0.008893313817679882,0.1496025770902634,0.2465666085481644,XArbitraryZVertical,-0.08064294214608622,0.6364048057421992,-0.7623747514295639,0.08526650862412499,-0.01443225424736738,0.9841101765632629,-0.1769712716341019,0,0,0,-1,192.168.1.8,10.227.79.254,1,0
2015-02-08 21:20:35.725,146,1423459235.255534,37.77930540967526,-122.438810588906,61.82822,0.38,84.375,4,10,-9999,2721.825628166667,0.352813720703125,0.358673095703125,0.016845703125,2721.808565208334,0.8118175203593614,-1.20815554537157,-0.05902869924549731,2721.808565208334,-2.779299309576695,0.1635305576488303,-1.41265833355589,0.8093721270561218,-1.198836088180542,-0.02974488772451878,-0.07220794260501862,-0.5457803010940552,-0.02089081518352032,XArbitraryZVertical,-0.05542287156747395,0.6474866388406593,-0.7553521548412965,0.08445401119326172,0.02563811652362347,0.9875222444534302,-0.1553787142038345,0,0,0,-1,192.168.1.8,10.227.79.254,1,0
2015-02-08 21:20:35.780,147,1423459235.255534,37.77930540967526,-122.438810588906,61.82822,0.38,84.375,4,10,-9999,2721.884509416667,-0.136627197265625,1.1513671875,-0.222930908203125,2721.881062583333,0.1436730134359218,0.5364946005447896,-0.6828976204141516,2721.844814375,-2.852723124465335,0.02867826594796048,-1.399911502350256,-0.02635364793241024,-2.335654735565186,-0.3383758664131165,0.2462834715843201,-0.5783607363700867,0.1625686585903168,XArbitraryZVertical,-0.08185683766839563,0.6389892367020804,-0.7581580724093266,0.1009383512168571,0.004876195453107357,0.9854347109794617,-0.1699844300746918,0,0,0,-1,192.168.1.8,10.227.79.254,1,0
2015-02-08 21:20:35.856,148,1423459235.255534,37.77930540967526,-122.438810588906,61.82822,0.38,84.375,4,10,-9999,2721.943390583333,0.089324951171875,1.345809936523438,-0.1136474609375,2721.917310875,-0.110642359067887,2.069970719403861,-1.515016417763187,2721.917310875,-3.135520007820838,-0.200987770621131,-1.383066483539718,-0.1130877062678337,2.079289674758911,-1.485733270645142,-0.05139543116092682,0.2652349472045898,-0.0538373589515686,XArbitraryZVertical,-0.0792033071985082,0.6342639180964729,-0.7661851400953493,0.06630572695310512,-0.03725813329219818,0.9824304580688477,-0.1828722357749939,0,0,0,-1,192.168.1.8,10.227.79.254,1,0
2015-02-08 21:20:35.892,149,1423459235.255534,37.77930540967526,-122.438810588906,61.82822,0.38,84.375,4,10,-9999,2722.002284458334,-0.080413818359375,1.1795654296875,-0.0340728759765625,2721.98980825,-0.9555304812116343,0.641102769214775,0.368394540958443,2721.98980825,2.55144404872175,-0.6682788317054288,-1.433225542574409,-0.9579758048057556,0.6504218578338623,0.3976773321628571,0.007094318978488445,0.5438412427902222,0.07287804782390594,XArbitraryZVertical,-0.05615258362361215,0.665603562774577,-0.7441892772157124,-0.001050833630699133,-0.08497517555952072,0.9905520677566528,-0.1076375693082809,0,0,0,-1,192.168.1.8,10.227.79.254,1,0
2015-02-08 21:20:35.956,150,1423459235.255534,37.77930540967526,-122.438810588906,61.82822,0.38,84.375,4,10,-9999,2722.061163125,-0.1206512451171875,1.084625244140625,-0.065643310546875,2722.062305458333,-0.1809093317974097,0.4890780826003647,0.28766374198989,2722.026056375,2.623013866604469,-0.5688139395711106,-1.455975171039165,-0.1768482625484467,0.8650805354118347,0.5792303681373596,0.006580666173249483,0.1281362175941467,0.000459697243059054,XArbitraryZVertical,-0.03871827025795059,0.6709965565947511,-0.7404416898877503,-0.003258905087948855,-0.0617106705904007,0.9934152960777283,-0.0965290367603302,0,0,0,-1,192.168.1.8,10.227.79.254,1,0
2015-02-08 21:20:36.023,151,1423459235.255534,37.77930540967526,-122.438810588906,61.82822,0.38,84.375,4,10,-9999,2722.1200385,0.0428009033203125,0.80047607421875,0.118499755859375,2722.09855375,0.2901996039798634,-0.04878192063530843,0.09367402818244712,2722.09855375,2.781616149401291,-0.3789315365346602,-1.469778056490543,0.2877543568611145,-0.03946306183934212,0.1229562312364578,-0.04037653282284737,0.05075230449438095,0.06497549265623093,XArbitraryZVertical,-0.01958452628136755,0.6728819942852919,-0.7394645668335673,-0.00619858811410368,-0.03730596229434013,0.9949020147323608,-0.09369253367185593,0,0,0,-1,192.168.1.8,10.227.79.254,1,0
2015-02-08 21:20:36.069,152,1423459235.255534,37.77930540967526,-122.438810588906,61.82822,0.38,84.375,4,10,-9999,2722.179026375,-0.0027618408203125,0.709259033203125,0.2122344970703125,2722.171051,1.760833376912444,0.7116786686307469,0.5647906871268815,2722.134801916667,2.966684261014935,-0.2061225334604992,-1.451726592209368,0.9006081819534302,-0.3812321722507477,0.7237408757209778,0.07016465067863464,-0.2335201501846313,0.2645742297172546,XArbitraryZVertical,-0.01898295482659135,0.6644566383307396,-0.7470794657600549,0.003048777446169731,-0.02431199140846729,0.9929195642471313,-0.1162740439176559,0,0,0,-1,192.168.1.8,10.227.79.254,1,0
2015-02-08 21:20:36.162,153,1423459235.255534,37.77930540967526,-122.438810588906,61.82822,0.38,84.375,4,10,-9999,2722.237797083334,-0.1052703857421875,1.193359375,-0.3584442138671875,2722.243547291667,2.308438419208935,-0.2292523634850731,-1.106584179292602,2722.207299291667,3.118227013599692,-0.01419055187582832,-1.33853805387452,1.926874399185181,0.3402967751026154,-0.8911704421043396,-0.1249686554074287,-0.2684066593647003,0.2493633925914764,XArbitraryZVertical,0.001683600745919273,0.6204199228085676,-0.7842535451151884,-0.004760445880324173,-0.00326621113345027,0.9731490612030029,-0.2301525771617889,0,0,0,-1,192.168.1.8,10.227.79.254,1,0
2015-02-08 21:20:36.186,154,1423459235.255534,37.77930540967526,-122.438810588906,61.82822,0.38,84.375,4,10,-9999,2722.296730916667,-0.150543212890625,0.7119903564453125,-0.0771484375,2722.279796541667,0.8635403697864443,0.2834556811514558,-0.9395685589021354,2722.279796541667,2.937631491957194,-0.1865771634758502,-1.198344626688551,0.8611162304878235,0.2927850186824799,-0.910076379776001,-0.0521572045981884,-0.1981921195983887,0.4964396059513092,XArbitraryZVertical,-0.01936299781865053,0.5664210168141314,-0.8232883246557373,-0.03144265434486479,-0.0675022229552269,0.9314379692077637,-0.3575846254825592,0,0,0,-1,192.168.1.8,10.227.79.254,1,0
2015-02-08 21:20:36.257,155,1423459236.188958,37.77930084153803,-122.4388087448873,61.79568,0.36,84.375,4,10,-9999,2722.355554708333,0.0284881591796875,0.9888763427734375,-0.1998443603515625,2722.352292833334,-0.127783529108073,0.7717143090844032,-0.3849921598201438,2722.352292833334,2.724540326461684,-0.3570859359196935,-1.137917873258177,-0.1302076280117035,0.7810435891151428,-0.355500340461731,0.1423262804746628,-0.1141524240374565,0.2704349756240845,XArbitraryZVertical,-0.03661750025814468,0.5496791004035275,-0.8309176884942113,-0.07802461279513445,-0.1466292589902878,0.9077620506286621,-0.3930240869522095,0,0,0,-1,192.168.1.8,10.227.79.254,1,0
2015-02-08 21:20:36.304,156,1423459236.188958,37.77930084153803,-122.4388087448873,61.79568,0.36,84.375,4,10,-9999,2722.414432666667,-0.1886138916015625,1.212249755859375,-0.1421966552734375,2722.38854225,-0.4186590433725986,0.4030539846491702,0.2621282881937742,2722.38854225,2.727381244660525,-0.3290860472487067,-1.157752880606699,-0.4210831224918365,0.4123831391334534,0.2916198670864105,0.06249310076236725,0.3636986315250397,-0.1598445028066635,XArbitraryZVertical,-0.0232080575998266,0.556355955932153,-0.8265521071013044,-0.08210390129365024,-0.1297233253717422,0.9159034490585327,-0.3798588812351227,0,0,0,-1,192.168.1.8,10.227.79.254,1,0
2015-02-08 21:20:36.363,157,1423459236.188958,37.77930084153803,-122.4388087448873,61.79568,0.36,84.375,4,10,-9999,2722.473418291667,-0.190582275390625,0.941436767578125,-0.0999755859375,2722.461038416667,-0.0107045760015735,0.1305476240034662,-0.1292674424674652,2722.461038416667,2.739502733438256,-0.326318773612734,-1.137873053198849,-0.01312863547354937,0.1398766785860062,-0.0997762531042099,-0.1042564436793327,0.148760050535202,0.3947780132293701,XArbitraryZVertical,-0.02793891383672535,0.5482023157656375,-0.8320173531153586,-0.08025435936888069,-0.1344825774431229,0.9077432155609131,-0.3973872661590576,0,0,0,-1,192.168.1.8,10.227.79.254,1,0
2015-02-08 21:20:36.454,158,1423459236.188958,37.77930084153803,-122.4388087448873,61.79568,0.36,84.375,4,10,-9999,2722.532189125,-0.277008056640625,0.801544189453125,-0.4046783447265625,2722.53353575,-1.266928847468529,-0.7121500481436909,-0.2610867258914442,2722.497287791667,2.717903255551522,-0.3503892513355386,-1.154636727789464,-0.7292007207870483,-0.2503489553928375,-0.09230978786945343,-0.08602795004844666,-0.005270115099847317,0.1618689894676208,XArbitraryZVertical,-0.02978501687086797,0.5561193644264651,-0.8266595438604797,-0.08048666861207869,-0.1387645304203033,0.914648175239563,-0.3796882033348083,0,0,0,-1,192.168.1.8,10.227.79.254,1,0
2015-02-08 21:20:36.481,159,1423459236.188958,37.77930084153803,-122.4388087448873,61.79568,0.36,84.375,4,10,-9999,2722.591063041667,-0.2807769775390625,0.7952880859375,-0.473846435546875,2722.569783958334,-0.5808242484697035,-0.4333136199029776,-0.1800627128868735,2722.569783958334,2.616269736792551,-0.4796377614266241,-1.214423134468746,-0.5832482576370239,-0.4239847660064697,-0.1505721509456635,-0.1482575684785843,-0.250889003276825,-0.1705915331840515,XArbitraryZVertical,-0.04446461480719111,0.5858902597203393,-0.8055685755042985,-0.07625465070955885,-0.1609923094511032,0.937168300151825,-0.3095110058784485,0,0,0,-1,192.168.1.8,10.227.79.254,1,0
2015-02-08 21:20:36.555,160,1423459236.188958,37.77930084153803,-122.4388087448873,61.79568,0.36,84.375,4,10,-9999,2722.649940875,-0.3332672119140625,1.042373657226562,-0.349639892578125,2722.642281541667,0.2125625992496555,-0.5815635419883095,0.344566173421068,2722.642281541667,2.648163342460211,-0.4719290885480635,-1.200710197290813,0.2101386189460754,-0.5722348093986511,0.3740562796592712,-0.1715544611215591,0.1649022847414017,-0.02731220051646233,XArbitraryZVertical,-0.05291476096756913,0.5797586610217305,-0.8102315905229817,-0.06785788650271198,-0.1644288152456284,0.9322962164878845,-0.3221598565578461,0,0,0,-1,192.168.1.8,10.227.79.254,1,0
2015-02-08 21:20:36.599,161,1423459236.188958,37.77930084153803,-122.4388087448873,61.79568,0.36,84.375,4,10,-9999,2722.708925375,-0.19964599609375,1.42340087890625,0.08056640625,2722.678529541667,-0.2597290463677218,-0.6624392169201628,0.4294104910093575,2722.678529541667,2.684260558673974,-0.4666848240508205,-1.212865102160119,-0.2621530294418335,-0.6531105637550354,0.4589004218578339,-0.2427487671375275,0.179587334394455,0.1618271768093109,XArbitraryZVertical,-0.05936151999620001,0.5831288435950176,-0.8084821818539886,-0.05285379206710971,-0.15762659907341,0.9366235733032227,-0.3128739297389984,0,0,0,-1,192.168.1.8,10.227.79.254,1,0
2015-02-08 21:20:36.657,162,1423459236.188958,37.77930084153803,-122.4388087448873,61.79568,0.36,84.375,4,10,-9999,2722.767698291667,0.10888671875,0.681915283203125,-0.12744140625,2722.751026916667,-0.8937352902257627,-0.3008370683219669,-0.4225946628315176,2722.751026916667,2.60448323966284,-0.536280952050548,-1.221577680113607,-0.8961592316627502,-0.2915085554122925,-0.3931051790714264,0.3841766119003296,0.0624043270945549,0.3300329446792603,XArbitraryZVertical,-0.06251998425313211,0.5907848552430468,-0.8019247403269489,-0.06309688768850333,-0.1748260110616684,0.9396403431892395,-0.2941290140151978,0,0,0,-1,192.168.1.8,10.227.79.254,1,0
2015-02-08 21:20:36.752,163,1423459236.188958,37.77930084153803,-122.4388087448873,61.79568,0.36,84.375,4,10,-9999,2722.826579958334,0.134490966796875,1.029922485351562,-0.1469268798828125,2722.823524541667,0.1119419816798457,-0.0121599935373018,0.1750248110527706,2722.78727525,2.551310236762814,-0.6022494461604446,-1.244636642103264,-0.5659194588661194,-0.4176662862300873,0.1354666203260422,0.2148658186197281,-0.3205860555171967,0.1153697520494461,XArbitraryZVertical,-0.06864400450366141,0.6027187861546968,-0.7927059073358337,-0.06029436073765749,-0.1815101057291031,0.9472798109054565,-0.2640361189842224,0,0,0,-1,192.168.1.8,10.227.79.254,1,0
2015-02-08 21:20:36.775,164,1423459236.188958,37.77930084153803,-122.4388087448873,61.79568,0.36,84.375,4,10,-9999,2722.885570833334,0.0443115234375,0.9759063720703125,0.0057830810546875,2722.896020875,-0.5023507448411016,0.8347886163418399,0.2868525431218519,2722.8597725,2.598136428945096,-0.5532099049244306,-1.254663145982427,-0.09261101484298706,0.5536669492721558,0.610388457775116,0.529881477355957,0.2598214149475098,0.3450116515159607,XArbitraryZVertical,-0.0614249454763395,0.6032961241904963,-0.7932704879984291,-0.05461405936815996,-0.1633500903844833,0.9504446983337402,-0.2645215392112732,0,0,0,-1,192.168.1.8,10.227.79.254,1,0
2015-02-08 21:20:36.852,165,1423459236.188958,37.77930084153803,-122.4388087448873,61.79568,0.36,84.375,4,10,-9999,2722.944347041667,0.068603515625,0.90057373046875,-0.1042633056640625,2722.932270125,-0.06965204883382339,0.9527919526627059,0.09594597090839373,2722.932270125,2.621530571767703,-0.4723995383697078,-1.286335874805189,-0.07207588851451874,0.9621201157569885,0.125434473156929,0.1704072058200836,-0.09846982359886169,0.1152143627405167,XArbitraryZVertical,-0.03104295690120732,0.6116244657081814,-0.7879113094118848,-0.06440198968076094,-0.1276978552341461,0.9598132371902466,-0.2499036937952042,0,0,0,-1,192.168.1.8,10.227.79.254,1,0
2015-02-08 21:20:36.893,166,1423459236.188958,37.77930084153803,-122.4388087448873,61.79568,0.36,84.375,4,10,-9999,2723.003338666667,-0.174957275390625,1.003372192382812,-0.1526336669921875,2723.004766416667,0.06173234038414575,0.7618888425586648,0.1433419825124249,2722.968518125,2.642907148540051,-0.4174800793037052,-1.286083859184858,0.118240013718605,0.980621874332428,0.2334914654493332,0.1684664189815521,-0.01105776242911816,0.1763285100460052,XArbitraryZVertical,-0.01595285294697808,0.6093986456032238,-0.7893555991043288,-0.07277729991168522,-0.113885723054409,0.9597424268722534,-0.2567575871944427,0,0,0,-1,192.168.1.8,10.227.79.254,1,0
2015-02-08 21:20:36.958,167,1423459236.188958,37.77930084153803,-122.4388087448873,61.79568,0.36,84.375,4,10,-9999,2723.062128291667,-0.1229400634765625,1.005905151367188,-0.11444091796875,2723.0410155,-0.01185346369583368,0.913004059660813,-0.1832680935748928,2723.0410155,2.673596927512741,-0.3275347695174373,-1.285044271127555,-0.01427725236862898,0.9223320484161377,-0.1537802070379257,-0.1116940453648567,0.03504164144396782,0.1790338158607483,XArbitraryZVertical,0.01011270412615229,0.6053517757955453,-0.7910010378657789,-0.08811537239141939,-0.09068327397108078,0.9594499468803406,-0.2668939232826233,0,0,0,-1,192.168.1.8,10.227.79.254,1,0
2015-02-08 21:20:37.026,168,1423459236.188958,37.77930084153803,-122.4388087448873,61.79568,0.36,84.375,4,10,-9999,2723.121132125,-0.076904296875,0.9681854248046875,-0.1585845947265625,2723.113512,-0.2360444895292111,0.4268879448248344,-0.1253347524857451,2723.113512,2.616860659331882,-0.3401807108403594,-1.28831354207554,-0.2384682297706604,0.4362157881259918,-0.09584731608629227,0.02731488831341267,0.007559679914265871,0.1352345049381256,XArbitraryZVertical,0.02278948337513002,0.6067099013080155,-0.7874642458295632,-0.1062252166030816,-0.09300397336483002,0.9603663682937622,-0.2627674639225006,0,0,0,-1,192.168.1.8,10.227.79.254,1,0
2015-02-08 21:20:37.070,169,1423459236.188958,37.77930084153803,-122.4388087448873,61.79568,0.36,84.375,4,10,-9999,2723.180027666667,-0.14617919921875,1.022674560546875,-0.21307373046875,2723.186009458334,-0.7586869239800625,0.3410651818520499,-0.08431115273805555,2723.149761083333,2.596204438223738,-0.3469217925126697,-1.303598610211614,-0.6024581789970398,0.3233839869499207,0.03609056770801544,0.002979298820719123,-0.0008152275113388896,0.0306636355817318,XArbitraryZVertical,0.02878703918804518,0.6123899365815406,-0.782326147803316,-0.1100712060970018,-0.08977129310369492,0.9645145535469055,-0.2482997477054596,0,0,0,-1,192.168.1.8,10.227.79.254,1,0
2015-02-08 21:20:37.166,170,1423459236.188958,37.77930084153803,-122.4388087448873,61.79568,0.36,84.375,4,10,-9999,2723.238825208333,-0.24200439453125,1.15777587890625,-0.1422119140625,2723.222257625,-0.7790878031945055,0.2699023217318245,-0.01642451339084569,2723.222257625,2.510889913182615,-0.4073831208667065,-1.3516365595991,-0.7814915776252747,0.2792379856109619,0.01327386870980263,-0.119671143591404,0.1358122378587723,0.0223250687122345,XArbitraryZVertical,0.03995951349288515,0.6313436210554183,-0.765633505457049,-0.1166782102861433,-0.08613940328359604,0.9760804772377014,-0.199616938829422,0,0,0,-1,192.168.1.8,10.227.79.254,1,0
2015-02-08 21:20:37.188,171,1423459237.168635,37.77929614767226,-122.4388068170496,61.88553,0.34,84.375,4,10,-9999,2723.297825375,-0.21820068359375,1.101119995117188,-0.1496429443359375,2723.294754916667,-1.197496509424637,0.01931910317965281,0.1203122969859647,2723.25850675,2.457589602018341,-0.4499239504394384,-1.37991634707766,-0.955781877040863,0.2687184512615204,0.0847981795668602,-0.1625461876392365,0.1964307725429535,0.0438123494386673,XArbitraryZVertical,0.04600481226339992,0.6422325686917059,-0.7559139454885334,-0.1183849313730608,-0.08250995725393295,0.9818376898765564,-0.1708417683839798,0,0,0,-1,192.168.1.8,10.227.79.254,1,0
2015-02-08 21:20:37.254,172,1423459237.168635,37.77929614767226,-122.4388068170496,61.88553,0.34,84.375,4,10,-9999,2723.356601625,-0.0711669921875,0.9443359375,0.120513916015625,2723.33100325,-0.5909011174023453,-0.5564379486839569,0.1851333716023844,2723.33100325,2.287809263714654,-0.6209527008106979,-1.446110941115227,-0.5933048725128174,-0.5471025109291077,0.2148311287164688,-0.1633776128292084,-0.001468410016968846,0.0552944652736187,XArbitraryZVertical,0.05235309706250243,0.6683454118212523,-0.7335671175761537,-0.1115923283045988,-0.07235541939735413,0.992236852645874,-0.1011471301317215,0,0,0,-1,192.168.1.8,10.227.79.254,1,0
2015-02-08 21:20:37.305,173,1423459237.168635,37.77929614767226,-122.4388068170496,61.88553,0.34,84.375,4,10,-9999,2723.415588708333,-0.1127166748046875,0.9489898681640625,-0.0913238525390625,2723.403500666667,0.6458695612499078,-0.7503091518228913,0.2807717474048739,2723.403500666667,2.504243139003164,-0.4578699064509295,-1.455273120625046,0.6434658169746399,-0.7409738302230835,0.3104690909385681,0.05700992792844772,-0.05957301706075668,0.09140012413263321,XArbitraryZVertical,0.04201147737196789,0.6682351898729696,-0.7379386511769257,-0.08451812754447709,-0.05095218867063522,0.9933345913887024,-0.1033935323357582,0,0,0,-1,192.168.1.8,10.227.79.254,1,0
2015-02-08 21:20:37.364,174,1423459237.168635,37.77929614767226,-122.4388068170496,61.88553,0.34,84.375,4,10,-9999,2723.474361791667,-0.208953857421875,1.381317138671875,0.1378173828125,2723.475998083334,1.330297966658637,-1.305420846283989,-0.7155908522720733,2723.439748833333,2.610015247808193,-0.3885643634685121,-1.424443523881744,1.232637763023376,-1.341883420944214,-0.2588894069194794,-0.1707789152860641,0.05513932183384895,0.08268316835165024,XArbitraryZVertical,0.02743023702661513,0.6570903221772586,-0.7497341703158297,-0.07333869686916844,-0.05524952337145805,0.989309549331665,-0.1349597871303558,0,0,0,-1,192.168.1.8,10.227.79.254,1,0
2015-02-08 21:20:37.426,175,1423459237.168635,37.77929614767226,-122.4388068170496,61.88553,0.34,84.375,4,10,-9999,2723.533238583334,0.019134521484375,1.205108642578125,0.1139068603515625,2723.512246291667,1.422494206752199,-1.102763608392774,-0.5508455767108995,2723.512246291667,2.620249183165117,-0.4674187722560747,-1.320847934790541,1.420090556144714,-1.093428492546082,-0.5211488008499146,0.1023440957069397,0.6043627858161926,0.391933411359787,XArbitraryZVertical,-0.02290712191876003,0.6237504158706267,-0.7789235266842919,-0.06073567357251836,-0.1114535927772522,0.9689251780509949,-0.2208213657140732,0,0,0,-1,192.168.1.8,10.227.79.254,1,0
2015-02-08 21:20:37.482,176,1423459237.168635,37.77929614767226,-122.4388068170496,61.88553,0.34,84.375,4,10,-9999,2723.592229125,-0.158203125,0.7935943603515625,-0.2413482666015625,2723.584743708333,2.178659117179957,-0.447713598233145,-0.6225610427573164,2723.548494458334,2.657568347808251,-0.4669000327003812,-1.268879947428184,1.573526740074158,-0.8644731044769287,-0.3669639825820923,0.1312342137098312,0.1533553749322891,0.3591523468494415,XArbitraryZVertical,-0.04269101350683838,0.6044958798372171,-0.7935831971390721,-0.05466184998789991,-0.1338434666395187,0.9547684192657471,-0.2655244171619415,0,0,0,-1,192.168.1.8,10.227.79.254,1,0
2015-02-08 21:20:37.557,177,1423459237.168635,37.77929614767226,-122.4388068170496,61.88553,0.34,84.375,4,10,-9999,2723.651001958333,-0.3156585693359375,0.7585296630859375,-0.1302490234375,2723.657239875,1.662750485545371,-0.4723952425837814,-1.011215581708537,2723.620991833333,2.728581602315343,-0.4307836377982475,-1.117430129123758,2.159793138504028,-0.3790932297706604,-0.8120633363723755,-0.07166347652673721,-0.1441712975502014,0.2403246611356735,XArbitraryZVertical,-0.07119919246675578,0.5440049981895,-0.8339746360620152,-0.05895373900048009,-0.1828988939523697,0.8989778161048889,-0.3979784846305847,0,0,0,-1,192.168.1.8,10.227.79.254,1,0
2015-02-08 21:20:37.599,178,1423459237.168635,37.77929614767226,-122.4388068170496,61.88553,0.34,84.375,4,10,-9999,2723.709887791667,-0.1853790283203125,0.727142333984375,-0.2200469970703125,2723.693489333334,1.141802354180028,-0.8229854863906086,-0.8546451454294707,2723.693489333334,2.709776265753877,-0.4862643976479259,-0.9903194332024106,1.139398694038391,-0.8136506676673889,-0.8249494433403015,0.05122966691851616,-0.06869937479496002,0.2789348661899567,XArbitraryZVertical,-0.1081063078488271,0.4958698554523701,-0.8586930437462421,-0.07122056780690708,-0.2562925219535828,0.8362011909484863,-0.4848522245883942,0,0,0,-1,192.168.1.8,10.227.79.254,1,0
2015-02-08 21:20:37.658,179,1423459237.168635,37.77929614767226,-122.4388068170496,61.88553,0.34,84.375,4,10,-9999,2723.768775208333,-0.1354522705078125,0.5569915771484375,-0.3126373291015625,2723.7659855,0.1173809555741145,-0.7410671838919893,-0.2567250006581124,2723.7659855,2.685831172893374,-0.5638773796435531,-0.9368494999160857,0.1149774044752121,-0.7317324876785278,-0.2270297259092331,0.1956700086593628,-0.2320723086595535,0.2003525793552399,XArbitraryZVertical,-0.1438621805140017,0.4785274555770955,-0.8632714823924892,-0.07125654331024769,-0.3165806531906128,0.8056959509849548,-0.5006303191184998,0,0,0,-1,192.168.1.8,10.227.79.254,1,0
2015-02-08 21:20:37.726,180,1423459237.168635,37.77929614767226,-122.4388068170496,61.88553,0.34,84.375,4,10,-9999,2723.827668041667,-0.307525634765625,0.680694580078125,-0.43194580078125,2723.802234916667,-0.1821351848471731,-0.7317732843198308,0.09096905546325364,2723.802234916667,2.682260218289943,-0.59193327762976,-0.9386867418368249,-0.1845387071371078,-0.722438633441925,0.1206641122698784,0.127479150891304,-0.2422686964273453,0.1371738314628601,XArbitraryZVertical,-0.1548048680402536,0.480493319685361,-0.860719688183641,-0.06575135695801625,-0.3296733796596527,0.8067828416824341,-0.4903232455253601,0,0,0,-1,192.168.1.8,10.227.79.254,1,0
2015-02-08 21:20:37.777,181,1423459237.168635,37.77929614767226,-122.4388068170496,61.88553,0.34,84.375,4,10,-9999,2723.886659791667,-0.385986328125,0.9014434814453125,-0.36700439453125,2723.874731083334,-0.3093487974819692,-0.5705116897805896,0.5458300454299533,2723.874731083334,2.701480109083614,-0.6250896432642021,-0.9684965540990512,-0.3117522895336151,-0.5611771941184998,0.5755247473716736,-0.0286010354757309,0.002854153979569674,0.08534335345029831,XArbitraryZVertical,-0.1688684583118369,0.4917084088565599,-0.8530875938188887,-0.04413435985053369,-0.3315216600894928,0.8240348696708679,-0.4594125747680664,0,0,0,-1,192.168.1.8,10.227.79.254,1,0
2015-02-08 21:20:37.852,182,1423459237.168635,37.77929614767226,-122.4388068170496,61.88553,0.34,84.375,4,10,-9999,2723.94544825,-0.145751953125,1.271942138671875,-0.3015289306640625,2723.9472285,-0.5135232382462021,-0.1089773507543695,0.669098184909797,2723.910980541667,2.720310365616636,-0.6252394185331022,-1.000568094620818,-0.7521690726280212,-0.4054513275623322,0.9356770515441895,-0.07775281369686127,0.1844978481531143,0.1567112654447556,XArbitraryZVertical,-0.1684634345054923,0.5027615097573278,-0.8473089676008495,-0.0303059229246134,-0.3159544467926025,0.8417778015136719,-0.4377018809318542,0,0,0,-1,192.168.1.8,10.227.79.254,1,0
