loggingTime,loggingSample,locationTimestamp_since1970,locationLatitude,locationLongitude,locationAltitude,locationSpeed,locationCourse,locationVerticalAccuracy,locationHorizontalAccuracy,locationFloor,locationHeadingTimestamp_since1970,locationHeadingX,locationHeadingY,locationHeadingZ,locationTrueHeading,locationMagneticHeading,locationHeadingAccuracy,accelerometerTimestamp_sinceReboot,accelerometerAccelerationX,accelerometerAccelerationY,accelerometerAccelerationZ,gyroTimestamp_sinceReboot,gyroRotationX,gyroRotationY,gyroRotationZ,motionTimestamp_sinceReboot,motionYaw,motionRoll,motionPitch,motionRotationRateX,motionRotationRateY,motionRotationRateZ,motionUserAccelerationX,motionUserAccelerationY,motionUserAccelerationZ,motionAttitudeReferenceFrame,motionQuaternionX,motionQuaternionY,motionQuaternionZ,motionQuaternionW,motionGravityX,motionGravityY,motionGravityZ,motionMagneticFieldX,motionMagneticFieldY,motionMagneticFieldZ,motionMagneticFieldCalibrationAccuracy,activityTimestamp_sinceReboot,activity,activityActivityConfidence,activityActivityStartDate,pedometerStartDate,pedometerNumberofSteps,pedometerDistance,pedometerFloorAscended,pedometerFloorDescended,pedometerEndDate,altimeterTimestamp_sinceReboot,altimeterReset,altimeterRelativeAltitude,altimeterPressure,IP_en0,IP_pdp_ip0,deviceOrientation,state
2015-02-11 00:12:42.215,1,1423642362.06683,37.77922205164822,-122.4387281109788,61.19797,0,-1,6,10,-9999,1423642362.09774,-1.889080047607422,-41.86026000976562,-26.82666015625,174.6048278808594,160.8221130371094,25,321163.3761826667,0.12615966796875,-0.43988037109375,-0.849761962890625,321163.3467876667,-0.4556231866706804,-0.962984136470548,-0.01898407751452084,321163.3467876667,1.865427224986551,0.1776097138119353,0.4372149464446863,-0.4375223517417908,-0.9674772024154663,-0.02848807722330093,0.01261032279580832,-0.06368828564882278,-0.02544652111828327,XTrueNorthZVertical,0.05912885358917223,0.2250828312083726,0.7924893828880528,0.5637393804441478,0.1600581407546997,-0.4234180450439453,-0.8916829824447632,-2.988439559936523,-40.77897262573242,-26.51931571960449,1,321163.1934046667,unknown,1,2015-02-11 00:12:41.985,null,0,0,0,0,null,0,0.09265327,101.1223,192.168.1.3,10.42.194.158,5,0
2015-02-11 00:12:42.310,2,1423642362.06683,37.77922205164822,-122.4387281109788,61.19797,0,-1,6,10,-9999,1423642362.215748,-2.585216522216797,-41.30524444580078,-27.83209228515625,174.4525756835938,160.6698608398438,25,321163.4753916667,0.0768280029296875,-0.44183349609375,-0.865264892578125,321163.4467366667,0.1237863906279731,-0.2281170579123723,0.05421397031074305,321163.4467366667,1.872283532196904,0.1245290038066608,0.425092814452136,0.1418910175561905,-0.2326122671365738,0.04471205547451973,-0.0166411567479372,-0.006951962132006884,0.0246582068502903,XTrueNorthZVertical,0.07584939939520907,0.2056061890821574,0.7934125097702804,0.5678640385232264,0.1131529957056046,-0.4124053418636322,-0.9039459228515625,-4.58954381942749,-40.21427154541016,-27.14549446105957,1,321163.1934046667,unknown,1,2015-02-11 00:12:41.985,null,0,0,0,0,null,0,0.09265327,101.1223,192.168.1.3,10.42.194.158,5,0
2015-02-11 00:12:42.408,3,1423642362.06683,37.77922205164822,-122.4387281109788,61.19797,0,-1,6,10,-9999,1423642362.334529,-3.803455352783203,-41.06240844726562,-27.99981689453125,176.2305145263672,162.4477996826172,25,321163.5745776667,0.06610107421875,-0.40765380859375,-0.8919677734375,321163.5466866667,-0.05868461883265907,-0.06361839106813987,-0.007220894979640846,321163.5466866667,1.878349418382387,0.1059637145464345,0.4137611412129841,-0.0405767410993576,-0.06812559068202972,-0.01671572029590607,-0.0246817022562027,0.01780909486114979,-0.008206394501030445,XTrueNorthZVertical,0.07928509444818019,0.1961481957319276,0.795175950336542,0.5682736844173017,0.0968405157327652,-0.4020559191703796,-0.9104795455932617,-5.301915168762207,-39.99787139892578,-27.33475875854492,1,321163.1934046667,unknown,1,2015-02-11 00:12:41.985,null,0,0,0,0,null,0,0.09265327,101.1223,192.168.1.3,10.42.194.158,5,0
2015-02-11 00:12:42.508,4,1423642362.06683,37.77922205164822,-122.4387281109788,61.19797,0,-1,6,10,-9999,1423642362.452114,-5.021690368652344,-41.37461853027344,-28.4354248046875,175.7163543701172,161.9336395263672,25,321163.6737756667,0.085418701171875,-0.3664398193359375,-0.9008941650390625,321163.6466406667,0.2504434025949426,0.1375338944910711,-0.06590311696731885,321163.6466406667,1.880865670679332,0.1010639420501992,0.4162991329806367,0.26854407787323,0.1330209672451019,-0.07539583742618561,-0.0279439240694046,0.04370645061135292,0.0643591433763504,XTrueNorthZVertical,0.08172953504886989,0.1958515040390549,0.7955202957678806,0.5675473053174549,0.0922749787569046,-0.4043784439563751,-0.9099249243736267,-5.604756355285645,-39.8828239440918,-27.44223785400391,1,321163.1934046667,unknown,1,2015-02-11 00:12:41.985,null,0,0,0,0,null,0,0.09265327,101.1223,192.168.1.3,10.42.194.158,5,0
2015-02-11 00:12:42.618,5,1423642362.06683,37.77922205164822,-122.4387281109788,61.19797,0,-1,6,10,-9999,1423642362.570901,-3.768653869628906,-40.54206085205078,-28.36846923828125,176.5817108154297,162.7989959716797,25,321163.7729656667,0.0968017578125,-0.406829833984375,-0.9193572998046875,321163.7465826667,-0.5230006296174671,-0.2267071804312843,-0.547095845896068,321163.6466406667,1.880865670679332,0.1010639420501992,0.4162991329806367,0.26854407787323,0.1330209672451019,-0.07539583742618561,-0.0279439240694046,0.04370645061135292,0.0643591433763504,XTrueNorthZVertical,0.08172953504886989,0.1958515040390549,0.7955202957678806,0.5675473053174549,0.0922749787569046,-0.4043784439563751,-0.9099249243736267,-5.604756355285645,-39.8828239440918,-27.44223785400391,1,321163.1934046667,unknown,1,2015-02-11 00:12:41.985,null,0,0,0,0,null,0,0.09265327,101.1223,192.168.1.3,10.42.194.158,5,0
2015-02-11 00:12:42.707,6,1423642362.06683,37.77922205164822,-122.4387281109788,61.19797,0,-1,6,10,-9999,1423642362.689571,-1.401786804199219,-41.86026000976562,-28.033203125,180.58203125,166.79931640625,25,321163.8722160417,0.137908935546875,-0.3954620361328125,-0.9386444091796875,321163.8466090417,0.6579717641915549,0.1372827584002766,0.002152899425220056,321163.7465826667,1.846348159837128,0.1138170703946298,0.4140136287584548,-0.5049138069152832,-0.2313028424978256,-0.5565956830978394,-0.05148600786924362,-0.06922475248575211,-0.007676805835217237,XTrueNorthZVertical,0.07940197399340576,0.1972316064685067,0.7862829494805675,0.5801328783798819,0.1039762422442436,-0.402287095785141,-0.9095900654792786,-4.399913311004639,-40.25224304199219,-27.12060165405273,1,321163.1934046667,unknown,1,2015-02-11 00:12:41.985,null,0,0,0,0,null,0,0.09265327,101.1223,192.168.1.3,10.42.194.158,5,0
2015-02-11 00:12:42.806,7,1423642362.06683,37.77922205164822,-122.4387281109788,61.19797,0,-1,6,10,-9999,1423642362.689571,-1.401786804199219,-41.86026000976562,-28.033203125,180.58203125,166.79931640625,25,321163.9714010417,0.090606689453125,-0.3866424560546875,-0.8771514892578125,321163.9465340417,-0.563903854483885,-0.6778136458931903,-0.6445749986440203,321163.8466090417,1.79927333797188,0.1460097679162203,0.4267132063666349,0.6760562658309937,0.1326879560947418,-0.007347386330366135,0.0215004738420248,0.008363394998013973,-0.04668203368782997,XTrueNorthZVertical,0.07550589327862217,0.2097058561874118,0.7729109191419672,0.5940799931973867,0.1324454545974731,-0.4138809740543365,-0.9006446003913879,-2.383138656616211,-40.58191299438477,-26.88044357299805,1,321163.1934046667,unknown,1,2015-02-11 00:12:41.985,null,0,0,0,0,null,0,0.09265327,101.1223,192.168.1.3,10.42.194.158,5,0
2015-02-11 00:12:42.905,8,1423642362.06683,37.77922205164822,-122.4387281109788,61.19797,0,-1,6,10,-9999,1423642362.808994,-1.436603546142578,-42.10308074951172,-26.52490234375,181.8565979003906,168.0738830566406,25,321164.0705970417,0.11322021484375,-0.3688201904296875,-0.9368133544921875,321164.0464980417,-1.097037812049104,-0.05157957136043667,-0.3014804880413301,321163.9465340417,1.790031015209739,0.1024701996264722,0.4328615894697561,-0.5458196401596069,-0.6824081540107727,-0.6540752053260803,0.01448899880051613,0.1752227395772934,0.0003279911179561168,XTrueNorthZVertical,0.09512330818500964,0.1986148005468622,0.7678955622193357,0.6015314921539068,0.09285657852888107,-0.4194701910018921,-0.903007447719574,-3.247915744781494,-41.34311676025391,-25.59935569763184,1,321163.1934046667,unknown,1,2015-02-11 00:12:41.985,null,0,0,0,0,null,0,0.09265327,101.1223,192.168.1.3,10.42.194.158,5,0
2015-02-11 00:12:43.023,9,1423642362.06683,37.77922205164822,-122.4387281109788,61.19797,0,-1,6,10,-9999,1423642362.931997,1.13909912109375,-39.60542297363281,-30.68109130859375,188.3594818115234,174.5767669677734,25,321164.1697520417,0.08416748046875,-0.257904052734375,-0.9857025146484375,321164.1464500417,0.03041569649368597,0.3929177272242196,0.1668465096612463,321164.1464500417,1.723715600799754,0.1027750522499859,0.2976804029671738,0.04849142953753471,0.388327568769455,0.1573438197374344,0.006639006547629833,0.04792683199048042,-0.0007311615045182407,XTrueNorthZVertical,0.05785674425834234,0.1454826848288116,0.754629009083042,0.6371989151705739,0.09808206558227539,-0.2933034300804138,-0.9509747624397278,-1.081036329269409,-37.55424499511719,-31.04254341125488,1,321163.1934046667,unknown,1,2015-02-11 00:12:41.985,null,0,0,0,0,null,0,0.09265327,101.1223,192.168.1.3,10.42.194.158,5,0
2015-02-11 00:12:43.104,10,1423642363.056409,37.77922205164822,-122.4387281109788,61.16891,0,-1,6,10,-9999,1423642363.045754,0.8606491088867188,-38.49535369873047,-31.9547119140625,186.8025207519531,173.0198059082031,25,321164.2689540417,0.08782958984375,-0.2225189208984375,-0.94158935546875,321164.2463960417,-0.4418229522179988,-0.5109668699158351,-0.4713816434728972,321164.1464500417,1.723715600799754,0.1027750522499859,0.2976804029671738,0.04849142953753471,0.388327568769455,0.1573438197374344,0.006639006547629833,0.04792683199048042,-0.0007311615045182407,XTrueNorthZVertical,0.05785674425834234,0.1454826848288116,0.754629009083042,0.6371989151705739,0.09808206558227539,-0.2933034300804138,-0.9509747624397278,-1.081036329269409,-37.55424499511719,-31.04254341125488,1,321163.1934046667,unknown,1,2015-02-11 00:12:41.985,null,0,0,0,0,null,0,0.09265327,101.1223,192.168.1.3,10.42.194.158,5,0
2015-02-11 00:12:43.202,11,1423642363.056409,37.77922205164822,-122.4387281109788,61.16891,0,-1,6,10,-9999,1423642363.165825,0.7562408447265625,-37.55873107910156,-33.9322509765625,188.2220916748047,174.4393768310547,25,321164.3681640417,0.0810089111328125,-0.36614990234375,-0.98199462890625,321164.3463450417,0.1912533157873864,-0.1528199065159079,0.5399447257369873,321164.3463450417,1.707595189305629,0.07276204547540156,0.2573155189371794,0.2093206644058228,-0.157413125038147,0.5304425954818726,-0.008887773379683495,-0.1088721677660942,-0.0331629142165184,XTrueNorthZVertical,0.05706475281638123,0.1203525642142271,0.7501233137062204,0.6477452445158115,0.07030440121889114,-0.2544853687286377,-0.9645177721977234,-0.7058141231536865,-36.13820266723633,-32.69038772583008,1,321163.1934046667,unknown,1,2015-02-11 00:12:41.985,null,0,0,0,0,null,0,0.09265327,101.1223,192.168.1.3,10.42.194.158,5,0
2015-02-11 00:12:43.302,12,1423642363.056409,37.77922205164822,-122.4387281109788,61.16891,0,-1,6,10,-9999,1423642363.283383,-1.64544677734375,-38.14845275878906,-33.630615234375,185.4836883544922,171.7009735107422,25,321164.4673500417,0.0562744140625,-0.2273712158203125,-0.9794158935546875,321164.4462740417,-0.3481941977740829,-0.1721541897137742,0.1973253230727671,321164.3463450417,1.707595189305629,0.07276204547540156,0.2573155189371794,0.2093206644058228,-0.157413125038147,0.5304425954818726,-0.008887773379683495,-0.1088721677660942,-0.0331629142165184,XTrueNorthZVertical,0.05706475281638123,0.1203525642142271,0.7501233137062204,0.6477452445158115,0.07030440121889114,-0.2544853687286377,-0.9645177721977234,-0.7058141231536865,-36.13820266723633,-32.69038772583008,1,321163.1934046667,unknown,1,2015-02-11 00:12:41.985,null,0,0,0,0,null,0,0.09265327,101.1223,192.168.1.3,10.42.194.158,5,0
2015-02-11 00:12:43.419,13,1423642363.056409,37.77922205164822,-122.4387281109788,61.16891,0,-1,6,10,-9999,1423642363.40232,-2.724464416503906,-37.07307434082031,-34.20037841796875,184.1125793457031,170.3298645019531,25,321164.5665410417,0.05029296875,-0.274658203125,-0.991973876953125,321164.5462420417,0.005120193511786344,0.4069760219865299,0.2734890670879432,321164.4462740417,1.763101876831125,0.04702283984907171,0.2635570402941012,-0.3301272094249725,-0.1767473220825195,0.1878234297037125,-0.01959503069519997,-0.01296687033027411,-0.01899621821939945,XTrueNorthZVertical,0.06555436731449769,0.1161960192574802,0.766788150311193,0.6278829953601502,0.04538238421082497,-0.2605164051055908,-0.9644021987915039,-3.462534666061401,-36.44776916503906,-32.16675567626953,1,321163.1934046667,unknown,1,2015-02-11 00:12:41.985,null,0,0,0,0,null,0,0.09265327,101.1223,192.168.1.3,10.42.194.158,5,0
2015-02-11 00:12:43.500,14,1423642363.056409,37.77922205164822,-122.4387281109788,61.16891,0,-1,6,10,-9999,1423642363.40232,-2.724464416503906,-37.07307434082031,-34.20037841796875,184.1125793457031,170.3298645019531,25,321164.6657300417,0.053741455078125,-0.2249908447265625,-0.94842529296875,321164.6461980417,-0.08482674072509488,0.2073308192881948,0.1556543088640792,321164.6461980417,1.796679554022305,0.05877051919487447,0.2338607268629967,-0.06675401329994202,0.2027282267808914,0.14615698158741,-0.02019629254937172,-0.02845799550414085,0.01769983023405075,XTrueNorthZVertical,0.04981216058695824,0.1094029436248158,0.7787516049580891,0.6157074757094224,0.05713782086968422,-0.2317348718643188,-0.9710994958877563,-4.121976852416992,-35.28719711303711,-33.36093902587891,1,321163.1934046667,unknown,1,2015-02-11 00:12:41.985,null,0,0,0,0,null,0,0.09265327,101.1223,192.168.1.3,10.42.194.158,5,0
2015-02-11 00:12:43.600,15,1423642363.056409,37.77922205164822,-122.4387281109788,61.16891,0,-1,6,10,-9999,1423642363.520844,-1.88909912109375,-36.65680694580078,-35.20587158203125,183.9662628173828,170.1835479736328,25,321164.7649300417,0.060791015625,-0.23583984375,-0.9830474853515625,321164.7461410417,-0.1525053871911696,-0.1504957658325958,0.007003048402472365,321164.6461980417,1.796679554022305,0.05877051919487447,0.2338607268629967,-0.06675401329994202,0.2027282267808914,0.14615698158741,-0.02019629254937172,-0.02845799550414085,0.01769983023405075,XTrueNorthZVertical,0.04981216058695824,0.1094029436248158,0.7787516049580891,0.6157074757094224,0.05713782086968422,-0.2317348718643188,-0.9710994958877563,-4.121976852416992,-35.28719711303711,-33.36093902587891,1,321163.1934046667,unknown,1,2015-02-11 00:12:41.985,null,0,0,0,0,null,0,0.04431343,101.1228,192.168.1.3,10.42.194.158,5,0
2015-02-11 00:12:43.699,16,1423642363.056409,37.77922205164822,-122.4387281109788,61.16891,0,-1,6,10,-9999,1423642363.639935,-2.202354431152344,-36.27522277832031,-35.2393798828125,182.8274383544922,169.0447235107422,25,321164.8641150417,0.08770751953125,-0.2671051025390625,-0.9967041015625,321164.8460900417,0.1143137929466702,0.5366333512375827,0.4169157381230327,321164.7461410417,1.809962684465612,0.07011512005794684,0.2281275065427092,-0.1344422101974487,-0.1551862955093384,-0.002500108676031232,0.001688429620116949,-0.00199547316879034,-0.02578412555158138,XTrueNorthZVertical,0.04287635063675457,0.110961845179731,0.7832874686707676,0.6101719775433069,0.06824260205030441,-0.2261539399623871,-0.9716981649398804,-3.99640679359436,-34.92346954345703,-33.75662231445312,1,321163.1934046667,unknown,1,2015-02-11 00:12:41.985,null,0,0,0,0,null,0,0.04431343,101.1228,192.168.1.3,10.42.194.158,5,0
2015-02-11 00:12:43.801,17,1423642363.056409,37.77922205164822,-122.4387281109788,61.16891,0,-1,6,10,-9999,1423642363.740508,-1.854297637939453,-36.62212371826172,-34.9041748046875,182.2099609375,168.42724609375,25,321164.9632870417,0.0882110595703125,-0.2286376953125,-0.973785400390625,321164.9460370417,-0.107819674628512,-0.01272032263065447,-0.04229632443263846,321164.8460900417,1.816476209109178,0.08512763318549729,0.2348117290021765,0.1323589682579041,0.5319476127624512,0.4074095785617828,0.0160480085760355,0.03299862891435623,-0.01874134503304958,XTrueNorthZVertical,0.03867235943485796,0.1182635467142224,0.78535038653216,0.6064181443471871,0.08269161731004715,-0.2326598912477493,-0.969036340713501,-3.808382034301758,-34.99158096313477,-33.70778656005859,1,321163.1934046667,unknown,1,2015-02-11 00:12:41.985,null,0,0,0,0,null,0,0.04431343,101.1228,192.168.1.3,10.42.194.158,5,0
2015-02-11 00:12:43.897,18,1423642363.056409,37.77922205164822,-122.4387281109788,61.16891,0,-1,6,10,-9999,1423642363.85856,-1.749889373779297,-36.93433380126953,-35.205810546875,181.7208862304688,167.9381713867188,25,321165.0624850417,0.064056396484375,-0.2695770263671875,-0.97344970703125,321165.0460030417,-0.1166608368153571,0.1996902101207575,0.9892194690011367,321164.9460370417,1.844702861413246,0.09392488324691722,0.2316189518743531,-0.08976220339536667,-0.01741212420165539,-0.05179901421070099,-0.03703736886382103,-0.01699797064065933,-0.009463810361921787,XTrueNorthZVertical,0.03254388100006114,0.1201577164752664,0.7940884457851667,0.5949172820962478,0.09128236770629883,-0.2295535504817963,-0.9690060615539551,-4.184922695159912,-34.74240112304688,-33.92021942138672,1,321163.1934046667,unknown,1,2015-02-11 00:12:41.985,null,0,0,0,0,null,0,0.04431343,101.1228,192.168.1.3,10.42.194.158,5,0
2015-02-11 00:12:43.996,19,1423642363.056409,37.77922205164822,-122.4387281109788,61.16891,0,-1,6,10,-9999,1423642363.977592,-4.325599670410156,-36.44866180419922,-35.27276611328125,175.9308166503906,162.1481018066406,25,321165.1616830417,0.097900390625,-0.21954345703125,-0.985137939453125,321165.1459360417,0.1471902502875894,-0.04042678534740284,0.01665221366404746,321165.0460030417,1.891345031121102,0.09665857738840289,0.233945708875365,-0.09860321879386902,0.1949916630983353,0.979719340801239,-0.02124734967947006,-0.03931587934494019,-0.007168937940150499,XTrueNorthZVertical,0.02930968853886004,0.1226035252947222,0.8077085017913417,0.5759481809698096,0.09387918561697006,-0.2318175435066223,-0.9682186245918274,-4.860547542572021,-34.57378005981445,-34.00232696533203,1,321163.1934046667,unknown,1,2015-02-11 00:12:41.985,null,0,0,0,0,null,0,0.04431343,101.1228,192.168.1.3,10.42.194.158,5,0
2015-02-11 00:12:44.096,20,1423642364.060763,37.77922205164822,-122.4387281109788,61.15482,0,-1,6,10,-9999,1423642363.977592,-4.325599670410156,-36.44866180419922,-35.27276611328125,175.9308166503906,162.1481018066406,25,321165.2608730417,0.0855255126953125,-0.223297119140625,-0.9618072509765625,321165.2458850417,-0.04542021239130141,-0.1585313217896918,-0.2160638571347827,321165.1459360417,1.91378964002643,0.1076947398141287,0.2491550805091938,0.1652474999427795,-0.04512524232268333,0.007152264006435871,-0.01884046569466591,-0.008709581568837166,-0.02991692908108234,XTrueNorthZVertical,0.02782203528645629,0.1321842192312536,0.8137489248989681,0.5653016602221346,0.1041676178574562,-0.2465852200984955,-0.9635065197944641,-5.520264625549316,-34.6990852355957,-33.77320861816406,1,321163.1934046667,unknown,1,2015-02-11 00:12:41.985,null,0,0,0,0,null,0,0.04431343,101.1228,192.168.1.3,10.42.194.158,5,0
2015-02-11 00:12:44.194,21,1423642364.060763,37.77922205164822,-122.4387281109788,61.15482,0,-1,6,10,-9999,1423642364.098681,-3.455432891845703,-37.45466613769531,-35.70855712890625,177.9343872070312,164.1516723632812,25,321165.3600710417,0.0745697021484375,-0.1425018310546875,-1.009918212890625,321165.3458350417,-0.8833979641385111,-0.5574813751990499,-0.1193602168962614,321165.2458850417,1.892327669804684,0.09263471333310599,0.2502523840061929,-0.02736257389187813,-0.1632335633039474,-0.2255623042583466,-0.03507066145539284,-0.01507734041661024,0.002064754022285342,XTrueNorthZVertical,0.03564007421125229,0.1279913878329484,0.8073522588318502,0.5749176751460214,0.08962083607912064,-0.2476484924554825,-0.9646959900856018,-5.545312881469727,-34.94191360473633,-33.51777648925781,1,321163.1934046667,unknown,1,2015-02-11 00:12:41.985,null,0,0,0,0,null,0,0.04431343,101.1228,192.168.1.3,10.42.194.158,5,0
2015-02-11 00:12:44.302,22,1423642364.060763,37.77922205164822,-122.4387281109788,61.15482,0,-1,6,10,-9999,1423642364.215991,-3.873119354248047,-34.54074096679688,-37.31744384765625,177.0823059082031,163.2995910644531,25,321165.4592720417,0.0241546630859375,-0.08660888671875,-0.9976806640625,321165.4457710417,-0.7634587760212665,-0.8943257130394333,-0.2909769807020576,321165.3458350417,1.902170370953973,0.08688057767693677,0.190674364473101,-0.8653444647789001,-0.5621857643127441,-0.1288580894470215,-0.03864416852593422,-0.09261392802000046,-0.0128850843757391,XTrueNorthZVertical,0.02004509106614429,0.1025259079742495,0.8119860598883677,0.5742519345640508,0.08519873023033142,-0.1895210742950439,-0.9781732559204102,-5.544692516326904,-33.32716369628906,-35.12386703491211,1,321163.1934046667,unknown,1,2015-02-11 00:12:41.985,null,0,0,0,0,null,0,0.04431343,101.1228,192.168.1.3,10.42.194.158,5,0
2015-02-11 00:12:44.392,23,1423642364.060763,37.77922205164822,-122.4387281109788,61.15482,0,-1,6,10,-9999,1423642364.334384,-6.13555908203125,-31.80024719238281,-40.09942626953125,179.4008331298828,165.6181182861328,25,321165.5584630417,-0.002960205078125,-0.1555633544921875,-1.021072387695312,321165.5457220417,0.3645851553351936,0.01122282714970292,-0.03840757660890476,321165.4457710417,1.868760938752368,0.02032688782962561,0.1016726020435796,-0.7454056739807129,-0.8990300893783569,-0.3004746437072754,0.01650738157331944,-0.08749783784151077,-0.01588303036987782,XTrueNorthZVertical,0.02203523888388604,0.04689681056408353,0.8034575078956855,0.593103012720123,0.02022052370011806,-0.1014975234866142,-0.9946302771568298,-6.963556289672852,-30.19268226623535,-37.61701965332031,1,321163.1934046667,unknown,1,2015-02-11 00:12:41.985,null,0,0,0,0,null,0,0.04431343,101.1228,192.168.1.3,10.42.194.158,5,0
2015-02-11 00:12:44.494,24,1423642364.060763,37.77922205164822,-122.4387281109788,61.15482,0,-1,6,10,-9999,1423642364.451604,-6.936119079589844,-32.73686218261719,-39.3284912109375,179.5986022949219,165.8158874511719,25,321165.6576740417,-0.0054168701171875,-0.090301513671875,-0.9703216552734375,321165.6456810417,-0.338952229843181,-0.4546231696813556,0.0941976056527567,321165.5457220417,1.864941442662973,-0.009922959108089005,0.1180129413344038,0.3826378881931305,0.006518594920635223,-0.04790506139397621,0.01353114657104015,-0.002545831026509404,0.001861017663031816,XTrueNorthZVertical,0.03911585364692851,0.04440855065907012,0.8015126816658014,0.5950422380269431,-0.009853778406977654,-0.117739200592041,-0.9929956793785095,-8.312145233154297,-30.24081230163574,-37.30323028564453,1,321163.1934046667,unknown,1,2015-02-11 00:12:41.985,null,0,0,0,0,null,0,0.04431343,101.1228,192.168.1.3,10.42.194.158,5,0
2015-02-11 00:12:44.594,25,1423642364.060763,37.77922205164822,-122.4387281109788,61.15482,0,-1,6,10,-9999,1423642364.57027,-8.502422332763672,-32.285888671875,-38.82586669921875,179.2393646240234,165.4566497802734,25,321165.7568900417,-0.03173828125,-0.1233062744140625,-1.00347900390625,321165.7456290417,0.3611147901187114,0.5412094609386658,0.2019437770351825,321165.6456810417,1.871991167499648,-0.03178894450252676,0.1141483494020924,-0.3208929300308228,-0.4593218863010406,0.08469925820827484,0.02066671289503574,-0.01094679068773985,-0.02985219657421112,XTrueNorthZVertical,0.04660000666723631,0.03651485004084652,0.803239604773527,0.5927067198149197,-0.03157674893736839,-0.1139006242156029,-0.9929901957511902,-8.944841384887695,-30.52847290039062,-36.92060852050781,1,321163.1934046667,unknown,1,2015-02-11 00:12:41.985,null,0,0,0,0,null,0,0.04431343,101.1228,192.168.1.3,10.42.194.158,5,0
2015-02-11 00:12:44.697,26,1423642364.060763,37.77922205164822,-122.4387281109788,61.15482,0,-1,6,10,-9999,1423642364.688518,-7.493019104003906,-32.32058715820312,-39.4627685546875,177.558349609375,163.775634765625,25,321165.8560800417,0.0138397216796875,-0.1161651611328125,-1.012496948242188,321165.8455740417,-0.425731866595631,0.2355142541561764,0.270689552150052,321165.7456290417,1.881296997092019,-0.03448392619179308,0.1109378632613684,0.3791680037975311,0.5364270210266113,0.1924376338720322,-0.01386106945574284,0.01142150722444057,0.01584485545754433,XTrueNorthZVertical,0.04657260529913838,0.03464201211816164,0.8060146328983541,0.5890427389172822,-0.03426515311002731,-0.1107104495167732,-0.9932618737220764,-9.753807067871094,-29.99697494506836,-37.15069198608398,1,321163.1934046667,unknown,1,2015-02-11 00:12:41.985,null,0,0,0,0,null,0,0.04431343,101.1228,192.168.1.3,10.42.194.158,5,0
2015-02-11 00:12:44.791,27,1423642364.060763,37.77922205164822,-122.4387281109788,61.15482,0,-1,6,10,-9999,1423642364.688518,-7.493019104003906,-32.32058715820312,-39.4627685546875,177.558349609375,163.775634765625,25,321165.9552610417,0.0319061279296875,-0.0605926513671875,-1.02069091796875,321165.9455280417,-0.5679233635171417,0.1515514428887032,0.1443688974287595,321165.8455740417,1.90759044972799,0.007872345392059105,0.1106167177765542,-0.407674252986908,0.230732336640358,0.2611837983131409,0.01411798782646656,-0.003820765763521194,-0.007195447105914354,XTrueNorthZVertical,0.02877891021372418,0.04736105587770104,0.8144896748365964,0.5775251402173088,0.00782415084540844,-0.110391266644001,-0.9938573837280273,-8.714866638183594,-30.28336906433105,-37.17657852172852,1,321163.1934046667,unknown,1,2015-02-11 00:12:41.985,null,0,0,0,0,null,0,0.04431343,101.1228,192.168.1.3,10.42.194.158,5,0
2015-02-11 00:12:44.891,28,1423642364.060763,37.77922205164822,-122.4387281109788,61.15482,0,-1,6,10,-9999,1423642364.806784,-7.14495849609375,-29.75355529785156,-41.40679931640625,175.8227996826172,162.0400848388672,25,321166.0544760417,0.0280914306640625,-0.043670654296875,-1.020523071289062,321166.0454670417,-0.2170268561849553,0.1544439021486382,0.1699592123433309,321165.9455280417,1.921120156356743,0.02724395347901567,0.06332864896152954,-0.5498628616333008,0.1467666774988174,0.1348643004894257,-0.000238955719396472,-0.01912639290094376,-0.01545172091573477,XTrueNorthZVertical,0.0069834356428971,0.03374464165075673,0.8192729937736457,0.5723672822105049,0.02718597650527954,-0.06328632682561874,-0.9976250529289246,-8.298866271972656,-28.3115177154541,-38.79066848754883,1,321163.1934046667,unknown,1,2015-02-11 00:12:41.985,null,0,0,0,0,null,0,0.01661682,101.1232,192.168.1.3,10.42.194.158,5,0
2015-02-11 00:12:44.990,29,1423642364.060763,37.77922205164822,-122.4387281109788,61.15482,0,-1,6,10,-9999,1423642364.92742,-6.727272033691406,-27.94970703125,-41.5408935546875,175.1488342285156,161.3661193847656,25,321166.1536760417,0.0339202880859375,-0.034149169921875,-1.002578735351562,321166.1454300417,-0.08765288727388698,-0.09343674052932106,-0.06892101111459664,321166.0454670417,1.937839135532115,0.04165671004773054,0.03082985981686358,-0.1989713162183762,0.1496556997299194,0.1604554653167725,-0.01530346274375916,-0.01495139114558697,-0.03344679623842239,XTrueNorthZVertical,-0.008439452884791343,0.024493435655662,0.8241795352525786,0.5657357635866933,0.04162487387657166,-0.03082497604191303,-0.9986577033996582,-8.123320579528809,-26.7465705871582,-39.92195129394531,1,321163.1934046667,unknown,1,2015-02-11 00:12:41.985,null,0,0,0,0,null,0,0.01661682,101.1232,192.168.1.3,10.42.194.158,5,0
2015-02-11 00:12:45.098,30,1423642365.062416,37.77922205164822,-122.4387281109788,61.17245,0,-1,6,10,-9999,1423642365.044702,-6.065940856933594,-28.5394287109375,-42.58001708984375,175.549560546875,161.766845703125,25,321166.2528680417,0.0554046630859375,-0.0433807373046875,-1.005462646484375,321166.2453740417,-0.09599603833688722,7.430219441321074e-05,-0.009304552216518842,321166.1454300417,1.944503446141066,0.05342434330070606,0.03207201452535695,-0.06959494948387146,-0.09823116660118103,-0.07842293381690979,-0.01554493419826031,0.0007097049965523183,-0.01416255999356508,XTrueNorthZVertical,-0.01303124456235938,0.02828995752177528,0.8259969208133028,0.5628134371715925,0.05337147042155266,-0.03206651657819748,-0.9980597496032715,-7.712174415588379,-26.61676788330078,-40.08988952636719,1,321163.1934046667,unknown,1,2015-02-11 00:12:41.985,null,0,0,0,0,null,0,0.01661682,101.1232,192.168.1.3,10.42.194.158,5,0
2015-02-11 00:12:45.188,31,1423642365.062416,37.77922205164822,-122.4387281109788,61.17245,0,-1,6,10,-9999,1423642365.163328,-5.404609680175781,-27.88031005859375,-42.81463623046875,176.1668243408203,162.3841094970703,25,321166.3520590417,0.0602569580078125,-0.0054931640625,-1.051712036132812,321166.3453260417,-0.1239038360320456,0.02859329535974475,-0.07852703316651245,321166.2453740417,1.938206111130291,0.05728649772633594,0.03840400023666504,-0.07793162018060684,-0.004728403873741627,-0.01880417205393314,-0.001670960686169565,-0.008388886228203773,-0.01304244995117188,XTrueNorthZVertical,-0.01274133409917595,0.03203024296374514,0.8241995398305626,0.5652493730819464,0.0572129525244236,-0.03839455917477608,-0.9976234436035156,-7.54423713684082,-26.86193466186523,-39.95810699462891,1,321163.1934046667,unknown,1,2015-02-11 00:12:41.985,null,0,0,0,0,null,0,0.01661682,101.1232,192.168.1.3,10.42.194.158,5,0
2015-02-11 00:12:45.287,32,1423642365.062416,37.77922205164822,-122.4387281109788,61.17245,0,-1,6,10,-9999,1423642365.283064,-5.195770263671875,-27.88032531738281,-42.3453369140625,177.2024536132812,163.4197387695312,25,321166.4512490417,0.0518035888671875,-0.0339202880859375,-1.0230712890625,321166.4452720417,0.2308622443640259,-0.02824628546970743,-0.1914434654892181,321166.3453260417,1.935041945677787,0.0562597203359184,0.02509947113327915,-0.1058306470513344,0.02378713712096214,-0.08802543580532074,0.008362859487533569,0.01890176720917225,-0.03007962182164192,XTrueNorthZVertical,-0.01604255121571295,0.02628602868804026,0.8232914365487876,0.5667829434952367,0.05621233582496643,-0.02509683556854725,-0.9981033802032471,-7.489450454711914,-26.55150985717773,-40.1753044128418,1,321163.1934046667,unknown,1,2015-02-11 00:12:41.985,null,0,0,0,0,null,0,0.01661682,101.1232,192.168.1.3,10.42.194.158,5,0
2015-02-11 00:12:45.388,33,1423642365.062416,37.77922205164822,-122.4387281109788,61.17245,0,-1,6,10,-9999,1423642365.283064,-5.195770263671875,-27.88032531738281,-42.3453369140625,177.2024536132812,163.4197387695312,25,321166.5504470417,0.0363616943359375,-0.07684326171875,-1.009536743164062,321166.5452130417,0.2032071806563161,-0.03134407444968759,-0.1657780494319065,321166.4452720417,1.918568349313136,0.04686355389314151,0.03299041368425768,0.2489364147186279,-0.03305182605981827,-0.2009417414665222,-0.008170398883521557,-0.006856268737465143,-0.02481953240931034,XTrueNorthZVertical,-0.009714151703173707,0.02695090740150164,0.8186665652995095,0.5735541404200792,0.04682091251015663,-0.03298442810773849,-0.9983585476875305,-7.362964153289795,-26.46661949157715,-40.25461578369141,1,321163.1934046667,unknown,1,2015-02-11 00:12:41.985,null,0,0,0,0,null,0,0.01661682,101.1232,192.168.1.3,10.42.194.158,5,0
2015-02-11 00:12:45.499,34,1423642365.062416,37.77922205164822,-122.4387281109788,61.17245,0,-1,6,10,-9999,1423642365.400852,-5.265392303466797,-29.82293701171875,-42.2781982421875,177.732177734375,163.949462890625,25,321166.6496450417,0.0581817626953125,-0.06781005859375,-0.988800048828125,321166.5452130417,0.2032071806563161,-0.03134407444968759,-0.1657780494319065,321166.5452130417,1.892553705246662,0.04707474115816977,0.07017530172204915,0.2212745547294617,-0.03614893555641174,-0.1752764731645584,-0.01154114492237568,0.007861859165132046,-0.01356086693704128,XTrueNorthZVertical,0.001425082353127268,0.0422036657556565,0.8110030344877854,0.5835159904184836,0.04694153368473053,-0.07011771947145462,-0.9964336156845093,-6.811487674713135,-28.38295364379883,-39.02743911743164,1,321163.1934046667,unknown,1,2015-02-11 00:12:41.985,null,0,0,0,0,null,0,0.01661682,101.1232,192.168.1.3,10.42.194.158,5,0
2015-02-11 00:12:45.585,35,1423642365.062416,37.77922205164822,-122.4387281109788,61.17245,0,-1,6,10,-9999,1423642365.518359,-4.4996337890625,-30.44735717773438,-41.20574951171875,178.9790802001953,165.1963653564453,25,321166.7488400417,0.0692901611328125,-0.0633544921875,-1.027297973632812,321166.6451730417,0.1515873955634192,0.1697123373102805,0.04520502897522301,321166.6451730417,1.896028602977896,0.05386234021931739,0.07248901778111448,0.1696538478136063,0.1649067103862762,0.03570691868662834,0.003968047443777323,0.01445741020143032,0.00644071027636528,XTrueNorthZVertical,-0.0007290466876683765,0.0451194644137607,0.8120002144685997,0.5819101025160845,0.05369491502642632,-0.07242555171251297,-0.9959273934364319,-6.701385498046875,-28.49791717529297,-38.96266937255859,1,321163.1934046667,unknown,1,2015-02-11 00:12:41.985,null,0,0,0,0,null,0,0.01661682,101.1232,192.168.1.3,10.42.194.158,5,0
2015-02-11 00:12:45.684,36,1423642365.062416,37.77922205164822,-122.4387281109788,61.17245,0,-1,6,10,-9999,1423642365.637037,-5.543842315673828,-31.00239562988281,-41.60797119140625,176.7460632324219,162.9633483886719,25,321166.8480400417,0.007049560546875,-0.07977294921875,-0.9959259033203125,321166.7451190417,0.1251158406441406,-0.1133380107232652,0.1393594914183204,321166.7451190417,1.905392062797866,0.05957891053547763,0.08500772744824163,0.1431735157966614,-0.1182248070836067,0.1298525482416153,0.01385249383747578,0.02777647599577904,-0.02600875496864319,XTrueNorthZVertical,0.0003598189486045616,0.05185852848426392,0.8146168725630137,0.5776763174778886,0.05932865664362907,-0.08490538597106934,-0.9946210980415344,-6.446761131286621,-28.92546463012695,-38.68961334228516,1,321163.1934046667,unknown,1,2015-02-11 00:12:41.985,null,0,0,0,0,null,0,0.01661682,101.1232,192.168.1.3,10.42.194.158,5,0
2015-02-11 00:12:45.783,37,1423642365.062416,37.77922205164822,-122.4387281109788,61.17245,0,-1,6,10,-9999,1423642365.737327,-7.806285858154297,-31.52275085449219,-40.3677978515625,174.9517211914062,161.1690063476562,25,321166.9472390417,0.00457763671875,-0.095245361328125,-1.049880981445312,321166.9450070417,0.03907603004251465,-0.1647705755915295,-0.1225197912135314,321166.8450790417,1.931750903767748,0.02346617940866252,0.1091764048400063,0.2867132127285004,-0.1645067781209946,0.371407151222229,-0.01183445658534765,0.01586577482521534,0.01214407663792372,XTrueNorthZVertical,0.02139017344153015,0.05153846192554175,0.8216293835545069,0.5672842469060119,0.02332432568073273,-0.1089596450328827,-0.9937725067138672,-8.403407096862793,-29.56953430175781,-37.81738662719727,1,321163.1934046667,unknown,1,2015-02-11 00:12:41.985,null,0,0,0,0,null,0,0.01661682,101.1232,192.168.1.3,10.42.194.158,5,0
2015-02-11 00:12:45.901,38,1423642365.062416,37.77922205164822,-122.4387281109788,61.17245,0,-1,6,10,-9999,1423642365.854691,-7.875896453857422,-32.42466735839844,-39.36236572265625,175.5590972900391,161.7763824462891,25,321167.0464190417,0.040313720703125,-0.134063720703125,-1.034866333007812,321166.9450070417,0.03907603004251465,-0.1647705755915295,-0.1225197912135314,321166.9450070417,1.941090156787798,0.0164043159478958,0.133823868953771,0.05711823329329491,-0.1696674078702927,-0.1320254504680634,-0.03366719186306,0.0302906334400177,-0.02146453969180584,XTrueNorthZVertical,0.03101257989200568,0.05979482739751335,0.8236292049696666,0.563114326324031,0.01625691540539265,-0.1334247887134552,-0.9909256100654602,-9.148371696472168,-30.31699371337891,-37.04479217529297,1,321163.1934046667,unknown,1,2015-02-11 00:12:41.985,null,0,0,0,0,null,0,0.01661682,101.1232,192.168.1.3,10.42.194.158,5,0
2015-02-11 00:12:45.983,39,1423642365.062416,37.77922205164822,-122.4387281109788,61.17245,0,-1,6,10,-9999,1423642365.974229,-7.632240295410156,-33.36128234863281,-38.7926025390625,175.9441070556641,162.1613922119141,25,321167.1456150417,0.0148468017578125,-0.1681976318359375,-0.975067138671875,321167.0449660417,0.0897205655442245,-0.02542653050753153,0.05624436432581947,321167.0449660417,1.931817148965286,0.0156965582251272,0.1422358568232944,0.1077637448906898,-0.03032178245484829,0.04673869535326958,0.03423676267266273,-0.009503630921244621,-0.05079353973269463,XTrueNorthZVertical,0.03396794521740511,0.06289983587915139,0.8207785079605323,0.5667560705449518,0.01553740911185741,-0.1417567431926727,-0.9897795915603638,-9.055549621582031,-30.81893157958984,-36.65132904052734,1,321163.1934046667,unknown,1,2015-02-11 00:12:41.985,null,0,0,0,0,null,0,0.01661682,101.1232,192.168.1.3,10.42.194.158,5,0
2015-02-11 00:12:46.081,40,1423642366.066608,37.77922205164822,-122.4387281109788,61.28996,0,-1,6,10,-9999,1423642365.974229,-7.632240295410156,-33.36128234863281,-38.7926025390625,175.9441070556641,162.1613922119141,25,321167.2447970417,0.041595458984375,-0.224151611328125,-0.982513427734375,321167.2448680417,0.1536534759371027,0.1261635282169778,0.0249921689337396,321167.1449150417,1.93238980753884,0.01705854490127181,0.1689733357976168,0.3709068298339844,0.08166678249835968,-0.05008533969521523,0.000732826825696975,-0.003582534147426486,-0.002910870825871825,XTrueNorthZVertical,0.0409740905418946,0.07425539717518856,0.8201734662497999,0.5657939187016752,0.01681478135287762,-0.1681703925132751,-0.985614538192749,-9.051015853881836,-31.63315200805664,-35.95207977294922,1,321163.1934046667,unknown,1,2015-02-11 00:12:41.985,null,0,0,0,0,null,0,0.01661682,101.1232,192.168.1.3,10.42.194.158,5,0
2015-02-11 00:12:46.181,41,1423642366.066608,37.77922205164822,-122.4387281109788,61.28996,0,-1,6,10,-9999,1423642366.094535,-6.553234100341797,-34.92230987548828,-36.546875,176.3767395019531,162.5940246582031,25,321167.3439910417,0.052978515625,-0.1800079345703125,-1.004653930664062,321167.2448680417,0.1536534759371027,0.1261635282169778,0.0249921689337396,321167.2448680417,1.923804977779134,0.04312198098782909,0.2137295052519417,0.1716932952404022,0.1212700083851814,0.01548664178699255,-0.0005322940414771438,-0.01204559858888388,-0.006175221875309944,XTrueNorthZVertical,0.04340814102973446,0.09973279475460106,0.8167275029329459,0.5666791880606553,0.04212775453925133,-0.2121060192584991,-0.9763382077217102,-8.080857276916504,-33.2271728515625,-34.72440338134766,1,321163.1934046667,unknown,1,2015-02-11 00:12:41.985,null,0,0,0,0,null,0,0.01661682,101.1232,192.168.1.3,10.42.194.158,5,0
2015-02-11 00:12:46.281,42,1423642366.066608,37.77922205164822,-122.4387281109788,61.28996,0,-1,6,10,-9999,1423642366.211872,-6.135547637939453,-34.99169158935547,-37.01617431640625,175.7725372314453,161.9898223876953,25,321167.4431820417,0.068939208984375,-0.2366943359375,-0.9862060546875,321167.3447950417,-0.1109201267695823,0.07646947490831724,-0.01466549549084835,321167.3447950417,1.926271971531773,0.05528477041791866,0.2080278928225187,-0.09288320690393448,0.07157823443412781,-0.02417117357254028,-0.001086770906113088,0.02652277983725071,-0.02770868688821793,XTrueNorthZVertical,0.03668841638686652,0.1009026171477183,0.8178754847693336,0.5652895953884893,0.0540652871131897,-0.2065307199954987,-0.9769452214241028,-7.5948166847229,-33.33481216430664,-34.73094177246094,1,321163.1934046667,unknown,1,2015-02-11 00:12:41.985,null,0,0,0,0,null,0,0.04431343,101.1228,192.168.1.3,10.42.194.158,5,0
2015-02-11 00:12:46.394,43,1423642366.066608,37.77922205164822,-122.4387281109788,61.28996,0,-1,6,10,-9999,1423642366.330297,-6.031139373779297,-35.92829895019531,-36.5804443359375,176.0596618652344,162.2769470214844,25,321167.5423590417,0.0628204345703125,-0.22503662109375,-0.983795166015625,321167.4447630417,0.08225812185371346,0.1570375547342664,0.04009655337223301,321167.4447630417,1.922039938125515,0.06709358669164849,0.2163822435395844,0.1002987250685692,0.1521534472703934,0.03059040009975433,0.003459359519183636,-0.02199669182300568,-0.01172295492142439,XTrueNorthZVertical,0.03446880599922125,0.1075655682784396,0.8165984771766223,0.5660463676167666,0.06547985225915909,-0.2146976441144943,-0.9744830727577209,-7.115300178527832,-33.50247192382812,-34.67111587524414,1,321163.1934046667,unknown,1,2015-02-11 00:12:41.985,null,0,0,0,0,null,0,0.04431343,101.1228,192.168.1.3,10.42.194.158,5,0
2015-02-11 00:12:46.478,44,1423642366.066608,37.77922205164822,-122.4387281109788,61.28996,0,-1,6,10,-9999,1423642366.452544,-5.857109069824219,-35.75485229492188,-37.35125732421875,175.912353515625,162.129638671875,25,321167.6415550417,0.0717010498046875,-0.2218017578125,-0.9595794677734375,321167.5447100417,-0.05608617255706876,-0.03990214261265723,0.1600794173313549,321167.5447100417,1.934316847164305,0.06935731565436813,0.2237097486642159,-0.03803856298327446,-0.04479103162884712,0.1505745649337769,-0.004754369147121906,-0.00318817375227809,-0.01105835009366274,XTrueNorthZVertical,0.0349570199414119,0.1113983788481103,0.8198361398822658,0.5605685729464008,0.06757480651140213,-0.2218484431505203,-0.9727368354797363,-7.089800834655762,-33.76071929931641,-34.42496490478516,1,321163.1934046667,unknown,1,2015-02-11 00:12:41.985,null,0,0,0,0,null,0,0.04431343,101.1228,192.168.1.3,10.42.194.158,5,0
2015-02-11 00:12:46.577,45,1423642366.066608,37.77922205164822,-122.4387281109788,61.28996,0,-1,6,10,-9999,1423642366.568149,-7.005729675292969,-35.44265747070312,-37.719970703125,171.5289154052734,157.7462005615234,25,321167.7407500417,0.0057220458984375,-0.174224853515625,-1.016815185546875,321167.6446600417,-0.06263035830372046,0.3236467767423866,0.461358037762057,321167.6446600417,1.953217090369326,0.06814281450551456,0.2257644994159528,-0.0445905402302742,0.318761795759201,0.4518527984619141,0.005338863935321569,0.002049768576398492,0.01278186216950417,XTrueNorthZVertical,0.03497823501315992,0.112231271546012,0.8250002231934052,0.5527705760790381,0.06636218726634979,-0.2238515317440033,-0.9723613262176514,-7.690286636352539,-33.69824981689453,-34.35719299316406,1,321163.1934046667,unknown,1,2015-02-11 00:12:41.985,null,0,0,0,0,null,0,0.04431343,101.1228,192.168.1.3,10.42.194.158,5,0
2015-02-11 00:12:46.683,46,1423642366.066608,37.77922205164822,-122.4387281109788,61.28996,0,-1,6,10,-9999,1423642366.568149,-7.005729675292969,-35.44265747070312,-37.719970703125,171.5289154052734,157.7462005615234,25,321167.8399260417,0.0370941162109375,-0.2452239990234375,-0.9613494873046875,321167.7446090417,0.2985057371037116,-0.3588982411434384,0.007991613799109778,321167.7446090417,1.996595812879571,0.07122035714552782,0.243505829602976,0.3165282011032104,-0.3638780415058136,-0.001520644989795983,-0.06333880126476288,0.06688164919614792,-0.04877683147788048,XTrueNorthZVertical,0.03604883801532676,0.1211664325503952,0.8361412813580295,0.5337480190081244,0.06906084716320038,-0.2411065101623535,-0.9680383801460266,-8.548496246337891,-33.66519546508789,-34.18635940551758,1,321163.1934046667,unknown,1,2015-02-11 00:12:41.985,null,0,0,0,0,null,0,0.04431343,101.1228,192.168.1.3,10.42.194.158,5,0
2015-02-11 00:12:46.796,47,1423642366.066608,37.77922205164822,-122.4387281109788,61.28996,0,-1,6,10,-9999,1423642366.687046,-7.527824401855469,-35.47734069824219,-35.60833740234375,172.6493377685547,158.8666229248047,25,321167.9391240417,0.0905914306640625,-0.2491455078125,-0.9911041259765625,321167.8445530417,-0.1631859947429324,-0.05696288518792284,-0.3959342897909524,321167.8445530417,1.964377314840305,0.05195683648609457,0.2471134272993938,-0.1451579928398132,-0.0619504302740097,-0.4054449498653412,-0.01326174009591341,-0.0006179027259349823,0.006964586675167084,XTrueNorthZVertical,0.04696212923526094,0.1167797984647228,0.8268728691031448,0.5481225307490588,0.05035585537552834,-0.2446060925722122,-0.9683140516281128,-8.925189971923828,-34.22582244873047,-33.52705764770508,1,321163.1934046667,unknown,1,2015-02-11 00:12:41.985,null,0,0,0,0,null,0,0.04431343,101.1228,192.168.1.3,10.42.194.158,5,0
2015-02-11 00:12:46.881,48,1423642366.066608,37.77922205164822,-122.4387281109788,61.28996,0,-1,6,10,-9999,1423642366.806334,-5.404609680175781,-35.78954315185547,-35.84295654296875,177.1935272216797,163.4108123779297,25,321168.0383190417,0.0425872802734375,-0.1940460205078125,-0.9999542236328125,321167.9445080417,-0.2463453303095286,0.0004143878656163295,-0.3957425421924667,321167.9445080417,1.904621670447063,0.05733421491740458,0.2186022884798405,-0.2283259779214859,-0.004571367520838976,-0.4052534401416779,0.03465234115719795,-0.03228012099862099,-0.01650665886700153,XTrueNorthZVertical,0.04000673204741895,0.1053599916841229,0.8113755954144312,0.5735576605664641,0.05593908950686455,-0.2168653905391693,-0.9745974540710449,-7.00282096862793,-33.84072875976562,-34.36415100097656,1,321163.1934046667,unknown,1,2015-02-11 00:12:41.985,null,0,0,0,0,null,0,0.04431343,101.1228,192.168.1.3,10.42.194.158,1,0
2015-02-11 00:12:46.974,49,1423642366.066608,37.77922205164822,-122.4387281109788,61.28996,0,-1,6,10,-9999,1423642366.925313,-5.439414978027344,-35.26921844482422,-37.28424072265625,176.8886108398438,163.1058959960938,25,321168.1375200417,0.0498504638671875,-0.23358154296875,-0.9760589599609375,321168.0444510417,-0.02428110492268845,0.01719709642307767,0.08745181861158599,321168.0444510417,1.904940046832468,0.05872110264602594,0.2117636129847769,-0.006258202251046896,0.01221599616110325,0.0779404491186142,-0.01478910818696022,0.01613842137157917,-0.02397755905985832,XTrueNorthZVertical,0.03744867641748783,0.1030012821704863,0.8117356431371342,0.5736493628096764,0.05737638846039772,-0.2101844400167465,-0.9759766459465027,-6.780838966369629,-33.64929580688477,-34.59587860107422,1,321163.1934046667,unknown,1,2015-02-11 00:12:41.985,null,0,0,0,0,null,0,0.04431343,101.1228,192.168.1.3,10.42.194.158,1,0
2015-02-11 00:12:47.073,50,1423642367.058667,37.77922247074338,-122.4387494848319,61.36136,0.19,310.78125,6,10,-9999,1423642367.043878,-5.230579376220703,-35.33860778808594,-36.47979736328125,177.4049072265625,163.6221923828125,25,321168.2367050417,0.0629425048828125,-0.2239837646484375,-0.9761962890625,321168.1444050417,0.06273608579899662,0.02843323937823099,-0.06736252924468226,321168.1444050417,1.89743884704187,0.05869742297744975,0.218540482808539,0.08075352013111115,0.02344658970832825,-0.07687297463417053,-0.007417937740683556,-0.01677649095654488,-0.001525276456959546,XTrueNorthZVertical,0.0398152526443208,0.1055836346647956,0.809340036636202,0.576398785677886,0.05726839974522591,-0.2168050557374954,-0.9745336771011353,-6.72967529296875,-33.82339859008789,-34.43571853637695,1,321163.1934046667,unknown,1,2015-02-11 00:12:41.985,null,0,0,0,0,null,0,0.04431343,101.1228,192.168.1.3,10.42.194.158,1,0
2015-02-11 00:12:47.207,51,1423642367.058667,37.77922247074338,-122.4387494848319,61.36136,0.19,310.78125,6,10,-9999,1423642367.144063,-5.091358184814453,-35.89363098144531,-35.80950927734375,176.8208923339844,163.0381774902344,25,321168.3358990417,0.0699920654296875,-0.2218475341796875,-0.981231689453125,321168.2443510417,0.03089479917379123,0.03707306658666605,-0.01398532414844211,321168.2443510417,1.894031038804231,0.0636955115749933,0.2283779081199133,0.04891115799546242,0.03208644315600395,-0.02349559031426907,0.0009427958866581321,0.002414083341136575,-0.004136593546718359,XTrueNorthZVertical,0.04084272646870565,0.1109144897329766,0.8081001581281486,0.5770649836721401,0.06199970841407776,-0.226397842168808,-0.9720596671104431,-6.476472854614258,-34.22710418701172,-34.08357238769531,1,321168.2739180417,unknown,2,2015-02-11 00:12:47.063,null,0,0,0,0,null,0,0.04431343,101.1228,192.168.1.3,10.42.194.158,1,0
2015-02-11 00:12:47.284,52,1423642367.058667,37.77922247074338,-122.4387494848319,61.36136,0.19,310.78125,6,10,-9999,1423642367.144063,-5.091358184814453,-35.89363098144531,-35.80950927734375,176.8208923339844,163.0381774902344,25,321168.4351070417,0.0464324951171875,-0.2108154296875,-0.9829864501953125,321168.3442990417,-0.04036100526847788,0.02881220720134926,0.05551412555491974,321168.3442990417,1.892998945263845,0.06445117726522033,0.228805068567014,-0.02233819290995598,0.02382741309702396,0.04600391909480095,0.007264056243002415,0.004966362379491329,-0.009315718896687031,XTrueNorthZVertical,0.04071934217425594,0.1112831966152939,0.8078018965626932,0.5774202061922361,0.06272801011800766,-0.2268138974905014,-0.9719159603118896,-6.422863483428955,-34.28174591064453,-34.03877258300781,1,321168.2739180417,unknown,2,2015-02-11 00:12:47.063,null,0,0,0,0,null,0,0.04431343,101.1228,192.168.1.3,10.42.194.158,1,0
2015-02-11 00:12:47.375,53,1423642367.058667,37.77922247074338,-122.4387494848319,61.36136,0.19,310.78125,6,10,-9999,1423642367.36112,-6.031139373779297,-35.37328338623047,-36.1112060546875,175.5478820800781,161.7651672363281,25,321168.5342890417,0.065338134765625,-0.211090087890625,-0.9870758056640625,321168.4442520417,-0.05415937550839642,0.01508813915584392,0.08008285187533674,321168.4442520417,1.90327984271314,0.06527849979938358,0.2236579373018671,-0.03614295274019241,0.01010231021791697,0.07057276368141174,-0.01717489399015903,0.01098249666392803,-0.009970633313059807,XTrueNorthZVertical,0.03832042920021516,0.1096523419599582,0.8109639589644176,0.5734504156025664,0.06360738724470139,-0.2217979282140732,-0.9730158448219299,-6.489973068237305,-34.17002868652344,-34.13823318481445,1,321168.2739180417,unknown,2,2015-02-11 00:12:47.063,null,0,0,0,0,null,0,0.04431343,101.1228,192.168.1.3,10.42.194.158,1,0
2015-02-11 00:12:47.542,54,1423642367.058667,37.77922247074338,-122.4387494848319,61.36136,0.19,310.78125,6,10,-9999,1423642367.36112,-6.031139373779297,-35.37328338623047,-36.1112060546875,175.5478820800781,161.7651672363281,25,321168.6334830417,0.0647735595703125,-0.2005462646484375,-0.9925689697265625,321168.5441970417,-0.1330853502062027,0.02682122797040602,0.07284704319359145,321168.5441970417,1.908355152800273,0.06431732082187062,0.2134997057619861,-0.1150737553834915,0.02183074504137039,0.06333786249160767,0.002524442272260785,0.0007913488079793751,-0.01180112734436989,XTrueNorthZVertical,0.03549983417682264,0.1053680349462511,0.8127560456357159,0.5718959368215225,0.06281369179487228,-0.2118814438581467,-0.9752746820449829,-6.771773338317871,-33.63137054443359,-34.61507415771484,1,321168.2739180417,unknown,2,2015-02-11 00:12:47.063,null,0,0,0,0,null,0,0.04431343,101.1228,192.168.1.3,10.42.194.158,1,0
2015-02-11 00:12:48.438,55,1423642367.058667,37.77922247074338,-122.4387494848319,61.36136,0.19,310.78125,6,10,-9999,1423642367.484433,-5.648265838623047,-34.99170684814453,-36.74810791015625,175.7512817382812,161.9685668945312,25,321168.7326840417,0.0595855712890625,-0.18572998046875,-0.99749755859375,321168.6441510417,-0.1713773456237981,0.0004183826072514483,0.1102916207523236,321168.6441510417,1.918768660819783,0.06398099326166079,0.2007566612637383,-0.1533658057451248,-0.004573079757392406,0.1007828190922737,-0.002655672375112772,-0.004675451666116714,-0.01845742762088776,XTrueNorthZVertical,0.03143470887155736,0.1002814487666139,0.8161395694864758,0.5682180096716826,0.06265322864055634,-0.1994108557701111,-0.9779109954833984,-6.974950790405273,-33.1728401184082,-35.01488494873047,1,321168.2739180417,unknown,2,2015-02-11 00:12:47.063,null,0,0,0,0,null,0,0.05488777,101.1227,192.168.1.3,10.42.194.158,1,0
2015-02-11 00:12:48.463,56,1423642367.058667,37.77922247074338,-122.4387494848319,61.36136,0.19,310.78125,6,10,-9999,1423642367.597302,-6.518440246582031,-34.05506896972656,-37.38494873046875,175.5969085693359,161.8141937255859,25,321168.831915875,0.0495147705078125,-0.1441192626953125,-1.01104736328125,321168.7440990417,-0.2469112520411705,-0.03542909724576013,0.1776999563677552,321168.7440990417,1.933417369967533,0.0604247825527701,0.1819272194930331,-0.2288983911275864,-0.04042218998074532,0.1681916862726212,-0.005756782367825508,-0.001386689255014062,-0.01860324293375015,XTrueNorthZVertical,0.02681474503898477,0.09181504552197467,0.8208026223993035,0.563146548610668,0.05939142405986786,-0.1809253245592117,-0.9817019104957581,-7.331253051757812,-32.51814270019531,-35.5521125793457,1,321168.2739180417,unknown,2,2015-02-11 00:12:47.063,null,0,0,0,0,null,0,0.05488777,101.1227,192.168.1.3,10.42.194.158,1,0
2015-02-11 00:12:48.466,57,1423642367.058667,37.77922247074338,-122.4387494848319,61.36136,0.19,310.78125,6,10,-9999,1423642367.697493,-6.37921142578125,-33.4306640625,-37.58599853515625,174.8428039550781,161.0600891113281,25,321168.931124875,0.0634613037109375,-0.1729583740234375,-0.9998779296875,321168.844093875,-0.02217347923599974,0.01080977086463163,0.0789254420655883,321168.844093875,1.947749209179273,0.05528773386140055,0.1632601755482171,-0.004172478336840868,0.005809792317450047,0.06941838562488556,-0.001866683596745133,0.02969287149608135,-0.02713412791490555,XTrueNorthZVertical,0.02303138057308059,0.08289794248091038,0.8252676852035581,0.558149395489667,0.05452476441860199,-0.1625358909368515,-0.985194981098175,-7.937457084655762,-31.58159065246582,-36.25919723510742,1,321168.2739180417,unknown,2,2015-02-11 00:12:47.063,null,0,0,0,0,null,0,0.05488777,101.1227,192.168.1.3,10.42.194.158,1,0
2015-02-11 00:12:48.467,58,1423642367.058667,37.77922247074338,-122.4387494848319,61.36136,0.19,310.78125,6,10,-9999,1423642367.820763,-6.692474365234375,-34.0203857421875,-38.55804443359375,174.84521484375,161.0625,25,321169.030319875,0.0505523681640625,-0.16778564453125,-0.9847412109375,321168.944033875,0.03959055276511796,0.006436860354721519,0.048902029200471,321168.944033875,1.949805023849852,0.05649964909425848,0.1685772947394767,0.05758205428719521,0.001345612457953393,0.03938665241003036,0.001444539986550808,-0.01457780599594116,-0.01101837027817965,XTrueNorthZVertical,0.02393726620522053,0.08544767221283248,0.8257144716498852,0.5570649218837689,0.05566910654306412,-0.1677799820899963,-0.9842513799667358,-7.994745254516602,-31.62321472167969,-36.21029663085938,1,321168.2739180417,unknown,2,2015-02-11 00:12:47.063,null,0,0,0,0,null,0,0.05488777,101.1227,192.168.1.3,10.42.194.158,1,0
2015-02-11 00:12:48.470,59,1423642367.058667,37.77922247074338,-122.4387494848319,61.36136,0.19,310.78125,6,10,-9999,1423642367.820763,-6.692474365234375,-34.0203857421875,-38.55804443359375,174.84521484375,161.0625,25,321169.129492875,0.0573272705078125,-0.169342041015625,-0.9931793212890625,321169.043983875,-0.00403282483870699,0.08611810753767431,0.07666388566789302,321169.043983875,1.956845675118231,0.05898428078060458,0.1724122286656427,0.01396305952221155,0.08102346956729889,0.06714934110641479,-0.006440335884690285,0.0001878504117485136,-0.00753680570051074,XTrueNorthZVertical,0.0236782936834763,0.08780138920083716,0.8275951953235361,0.5539101555536157,0.05807607993483543,-0.1715593039989471,-0.9834604859352112,-8.071697235107422,-31.73379325866699,-36.09630966186523,1,321168.888342875,stationary,1,2015-02-11 00:12:47.698,null,0,0,0,0,null,0,0.05488777,101.1227,192.168.1.3,10.42.194.158,1,0
2015-02-11 00:12:48.472,60,1423642367.058667,37.77922247074338,-122.4387494848319,61.36136,0.19,310.78125,6,10,-9999,1423642367.933729,-6.936126708984375,-33.15313720703125,-38.52459716796875,174.3637084960938,160.5809936523438,25,321169.228682875,0.0595855712890625,-0.1337432861328125,-0.9974365234375,321169.143943875,-0.06373876594941144,0.05011802855420119,0.08327385149346968,321169.143943875,1.964724781324914,0.06063556369539665,0.1681217873635716,-0.04574445635080338,0.04501868039369583,0.07376030087471008,-0.002172613283619285,0.002551250858232379,-0.009716004133224487,XTrueNorthZVertical,0.02145664577509433,0.08657452635382688,0.8299056039293894,0.5507278507490588,0.05974402278661728,-0.1673309206962585,-0.9840888977050781,-8.214601516723633,-31.54162216186523,-36.23224639892578,1,321168.888342875,stationary,1,2015-02-11 00:12:47.698,null,0,0,0,0,null,0,0.05488777,101.1227,192.168.1.3,10.42.194.158,1,0
2015-02-11 00:12:48.473,61,1423642367.058667,37.77922247074338,-122.4387494848319,61.36136,0.19,310.78125,6,10,-9999,1423642367.933729,-6.936126708984375,-33.15313720703125,-38.52459716796875,174.3637084960938,160.5809936523438,25,321169.327854875,0.0993804931640625,-0.1387786865234375,-0.9927520751953125,321169.243896875,0.178332457126649,0.2238567991165725,0.07171573236252579,321169.243896875,1.97875776299751,0.0688189868953681,0.1747870400017993,0.1963147819042206,0.2187597751617432,0.06220169737935066,-0.007231111638247967,0.04149791225790977,-0.01279143057763577,XTrueNorthZVertical,0.01926775681938576,0.09171951339555734,0.8336520652156532,0.5442798286329353,0.06771694868803024,-0.1738984286785126,-0.9824325442314148,-8.367695808410645,-31.50033569335938,-36.23313140869141,1,321168.888342875,stationary,1,2015-02-11 00:12:47.698,null,0,0,0,0,null,0,0.05488777,101.1227,192.168.1.3,10.42.194.158,1,0
2015-02-11 00:12:48.474,62,1423642367.058667,37.77922247074338,-122.4387494848319,61.36136,0.19,310.78125,6,10,-9999,1423642367.933729,-6.936126708984375,-33.15313720703125,-38.52459716796875,174.3637084960938,160.5809936523438,25,321169.427060875,0.0873565673828125,-0.203857421875,-0.9680938720703125,321169.343825875,0.4129335133450372,0.7943320035902282,0.02141288042867311,321169.343825875,1.97758253268863,0.1078189267856897,0.1999108711254092,0.430896133184433,0.7892283201217651,0.01189946383237839,-0.003217871533706784,0.02524213492870331,-0.01690939255058765,XTrueNorthZVertical,0.009986922014491251,0.1127107491853105,0.832940729339911,0.54166992079942,0.1054670140147209,-0.1985819786787033,-0.9743930697441101,-7.208476066589355,-32.32559585571289,-35.75224685668945,1,321169.207342875,unknown,1,2015-02-11 00:12:48.016,null,0,0,0,0,null,0,0.05488777,101.1227,192.168.1.3,10.42.194.158,1,0
2015-02-11 00:12:48.478,63,1423642367.058667,37.77922247074338,-122.4387494848319,61.36136,0.19,310.78125,6,10,-9999,1423642368.192577,-6.796913146972656,-33.083740234375,-37.51910400390625,174.2973022460938,160.5145874023438,25,321169.526260875,0.073516845703125,-0.17724609375,-0.9453887939453125,321169.443784875,0.1766626551231693,-0.4184111030751121,-0.08857194416607332,321169.443784875,1.983482152765028,0.112626810889058,0.2248103902469695,0.1946270912885666,-0.423515260219574,-0.09808511286973953,-0.02611042745411396,-0.003244243795052171,0.0002915941004175693,XTrueNorthZVertical,0.01447413319615292,0.1243400067858488,0.8338344334302618,0.5376339024765266,0.1095607429742813,-0.2229215204715729,-0.9686601161956787,-6.763358592987061,-33.14170837402344,-35.08580780029297,1,321169.207342875,unknown,1,2015-02-11 00:12:48.016,null,0,0,0,0,null,0,0.05488777,101.1227,192.168.1.3,10.42.194.158,1,0
2015-02-11 00:12:48.479,64,1423642367.058667,37.77922247074338,-122.4387494848319,61.36136,0.19,310.78125,6,10,-9999,1423642368.192577,-6.796913146972656,-33.083740234375,-37.51910400390625,174.2973022460938,160.5145874023438,25,321169.625433875,0.0785064697265625,-0.190277099609375,-1.023300170898438,321169.543738875,-0.2308009916589541,-0.07865566384716327,-0.1644294246558903,321169.543738875,1.974372612764143,0.07201466908036455,0.2158967849959438,-0.2128353714942932,-0.08376296609640121,-0.1739421039819717,0.002761783311143517,0.06686935573816299,0.01946470327675343,XTrueNorthZVertical,0.02946393746603481,0.1095692498086496,0.8312209983985496,0.5442408667052441,0.07028204202651978,-0.2142234742641449,-0.9742529392242432,-8.176602363586426,-33.14712905883789,-34.77845001220703,1,321169.207342875,unknown,1,2015-02-11 00:12:48.016,null,0,0,0,0,null,0,0.05488777,101.1227,192.168.1.3,10.42.194.158,1,0
2015-02-11 00:12:49.510,65,1423642368.198382,37.77922594923319,-122.4387587049254,61.3864,0.19,334.6875,6,10,-9999,1423642368.428198,-6.970947265625,-34.57538604736328,-36.34600830078125,172.8124084472656,159.0296936035156,25,321169.724647875,0.059539794921875,-0.2106170654296875,-0.9940338134765625,321169.643685875,-0.1060904841327236,-0.1615625317424201,-0.1753782125294241,321169.643685875,1.94931603682942,0.06047614472922491,0.1872334222560982,-0.08812963217496872,-0.1666693985462189,-0.1848908215761185,0.01660578139126301,-0.005219088867306709,-0.03617994487285614,XTrueNorthZVertical,0.02755152978304103,0.09422056983651002,0.8250965543405028,0.5563983166106065,0.05938299000263214,-0.1861413866281509,-0.9807267785072327,-7.896382331848145,-32.40450286865234,-35.53483581542969,1,321169.207342875,unknown,1,2015-02-11 00:12:48.016,null,0,0,0,0,null,0,0.05488777,101.1227,192.168.1.3,10.42.194.158,1,0
2015-02-11 00:12:49.550,66,1423642368.198382,37.77922594923319,-122.4387587049254,61.3864,0.19,334.6875,6,10,-9999,1423642368.545732,-7.701896667480469,-33.98565673828125,-36.37957763671875,172.7598571777344,158.9771423339844,25,321169.823829875,0.047698974609375,-0.1991729736328125,-0.9830322265625,321169.743634875,0.08005888342552603,-0.03819931741166056,0.03390417120558076,321169.743634875,1.945050454818015,0.06121826799870816,0.2034635394260438,0.09802444279193878,-0.04330408945679665,0.02439172007143497,-0.004742271266877651,-0.006677602883428335,-0.004517674911767244,XTrueNorthZVertical,0.03201330243762791,0.1010255107670214,0.8234038378441859,0.5574720869695216,0.05991805344820023,-0.2020626366138458,-0.977537989616394,-7.745599269866943,-32.82120132446289,-35.18386077880859,1,321169.207342875,unknown,1,2015-02-11 00:12:48.016,null,0,0,0,0,null,0,0.05488777,101.1227,192.168.1.3,10.42.194.158,1,0
2015-02-11 00:12:49.554,67,1423642368.198382,37.77922594923319,-122.4387587049254,61.3864,0.19,334.6875,6,10,-9999,1423642368.663694,-6.796924591064453,-34.81820678710938,-36.17840576171875,174.4098358154297,160.6271209716797,25,321169.923045875,0.061309814453125,-0.219024658203125,-0.9894866943359375,321169.843593875,0.01156584229810512,0.01258370246673341,-0.06079836978985496,321169.843593875,1.94139050155238,0.05654293177625103,0.2032690010376628,0.02951995655894279,0.007380396127700806,-0.0703183114528656,-0.008184398524463177,-0.002763517899438739,-0.003858042880892754,XTrueNorthZVertical,0.03406563497510023,0.09958010841117956,0.8223113837935928,0.5592202928108168,0.05534931644797325,-0.2018720954656601,-0.9778466820716858,-7.889218807220459,-32.93390274047852,-35.04636383056641,1,321169.207342875,unknown,1,2015-02-11 00:12:48.016,null,0,0,0,0,null,0,0.05488777,101.1227,192.168.1.3,10.42.194.158,1,0
2015-02-11 00:12:49.557,68,1423642368.198382,37.77922594923319,-122.4387587049254,61.3864,0.19,334.6875,6,10,-9999,1423642368.663694,-6.796924591064453,-34.81820678710938,-36.17840576171875,174.4098358154297,160.6271209716797,25,321170.022243875,0.0666961669921875,-0.19879150390625,-0.986480712890625,321169.943533875,0.07587159524359444,0.09764932874160841,0.04976755655474675,321169.943533875,1.938134110439375,0.06357539212441779,0.210722475070815,0.09383329004049301,0.09244818985462189,0.04024765267968178,0.003104086499661207,-0.01211651042103767,-0.007280308753252029,XTrueNorthZVertical,0.03344661677043129,0.1045421974314587,0.8212645028944029,0.5598900627389374,0.06212723627686501,-0.2091664522886276,-0.9759045243263245,-7.57499885559082,-33.20257568359375,-34.8616943359375,1,321169.207342875,unknown,1,2015-02-11 00:12:48.016,null,0,0,0,0,null,0,0.05488777,101.1227,192.168.1.3,10.42.194.158,1,0
2015-02-11 00:12:49.597,69,1423642368.198382,37.77922594923319,-122.4387587049254,61.3864,0.19,334.6875,6,10,-9999,1423642368.663694,-6.796924591064453,-34.81820678710938,-36.17840576171875,174.4098358154297,160.6271209716797,25,321170.121443875,0.0292205810546875,-0.2488250732421875,-0.919921875,321170.043479875,0.08231697771380421,0.2048210562769041,0.05710136956460696,321170.043479875,1.944882780372091,0.07901403677898271,0.2231146695708905,0.1002718806266785,0.1996155083179474,0.04758228361606598,-0.01381923444569111,0.01927230879664421,-0.01804876327514648,XTrueNorthZVertical,0.03022742048380093,0.1140224809704389,0.8229633058997062,0.5557126841383563,0.07697536051273346,-0.2212681621313095,-0.972170352935791,-7.301474094390869,-33.55455780029297,-34.58192443847656,1,321169.207342875,unknown,1,2015-02-11 00:12:48.016,null,0,0,0,0,null,0,0.05488777,101.1227,192.168.1.3,10.42.194.158,1,0
2015-02-11 00:12:49.601,70,1423642368.198382,37.77922594923319,-122.4387587049254,61.3864,0.19,334.6875,6,10,-9999,1423642368.783572,-6.588085174560547,-34.95697784423828,-35.64215087890625,174.3570556640625,160.5743408203125,25,321170.220645875,0.1344146728515625,-0.2467041015625,-1.015487670898438,321170.143433875,0.2627613215848861,0.3459174613581742,0.128893800966527,321170.143433875,1.944089080331811,0.07984057477213502,0.2107292387166004,0.280707836151123,0.3407011032104492,0.1193761602044106,-0.02984999120235443,0.005132535006850958,0.07547155022621155,XTrueNorthZVertical,0.02644354343860422,0.1091740283044757,0.8231699646949422,0.5565725407021986,0.07799147069454193,-0.2091730684041977,-0.9747635126113892,-7.117263317108154,-33.29364776611328,-34.87129211425781,1,321169.207342875,unknown,1,2015-02-11 00:12:48.016,null,0,0,0,0,null,0,0.05488777,101.1227,192.168.1.3,10.42.194.158,1,0
2015-02-11 00:12:49.603,71,1423642368.198382,37.77922594923319,-122.4387587049254,61.3864,0.19,334.6875,6,10,-9999,1423642369.020812,-5.230621337890625,-35.33854675292969,-35.34039306640625,175.4441680908203,161.6614532470703,25,321170.319838875,0.12567138671875,-0.2512054443359375,-0.9709014892578125,321170.243379875,-0.1216470733243124,0.07961040709795668,-0.03808426885256914,321170.243379875,1.949683840590042,0.1285005988867343,0.2420885257341941,-0.1037005037069321,0.07439524680376053,-0.04760187864303589,0.01536010857671499,-0.01304632890969515,-0.03965219482779503,XTrueNorthZVertical,0.01488736439890665,0.1355022994768575,0.824214088146595,0.549625912238319,0.1244103983044624,-0.2397307753562927,-0.9628350138664246,-5.879405498504639,-34.19623947143555,-34.22249984741211,1,321169.207342875,unknown,1,2015-02-11 00:12:48.016,null,0,0,0,0,null,0,0.05488777,101.1227,192.168.1.3,10.42.194.158,1,0
2015-02-11 00:12:49.606,72,1423642369.059366,37.77922276410999,-122.438765578086,61.51037,0.15,16.5234375,6,10,-9999,1423642369.23915,-3.211833953857422,-36.93425750732422,-34.26788330078125,173.7850799560547,160.0023651123047,25,321170.419037875,0.1650390625,-0.2859039306640625,-0.957275390625,321170.343327875,0.299023721935732,0.5145520173752997,0.1158262021297262,321170.343327875,1.955818561440746,0.1593377783962932,0.2580616173371931,0.3169710636138916,0.5093333125114441,0.1063093692064285,-0.01257184892892838,0.006488574668765068,-0.02619644440710545,XTrueNorthZVertical,0.006215679552580798,0.1504729431873338,0.8255500333328516,0.5438624958992467,0.1534104645252228,-0.255206823348999,-0.9546385407447815,-4.944403648376465,-34.60472106933594,-33.95873260498047,1,321169.207342875,unknown,1,2015-02-11 00:12:48.016,null,0,0,0,0,null,0,0.05488777,101.1227,192.168.1.3,10.42.194.158,1,0
2015-02-11 00:12:49.607,73,1423642369.059366,37.77922276410999,-122.438765578086,61.51037,0.15,16.5234375,6,10,-9999,1423642369.23915,-3.211833953857422,-36.93425750732422,-34.26788330078125,173.7850799560547,160.0023651123047,25,321170.518225875,0.1890411376953125,-0.277374267578125,-1.000259399414062,321170.443271875,-0.1054526570516496,0.01080657507132353,0.04080601948663012,321170.443271875,1.957817942241019,0.1763074400446241,0.2673913264827698,-0.08750304579734802,0.005588144063949585,0.03128942847251892,-0.006564850453287363,-0.01764398254454136,0.006061451509594917,XTrueNorthZVertical,0.001670706833271191,0.1588742241804658,0.825837085801972,0.5410631299850575,0.1691625118255615,-0.2642163634300232,-0.9495123624801636,-4.382717609405518,-34.97391510009766,-33.65630340576172,1,321169.207342875,unknown,1,2015-02-11 00:12:48.016,null,0,0,0,0,null,0,0.05488777,101.1227,192.168.1.3,10.42.194.158,1,0
2015-02-11 00:12:49.608,74,1423642369.059366,37.77922276410999,-122.438765578086,61.51037,0.15,16.5234375,6,10,-9999,1423642369.23915,-3.211833953857422,-36.93425750732422,-34.26788330078125,173.7850799560547,160.0023651123047,25,321170.617413875,0.1436614990234375,-0.2719573974609375,-0.9383087158203125,321170.543225875,-0.3223681931030395,-0.2789402915232264,-0.09574223908500266,321170.543225875,1.958885006872903,0.177454642822214,0.2649857878716906,-0.3044209480285645,-0.2841585576534271,-0.1052587330341339,0.02322487533092499,-0.008413895964622498,-0.03133692219853401,XTrueNorthZVertical,0.0004383516389886073,0.1582072542112063,0.8261995106566495,0.540707549826052,0.1703633815050125,-0.2618955373764038,-0.94994056224823,-4.318388938903809,-34.94525909423828,-33.69435882568359,1,321169.207342875,unknown,1,2015-02-11 00:12:48.016,null,0,0,0,0,null,0,0.05488777,101.1227,192.168.1.3,10.42.194.158,1,0
2015-02-11 00:12:49.609,75,1423642369.059366,37.77922276410999,-122.438765578086,61.51037,0.15,16.5234375,6,10,-9999,1423642369.23915,-3.211833953857422,-36.93425750732422,-34.26788330078125,173.7850799560547,160.0023651123047,25,321170.716611875,0.13616943359375,-0.2558135986328125,-0.9870147705078125,321170.643178875,-0.3188293846465423,-0.1503104098207262,0.01602796870453289,321170.643178875,1.96146176164599,0.1649673161531453,0.2646678683787562,-0.3008818328380585,-0.1555328071117401,0.006512532476335764,-0.01688503287732601,0.01428952161222696,-0.0212975200265646,XTrueNorthZVertical,0.005308527313278241,0.1547057620024056,0.8268880337937571,0.5406423398098811,0.1585018485784531,-0.2615887224674225,-0.9520758986473083,-4.833127975463867,-34.86623382568359,-33.70632171630859,1,321169.207342875,unknown,1,2015-02-11 00:12:48.016,null,0,0,0,0,null,0,0.05488777,101.1227,192.168.1.3,10.42.194.158,1,0
2015-02-11 00:12:49.675,76,1423642369.059366,37.77922276410999,-122.438765578086,61.51037,0.15,16.5234375,6,10,-9999,1423642369.594644,-4.221240997314453,-35.99763488769531,-35.50811767578125,172.5581359863281,158.7754211425781,25,321170.815787875,0.108245849609375,-0.23577880859375,-0.9560546875,321170.743129875,-0.1653785752683946,-0.1314520335096571,-0.02282009474867098,321170.743129875,1.95740597526141,0.1473324688611813,0.2341351813054355,-0.1474325209856033,-0.1366769671440125,-0.03233488276600838,0.001690835459157825,-0.01770823262631893,-0.02593627013266087,XTrueNorthZVertical,0.004356344444912588,0.1374498312664764,0.8266573742156244,0.5456428915400746,0.1427946388721466,-0.232001855969429,-0.9621771574020386,-5.151825904846191,-33.91677474975586,-34.6156120300293,1,321170.814001875,unknown,2,2015-02-11 00:12:49.603,null,0,0,0,0,null,0,0.05488777,101.1227,192.168.1.3,10.42.194.158,1,0
2015-02-11 00:12:49.761,77,1423642369.059366,37.77922276410999,-122.438765578086,61.51037,0.15,16.5234375,6,10,-9999,1423642369.714726,-4.638916015625,-35.09571075439453,-35.91021728515625,172.5514526367188,158.7687377929688,25,321170.915022875,0.1191864013671875,-0.23834228515625,-0.963592529296875,321170.843079875,0.1654688564293483,0.09439840799894868,0.05909447932442227,321170.843079875,1.958076248241877,0.1356538346108818,0.2298263561710972,0.1834051907062531,0.08907221257686615,0.04957312345504761,-0.01197701040655375,0.009592506103217602,-0.0007544892723672092,XTrueNorthZVertical,0.007933379134496986,0.1325018406700221,0.8269264834118553,0.5464182720517835,0.1316822171211243,-0.2278084456920624,-0.9647606611251831,-5.523881435394287,-33.54410171508789,-34.9200439453125,1,321170.814001875,unknown,2,2015-02-11 00:12:49.603,null,0,0,0,0,null,0,0.05488777,101.1227,192.168.1.3,10.42.194.158,1,0
2015-02-11 00:12:49.850,78,1423642369.059366,37.77922276410999,-122.438765578086,61.51037,0.15,16.5234375,6,10,-9999,1423642369.832243,-5.126213073730469,-35.23446655273438,-35.5081787109375,171.8673553466797,158.0846405029297,25,321171.014213875,0.12542724609375,-0.2424774169921875,-0.97393798828125,321170.943026875,0.02351091873543753,-0.05089886738581242,0.02342836074164507,321170.943026875,1.958677375988686,0.1347095036092633,0.2364081165014473,0.04144787043333054,-0.05623416230082512,0.01390920765697956,0.002352413954213262,0.00984693318605423,-0.01310832239687443,XTrueNorthZVertical,0.01012377674491247,0.1349391244712789,0.8268925381461274,0.5458366838853814,0.1305668950080872,-0.2342121750116348,-0.9633778929710388,-5.636827945709229,-33.90213394165039,-34.55431747436523,1,321170.814001875,unknown,2,2015-02-11 00:12:49.603,null,0,0,0,0,null,0,0.05488777,101.1227,192.168.1.3,10.42.194.158,1,0
2015-02-11 00:12:49.949,79,1423642369.059366,37.77922276410999,-122.438765578086,61.51037,0.15,16.5234375,6,10,-9999,1423642369.832243,-5.126213073730469,-35.23446655273438,-35.5081787109375,171.8673553466797,158.0846405029297,25,321171.113417875,0.1289520263671875,-0.2385101318359375,-0.9781494140625,321171.042981875,0.00960122836195367,0.005297826356494628,0.001031708606296697,321171.042981875,1.956221063459796,0.1334390404191349,0.2377166579117527,0.0275375135242939,-4.41015035903547e-05,-0.008485897444188595,0.008774811401963234,-0.01389027759432793,-0.01735240966081619,XTrueNorthZVertical,0.01118071156431411,0.1351139768044816,0.8261750026607436,0.5468583758386668,0.1293019652366638,-0.2354841083288193,-0.9632384181022644,-5.683425426483154,-33.96160507202148,-34.48822021484375,1,321170.814001875,unknown,2,2015-02-11 00:12:49.603,null,0,0,0,0,null,0,0.05488777,101.1227,192.168.1.3,10.42.194.158,1,0
2015-02-11 00:12:50.063,80,1423642369.059366,37.77922276410999,-122.438765578086,61.51037,0.15,16.5234375,6,10,-9999,1423642370.050631,-3.733955383300781,-36.20576477050781,-34.36846923828125,174.1329345703125,160.3502197265625,25,321171.212614875,0.1439666748046875,-0.2559051513671875,-0.9632110595703125,321171.142924875,0.1056167077747985,0.08267677077707392,0.01025849651898523,321171.142924875,1.955479211138142,0.1394691283119947,0.2470787708080395,0.1235505118966103,0.07733330875635147,0.0007413909770548344,-0.001250677043572068,0.005818219855427742,-0.01471397746354342,XTrueNorthZVertical,0.01136386784165043,0.140580747746462,0.8257149998946396,0.5461709147374192,0.134795606136322,-0.2445724904537201,-0.9602158069610596,-5.557291984558105,-34.18216323852539,-34.29031372070312,1,321170.814001875,unknown,2,2015-02-11 00:12:49.603,null,0,0,0,0,null,0,0.05488777,101.1227,192.168.1.3,10.42.194.158,1,0
2015-02-11 00:12:50.148,81,1423642370.059062,37.77922054290565,-122.438770942504,61.47437,0.15,53.0859375,6,10,-9999,1423642370.050631,-3.733955383300781,-36.20576477050781,-34.36846923828125,174.1329345703125,160.3502197265625,25,321171.311811875,0.1581268310546875,-0.269073486328125,-0.9679107666015625,321171.242881875,0.2358564703562515,0.2269343480722681,0.05022402236558634,321171.242881875,1.955662704101518,0.1587028034621735,0.2680870744703152,0.2537856698036194,0.2215887606143951,0.04070748016238213,0.009167810901999474,0.005182737950235605,-0.02270738780498505,XTrueNorthZVertical,0.009300997207089878,0.1543787478355397,0.8251822516600416,0.5432816566923083,0.152392253279686,-0.2648873329162598,-0.9521613717079163,-5.090885162353516,-34.81409454345703,-33.72226333618164,1,321170.814001875,unknown,2,2015-02-11 00:12:49.603,null,0,0,0,0,null,0,0.05488777,101.1227,192.168.1.3,10.42.194.158,1,0
2015-02-11 00:12:50.247,82,1423642370.059062,37.77922054290565,-122.438770942504,61.47437,0.15,53.0859375,6,10,-9999,1423642370.169567,-3.142234802246094,-37.41990661621094,-34.60308837890625,173.6555023193359,159.8727874755859,25,321171.410994875,0.1948394775390625,-0.2640228271484375,-1.054214477539062,321171.342824875,0.07027150010337582,-0.01500824432314155,-0.03749890604496972,321171.342824875,1.951790911758038,0.1630737100033929,0.2760292686231656,0.08819428831338882,-0.02035508304834366,-0.04701525345444679,-0.004930465016514063,0.003784335218369961,-0.01605850271880627,XTrueNorthZVertical,0.01003267268842332,0.1587739774038566,0.8238830438169176,0.5439732649445642,0.1562061011791229,-0.2725373804569244,-0.9493803381919861,-4.755817413330078,-35.25397491455078,-33.31169128417969,1,321170.814001875,unknown,2,2015-02-11 00:12:49.603,null,0,0,0,0,null,0,0.01963806,101.1231,192.168.1.3,10.42.194.158,1,0
2015-02-11 00:12:50.346,83,1423642370.059062,37.77922054290565,-122.438770942504,61.47437,0.15,53.0859375,6,10,-9999,1423642370.287909,-2.863780975341797,-37.62803649902344,-33.0611572265625,172.4567413330078,158.6740264892578,25,321171.510195875,0.177947998046875,-0.3095550537109375,-0.9625396728515625,321171.442763875,-0.3502560170900223,-0.3108697287805134,-0.1521144351431459,321171.442763875,1.955910940266588,0.1891177020065087,0.2935560902664402,-0.3323343098163605,-0.3162170052528381,-0.1616305261850357,-0.007968452759087086,0.04283701628446579,-0.09401027113199234,XTrueNorthZVertical,0.003884334203369259,0.1729388094736489,0.8244891086445425,0.5387901290275765,0.1799502670764923,-0.2893580198287964,-0.9401541352272034,-4.032747745513916,-35.99886322021484,-32.60288619995117,1,321170.814001875,unknown,2,2015-02-11 00:12:49.603,null,0,0,0,0,null,0,0.01963806,101.1231,192.168.1.3,10.42.194.158,1,0
2015-02-11 00:12:50.460,84,1423642370.059062,37.77922054290565,-122.438770942504,61.47437,0.15,53.0859375,6,10,-9999,1423642370.406944,-2.933391571044922,-37.48926544189453,-33.46331787109375,172.5968017578125,158.8140869140625,25,321171.609387875,0.1891937255859375,-0.294158935546875,-0.953826904296875,321171.542704875,-0.02686783328948241,-0.07652140654957378,-0.06912021556413456,321171.542704875,1.948353673643762,0.1871957142763054,0.2981172114740003,-0.00894696731120348,-0.08187425136566162,-0.07863499969244003,0.004324962850660086,-0.007533285301178694,-0.01309399958699942,XTrueNorthZVertical,0.006615919528007621,0.1742422050028321,0.8222842189048629,0.5417052337110654,0.1778955012559891,-0.2937209904193878,-0.9391917586326599,-4.031651496887207,-35.96928405761719,-32.63565063476562,1,321170.814001875,unknown,2,2015-02-11 00:12:49.603,null,0,0,0,0,null,0,0.01963806,101.1231,192.168.1.3,10.42.194.158,1,0
2015-02-11 00:12:50.547,85,1423642370.059062,37.77922054290565,-122.438770942504,61.47437,0.15,53.0859375,6,10,-9999,1423642370.526396,-2.3416748046875,-38.35649871826172,-32.8935546875,174.1527557373047,160.3700408935547,25,321171.708569875,0.18829345703125,-0.2899322509765625,-0.8885498046875,321171.642673875,0.04992814516847854,-0.0309677697876594,-0.06619872784831764,321171.642673875,1.941480556070879,0.1875450866699906,0.3031300053513686,0.06784848123788834,-0.03631969168782234,-0.07571353018283844,0.01030082441866398,-0.001539865625090897,-0.01438566483557224,XTrueNorthZVertical,0.008493588190924417,0.1763299431758133,0.8202416482321065,0.544094901547629,0.1779468506574631,-0.2985089719295502,-0.9376712441444397,-3.892631053924561,-36.18625640869141,-32.41190719604492,1,321170.814001875,unknown,2,2015-02-11 00:12:49.603,null,0,0,0,0,null,0,0.01963806,101.1231,192.168.1.3,10.42.194.158,1,0
2015-02-11 00:12:50.644,86,1423642370.059062,37.77922054290565,-122.438770942504,61.47437,0.15,53.0859375,6,10,-9999,1423642370.526396,-2.3416748046875,-38.35649871826172,-32.8935546875,174.1527557373047,160.3700408935547,25,321171.807779875,0.18896484375,-0.30059814453125,-0.95440673828125,321171.742618875,0.4327112128644017,0.06197495435945197,-0.08662410814478937,321171.742618875,1.945793339936535,0.1997369667700585,0.3033708922872455,0.4506234228610992,0.05662354454398155,-0.09613952785730362,-0.01245590951293707,0.05958785861730576,-0.08442907780408859,XTrueNorthZVertical,0.003174113982420155,0.179747426947948,0.8214389388899428,0.5412197986648059,0.1893510520458221,-0.2987388670444489,-0.9353615641593933,-3.633347511291504,-36.04990386962891,-32.59344863891602,1,321170.814001875,unknown,2,2015-02-11 00:12:49.603,null,0,0,0,0,null,0,0.01963806,101.1231,192.168.1.3,10.42.194.158,1,0
2015-02-11 00:12:50.743,87,1423642370.059062,37.77922054290565,-122.438770942504,61.47437,0.15,53.0859375,6,10,-9999,1423642370.644809,-1.889183044433594,-39.08499145507812,-32.79296875,174.0307922363281,160.2480773925781,25,321171.906965875,0.2181243896484375,-0.31414794921875,-0.9520263671875,321171.842570875,0.2133080180387686,0.1440882002498651,0.001347559511580095,321171.842570875,1.941820833549978,0.213650177558465,0.3209186598746721,0.2312038689851761,0.1386369466781616,-0.00817602127790451,-0.003724347334355116,-0.01824074611067772,-0.02467131242156029,XTrueNorthZVertical,0.00280934599194771,0.1905438294246082,0.819769474697748,0.5400584952414598,0.2012035995721817,-0.315438449382782,-0.9273703098297119,-3.191108703613281,-36.73849868774414,-31.86265754699707,1,321170.814001875,unknown,2,2015-02-11 00:12:49.603,null,0,0,0,0,null,0,0.01963806,101.1231,192.168.1.3,10.42.194.158,1,0
2015-02-11 00:12:50.861,88,1423642370.059062,37.77922054290565,-122.438770942504,61.47437,0.15,53.0859375,6,10,-9999,1423642370.763843,-1.297466278076172,-38.49525451660156,-32.49127197265625,173.7299194335938,159.9472045898438,25,321172.006160875,0.1917877197265625,-0.3189239501953125,-0.960601806640625,321171.942519875,0.1695853045262838,0.2480862387141134,-0.009283779560016225,321171.942519875,1.937524840943631,0.2178558021470751,0.3276616516186003,0.1874814629554749,0.2426365464925766,-0.01880744285881519,-0.01292616873979568,-0.01427537854760885,0.08574933558702469,XTrueNorthZVertical,0.0034191421646115,0.1943688016004937,0.8183714181592373,0.5408117173810799,0.2046375870704651,-0.3218299746513367,-0.9244181513786316,-3.112798690795898,-36.91856384277344,-31.66164207458496,1,321170.814001875,unknown,2,2015-02-11 00:12:49.603,null,0,0,0,0,null,0,0.01963806,101.1231,192.168.1.3,10.42.194.158,1,0
2015-02-11 00:12:50.945,89,1423642370.059062,37.77922054290565,-122.438770942504,61.47437,0.15,53.0859375,6,10,-9999,1423642370.882978,-1.784767150878906,-39.05028533935547,-32.4241943359375,172.6384429931641,158.8557281494141,25,321172.105354875,0.2205810546875,-0.30621337890625,-0.900634765625,321172.042464875,0.02048210562769041,0.03198483100796066,0.07771050797629415,321172.042464875,1.943193049631165,0.2217121962832288,0.3235865150047049,0.03837268054485321,0.0265357531607151,0.06818629801273346,-0.02435984648764133,-0.005517350975424051,-0.02292109280824661,XTrueNorthZVertical,0.0001301663530535418,0.1937861172083574,0.8200504685998912,0.5384832087154766,0.2084876596927643,-0.3179689645767212,-0.924893856048584,-2.94441032409668,-36.84291839599609,-31.76568984985352,1,321170.814001875,unknown,2,2015-02-11 00:12:49.603,null,0,0,0,0,null,0,0.01963806,101.1231,192.168.1.3,10.42.194.158,1,0
2015-02-11 00:12:51.042,90,1423642370.059062,37.77922054290565,-122.438770942504,61.47437,0.15,53.0859375,6,10,-9999,1423642371.001741,-1.227851867675781,-38.70339965820312,-32.8935546875,173.1576538085938,159.3749389648438,25,321172.204542875,0.2015228271484375,-0.3139801025390625,-0.9713287353515625,321172.142419875,0.5110100131254943,0.4579438652445754,0.04277249763554463,321172.142419875,1.937920659046096,0.235412643131265,0.3373626084161664,0.5289032459259033,0.4524915218353271,0.03324960172176361,-0.006503973621875048,-0.01235374994575977,0.05920542404055595,XTrueNorthZVertical,-0.001037084030863491,0.2029704247611252,0.8181375242141034,0.53800830466379,0.2200964987277985,-0.3309995234012604,-0.9176038503646851,-2.587858200073242,-37.22447204589844,-31.34917449951172,1,321170.814001875,unknown,2,2015-02-11 00:12:49.603,null,0,0,0,0,null,0,0.01963806,101.1231,192.168.1.3,10.42.194.158,1,0
2015-02-11 00:12:51.139,91,1423642371.046824,37.77922238692435,-122.4387753849127,61.5661,0.28,15.46875,6,10,-9999,1423642371.102125,-1.436695098876953,-39.11968231201172,-32.55841064453125,172.4031372070312,158.6204223632812,25,321172.303717875,0.214630126953125,-0.334075927734375,-0.9137725830078125,321172.242360875,-0.0330919070731066,-0.09546686822828847,-0.004068244881205044,321172.242360875,1.940990267019877,0.2334209797941989,0.3266597789958158,-0.01520571019500494,-0.1009212955832481,-0.01359127275645733,-0.008046375587582588,-0.004298817832022905,-0.08642396330833435,XTrueNorthZVertical,-0.003579144713872481,0.1981666818505703,0.8193407835341445,0.5379571076307973,0.2190754264593124,-0.3208812475204468,-0.9214342832565308,-2.471501350402832,-37.04904556274414,-31.56563758850098,1,321170.814001875,unknown,2,2015-02-11 00:12:49.603,null,0,0,0,0,null,0,0.01963806,101.1231,192.168.1.3,10.42.194.158,1,0
2015-02-11 00:12:51.239,92,1423642371.046824,37.77922238692435,-122.4387753849127,61.5661,0.28,15.46875,6,10,-9999,1423642371.217517,-1.47149658203125,-38.59934997558594,-32.7259521484375,173.550537109375,159.767822265625,25,321172.402907875,0.207305908203125,-0.302093505859375,-0.9326934814453125,321172.342316875,-0.1854361730183264,-0.1991562463221966,0.0572435823668172,321172.342316875,1.943778499459931,0.2131157175720004,0.3210699106186881,-0.1675449311733246,-0.2046094983816147,0.04772120341658592,0.00239665131084621,-0.009918510913848877,0.02717777900397778,XTrueNorthZVertical,0.00288495024115927,0.1904629617095401,0.820291529261468,0.5392933873006475,0.2006978243589401,-0.3155819773674011,-0.927431046962738,-3.046862602233887,-36.85174560546875,-31.74578475952148,1,321170.814001875,unknown,2,2015-02-11 00:12:49.603,null,0,0,0,0,null,0,0.01963806,101.1231,192.168.1.3,10.42.194.158,1,0
2015-02-11 00:12:51.343,93,1423642371.046824,37.77922238692435,-122.4387753849127,61.5661,0.28,15.46875,6,10,-9999,1423642371.337537,-2.341663360595703,-38.42588806152344,-33.96612548828125,173.4151611328125,159.6324462890625,25,321172.502084875,0.172760009765625,-0.2915191650390625,-0.9661712646484375,321172.442262875,-0.1823543630048867,-0.1175748337014723,0.007059507417582045,321172.442262875,1.950156200985182,0.1964120553555029,0.3051601719292601,-0.1644620299339294,-0.123025543987751,-0.002463127020746469,-0.001122586196288466,-0.01676901429891586,0.002339503495022655,XTrueNorthZVertical,0.004654361346729886,0.1795778978545405,0.8225488207824411,0.5395772106356986,0.186135396361351,-0.300445944070816,-0.9354602098464966,-3.785399436950684,-36.2388916015625,-32.36576080322266,1,321170.814001875,unknown,2,2015-02-11 00:12:49.603,null,0,0,0,0,null,0,0.01963806,101.1231,192.168.1.3,10.42.194.158,1,0
2015-02-11 00:12:51.444,94,1423642371.046824,37.77922238692435,-122.4387753849127,61.5661,0.28,15.46875,6,10,-9999,1423642371.337537,-2.341663360595703,-38.42588806152344,-33.96612548828125,173.4151611328125,159.6324462890625,25,321172.601276875,0.1482696533203125,-0.2742919921875,-0.9512481689453125,321172.542216875,-0.1427664734008588,-0.2384344102914482,0.06674733903287396,321172.542216875,1.959110168595906,0.1734424562504334,0.2877746696041797,-0.1248739436268806,-0.2438881993293762,0.05722589790821075,-0.007518565282225609,0.005971819628030062,-0.01792626082897186,XTrueNorthZVertical,0.008457913139088041,0.1663814675319353,0.8255044676722065,0.5392476778863916,0.1654775440692902,-0.2838191092014313,-0.9444913268089294,-4.496903896331787,-35.66633987426758,-32.90621948242188,1,321170.814001875,unknown,2,2015-02-11 00:12:49.603,null,0,0,0,0,null,0,0.01963806,101.1231,192.168.1.3,10.42.194.158,1,0
2015-02-11 00:12:51.539,95,1423642371.046824,37.77922238692435,-122.4387753849127,61.5661,0.28,15.46875,6,10,-9999,1423642371.475979,-3.49029541015625,-37.07299041748047,-34.13372802734375,172.449462890625,158.666748046875,25,321172.700453875,0.1373443603515625,-0.2649078369140625,-0.9532318115234375,321172.642161875,-0.3497867681059504,-0.2033464639813272,0.008713330454521252,321172.642161875,1.964476643314284,0.1561979795710072,0.2774658654347066,-0.3318948149681091,-0.2088056951761246,-0.0008063963614404202,-0.005311345681548119,-0.005301260855048895,-0.008757089264690876,XTrueNorthZVertical,0.01226972617726097,0.157567013680206,0.8272295394598816,0.5391784420299252,0.1496137082576752,-0.2739193141460419,-0.9500441551208496,-5.220656871795654,-35.30567169189453,-33.18710327148438,1,321170.814001875,unknown,2,2015-02-11 00:12:49.603,null,0,0,0,0,null,0,-0.01863098,101.1236,192.168.1.3,10.42.194.158,1,0
2015-02-11 00:12:51.708,96,1423642371.046824,37.77922238692435,-122.4387753849127,61.5661,0.28,15.46875,6,10,-9999,1423642371.597725,-4.360454559326172,-36.55265808105469,-34.435302734375,172.3977661132812,158.6150512695312,25,321172.873066875,0.1342010498046875,-0.267120361328125,-0.97735595703125,321172.842060875,-0.03936631460133328,-0.04656324113116342,0.03640221630807509,321172.842060875,1.968858910391843,0.1390830727194912,0.2674354672560429,-0.02148622460663319,-0.05212397128343582,0.02687581069767475,0.0009061697055585682,-0.002098481636494398,-0.01139890588819981,XTrueNorthZVertical,0.01623082966411473,0.1488867869469548,0.828651491559607,0.5393570280087707,0.1337068676948547,-0.2642589509487152,-0.9551385641098022,-5.885758399963379,-34.84299087524414,-33.56267547607422,1,321170.814001875,unknown,2,2015-02-11 00:12:49.603,null,0,0,0,0,null,0,-0.01863098,101.1236,192.168.1.3,10.42.194.158,1,0
2015-02-11 00:12:51.867,97,1423642371.046824,37.77922238692435,-122.4387753849127,61.5661,0.28,15.46875,6,10,-9999,1423642371.820938,-4.952167510986328,-36.10167694091797,-35.00518798828125,172.6447448730469,158.8620300292969,25,321173.031752875,0.1038818359375,-0.244659423828125,-0.9597015380859375,321172.941993875,-0.2238847623080183,-0.1843165800960571,0.03389618172231053,321172.941993875,1.973815239827517,0.1233402230838711,0.2548432138535201,-0.2060058861970901,-0.1898819506168365,0.02437122352421284,0.001963167684152722,0.0001405643415637314,-0.01532607059925795,XTrueNorthZVertical,0.01891748292445655,0.1395221093507404,0.8303055383580887,0.5392294837074434,0.1190542876720428,-0.2520937025547028,-0.9603514075279236,-6.198947906494141,-34.64079284667969,-33.71524429321289,1,321170.814001875,unknown,2,2015-02-11 00:12:49.603,null,0,0,0,0,null,0,-0.01863098,101.1236,192.168.1.3,10.42.194.158,1,0
2015-02-11 00:12:52.026,98,1423642371.046824,37.77922238692435,-122.4387753849127,61.5661,0.28,15.46875,6,10,-9999,1423642371.929856,-4.986976623535156,-35.78947448730469,-34.7705078125,173.683349609375,159.900634765625,25,321173.190476875,0.1085052490234375,-0.248931884765625,-0.973602294921875,321173.141913875,-0.03198562995628768,0.005339371669499864,0.001156344545312405,321173.141913875,1.976293612951183,0.1104393998230063,0.2490289565884074,-0.0141066974028945,-0.0002303939400007948,-0.008366995491087437,0.0001947440759977326,-0.009548976086080074,-0.01104103773832321,XTrueNorthZVertical,0.0225029143632878,0.1336774754674083,0.8310518353260791,0.5394226651563351,0.1068151444196701,-0.2464629858732224,-0.9632478952407837,-7.006626129150391,-34.12919616699219,-34.07689666748047,1,321170.814001875,unknown,2,2015-02-11 00:12:49.603,null,0,0,0,0,null,0,-0.01863098,101.1236,192.168.1.3,10.42.194.158,1,0
2015-02-11 00:12:52.189,99,1423642372.047438,37.77922657787593,-122.4387839344539,61.60031,0.54,352.265625,6,10,-9999,1423642372.149493,-5.4046630859375,-36.48326110839844,-34.83758544921875,172.7955017089844,159.0127868652344,25,321173.349184875,0.10894775390625,-0.2582855224609375,-0.9741973876953125,321173.241861875,-0.008548480783045346,-0.01273550264886793,-0.005290635821551415,321173.241861875,1.975270413400631,0.1104404627808283,0.2506962670763774,0.009330005384981632,-0.01830787397921085,-0.0148130115121603,0.001948144170455635,-0.001845185062848032,-0.01296153664588928,XTrueNorthZVertical,0.02303043790400048,0.1343524731406772,0.8307143311100615,0.5397524666591954,0.1067707315087318,-0.2480785250663757,-0.9628379940986633,-6.978947639465332,-34.21368789672852,-33.99775695800781,1,321170.814001875,unknown,2,2015-02-11 00:12:49.603,null,0,0,0,0,null,0,-0.01863098,101.1236,192.168.1.3,10.42.194.158,1,0
2015-02-11 00:12:52.346,100,1423642372.047438,37.77922657787593,-122.4387839344539,61.60031,0.54,352.265625,6,10,-9999,1423642372.266948,-5.78753662109375,-36.58732604980469,-35.34039306640625,172.8005065917969,159.0177917480469,25,321173.507888875,0.093658447265625,-0.24462890625,-0.96832275390625,321173.441742875,-0.05107250548888558,-0.02319506783015413,0.04280871662636971,321173.441742875,1.97525847955366,0.1097979856858428,0.2514031608370698,-0.0331924706697464,-0.02876744605600834,0.03328697383403778,0.006339672021567822,-0.004776783753186464,-0.02135320939123631,XTrueNorthZVertical,0.02349293200201954,0.1344698687552272,0.8306773839992309,0.5397601629802654,0.1061328649520874,-0.2487632483243942,-0.9627318978309631,-6.981964111328125,-34.25533294677734,-33.95517349243164,1,321170.814001875,unknown,2,2015-02-11 00:12:49.603,null,0,0,0,0,null,0,-0.01863098,101.1236,192.168.1.3,10.42.194.158,1,0
2015-02-11 00:12:52.538,101,1423642372.047438,37.77922657787593,-122.4387839344539,61.60031,0.54,352.265625,6,10,-9999,1423642372.485773,-6.065990447998047,-35.54661560058594,-35.80963134765625,172.7481384277344,158.9654235839844,25,321173.682445875,0.105438232421875,-0.2649383544921875,-0.9804229736328125,321173.641642875,0.003239469149972385,0.03291427422839831,0.01168115717330555,321173.641642875,1.977372592397142,0.1060328688389392,0.2480709040385543,0.02111300826072693,0.02733299136161804,0.002161693759262562,0.006032837554812431,-0.003061816329136491,-0.01745594665408134,XTrueNorthZVertical,0.02399881349814557,0.1321070101686127,0.8313269690978242,0.5393211274843633,0.1025944799184799,-0.2455343753099442,-0.9639436006546021,-7.189996242523193,-34.10187149047852,-34.06604766845703,1,321170.814001875,unknown,2,2015-02-11 00:12:49.603,null,0,0,0,0,null,0,-0.01863098,101.1236,192.168.1.3,10.42.194.158,1,0
2015-02-11 00:12:52.623,102,1423642372.047438,37.77922657787593,-122.4387839344539,61.60031,0.54,352.265625,6,10,-9999,1423642372.603163,-6.240028381347656,-36.06696319580078,-35.57501220703125,172.68505859375,158.90234375,25,321173.781629875,0.0921478271484375,-0.2378082275390625,-0.9682159423828125,321173.741610875,-0.06927121679794206,-0.06142341369769656,0.02051965619906053,321173.741610875,1.979236514910146,0.1033153590348801,0.2474158380526109,-0.05139345303177834,-0.0670042410492897,0.01100066676735878,-0.003067318117246032,0.0002551443176344037,-0.0213086474686861,XTrueNorthZVertical,0.02482596493042321,0.1311272945577237,0.8318205906254527,0.538761377962598,0.09999114274978638,-0.2448993027210236,-0.9643785953521729,-7.265884876251221,-34.0959587097168,-34.05586624145508,1,321170.814001875,unknown,2,2015-02-11 00:12:49.603,null,0,0,0,0,null,0,-0.01863098,101.1236,192.168.1.3,10.42.194.158,5,0
2015-02-11 00:12:52.720,103,1423642372.047438,37.77922657787593,-122.4387839344539,61.60031,0.54,352.265625,6,10,-9999,1423642372.603163,-6.240028381347656,-36.06696319580078,-35.57501220703125,172.68505859375,158.90234375,25,321173.880887125,0.100555419921875,-0.2524566650390625,-0.978607177734375,321173.841644125,-0.06186469949032269,-0.02328987636496095,-0.004054396443536632,321173.841644125,1.979480431139182,0.1010154274490534,0.2464208828307743,-0.04401120916008949,-0.0289806704968214,-0.01358305849134922,-0.004566201474517584,-0.002357583260163665,-0.003108568722382188,XTrueNorthZVertical,0.02549336661543828,0.1301003500338326,0.831894671616926,0.5388647843387431,0.09779740124940872,-0.2439345270395279,-0.9648479819297791,-7.364864826202393,-34.05026626586914,-34.0803108215332,1,321170.814001875,unknown,2,2015-02-11 00:12:49.603,null,0,0,0,0,null,0,-0.01863098,101.1236,192.168.1.3,10.42.194.158,5,0
2015-02-11 00:12:52.818,104,1423642372.047438,37.77922657787593,-122.4387839344539,61.60031,0.54,352.265625,6,10,-9999,1423642372.722971,-5.300243377685547,-35.61597442626953,-35.47442626953125,172.688232421875,158.905517578125,25,321173.980095125,0.0942230224609375,-0.2483062744140625,-0.9739990234375,321173.941589125,-0.007446997356188574,-0.02437644608971328,0.008573248181183083,321173.941589125,1.978788151221418,0.101427333459322,0.2468438791891956,0.01040992792695761,-0.03006622008979321,-0.0009552550036460161,0.005422813352197409,-0.005060179624706507,-0.01979220099747181,XTrueNorthZVertical,0.02548333054324347,0.1303770109914064,0.8316974718856891,0.5391027392007128,0.09818436205387115,-0.2443447262048721,-0.9647048711776733,-7.34709358215332,-34.04390716552734,-34.09049606323242,1,321170.814001875,unknown,2,2015-02-11 00:12:49.603,null,0,0,0,0,null,0,-0.01863098,101.1236,192.168.1.3,10.42.194.158,5,0
2015-02-11 00:12:52.917,105,1423642372.047438,37.77922657787593,-122.4387839344539,61.60031,0.54,352.265625,6,10,-9999,1423642372.840564,-5.822345733642578,-35.44253540039062,-34.90460205078125,172.7524719238281,158.9697570800781,25,321174.079284125,0.097625732421875,-0.243377685546875,-0.9801025390625,321174.041541125,-0.02985084002648017,-0.009512012465436015,0.003296460797300081,321174.041541125,1.978786806468392,0.09877385712115348,0.2468097253553187,-0.01199565269052982,-0.01520428247749805,-0.006231268867850304,-0.002134422538802028,-0.00129386002663523,-0.011119170114398,XTrueNorthZVertical,0.0265774571022873,0.1296475421518705,0.8316638627620168,0.5392776522804402,0.09562502056360245,-0.2443116158246994,-0.9649702906608582,-7.44194221496582,-34.05756378173828,-34.0562629699707,1,321170.814001875,unknown,2,2015-02-11 00:12:49.603,null,0,0,0,0,null,0,-0.01863098,101.1236,192.168.1.3,10.42.194.158,5,0
2015-02-11 00:12:53.018,106,1423642372.047438,37.77922657787593,-122.4387839344539,61.60031,0.54,352.265625,6,10,-9999,1423642372.959734,-6.100807189941406,-36.06692504882812,-35.708984375,172.7521514892578,158.9694366455078,25,321174.178484125,0.0944061279296875,-0.2383270263671875,-0.983428955078125,321174.141489125,-0.02666969410438052,-0.02225923302310029,-0.00202932875064038,321174.141489125,1.977535380547461,0.0980599851600954,0.2470434635398118,-0.008815069682896137,-0.02795141376554966,-0.01155686937272549,0.003580202115699649,-0.007933666929602623,-0.01194724254310131,XTrueNorthZVertical,0.02701957141993685,0.1295345845476884,0.8313078150709999,0.5398315145057833,0.09493053704500198,-0.2445382624864578,-0.9649814963340759,-7.442354202270508,-34.06222915649414,-34.051513671875,1,321170.814001875,unknown,2,2015-02-11 00:12:49.603,null,0,0,0,0,null,0,-0.01863098,101.1236,192.168.1.3,10.42.194.158,5,0
2015-02-11 00:12:53.116,107,1423642373.058454,37.77922946963253,-122.4387943280138,61.63718,0.38,341.3671875,6,10,-9999,1423642373.080456,-6.066001892089844,-34.92217254638672,-35.74249267578125,172.7053070068359,158.9225921630859,25,321174.277672125,0.0924530029296875,-0.2501983642578125,-0.9720458984375,321174.241425125,0.03092595815854515,-0.01381914289642117,0.002052764568233077,321174.241425125,1.976365720729912,0.09638389700218808,0.2463502262709163,0.04877553507685661,-0.01951023563742638,-0.007475142832845449,0.002587442984804511,-0.01226802542805672,-0.01857898943126202,XTrueNorthZVertical,0.02760096161883327,0.1287801319688618,0.8309954166630795,0.5404632228913822,0.0933293029665947,-0.2438660115003586,-0.9653077125549316,-7.467002868652344,-34.04941940307617,-34.05892562866211,1,321170.814001875,unknown,2,2015-02-11 00:12:49.603,null,0,0,0,0,null,0,-0.01863098,101.1236,192.168.1.3,10.42.194.158,5,0
2015-02-11 00:12:53.215,108,1423642373.058454,37.77922946963253,-122.4387943280138,61.63718,0.38,341.3671875,6,10,-9999,1423642373.196513,-6.796947479248047,-35.65065002441406,-35.23980712890625,172.6900939941406,158.9073791503906,25,321174.376866125,0.096405029296875,-0.2415618896484375,-0.9700469970703125,321174.341389125,1.944107595757844e-05,0.007441404717899407,0.006387325558446045,321174.341389125,1.976134088661613,0.09455284101942049,0.2467338792114018,0.01786833629012108,0.001749838818795979,-0.003140275599434972,0.001922564581036568,0.001394432387314737,-0.009546020999550819,XTrueNorthZVertical,0.02848218246347986,0.1284401450053668,0.8308924642430818,0.5406566568373719,0.09155277907848358,-0.2442380636930466,-0.965383768081665,-7.528366088867188,-34.06842803955078,-34.02639007568359,1,321170.814001875,unknown,2,2015-02-11 00:12:49.603,null,0,0,0,0,null,0,-0.01863098,101.1236,192.168.1.3,10.42.194.158,5,0
2015-02-11 00:12:53.314,109,1423642373.058454,37.77922946963253,-122.4387943280138,61.63718,0.38,341.3671875,6,10,-9999,1423642373.196513,-6.796947479248047,-35.65065002441406,-35.23980712890625,172.6900939941406,158.9073791503906,25,321174.476045125,0.09466552734375,-0.25897216796875,-0.97393798828125,321174.441338125,0.009610815741877955,0.03182530765866491,0.002070874063645616,321174.441338125,1.974327825805716,0.0967615310086022,0.2476596934371823,0.02745969593524933,0.02613566257059574,-0.007456922437995672,0.005565005354583263,-0.009289316833019257,-0.01839891262352467,XTrueNorthZVertical,0.02793624951423732,0.1293935552232449,0.8303995933199529,0.5412147471468347,0.09366290271282196,-0.2451357245445251,-0.9649537205696106,-7.42415714263916,-34.11516189575195,-34.00245666503906,1,321170.814001875,unknown,2,2015-02-11 00:12:49.603,null,0,0,0,0,null,0,-0.01863098,101.1236,192.168.1.3,10.42.194.158,5,0
2015-02-11 00:12:53.421,110,1423642373.058454,37.77922946963253,-122.4387943280138,61.63718,0.38,341.3671875,6,10,-9999,1423642373.315337,-5.822364807128906,-36.06694030761719,-35.10577392578125,172.6719207763672,158.8892059326172,25,321174.575231125,0.0892791748046875,-0.24664306640625,-0.982757568359375,321174.541273125,0.03842355557544523,0.02544970000901521,0.01051735577694093,321174.541273125,1.973878897814248,0.09678285383149632,0.2495479825289875,0.05627359077334404,0.01975837722420692,0.0009903513127937913,-0.002421537879854441,0.005526149179786444,-0.02212873287498951,XTrueNorthZVertical,0.0284770011146305,0.1301706792848825,0.8302058174858424,0.5412974861941265,0.093638576567173,-0.2469659745693207,-0.9644892811775208,-7.411872863769531,-34.16839218139648,-33.95164489746094,1,321170.814001875,unknown,2,2015-02-11 00:12:49.603,null,0,0,0,0,null,0,-0.01863098,101.1236,192.168.1.3,10.42.194.158,5,0
2015-02-11 00:12:53.514,111,1423642373.058454,37.77922946963253,-122.4387943280138,61.63718,0.38,341.3671875,6,10,-9999,1423642373.43606,-5.996406555175781,-35.96286010742188,-35.7425537109375,172.6531219482422,158.8704071044922,25,321174.674413125,0.0954132080078125,-0.2513580322265625,-0.973968505859375,321174.641245125,0.03732500162578755,0.02542439997865946,-0.0012032161804978,321174.641245125,1.970484930656321,0.09579190263699139,0.2524663599195507,0.05517096817493439,0.01972980797290802,-0.0107295298948884,-0.001793128671124578,0.0006016069673933089,-0.009849022142589092,XTrueNorthZVertical,0.02991520943841514,0.1310535686659876,0.8291579857397215,0.5426113621678049,0.09261344373226166,-0.2497928887605667,-0.9638600945472717,-7.379100799560547,-34.29669570922852,-33.82920074462891,1,321170.814001875,unknown,2,2015-02-11 00:12:49.603,null,0,0,0,0,null,0,-0.01863098,101.1236,192.168.1.3,10.42.194.158,5,0
2015-02-11 00:12:53.612,112,1423642373.058454,37.77922946963253,-122.4387943280138,61.63718,0.38,341.3671875,6,10,-9999,1423642373.553216,-5.578712463378906,-36.58726501464844,-35.34033203125,172.7169189453125,158.9342041015625,25,321174.773593125,0.0919036865234375,-0.2557830810546875,-0.96881103515625,321174.741194125,0.05108821813931705,-0.01922349569651896,-0.03317393243468104,321174.741194125,1.966865400147039,0.09532836429933408,0.254774515636946,0.06891772150993347,-0.02502243407070637,-0.04271265119314194,0.002920218044891953,-0.003557507414370775,-0.0130987698212266,XTrueNorthZVertical,0.03098376738592233,0.131821112619312,0.8280764889401833,0.5440152039936654,0.09211152046918869,-0.2520272135734558,-0.9633263945579529,-7.306559085845947,-34.41145324707031,-33.72825622558594,1,321170.814001875,unknown,2,2015-02-11 00:12:49.603,null,0,0,0,0,null,0,-0.01863098,101.1236,192.168.1.3,10.42.194.158,5,0
2015-02-11 00:12:53.712,113,1423642373.058454,37.77922946963253,-122.4387943280138,61.63718,0.38,341.3671875,6,10,-9999,1423642373.674189,-5.787548065185547,-36.44851684570312,-35.1392822265625,172.7961273193359,159.0134124755859,25,321174.872762125,0.089385986328125,-0.2606201171875,-0.975433349609375,321174.841135125,0.04261430586679392,-0.003256779697057901,-0.01397999782626195,321174.841135125,1.963593336987159,0.09281256931982493,0.257786263248694,0.06044819578528404,-0.009081470780074596,-0.02352488227188587,-0.00155847379937768,-0.0006136085139587522,-0.01631577685475349,XTrueNorthZVertical,0.03307610684824646,0.132319690249995,0.8270241073415114,0.54537015859806,0.08961694687604904,-0.2549405992031097,-0.9627949595451355,-7.323809623718262,-34.52384185791016,-33.60945129394531,1,321170.814001875,unknown,2,2015-02-11 00:12:49.603,null,0,0,0,0,null,0,-0.01863098,101.1236,192.168.1.3,10.42.194.158,5,0
2015-02-11 00:12:53.822,114,1423642373.058454,37.77922946963253,-122.4387943280138,61.63718,0.38,341.3671875,6,10,-9999,1423642373.792573,-5.648326873779297,-36.72605895996094,-35.20623779296875,172.8658599853516,159.0831451416016,25,321174.971957125,0.0958404541015625,-0.2438812255859375,-0.97686767578125,321174.941092125,-0.03616785813214812,0.02132339821604644,0.02992966959474651,321174.941092125,1.963644631850035,0.09159506052473743,0.2583310004114736,-0.01833174750208855,0.0154983764514327,0.02038528770208359,0.0004657527606468648,-0.002360468730330467,-0.00232298974879086,XTrueNorthZVertical,0.03372739212790231,0.1322119985118984,0.8269955666492962,0.5453996667559847,0.0884319543838501,-0.2554672956466675,-0.9627649188041687,-7.351521968841553,-34.59517669677734,-33.52996063232422,1,321170.814001875,unknown,2,2015-02-11 00:12:49.603,null,0,0,0,0,null,0,-0.01863098,101.1236,192.168.1.3,10.42.194.158,5,0
2015-02-11 00:12:53.911,115,1423642373.058454,37.77922946963253,-122.4387943280138,61.63718,0.38,341.3671875,6,10,-9999,1423642373.792573,-5.648326873779297,-36.72605895996094,-35.20623779296875,172.8658599853516,159.0831451416016,25,321175.071135125,0.0891876220703125,-0.2514190673828125,-0.9723663330078125,321175.041018125,-0.03508022314295976,0.01285348068515844,0.03846137246292436,321175.041018125,1.966070509072102,0.09205433249642217,0.2568404968532055,-0.01723415963351727,0.00703775230795145,0.02891453541815281,-0.001369344885461032,-0.003572915215045214,-7.826374348951504e-05,XTrueNorthZVertical,0.03296389183820279,0.1317658632255706,0.8277248953206366,0.5444471049377807,0.08890901505947113,-0.2540259659290314,-0.9631022810935974,-7.388480186462402,-34.51904296875,-33.6002311706543,1,321170.814001875,unknown,2,2015-02-11 00:12:49.603,null,0,0,0,0,null,0,-0.01863098,101.1236,192.168.1.3,10.42.194.158,5,0
2015-02-11 00:12:54.010,116,1423642373.058454,37.77922946963253,-122.4387943280138,61.63718,0.38,341.3671875,6,10,-9999,1423642373.910169,-6.066017150878906,-36.37914276123047,-34.33477783203125,172.9436492919922,159.1609344482422,25,321175.170320125,0.0888824462890625,-0.2618408203125,-0.98193359375,321175.140985125,-0.04473817683613211,0.003266100760873178,0.01718378061762727,321175.140985125,1.968219051530882,0.0912992506463511,0.2546011726871888,-0.02688265033066273,-0.002525439718738198,0.007644000928848982,0.003700790693983436,-0.006792275235056877,-0.01937532052397728,XTrueNorthZVertical,0.03251546310574648,0.1306757249340126,0.8283875680811656,0.5437284707516724,0.08823341131210327,-0.2518594563007355,-0.9637331962585449,-7.465324401855469,-34.43614959716797,-33.66822814941406,1,321170.814001875,unknown,2,2015-02-11 00:12:49.603,null,0,0,0,0,null,0,-0.01863098,101.1236,192.168.1.3,10.42.194.158,5,0
2015-02-11 00:12:54.108,117,1423642374.062176,37.77923428922685,-122.4388145284005,61.71444,0.85,320.625,6,10,-9999,1423642374.010658,-5.961589813232422,-36.27507781982422,-34.83758544921875,172.9663391113281,159.1836242675781,25,321175.269500125,0.086761474609375,-0.25653076171875,-0.9710693359375,321175.240937125,0.009635849456124699,-0.008464058576489835,0.01490091893121135,321175.240937125,1.968642313569838,0.09064218598261663,0.2556102743278973,0.02749250829219818,-0.01425568200647831,0.005361506249755621,0.00121378421317786,-0.004885045345872641,-0.01391014270484447,XTrueNorthZVertical,0.03303909743369958,0.1309188088743453,0.8284510468491708,0.5435416817352582,0.08757711201906204,-0.2528358995914459,-0.9635373950004578,-7.494359970092773,-34.43083190917969,-33.66722106933594,1,321170.814001875,unknown,2,2015-02-11 00:12:49.603,null,0,0,0,0,null,0,-0.01863098,101.1236,192.168.1.3,10.42.194.158,5,0
2015-02-11 00:12:54.220,118,1423642374.062176,37.77923428922685,-122.4388145284005,61.71444,0.85,320.625,6,10,-9999,1423642374.128707,-6.100811004638672,-36.41382598876953,-35.23980712890625,173.0057983398438,159.2230834960938,25,321175.368678125,0.086883544921875,-0.2480621337890625,-0.96441650390625,321175.340883125,-0.004247741938676385,1.864212763055467e-05,0.006407565582730647,321175.340883125,1.969629422272209,0.08967903224100167,0.2564650673984142,0.01360030844807625,-0.005732735618948936,-0.003115372266620398,0.0006201089126989245,0.004593615420162678,-0.009281103499233723,XTrueNorthZVertical,0.03360979181891916,0.1310249964038512,0.8286683287717758,0.5431497458226811,0.08662964403629303,-0.2536628246307373,-0.9634056687355042,-7.566640377044678,-34.46939849853516,-33.61154556274414,1,321170.814001875,unknown,2,2015-02-11 00:12:49.603,null,0,0,0,0,null,0,-0.01107788,101.1235,192.168.1.3,10.42.194.158,5,0
2015-02-11 00:12:54.308,119,1423642374.062176,37.77923428922685,-122.4388145284005,61.71444,0.85,320.625,6,10,-9999,1423642374.247564,-6.100811004638672,-36.20568084716797,-34.9716796875,173.0153045654297,159.2325897216797,25,321175.467885125,0.0895843505859375,-0.2714385986328125,-0.979888916015625,321175.440838125,-0.02666223725332829,-0.004219778747230553,-0.0009816411778032072,321175.340883125,1.969629422272209,0.08967903224100167,0.2564650673984142,0.01360030844807625,-0.005732735618948936,-0.003115372266620398,0.0006201089126989245,0.004593615420162678,-0.009281103499233723,XTrueNorthZVertical,0.03360979181891916,0.1310249964038512,0.8286683287717758,0.5431497458226811,0.08662964403629303,-0.2536628246307373,-0.9634056687355042,-7.566640377044678,-34.46939849853516,-33.61154556274414,1,321170.814001875,unknown,2,2015-02-11 00:12:49.603,null,0,0,0,0,null,0,-0.01107788,101.1235,192.168.1.3,10.42.194.158,5,0
2015-02-11 00:12:54.407,120,1423642374.062176,37.77923428922685,-122.4388145284005,61.71444,0.85,320.625,6,10,-9999,1423642374.364092,-6.448875427246094,-37.03822326660156,-34.83758544921875,173.0189056396484,159.2361907958984,25,321175.567066125,0.0914459228515625,-0.2487945556640625,-0.97808837890625,321175.540786125,0.002225337406870212,0.007499195313554127,0.03302586067807263,321175.540786125,1.969581123965638,0.08966340504836981,0.2570760339515038,0.02004565484821796,0.001815424649976194,0.02355184219777584,0.005684458184987307,0.009304424747824669,-0.0175519622862339,XTrueNorthZVertical,0.03378827611093296,0.1312711382049978,0.8286299048602248,0.5431378597819732,0.08660069853067398,-0.2542537748813629,-0.9632524847984314,-7.544788837432861,-34.48588943481445,-33.59953689575195,1,321175.549802125,stationary,1,2015-02-11 00:12:54.364,null,0,0,0,0,null,0,-0.01107788,101.1235,192.168.1.3,10.42.194.158,5,0
2015-02-11 00:12:54.507,121,1423642374.062176,37.77923428922685,-122.4388145284005,61.71444,0.85,320.625,6,10,-9999,1423642374.482976,-6.309650421142578,-36.13628387451172,-35.64190673828125,173.0370178222656,159.2543029785156,25,321175.666264125,0.0905914306640625,-0.2504119873046875,-0.97198486328125,321175.640732125,-0.00420087030349099,0.02339427227969206,0.02130528872063391,321175.640732125,1.969654727825255,0.08966970297060876,0.2580990546291647,0.013571847230196,0.01779121719300747,0.01189005095511675,0.002466866280883551,-0.001226692576892674,-0.00166827451903373,XTrueNorthZVertical,0.03406353301767934,0.1316946873809575,0.8286078898225117,0.5430517132311268,0.08658342808485031,-0.2552430331707001,-0.9629923701286316,-7.576003074645996,-34.50694274902344,-33.57088851928711,1,321175.549802125,stationary,1,2015-02-11 00:12:54.364,null,0,0,0,0,null,0,-0.01107788,101.1235,192.168.1.3,10.42.194.158,5,0
2015-02-11 00:12:54.620,122,1423642374.062176,37.77923428922685,-122.4388145284005,61.71444,0.85,320.625,6,10,-9999,1423642374.585034,-6.066001892089844,-36.51786804199219,-35.20623779296875,173.0392761230469,159.2565612792969,25,321175.765442125,0.0915679931640625,-0.25372314453125,-0.9787139892578125,321175.740670125,-0.02544996632512422,0.04045155274554058,0.04799708706206208,321175.740670125,1.971350549629272,0.08959821401592905,0.2562070490051803,-0.007678194437175989,0.03484968096017838,0.03858171403408051,0.001577126211486757,-0.002324063098058105,-0.01148250978440046,XTrueNorthZVertical,0.03345931651964765,0.1309258008846261,0.8291446504799483,0.5424555932669811,0.08655764162540436,-0.2534132301807404,-0.9634777903556824,-7.603687286376953,-34.44922256469727,-33.62386322021484,1,321175.549802125,stationary,1,2015-02-11 00:12:54.364,null,0,0,0,0,null,0,-0.01107788,101.1235,192.168.1.3,10.42.194.158,5,0
2015-02-11 00:12:54.702,123,1423642374.062176,37.77923428922685,-122.4388145284005,61.71444,0.85,320.625,6,10,-9999,1423642374.685398,-6.170421600341797,-36.06690216064453,-34.9716796875,173.0720520019531,159.2893371582031,25,321175.864616125,0.083953857421875,-0.250640869140625,-0.97918701171875,321175.840633125,-0.0307797506146998,0.01287798176718716,0.05123815410868851,321175.740670125,1.971350549629272,0.08959821401592905,0.2562070490051803,-0.007678194437175989,0.03484968096017838,0.03858171403408051,0.001577126211486757,-0.002324063098058105,-0.01148250978440046,XTrueNorthZVertical,0.03345931651964765,0.1309258008846261,0.8291446504799483,0.5424555932669811,0.08655764162540436,-0.2534132301807404,-0.9634777903556824,-7.603687286376953,-34.44922256469727,-33.62386322021484,1,321175.549802125,stationary,1,2015-02-11 00:12:54.364,null,0,0,0,0,null,0,-0.01107788,101.1235,192.168.1.3,10.42.194.158,5,0
2015-02-11 00:12:54.804,124,1423642374.062176,37.77923428922685,-122.4388145284005,61.71444,0.85,320.625,6,10,-9999,1423642374.685398,-6.170421600341797,-36.06690216064453,-34.9716796875,173.0720520019531,159.2893371582031,25,321175.963810125,0.0877838134765625,-0.254974365234375,-0.9780731201171875,321175.940571125,-0.02229678359447041,0.009648099997139064,0.03416303046353647,321175.840633125,1.974598380140183,0.08982555947480116,0.2548474048680226,-0.01305169146507978,0.00736019155010581,0.0418781191110611,0.0004269898927304894,0.0008770418935455382,-0.01045803632587194,XTrueNorthZVertical,0.03277794545450276,0.1304814666637759,0.8300837688668095,0.5411664652381141,0.0868075042963028,-0.2520977556705475,-0.9638003706932068,-7.655698776245117,-34.37562942504883,-33.68732452392578,1,321175.549802125,stationary,1,2015-02-11 00:12:54.364,null,0,0,0,0,null,0,-0.01107788,101.1235,192.168.1.3,10.42.194.158,5,0
2015-02-11 00:12:54.901,125,1423642374.062176,37.77923428922685,-122.4388145284005,61.71444,0.85,320.625,6,10,-9999,1423642374.806059,-6.170421600341797,-36.13628387451172,-35.17279052734375,173.0947570800781,159.3120422363281,25,321176.062987125,0.08685302734375,-0.2566986083984375,-0.9751739501953125,321176.040531125,-0.02335246065057782,0.01708337944453129,0.03735616061054147,321175.940571125,1.977668202809805,0.08936205188866909,0.2541678270131993,-0.004594621248543262,0.004218577407300472,0.02485445886850357,3.44841719197575e-05,-0.001550664543174207,-0.01294829603284597,XTrueNorthZVertical,0.0325835121114065,0.1301262788554321,0.8309335743699253,0.5399582155685143,0.08637604117393494,-0.2514400482177734,-0.9640109539031982,-7.755580902099609,-34.31218338012695,-33.72913360595703,1,321175.549802125,stationary,1,2015-02-11 00:12:54.364,null,0,0,0,0,null,0,-0.01107788,101.1235,192.168.1.3,10.42.194.158,5,0
2015-02-11 00:12:55.015,126,1423642374.062176,37.77923428922685,-122.4388145284005,61.71444,0.85,320.625,6,10,-9999,1423642374.923338,-6.344459533691406,-36.86477661132812,-35.47454833984375,173.1119079589844,159.3291931152344,25,321176.162175125,0.0832977294921875,-0.24920654296875,-0.9761962890625,321176.140475125,-0.009560481997275458,0.005343366411134983,0.01281300063658923,321176.140475125,1.982406804437806,0.08874494881862902,0.2540601627667951,0.008085577748715878,6.536339242302347e-06,0.003553806804120541,-0.004347369540482759,0.008766881190240383,-0.01587419956922531,XTrueNorthZVertical,0.03250242126749033,0.1299926426771134,0.8322049706676263,0.5380338330839928,0.08578352630138397,-0.2513358592987061,-0.9640910029411316,-7.872322082519531,-34.27284240722656,-33.74208450317383,1,321175.549802125,stationary,1,2015-02-11 00:12:54.364,null,0,0,0,0,null,0,-0.01107788,101.1235,192.168.1.3,10.42.194.158,5,0
2015-02-11 00:12:55.099,127,1423642375.058954,37.77923428922685,-122.4388145284005,61.80952,0,310.4296875,6,10,-9999,1423642375.041807,-6.414070129394531,-36.10159301757812,-35.474609375,173.0718841552734,159.2891693115234,25,321176.261350125,0.086761474609375,-0.257843017578125,-0.97967529296875,321176.240423125,-0.02127066762646287,0.01279648903783074,0.01923547992142432,321176.240423125,1.983041616497996,0.0878897751155264,0.252881717105966,-0.003626766381785274,0.007457850035279989,0.009976782836019993,0.001410294440574944,-0.003009286010637879,-0.01230247318744659,XTrueNorthZVertical,0.03249467585780363,0.1292861187815238,0.8324099571216872,0.5378874158235761,0.08498496562242508,-0.2501950562000275,-0.9644584059715271,-7.937432289123535,-34.21449279785156,-33.78601837158203,1,321175.549802125,stationary,1,2015-02-11 00:12:54.364,null,0,0,0,0,null,0,-0.01107788,101.1235,192.168.1.3,10.42.194.158,5,0
2015-02-11 00:12:55.199,128,1423642375.058954,37.77923428922685,-122.4388145284005,61.80952,0,310.4296875,6,10,-9999,1423642375.160045,-6.657722473144531,-36.27503967285156,-35.70916748046875,173.0404663085938,159.2577514648438,25,321176.360544125,0.0805816650390625,-0.2472076416015625,-0.973388671875,321176.340381125,-0.04045315064219462,-0.01157303283304834,0.02571228769249703,321176.240423125,1.983041616497996,0.0878897751155264,0.252881717105966,-0.003626766381785274,0.007457850035279989,0.009976782836019993,0.001410294440574944,-0.003009286010637879,-0.01230247318744659,XTrueNorthZVertical,0.03249467585780363,0.1292861187815238,0.8324099571216872,0.5378874158235761,0.08498496562242508,-0.2501950562000275,-0.9644584059715271,-7.937432289123535,-34.21449279785156,-33.78601837158203,1,321175.549802125,stationary,1,2015-02-11 00:12:54.364,null,0,0,0,0,null,0,-0.01107788,101.1235,192.168.1.3,10.42.194.158,5,0
2015-02-11 00:12:55.299,129,1423642375.058954,37.77923428922685,-122.4388145284005,61.80952,0,310.4296875,6,10,-9999,1423642375.27661,-7.179821014404297,-36.86476135253906,-35.67578125,172.9644165039062,159.1817016601562,25,321176.459717125,0.084564208984375,-0.24951171875,-0.97991943359375,321176.440330125,-0.02132153400328339,-0.01482555147236211,0.003276220773015479,321176.340381125,1.984907292254602,0.08661965080796799,0.2518128461571946,-0.0228436104953289,-0.01682245917618275,0.01648156531155109,-0.0004395006108097732,-0.003174553858116269,-0.01028148829936981,XTrueNorthZVertical,0.03261101636298863,0.1285332954880406,0.8329343437448706,0.537248644352359,0.08378300815820694,-0.249160036444664,-0.9648314118385315,-7.999730110168457,-34.17638397216797,-33.80988693237305,1,321175.549802125,stationary,1,2015-02-11 00:12:54.364,null,0,0,0,0,null,0,-0.01107788,101.1235,192.168.1.3,10.42.194.158,5,0
2015-02-11 00:12:55.396,130,1423642375.058954,37.77923428922685,-122.4388145284005,61.80952,0,310.4296875,6,10,-9999,1423642375.395296,-5.822349548339844,-35.92814636230469,-36.17852783203125,172.977294921875,159.194580078125,25,321176.558886125,0.0875244140625,-0.2458953857421875,-0.978179931640625,321176.540278125,-0.03193502989557618,-0.0031055121471414,0.02034921388929546,321176.540278125,1.985205049543293,0.08501690168997368,0.2512540408292502,-0.01438302546739578,-0.008268600329756737,0.01114571187645197,0.006466272752732038,0.00199101259931922,-0.01402292679995298,XTrueNorthZVertical,0.03310682473284755,0.1278765555577154,0.8330108195079831,0.5372564681442483,0.08224833011627197,-0.2486188262701035,-0.9651030302047729,-8.079639434814453,-34.14586639404297,-33.82171630859375,1,321175.549802125,stationary,1,2015-02-11 00:12:54.364,null,0,0,0,0,null,0,-0.01107788,101.1235,192.168.1.3,10.42.194.158,5,0
