loggingTime,loggingSample,locationTimestamp_since1970,locationLatitude,locationLongitude,locationAltitude,locationSpeed,locationCourse,locationVerticalAccuracy,locationHorizontalAccuracy,locationFloor,locationHeadingTimestamp_since1970,locationHeadingX,locationHeadingY,locationHeadingZ,locationTrueHeading,locationMagneticHeading,locationHeadingAccuracy,accelerometerTimestamp_sinceReboot,accelerometerAccelerationX,accelerometerAccelerationY,accelerometerAccelerationZ,gyroTimestamp_sinceReboot,gyroRotationX,gyroRotationY,gyroRotationZ,motionTimestamp_sinceReboot,motionYaw,motionRoll,motionPitch,motionRotationRateX,motionRotationRateY,motionRotationRateZ,motionUserAccelerationX,motionUserAccelerationY,motionUserAccelerationZ,motionAttitudeReferenceFrame,motionQuaternionX,motionQuaternionY,motionQuaternionZ,motionQuaternionW,motionGravityX,motionGravityY,motionGravityZ,motionMagneticFieldX,motionMagneticFieldY,motionMagneticFieldZ,motionMagneticFieldCalibrationAccuracy,IP_en0,IP_pdp_ip0,deviceOrientation,state
2015-03-12 08:56:29.587,1,1426175785.020085,37.77915569552314,-122.4389425174134,57.40047,-1,-1,10,65,-9999,1426175789.548359,41.060791015625,267.8812561035156,-43.20168304443359,344.8172912597656,331.0432739257812,-1,386741.9057465834,0.1980133056640625,-0.9329376220703125,-0.2588043212890625,386741.87061075,-0.1504643405317328,-0.1137199080235826,-0.1632158221471412,386741.87061075,-0.5042621896937227,0.7034883772227609,1.207503656550546,-0.1685830801725388,-0.09740259498357773,-0.1317587494850159,0.06585860252380371,0.03070961311459541,-0.0196447167545557,XTrueNorthZVertical,0.5868789640231793,0.1416981391450326,-0.003370697366438593,0.7971721002074649,0.2298719882965088,-0.9347318410873413,-0.2709894478321075,0,0,0,-1,192.168.1.8,10.71.35.210,1,0
2015-03-12 08:56:29.591,2,1426175785.020085,37.77915569552314,-122.4389425174134,57.40047,-1,-1,10,65,-9999,1426175789.548359,41.060791015625,267.8812561035156,-43.20168304443359,344.8172912597656,331.0432739257812,-1,386741.95483475,0.1985321044921875,-0.9338836669921875,-0.2823333740234375,386741.9223845417,-0.0169358403201409,-0.2527041600443108,-0.1049024479704392,386741.9223845417,-0.5066777320151448,0.6924453497779209,1.202926691659155,-0.0350525788962841,-0.2363874763250351,-0.07344181835651398,-0.03168792650103569,0.004201559349894524,0.02602317370474339,XTrueNorthZVertical,0.5854102165336543,0.1374561474758128,-0.008500005795535677,0.7989545893232018,0.229594424366951,-0.9330955743789673,-0.2768013775348663,0,0,0,-1,192.168.1.8,10.71.35.210,1,0
2015-03-12 08:56:29.659,3,1426175785.020085,37.77915569552314,-122.4389425174134,57.40047,-1,-1,10,65,-9999,1426175789.648784,41.48708724975586,268.1701049804688,-43.11848068237305,345.0997009277344,331.32568359375,-1,386742.0039010417,0.2003326416015625,-0.9210357666015625,-0.2763519287109375,386741.9741564167,0.03264928969993543,-0.129230158212204,-0.1240106287917577,386741.9741564167,-0.5149391687933185,0.6931028172931371,1.199330306223175,0.01453305687755346,-0.1129147261381149,-0.09254584461450577,-0.03880372643470764,-0.000317439204081893,-0.002843923168256879,XTrueNorthZVertical,0.5847153994621687,0.1359885137786261,-0.01233820394752381,0.7996641760610691,0.2319189608097076,-0.9317961931228638,-0.2792300581932068,0,0,0,-1,192.168.1.8,10.71.35.210,1,0
2015-03-12 08:56:29.683,4,1426175785.020085,37.77915569552314,-122.4389425174134,57.40047,-1,-1,10,65,-9999,1426175789.648784,41.48708724975586,268.1701049804688,-43.11848068237305,345.0997009277344,331.32568359375,-1,386742.05310025,0.2431488037109375,-0.9232635498046875,-0.2833404541015625,386742.025930125,0.02598845749753825,-0.0485558182587607,-0.1651775066060936,386742.025930125,-0.5270311862129597,0.7002490623820909,1.196355547885186,0.00782827939838171,-0.03226849064230919,-0.1336565911769867,-0.01912565343081951,0.00459536025300622,0.004262809175997972,XTrueNorthZVertical,0.5845453115554788,0.1358852560168633,-0.01569246733133446,0.7997472865879554,0.2356936484575272,-0.9307122826576233,-0.2796839475631714,0,0,0,-1,192.168.1.8,10.71.35.210,1,0
2015-03-12 08:56:29.755,5,1426175785.020085,37.77915569552314,-122.4389425174134,57.40047,-1,-1,10,65,-9999,1426175789.702523,41.96453857421875,268.1361389160156,-43.15176391601562,345.0160522460938,331.2420349121094,-1,386742.10204825,0.2412872314453125,-0.9337310791015625,-0.2763671875,386742.077704125,0.03448926769707118,-0.03286900048986697,-0.1655886986784018,386742.077704125,-0.5414398473702272,0.7138430857002058,1.193039053514375,0.01632742770016193,-0.01658185385167599,-0.1340697705745697,0.005027537234127522,0.01189163327217102,-0.004981953650712967,XTrueNorthZVertical,0.5844906488375609,0.137759965739108,-0.01816877985967756,0.7994140158262297,0.2414934635162354,-0.9294942021369934,-0.2787857353687286,0,0,0,-1,192.168.1.8,10.71.35.210,1,0
2015-03-12 08:56:29.781,6,1426175785.020085,37.77915569552314,-122.4389425174134,57.40047,-1,-1,10,65,-9999,1426175789.753295,42.68071365356445,267.4903869628906,-43.25161743164062,344.7659301757812,330.9919128417969,-1,386742.1511507917,0.226593017578125,-0.94464111328125,-0.27435302734375,386742.1294757084,0.01161830657157968,-0.1162789395150397,-0.244174055072787,386742.1294757084,-0.5591037620787628,0.7261635967920393,1.186517373940925,-0.006544429343193769,-0.09999319165945053,-0.2126517444849014,-0.01308985892683268,-0.003457745769992471,0.001614281325601041,XTrueNorthZVertical,0.5835813190244425,0.1388337578588286,-0.02301323120784594,0.7997677306280018,0.2489297091960907,-0.9270690083503723,-0.2803160548210144,0,0,0,-1,192.168.1.8,10.71.35.210,1,0
2015-03-12 08:56:29.847,7,1426175785.020085,37.77915569552314,-122.4389425174134,57.40047,-1,-1,10,65,-9999,1426175789.805082,43.03879928588867,267.6093139648438,-43.20169067382812,344.7633361816406,330.9893188476562,-1,386742.2001940833,0.2260589599609375,-0.9524993896484375,-0.2713775634765625,386742.18124975,0.04799708706206208,-0.03607065275236022,-0.2010052790670386,386742.18124975,-0.5764711533650848,0.7385187838928468,1.18441789087591,0.02984670922160149,-0.01982328295707703,-0.1694365888834,-0.03334678336977959,-0.02182498946785927,0.01249877642840147,XTrueNorthZVertical,0.5842204717488638,0.1391313171150565,-0.02680097074936837,0.7991311688041319,0.2536836862564087,-0.9262798428535461,-0.2786578238010406,0,0,0,-1,192.168.1.8,10.71.35.210,1,0
2015-03-12 08:56:29.879,8,1426175785.020085,37.77915569552314,-122.4389425174134,57.40047,-1,-1,10,65,-9999,1426175789.856878,43.0899543762207,268.2720336914062,-43.1850471496582,344.7581787109375,330.9841613769531,-1,386742.249276875,0.2608184814453125,-0.939605712890625,-0.266510009765625,386742.2330234167,0.009366071237699673,0.0593075322116286,-0.1568620524184302,386742.2330234167,-0.5896947544743846,0.7523853387025555,1.181667124819217,-0.008777125738561153,0.0755523219704628,-0.1252781897783279,-0.006593185942620039,-0.02585580386221409,0.005427164491266012,XTrueNorthZVertical,0.5844018297517641,0.1413796806048032,-0.0286350749879479,0.7985401178245898,0.2592634856700897,-0.9252398014068604,-0.2769725620746613,0,0,0,-1,192.168.1.8,10.71.35.210,1,0
2015-03-12 08:56:29.953,9,1426175785.020085,37.77915569552314,-122.4389425174134,57.40047,-1,-1,10,65,-9999,1426175789.909183,43.02174758911133,268.7817993164062,-42.75236129760742,344.7487182617188,330.9747009277344,-1,386742.2983274167,0.2728271484375,-0.9131011962890625,-0.2853240966796875,386742.284795375,-0.03117762688155764,0.06726718807765743,-0.1007223503234508,386742.2330234167,-0.5896947544743846,0.7523853387025555,1.181667124819217,-0.008777125738561153,0.0755523219704628,-0.1252781897783279,-0.006593185942620039,-0.02585580386221409,0.005427164491266012,XTrueNorthZVertical,0.5844018297517641,0.1413796806048032,-0.0286350749879479,0.7985401178245898,0.2592634856700897,-0.9252398014068604,-0.2769725620746613,0,0,0,-1,192.168.1.8,10.71.35.210,1,0
2015-03-12 08:56:29.977,10,1426175785.020085,37.77915569552314,-122.4389425174134,57.40047,-1,-1,10,65,-9999,1426175789.959327,43.37983322143555,268.4589233398438,-42.93541717529297,344.4142761230469,330.6402587890625,-1,386742.3474097917,0.2738037109375,-0.91552734375,-0.27239990234375,386742.3365690417,-0.02247681328415976,0.05023973501601781,-0.1015311523465079,386742.3365690417,-0.5987979161427355,0.7690913835470339,1.173001035416059,-0.04061626642942429,0.06648551672697067,-0.06995018571615219,0.0001410221011610702,0.007656444329768419,0.003344823839142919,XTrueNorthZVertical,0.5823626938046574,0.1472301032118421,-0.02933101543867798,0.7989472329923611,0.2694207429885864,-0.9219173192977905,-0.2783539891242981,0,0,0,-1,192.168.1.8,10.71.35.210,1,0
2015-03-12 08:56:30.021,11,1426175785.020085,37.77915569552314,-122.4389425174134,57.40047,-1,-1,10,65,-9999,1426175790.012286,43.65266036987305,268.1190795898438,-42.76900100708008,344.4092102050781,330.6351928710938,-1,386742.3964596667,0.264434814453125,-0.924407958984375,-0.2626190185546875,386742.3883430417,0.008021973835536681,0.08596710630386682,-0.07802369572048748,386742.3365690417,-0.5987979161427355,0.7690913835470339,1.173001035416059,-0.04061626642942429,0.06648551672697067,-0.06995018571615219,0.0001410221011610702,0.007656444329768419,0.003344823839142919,XTrueNorthZVertical,0.5823626938046574,0.1472301032118421,-0.02933101543867798,0.7989472329923611,0.2694207429885864,-0.9219173192977905,-0.2783539891242981,0,0,0,-1,192.168.1.8,10.71.35.210,1,0
2015-03-12 08:56:30.075,12,1426175785.020085,37.77915569552314,-122.4389425174134,57.40047,-1,-1,10,65,-9999,1426175790.06411,43.78907775878906,268.0511169433594,-42.76900100708008,344.4000549316406,330.6260375976562,-1,386742.4455452917,0.28564453125,-0.92169189453125,-0.282318115234375,386742.4401147084,-0.00486026898939461,0.1894213272735209,-0.02189837469539455,386742.3883430417,-0.6015867845942637,0.7758221870984464,1.170745186661105,-0.01011451799422503,0.1022129952907562,-0.0464416928589344,-0.008187022991478443,0.0004325573972892016,0.01471248921006918,XTrueNorthZVertical,0.5819055940455309,0.1495887793785547,-0.02899490500779057,0.7988544123844731,0.2727439105510712,-0.9210410714149475,-0.2780181467533112,0,0,0,-1,192.168.1.8,10.71.35.210,1,0
2015-03-12 08:56:30.156,13,1426175785.020085,37.77915569552314,-122.4389425174134,57.40047,-1,-1,10,65,-9999,1426175790.118036,44.16422271728516,267.7112731933594,-42.50273513793945,343.8939819335938,330.1199645996094,-1,386742.4946010833,0.319427490234375,-0.9173431396484375,-0.281982421875,386742.49188875,-0.08726326680640838,0.212514396033925,0.01925518731349091,386742.4401147084,-0.6013944085676172,0.7838649698352047,1.170129954389168,-0.02299315296113491,0.2056671977043152,0.009685837663710117,0.003208591835573316,0.00113881635479629,-0.006559066940099001,XTrueNorthZVertical,0.58179566373376,0.1529882340996387,-0.02671789048584459,0.7983699394489092,0.2753711342811584,-0.9208012819290161,-0.2762168049812317,0,0,0,-1,192.168.1.8,10.71.35.210,1,0
2015-03-12 08:56:30.176,14,1426175785.020085,37.77915569552314,-122.4389425174134,57.40047,-1,-1,10,65,-9999,1426175790.168288,43.73792266845703,267.4903869628906,-42.71907424926758,343.8680419921875,330.0940246582031,-1,386742.5436934584,0.3004150390625,-0.90460205078125,-0.27392578125,386742.5436625,-0.05112390449792411,0.123180255163871,-0.02258946499827012,386742.49188875,-0.5968219763840031,0.791209786056729,1.167725561202585,-0.1053956374526024,0.2287635803222656,0.05082593113183975,0.04154464974999428,-0.003448485396802425,-0.0006400235579349101,XTrueNorthZVertical,0.5807227148284905,0.1577653863309366,-0.02330637343086221,0.7983282685183958,0.2789662182331085,-0.91986083984375,-0.2757424116134644,0,0,0,-1,192.168.1.8,10.71.35.210,1,0
2015-03-12 08:56:30.218,15,1426175785.020085,37.77915569552314,-122.4389425174134,57.40047,-1,-1,10,65,-9999,1426175790.168288,43.73792266845703,267.4903869628906,-42.71907424926758,343.8680419921875,330.0940246582031,-1,386742.5927477917,0.2893524169921875,-0.9113006591796875,-0.2714080810546875,386742.5436625,-0.05112390449792411,0.123180255163871,-0.02258946499827012,386742.5436625,-0.5888676047969055,0.793679129353191,1.163235229743917,-0.06926266849040985,0.1394324451684952,0.008962023071944714,0.01855924539268017,0.01301519013941288,-0.005378853995352983,XTrueNorthZVertical,0.5785991228154711,0.1620181610254726,-0.02043892009918849,0.799096628149732,0.2825882136821747,-0.918090283870697,-0.2779463529586792,0,0,0,-1,192.168.1.8,10.71.35.210,1,0
2015-03-12 08:56:30.272,16,1426175785.020085,37.77915569552314,-122.4389425174134,57.40047,-1,-1,10,65,-9999,1426175790.220758,43.49919509887695,267.2524719238281,-42.58594512939453,343.8863525390625,330.1123352050781,-1,386742.6419552084,0.3211669921875,-0.912384033203125,-0.2722930908203125,386742.6472083334,-0.008326373148132738,0.1531964774940451,-0.02831685923859452,386742.5954342917,-0.5859284946561761,0.7983619675957438,1.159887909568714,-0.04849467054009438,0.156438484787941,-0.004971869289875031,0.003266294952481985,0.005457681603729725,0.007355035748332739,XTrueNorthZVertical,0.5772726995373846,0.1654529298108804,-0.01867535452220708,0.7993952648842038,0.2860861122608185,-0.9167583584785461,-0.2787631154060364,0,0,0,-1,192.168.1.8,10.71.35.210,1,0
2015-03-12 08:56:30.320,17,1426175785.020085,37.77915569552314,-122.4389425174134,57.40047,-1,-1,10,65,-9999,1426175790.272151,43.24341583251953,267.303466796875,-42.76900100708008,343.8883056640625,330.1142883300781,-1,386742.6909710834,0.316375732421875,-0.90753173828125,-0.271087646484375,386742.6472083334,-0.008326373148132738,0.1531964774940451,-0.02831685923859452,386742.6472083334,-0.5867035026443523,0.8085363118181011,1.157711040963332,-0.02646037936210632,0.1694558709859848,0.003210460534319282,0.03081676363945007,0.003502602921798825,0.004922375082969666,XTrueNorthZVertical,0.5766920610134307,0.1697602247694223,-0.01654926227113319,0.7989579806026086,0.2903502285480499,-0.9158866405487061,-0.277215451002121,0,0,0,-1,192.168.1.8,10.71.35.210,1,0
2015-03-12 08:56:30.370,18,1426175785.020085,37.77915569552314,-122.4389425174134,57.40047,-1,-1,10,65,-9999,1426175790.32278,43.2945671081543,267.1845092773438,-42.685791015625,343.8852233886719,330.1112060546875,-1,386742.7401278334,0.3175506591796875,-0.9168243408203125,-0.2808074951171875,386742.6989820834,-0.02610084289553959,0.04683994356842265,-0.03660941024088325,386742.6989820834,-0.5875387240954885,0.8151722552184713,1.154468320935938,-0.04432211816310883,0.06308785825967789,-0.005049445666372776,0.02203219383955002,0.007048336789011955,0.006230163387954235,XTrueNorthZVertical,0.5757241399212264,0.1728664510162179,-0.01571986820993024,0.7990067525174517,0.2943435311317444,-0.9145800471305847,-0.2773178219795227,0,0,0,-1,192.168.1.8,10.71.35.210,1,0
2015-03-12 08:56:30.420,19,1426175785.020085,37.77915569552314,-122.4389425174134,57.40047,-1,-1,10,65,-9999,1426175790.376842,43.82317352294922,267.5413513183594,-42.86885070800781,343.7294921875,329.9554748535156,-1,386742.7890760833,0.3084259033203125,-0.907135009765625,-0.2790985107421875,386742.7507540833,0.004700479323989855,0.03083594331370048,-0.03748345971064726,386742.7507540833,-0.5892573423048388,0.820216252287688,1.151442637690329,-0.01351873762905598,0.04708793014287949,-0.005937539041042328,0.02088841423392296,-0.00086279830429703,-0.009652994573116302,XTrueNorthZVertical,0.5748944387642759,0.1750385508992417,-0.0156575645021194,0.7991324862942716,0.2977608740329742,-0.9133523106575012,-0.2777157723903656,0,0,0,-1,192.168.1.8,10.71.35.210,1,0
2015-03-12 08:56:30.467,20,1426175785.020085,37.77915569552314,-122.4389425174134,57.40047,-1,-1,10,65,-9999,1426175790.427329,43.92548751831055,267.6093444824219,-42.63587188720703,343.5947570800781,329.8207397460938,-1,386742.838169375,0.3038177490234375,-0.9089508056640625,-0.280548095703125,386742.8025278334,0.04807351978534735,-0.03461816469383101,-0.06037306296376931,386742.8025278334,-0.5935170546735012,0.8246686198560369,1.150269209446789,0.02985075302422047,-0.01836595498025417,-0.02883367985486984,0.008507351391017437,0.001939427573233843,-0.0003664722025860101,XTrueNorthZVertical,0.5749093158203207,0.1758464532742889,-0.0163530544700889,0.7989304607181795,0.2997812330722809,-0.9128738641738892,-0.277114599943161,0,0,0,-1,192.168.1.8,10.71.35.210,1,0
2015-03-12 08:56:30.507,21,1426175785.020085,37.77915569552314,-122.4389425174134,57.40047,-1,-1,10,65,-9999,1426175790.479455,43.92548751831055,267.4053955078125,-42.63587188720703,343.5428771972656,329.7688598632812,-1,386742.8873279584,0.3152923583984375,-0.9208526611328125,-0.270263671875,386742.8543019583,0.07383773911910092,-0.0268843448882409,-0.02636449584345743,386742.8543019583,-0.5983721188900469,0.8283931665932769,1.150662576814527,0.05561196058988571,-0.01063257176429033,0.005171606317162514,0.009099960327148438,0.003976777195930481,-0.003131540725007653,XTrueNorthZVertical,0.5754992338518903,0.1758520921862386,-0.01712863456125916,0.798488123510724,0.3005466461181641,-0.9130343794822693,-0.2757533490657806,0,0,0,-1,192.168.1.8,10.71.35.210,1,0
2015-03-12 08:56:30.566,22,1426175785.020085,37.77915569552314,-122.4389425174134,57.40047,-1,-1,10,65,-9999,1426175790.531711,43.94253540039062,267.3883666992188,-43.0851936340332,343.5431213378906,329.7691040039062,-1,386742.9364252917,0.3228302001953125,-0.923858642578125,-0.2646331787109375,386742.9060736667,0.06784908877583974,-0.05115479716656903,-0.02084855659368532,386742.9060736667,-0.604359965916165,0.833092482685886,1.152247108333693,0.04962406679987907,-0.03490153700113297,0.01068210508674383,0.01583642140030861,-0.00361781264655292,0.001483438187278807,XTrueNorthZVertical,0.5765956652199308,0.175656391869307,-0.0177915671044915,0.7977253480898101,0.3007681965827942,-0.9136795401573181,-0.2733645439147949,0,0,0,-1,192.168.1.8,10.71.35.210,1,0
2015-03-12 08:56:30.605,23,1426175785.020085,37.77915569552314,-122.4389425174134,57.40047,-1,-1,10,65,-9999,1426175790.582917,44.09600067138672,267.4733276367188,-42.96870040893555,343.53759765625,329.7635803222656,-1,386742.9854807917,0.308441162109375,-0.9180908203125,-0.2662506103515625,386742.9578477084,0.07560980650843965,-0.1122525062629489,0.007590541738943845,386742.9578477084,-0.6119805416759273,0.8374980321515664,1.154385391046857,0.05738838389515877,-0.09599477797746658,0.03910861536860466,0.02508994378149509,-0.008152440190315247,0.00214335648342967,XTrueNorthZVertical,0.5780146412377596,0.174742077591039,-0.01905143943662119,0.796869702956101,0.300517350435257,-0.9145465493202209,-0.2707285583019257,0,0,0,-1,192.168.1.8,10.71.35.210,1,0
2015-03-12 08:56:30.664,24,1426175785.020085,37.77915569552314,-122.4389425174134,57.40047,-1,-1,10,65,-9999,1426175790.634247,43.5673942565918,267.42236328125,-42.81892776489258,343.5321350097656,329.7581176757812,-1,386743.034571375,0.2923736572265625,-0.920654296875,-0.2642059326171875,386743.0096215,0.06239706539222953,-0.1616525465872647,-0.003370762991713292,386743.0096215,-0.6165441149727696,0.8352653640170027,1.157239777978686,0.04417818784713745,-0.1453928649425507,0.02814251184463501,-0.002168460516259074,-0.001462682266719639,0.00571488868445158,XTrueNorthZVertical,0.5793334316493832,0.1719002424693498,-0.02083713629190046,0.7964853390762954,0.2979753315448761,-0.9156973361968994,-0.269646167755127,0,0,0,-1,192.168.1.8,10.71.35.210,1,0
2015-03-12 08:56:30.704,25,1426175785.020085,37.77915569552314,-122.4389425174134,57.40047,-1,-1,10,65,-9999,1426175790.687274,43.97663497924805,267.4903259277344,-42.28639221191406,343.2347717285156,329.4607543945312,-1,386743.0835204584,0.2801971435546875,-0.919708251953125,-0.270782470703125,386743.0613935417,0.05974695379149168,-0.1280280072961423,0.0178029655710707,386743.0613935417,-0.6176563632415109,0.8299401888631619,1.161157548638467,0.04153059050440788,-0.1117684245109558,0.04931901395320892,-0.00862270500510931,0.0005472200573422015,0.003455416299402714,XTrueNorthZVertical,0.5806676644474823,0.1685888026378889,-0.02189486062712992,0.7961931261750173,0.2938857674598694,-0.9172647595405579,-0.2688057720661163,0,0,0,-1,192.168.1.8,10.71.35.210,1,0
2015-03-12 08:56:30.762,26,1426175785.020085,37.77915569552314,-122.4389425174134,57.40047,-1,-1,10,65,-9999,1426175790.737984,43.53328704833984,267.6942749023438,-42.41952896118164,343.2350463867188,329.4610290527344,-1,386743.1326147083,0.2756805419921875,-0.935821533203125,-0.264556884765625,386743.113167375,0.06559951660304982,-0.08293935846055574,-0.001693770453290395,386743.113167375,-0.6170453467363349,0.8250035369223421,1.164976482045283,0.04738312959671021,-0.06668253988027573,0.02983117289841175,-0.01404001284390688,-0.008238158188760281,0.0007845222717151046,XTrueNorthZVertical,0.5818259694064901,0.1659558927074249,-0.02218344642264342,0.7958926295077072,0.2899799644947052,-0.9187790751457214,-0.2678743600845337,0,0,0,-1,192.168.1.8,10.71.35.210,1,0
2015-03-12 08:56:30.802,27,1426175785.020085,37.77915569552314,-122.4389425174134,57.40047,-1,-1,10,65,-9999,1426175790.790219,43.49918365478516,267.728271484375,-42.18654632568359,343.2329406738281,329.4589233398438,-1,386743.1816694583,0.2906341552734375,-0.9354095458984375,-0.2595977783203125,386743.1649415,0.03708771397266149,-0.03918655122775293,0.005815012240188017,386743.1649415,-0.616932129377498,0.8222613635403133,1.168671342347263,0.0188750084489584,-0.02293078415095806,0.03734729439020157,-0.005382971838116646,-0.01902335323393345,0.001784202293492854,XTrueNorthZVertical,0.5830088442307144,0.1640808173844628,-0.02206575940477904,0.7954189306127322,0.2867550551891327,-0.9202314019203186,-0.266356348991394,0,0,0,-1,192.168.1.8,10.71.35.210,1,0
2015-03-12 08:56:30.861,28,1426175785.020085,37.77915569552314,-122.4389425174134,57.40047,-1,-1,10,65,-9999,1426175790.842257,43.20930099487305,267.8811950683594,-42.60258102416992,343.2597351074219,329.4857177734375,-1,386743.2307623334,0.3006134033203125,-0.932708740234375,-0.2666015625,386743.21671325,-0.007098123253388194,-0.04051413703115744,0.03773113369202463,386743.21671325,-0.6131136281682522,0.8180733517577884,1.170992434187329,-0.02530557475984097,-0.02425677143037319,0.06926289945840836,0.01145484205335379,-0.01411961391568184,0.006252110935747623,XTrueNorthZVertical,0.5834196994750938,0.1630166843692579,-0.02122286434108952,0.7953594186974858,0.284077376127243,-0.9211373329162598,-0.2660940289497375,0,0,0,-1,192.168.1.8,10.71.35.210,1,0
2015-03-12 08:56:30.900,29,1426175785.020085,37.77915569552314,-122.4389425174134,57.40047,-1,-1,10,65,-9999,1426175790.893908,43.53328323364258,267.898193359375,-41.85370635986328,343.254638671875,329.4806213378906,-1,386743.2799277917,0.2535858154296875,-0.9208984375,-0.26025390625,386743.2684873334,-0.009262207955186582,-0.08989500259562469,0.01941044960504253,386743.21671325,-0.6131136281682522,0.8180733517577884,1.170992434187329,-0.02530557475984097,-0.02425677143037319,0.06926289945840836,0.01145484205335379,-0.01411961391568184,0.006252110935747623,XTrueNorthZVertical,0.5834196994750938,0.1630166843692579,-0.02122286434108952,0.7953594186974858,0.284077376127243,-0.9211373329162598,-0.2660940289497375,0,0,0,-1,192.168.1.8,10.71.35.210,1,0
2015-03-12 08:56:30.960,30,1426175785.020085,37.77915569552314,-122.4389425174134,57.40047,-1,-1,10,65,-9999,1426175790.945762,43.65264129638672,268.153076171875,-42.30303192138672,343.2536926269531,329.4796752929688,-1,386743.328939375,0.222686767578125,-0.9296112060546875,-0.24627685546875,386743.3202611667,-0.01338637921928329,-0.0235804272398886,-0.03485412076641203,386743.3202611667,-0.5984041924803498,0.7991309819090147,1.17469295154726,-0.03158614039421082,-0.007325129583477974,-0.003307045437395573,-0.06047673895955086,-0.003103023627772927,0.01994850672781467,XTrueNorthZVertical,0.5832725328162917,0.1589623639149601,-0.02003517644995323,0.7963182222109781,0.2765412032604218,-0.9225714206695557,-0.2690482437610626,0,0,0,-1,192.168.1.8,10.71.35.210,1,0
2015-03-12 08:56:30.999,31,1426175785.020085,37.77915569552314,-122.4389425174134,57.40047,-1,-1,10,65,-9999,1426175790.945762,43.65264129638672,268.153076171875,-42.30303192138672,343.2536926269531,329.4796752929688,-1,386743.3779785,0.2382354736328125,-0.923675537109375,-0.2650299072265625,386743.3720332084,-0.02689712806147328,0.1828078993385272,0.02601295857956697,386743.3202611667,-0.5984041924803498,0.7991309819090147,1.17469295154726,-0.03158614039421082,-0.007325129583477974,-0.003307045437395573,-0.06047673895955086,-0.003103023627772927,0.01994850672781467,XTrueNorthZVertical,0.5832725328162917,0.1589623639149601,-0.02003517644995323,0.7963182222109781,0.2765412032604218,-0.9225714206695557,-0.2690482437610626,0,0,0,-1,192.168.1.8,10.71.35.210,1,0
2015-03-12 08:56:31.056,32,1426175785.020085,37.77915569552314,-122.4389425174134,57.40047,-1,-1,10,65,-9999,1426175791.000575,43.53328323364258,268.4759216308594,-42.35295486450195,343.2552795410156,329.4812622070312,-1,386743.42707575,0.2710723876953125,-0.918609619140625,-0.2602081298828125,386743.4238070833,-0.04700612482044359,0.2580267537989432,0.03148948304520592,386743.3720332084,-0.5908676490200478,0.7972626312276464,1.175148866986319,-0.04509393870830536,0.1990625709295273,0.05756476894021034,-0.04513099789619446,-0.004361541476100683,0.01525748521089554,XTrueNorthZVertical,0.5828062216301353,0.1603172935437301,-0.01747424542586733,0.7964483185786843,0.275737076997757,-0.9227471947669983,-0.2692705392837524,0,0,0,-1,192.168.1.8,10.71.35.210,1,0
2015-03-12 08:56:31.096,33,1426175785.020085,37.77915569552314,-122.4389425174134,57.40047,-1,-1,10,65,-9999,1426175791.000575,43.53328323364258,268.4759216308594,-42.35295486450195,343.2552795410156,329.4812622070312,-1,386743.47623575,0.2836456298828125,-0.917388916015625,-0.26324462890625,386743.4755812084,-0.03845205139910908,0.2693925926991834,0.07522284920205113,386743.4238070833,-0.5797173474912959,0.7998921122561333,1.175989271074475,-0.06520255655050278,0.2742804884910583,0.06304440647363663,-0.01311622187495232,0.008916741237044334,0.005690291523933411,XTrueNorthZVertical,0.5822027255030628,0.1644321117311454,-0.01207679739596867,0.796150876412942,0.2758878171443939,-0.9230707883834839,-0.2680041193962097,0,0,0,-1,192.168.1.8,10.71.35.210,1,0
2015-03-12 08:56:31.154,34,1426175785.020085,37.77915569552314,-122.4389425174134,57.40047,-1,-1,10,65,-9999,1426175791.100455,43.14109420776367,267.8811950683594,-42.56929397583008,343.2360534667969,329.4620361328125,-1,386743.5252278334,0.28009033203125,-0.915191650390625,-0.26251220703125,386743.5273531667,-0.04480129375396699,0.3033715987313954,0.07559942018018834,386743.4755812084,-0.567255869117029,0.8032121244896546,1.176856770316818,-0.05664712935686111,0.2856468558311462,0.1067760437726974,0.01206928491592407,0.008761778473854065,0.005910441279411316,XTrueNorthZVertical,0.5814704516542584,0.1691946651575128,-0.005953824432032167,0.795757394630964,0.2761997580528259,-0.9234040975570679,-0.2665305435657501,0,0,0,-1,192.168.1.8,10.71.35.210,1,0
2015-03-12 08:56:31.194,35,1426175785.020085,37.77915569552314,-122.4389425174134,57.40047,-1,-1,10,65,-9999,1426175791.153402,42.73184967041016,268.0511169433594,-42.66914749145508,343.2007751464844,329.4267578125,-1,386743.5742792084,0.313201904296875,-0.9122467041015625,-0.2607879638671875,386743.5273531667,-0.04480129375396699,0.3033715987313954,0.07559942018018834,386743.5273531667,-0.5520317750723742,0.8037690019690118,1.178200288352095,-0.06299614906311035,0.3196258246898651,0.1071518212556839,0.004635652061551809,0.008727310225367546,0.003003279445692897,XTrueNorthZVertical,0.5806205641450654,0.1735569569126327,0.0005689860554609369,0.7954605077902728,0.2754546701908112,-0.9239189624786377,-0.2655154764652252,0,0,0,-1,192.168.1.8,10.71.35.210,1,0
2015-03-12 08:56:31.253,36,1426175785.020085,37.77915569552314,-122.4389425174134,57.40047,-1,-1,10,65,-9999,1426175791.20482,42.22029495239258,267.7452697753906,-42.6358642578125,343.1068725585938,329.3328552246094,-1,386743.6233725417,0.336822509765625,-0.902191162109375,-0.273834228515625,386743.6309009584,-0.001440237517514852,0.2538991204254294,0.1941990382691231,386743.579127125,-0.5381880619521235,0.8093388260606473,1.180020242329155,-0.03994152322411537,0.371746838092804,0.1718327552080154,0.03749020397663116,0.01236701849848032,0.002028551651164889,XTrueNorthZVertical,0.5800034563293197,0.1794094002901498,0.008099277589971681,0.7945707391013651,0.275711715221405,-0.9246137142181396,-0.2628165185451508,0,0,0,-1,192.168.1.8,10.71.35.210,1,0
2015-03-12 08:56:31.293,37,1426175785.020085,37.77915569552314,-122.4389425174134,57.40047,-1,-1,10,65,-9999,1426175791.255709,41.79399490356445,267.6603088378906,-42.78563690185547,343.0140380859375,329.2400207519531,-1,386743.672522875,0.321624755859375,-0.9026336669921875,-0.270599365234375,386743.6309009584,-0.001440237517514852,0.2538991204254294,0.1941990382691231,386743.6309009584,-0.5225395091500548,0.8119606006036429,1.182710992812924,-0.01964309066534042,0.2701621949672699,0.2257052510976791,0.06222902610898018,0.02344413660466671,-0.01345428638160229,XTrueNorthZVertical,0.5794780180675876,0.1844322518285046,0.01567847553005175,0.793690214420575,0.2745934724807739,-0.9256352782249451,-0.2603799402713776,0,0,0,-1,192.168.1.8,10.71.35.210,1,0
2015-03-12 08:56:31.352,38,1426175785.020085,37.77915569552314,-122.4389425174134,57.40047,-1,-1,10,65,-9999,1426175791.310036,41.47000885009766,267.6093139648438,-42.80227661132812,342.8486938476562,329.0746765136719,-1,386743.7215092917,0.3009185791015625,-0.935577392578125,-0.2720489501953125,386743.6826730834,0.01446629104131042,0.06035042609450363,0.1635833383775722,386743.6826730834,-0.5032004105247384,0.8022641199147196,1.188635881053594,-0.003817315911874175,0.07659588009119034,0.1951425820589066,0.05385218188166618,0.02141275070607662,-0.01259117480367422,XTrueNorthZVertical,0.579803794948317,0.1849884919725508,0.02185979538748388,0.7931765040310171,0.2681082785129547,-0.9278610944747925,-0.2592136263847351,0,0,0,-1,192.168.1.8,10.71.35.210,1,0
2015-03-12 08:56:31.391,39,1426175785.020085,37.77915569552314,-122.4389425174134,57.40047,-1,-1,10,65,-9999,1426175791.310036,41.47000885009766,267.6093139648438,-42.80227661132812,342.8486938476562,329.0746765136719,-1,386743.7705697084,0.2996673583984375,-0.942230224609375,-0.2629241943359375,386743.7344469583,0.09988345458007587,-0.04632302400083827,0.1967032086421246,386743.7344469583,-0.4923526033294061,0.7932671699985977,1.193988493749222,0.08159085363149643,-0.03007462434470654,0.2282391339540482,0.03724682703614235,-0.01285930536687374,-0.01137328520417213,XTrueNorthZVertical,0.5807441798976154,0.1835006103495655,0.02472518229517614,0.7927498904931185,0.2622221708297729,-0.9298439621925354,-0.2581274509429932,0,0,0,-1,192.168.1.8,10.71.35.210,1,0
2015-03-12 08:56:31.456,40,1426175785.020085,37.77915569552314,-122.4389425174134,57.40047,-1,-1,10,65,-9999,1426175791.411485,40.27638244628906,267.8472290039062,-42.5360107421875,342.9070129394531,329.1329956054688,-1,386743.8196430417,0.3123931884765625,-0.9272308349609375,-0.2714996337890625,386743.7862210417,0.1393616219471925,-0.06625039317346518,0.2876528230294206,386743.7862210417,-0.4794881959437687,0.7795357051590456,1.206165788500047,0.1210654750466347,-0.05000012367963791,0.3191764950752258,0.05501995608210564,-0.005472206510603428,-0.006927951704710722,XTrueNorthZVertical,0.5839479583465792,0.1794135358414901,0.02845397470223653,0.7912053693089798,0.2506746351718903,-0.9342555999755859,-0.2536311447620392,0,0,0,-1,192.168.1.8,10.71.35.210,1,0
2015-03-12 08:56:31.489,41,1426175785.020085,37.77915569552314,-122.4389425174134,57.40047,-1,-1,10,65,-9999,1426175791.464194,39.64546203613281,267.8641967773438,-42.58593368530273,342.9464416503906,329.1724243164062,-1,386743.8688067917,0.2791595458984375,-0.9244537353515625,-0.26495361328125,386743.8379930833,0.1203714191621645,-0.1718402030212538,0.3087008503887529,386743.8379930833,-0.4602448904894908,0.7577049320741067,1.218199826258714,0.1020242869853973,-0.1555951982736588,0.3402352035045624,0.06810110062360764,0.01903036050498486,-0.02221415750682354,XTrueNorthZVertical,0.5867379852604668,0.1740975903647646,0.0322155486008986,0.7901839811778094,0.2373340874910355,-0.9384791851043701,-0.2508571445941925,0,0,0,-1,192.168.1.8,10.71.35.210,1,0
2015-03-12 08:56:31.550,42,1426175785.020085,37.77915569552314,-122.4389425174134,57.40047,-1,-1,10,65,-9999,1426175791.5145,39.21916580200195,268.0511169433594,-42.50272369384766,343.087890625,329.3138732910156,-1,386743.91779375,0.221832275390625,-0.951995849609375,-0.2480926513671875,386743.889767125,0.1140839621445964,-0.3559533176100289,0.2289583505007283,386743.889767125,-0.4453097907392541,0.7311930524679342,1.226471610872521,0.09572336822748184,-0.3397036492824554,0.2604576945304871,0.02454502880573273,0.006428128574043512,-0.005578046198934317,XTrueNorthZVertical,0.5887732617279055,0.1664616210289879,0.03202238471267516,0.7903234413048854,0.2254091948270798,-0.9413036108016968,-0.2512731552124023,0,0,0,-1,192.168.1.8,10.71.35.210,1,0
2015-03-12 08:56:31.588,43,1426175785.020085,37.77915569552314,-122.4389425174134,57.40047,-1,-1,10,65,-9999,1426175791.567989,39.13390731811523,267.8641967773438,-42.51936721801758,343.3173217773438,329.5433044433594,-1,386743.9669485834,0.2206268310546875,-0.969818115234375,-0.250823974609375,386743.9415409584,0.1753790114777511,-0.3371577919006856,0.2332668125122585,386743.9415409584,-0.429934686528717,0.6994248134763155,1.239603992953694,0.1570182591676712,-0.3209079504013062,0.2647641897201538,0.0006385041051544249,-0.01895956508815289,0.00344820530153811,XTrueNorthZVertical,0.5926469195557392,0.1560680383465848,0.03131523715930889,0.7895769449961137,0.2093376964330673,-0.9456552863121033,-0.2488247901201248,0,0,0,-1,192.168.1.8,10.71.35.210,1,0
2015-03-12 08:56:31.649,44,1426175785.020085,37.77915569552314,-122.4389425174134,57.40047,-1,-1,10,65,-9999,1426175791.618789,38.69055938720703,267.5923461914062,-41.98683547973633,343.5277709960938,329.7537536621094,-1,386744.01593225,0.2582244873046875,-0.948577880859375,-0.265625,386743.9933129583,0.1395507063845881,-0.2976436718588529,0.2837084151389043,386743.9933129583,-0.4088029005227041,0.6650385978783815,1.254143261526753,0.1211901158094406,-0.2813939452171326,0.3152055144309998,0.04655436798930168,-0.02319729141891003,-0.009304645471274853,XTrueNorthZVertical,0.5967406927758973,0.1462399404504938,0.03219080862454341,0.7883388720864107,0.192154124379158,-0.9502829313278198,-0.2450288534164429,0,0,0,-1,192.168.1.8,10.71.35.210,1,0
2015-03-12 08:56:31.685,45,1426175785.020085,37.77915569552314,-122.4389425174134,57.40047,-1,-1,10,65,-9999,1426175791.670563,38.11080169677734,267.7622680664062,-41.82041931152344,343.5524291992188,329.7784118652344,-1,386744.064975125,0.2943115234375,-0.9150390625,-0.22723388671875,386744.045087125,0.12939767104477,-0.4389778972254671,0.3386694021354146,386744.045087125,-0.3769193550583327,0.6177532974219163,1.267437817122188,0.1110346615314484,-0.4227268397808075,0.3701576590538025,0.0998486801981926,0.01807455718517303,-0.009534906595945358,XTrueNorthZVertical,0.600027320828044,0.1349399446304669,0.03299363024526069,0.7878260251897516,0.1730242371559143,-0.9543386101722717,-0.2435168474912643,0,0,0,-1,192.168.1.8,10.71.35.210,1,0
2015-03-12 08:56:31.748,46,1426175785.020085,37.77915569552314,-122.4389425174134,57.40047,-1,-1,10,65,-9999,1426175791.722449,38.11080169677734,267.898193359375,-41.22132110595703,344.1036682128906,330.3296508789062,-1,386744.1140580417,0.285247802734375,-0.86846923828125,-0.18695068359375,386744.0968611667,0.1027330369464607,-0.6884993134510242,0.4245249219896071,386744.0968611667,-0.3345290533948725,0.5498463057117441,1.281305433192658,0.08437021821737289,-0.6722436547279358,0.4559971690177917,0.1443926841020584,0.07406621426343918,0.03730307519435883,XTrueNorthZVertical,0.6034777728026582,0.118829448853757,0.03153981954106749,0.7878447687213329,0.1491711586713791,-0.9583893418312073,-0.2433882802724838,0,0,0,-1,192.168.1.8,10.71.35.210,1,0
2015-03-12 08:56:31.783,47,1426175785.020085,37.77915569552314,-122.4389425174134,57.40047,-1,-1,10,65,-9999,1426175791.775162,37.78681564331055,267.813232421875,-41.33780670166016,344.9538269042969,331.1798095703125,-1,386744.163218375,0.2316741943359375,-0.9080810546875,-0.107879638671875,386744.1486331667,-0.05863215455918451,-1.000247619075155,0.5342109399100466,386744.0968611667,-0.3345290533948725,0.5498463057117441,1.281305433192658,0.08437021821737289,-0.6722436547279358,0.4559971690177917,0.1443926841020584,0.07406621426343918,0.03730307519435883,XTrueNorthZVertical,0.6034777728026582,0.118829448853757,0.03153981954106749,0.7878447687213329,0.1491711586713791,-0.9583893418312073,-0.2433882802724838,0,0,0,-1,192.168.1.8,10.71.35.210,1,0
2015-03-12 08:56:31.856,48,1426175785.020085,37.77915569552314,-122.4389425174134,57.40047,-1,-1,10,65,-9999,1426175791.825778,37.54808807373047,267.643310546875,-41.80377197265625,347.1748046875,333.4007873535156,-1,386744.2122052917,0.139190673828125,-1.087326049804688,-0.1185455322265625,386744.2004070417,-0.1361360012348885,-1.192576052994606,0.3985361981759598,386744.2004070417,-0.1536618005765669,0.2783034206296402,1.296033239244538,-0.1544980406761169,-1.176320433616638,0.4300074577331543,0.07075616717338562,-0.06587658822536469,0.1392515450716019,XTrueNorthZVertical,0.6044964070177595,0.06437713215029099,0.02287089179839651,0.7936728551910214,0.07453802227973938,-0.9624894857406616,-0.2608793675899506,0,0,0,-1,192.168.1.8,10.71.35.210,1,0
2015-03-12 08:56:31.881,49,1426175785.020085,37.77915569552314,-122.4389425174134,57.40047,-1,-1,10,65,-9999,1426175791.825778,37.54808807373047,267.643310546875,-41.80377197265625,347.1748046875,333.4007873535156,-1,386744.261275875,0.170196533203125,-1.003524780273438,-0.167938232421875,386744.2521812917,0.2048564763194022,-0.9080220842096017,0.5363025866301948,386744.2004070417,-0.1536618005765669,0.2783034206296402,1.296033239244538,-0.1544980406761169,-1.176320433616638,0.4300074577331543,0.07075616717338562,-0.06587658822536469,0.1392515450716019,XTrueNorthZVertical,0.6044964070177595,0.06437713215029099,0.02287089179839651,0.7936728551910214,0.07453802227973938,-0.9624894857406616,-0.2608793675899506,0,0,0,-1,192.168.1.8,10.71.35.210,1,0
2015-03-12 08:56:31.952,50,1426175785.020085,37.77915569552314,-122.4389425174134,57.40047,-1,-1,10,65,-9999,1426175791.930115,36.47382736206055,267.9661560058594,-42.38623428344727,351.8829040527344,338.10888671875,-1,386744.3103734584,0.14251708984375,-0.8043670654296875,-0.15899658203125,386744.3039531667,0.2837741952178293,-0.9197943214921881,0.9388945128302364,386744.2521812917,-0.0726557497012859,0.1478825816087526,1.301001702445122,0.1864947825670242,-0.8917665481567383,0.5677734017372131,0.1219369545578957,-0.06478457152843475,0.1004163473844528,XTrueNorthZVertical,0.6056670306378789,0.03681397403217179,0.01588374677571957,0.7947074215726294,0.03927215188741684,-0.9638256430625916,-0.263624370098114,0,0,0,-1,192.168.1.8,10.71.35.210,1,0
2015-03-12 08:56:31.979,51,1426175785.020085,37.77915569552314,-122.4389425174134,57.40047,-1,-1,10,65,-9999,1426175791.930115,36.47382736206055,267.9661560058594,-42.38623428344727,351.8829040527344,338.10888671875,-1,386744.359427375,0.0941162109375,-0.66656494140625,-0.117645263671875,386744.3557271667,0.02196681793540959,-1.066044475914979,1.137546622758081,386744.3039531667,0.08225798567619359,-0.04526782881761712,1.316437938150243,0.2654126882553101,-0.9035389423370361,0.970365047454834,0.1626469790935516,0.1306819915771484,0.07404433935880661,XTrueNorthZVertical,0.6117711795016708,0.007256800921145837,0.01868646501886003,0.7907807400263508,-0.01138660497963428,-0.9678249359130859,-0.2513667345046997,0,0,0,-1,192.168.1.8,10.71.35.210,1,0
2015-03-12 08:56:32.054,52,1426175785.020085,37.77915569552314,-122.4389425174134,57.40047,-1,-1,10,65,-9999,1426175792.033588,32.99525451660156,268.1021118164062,-41.15475463867188,0.0007772445678710938,346.2267456054688,-1,386744.408525,-0.0291748046875,-0.58428955078125,-0.06646728515625,386744.4075012084,-0.05739405096840667,-1.13552821296791,1.207943025116581,386744.3557271667,0.29688404033611,-0.3019048853854491,1.312922285823883,0.003605479141697288,-1.049789190292358,1.16901695728302,0.1799398511648178,0.2725526094436646,0.1216649562120438,XTrueNorthZVertical,0.6143596842124419,-0.02857644603455892,0.025055646503639,0.7881102586089754,-0.07582914084196091,-0.9669343233108521,-0.2434911280870438,0,0,0,-1,192.168.1.8,10.71.35.210,1,0
2015-03-12 08:56:32.078,53,1426175785.020085,37.77915569552314,-122.4389425174134,57.40047,-1,-1,10,65,-9999,1426175792.033588,32.99525451660156,268.1021118164062,-41.15475463867188,0.0007772445678710938,346.2267456054688,-1,386744.45758175,-0.178497314453125,-0.5169677734375,-0.0326385498046875,386744.4075012084,-0.05739405096840667,-1.13552821296791,1.207943025116581,386744.4075012084,0.4990858271154169,-0.5531020185931312,1.284582583726344,-0.07575520128011703,-1.119273066520691,1.239412903785706,0.1489986628293991,0.3680568635463715,0.1603477746248245,XTrueNorthZVertical,0.612413459034761,-0.06954124571111266,0.03174107018385423,0.7868330666676433,-0.1483120173215866,-0.9593197107315063,-0.240227535367012,0,0,0,-1,192.168.1.8,10.71.35.210,1,0
2015-03-12 08:56:32.151,54,1426175785.020085,37.77915569552314,-122.4389425174134,57.40047,-1,-1,10,65,-9999,1426175792.137052,29.20974731445312,269.1557006835938,-41.08818435668945,10.4115743637085,356.6375427246094,-1,386744.5067008333,-0.26318359375,-0.5500030517578125,-0.1221466064453125,386744.511047375,0.401565543915925,-0.08163520847474393,1.134032049067503,386744.45927325,0.6532626448201055,-0.7485763512039333,1.244812524461872,-0.0497652143239975,-0.75532066822052,1.198374629020691,0.03945751115679741,0.4303683638572693,0.201988697052002,XTrueNorthZVertical,0.6092504224421702,-0.1072394313822073,0.04076089985364987,0.7846350592179634,-0.2179548293352127,-0.9473361372947693,-0.2346272468566895,0,0,0,-1,192.168.1.8,10.71.35.210,1,0
2015-03-12 08:56:32.179,55,1426175785.020085,37.77915569552314,-122.4389425174134,57.40047,-1,-1,10,65,-9999,1426175792.137052,29.20974731445312,269.1557006835938,-41.08818435668945,10.4115743637085,356.6375427246094,-1,386744.5557625833,-0.25830078125,-0.63629150390625,-0.145111083984375,386744.511047375,0.401565543915925,-0.08163520847474393,1.134032049067503,386744.511047375,0.7895135173397759,-0.897888605368134,1.207642629421562,0.3832047879695892,-0.06538046151399612,1.165501356124878,0.01460609491914511,0.3847781419754028,0.09925119578838348,XTrueNorthZVertical,0.6095855070202223,-0.133066178594575,0.05773012940652603,0.7793369835339772,-0.2777896821498871,-0.9347811937332153,-0.221397802233696,0,0,0,-1,192.168.1.8,10.71.35.210,1,0
2015-03-12 08:56:32.247,56,1426175785.020085,37.77915569552314,-122.4389425174134,57.40047,-1,-1,10,65,-9999,1426175792.240809,24.91268539428711,271.3988037109375,-40.48908233642578,17.77226257324219,3.99822998046875,-1,386744.60487225,-0.33294677734375,-0.74066162109375,-0.1206207275390625,386744.5628215834,0.8058821332379018,0.0783134476470881,1.145170454010651,386744.5628215834,0.953733325623197,-1.045113783456517,1.177525381410796,0.7875215411186218,0.09456804394721985,1.176639437675476,0.07317030429840088,0.287369042634964,0.04718589410185814,XTrueNorthZVertical,0.6180480502124309,-0.14787873081516,0.08453021618404599,0.7674653941077645,-0.3314710855484009,-0.9236605167388916,-0.1922969818115234,0,0,0,-1,192.168.1.8,10.71.35.210,1,0
2015-03-12 08:56:32.274,57,1426175785.020085,37.77915569552314,-122.4389425174134,57.40047,-1,-1,10,65,-9999,1426175792.240809,24.91268539428711,271.3988037109375,-40.48908233642578,17.77226257324219,3.99822998046875,-1,386744.6540375,-0.50213623046875,-0.821868896484375,-0.050994873046875,386744.6145935417,0.6787343006820307,-0.4623511305325476,0.6819958740690507,386744.6145935417,1.087005099553486,-1.176095332787305,1.150724180095349,0.660373866558075,-0.4460966885089874,0.7134645581245422,0.0435224287211895,0.1723978966474533,0.03620162233710289,XTrueNorthZVertical,0.6281859818312168,-0.1642290979655945,0.1026376086488279,0.7535759397054854,-0.3764691948890686,-0.9130595326423645,-0.1568223536014557,0,0,0,-1,192.168.1.8,10.71.35.210,1,0
2015-03-12 08:56:32.355,58,1426175785.020085,37.77915569552314,-122.4389425174134,57.40047,-1,-1,10,65,-9999,1426175792.344423,22.91762161254883,273.2850646972656,-38.17589569091797,25.39928817749023,11.6252555847168,-1,386744.7030307917,-0.571044921875,-0.903839111328125,0.03265380859375,386744.6663675417,0.4654193584244278,-1.186480609891633,0.06336645602901837,386744.6663675417,1.168887085320055,-1.29542438883732,1.141178886631852,0.447059154510498,-1.170226454734802,0.09483498334884644,-0.1485472768545151,0.05710489675402641,0.1122323051095009,XTrueNorthZVertical,0.6394008361938468,-0.1858473760698637,0.09848669710400429,0.7395455996597492,-0.4008301794528961,-0.9091251492500305,-0.1132546439766884,0,0,0,-1,192.168.1.8,10.71.35.210,1,0
2015-03-12 08:56:32.371,59,1426175785.020085,37.77915569552314,-122.4389425174134,57.40047,-1,-1,10,65,-9999,1426175792.344423,22.91762161254883,273.2850646972656,-38.17589569091797,25.39928817749023,11.6252555847168,-1,386744.7520942084,-0.569061279296875,-0.9178924560546875,0.0109100341796875,386744.7181416667,0.1234708060387987,-0.9399667014851022,-0.3275539003776419,386744.7181416667,1.191599299565556,-1.370223069922383,1.152153691501016,0.1051456183195114,-0.9237639307975769,-0.2959994673728943,-0.1735284477472305,-0.003503196639940143,0.1139810755848885,XTrueNorthZVertical,0.6469154684850335,-0.2024958999719619,0.07911099366021293,0.7309153424381145,-0.3983709812164307,-0.9136415719985962,-0.08099157363176346,0,0,0,-1,192.168.1.8,10.71.35.210,1,0
2015-03-12 08:56:32.451,60,1426175785.020085,37.77915569552314,-122.4389425174134,57.40047,-1,-1,10,65,-9999,1426175792.396782,23.41212463378906,273.7098999023438,-37.42702484130859,28.28255462646484,14.50852203369141,-1,386744.8012212084,-0.5382080078125,-0.9655303955078125,-0.0417938232421875,386744.7699139167,0.1158208758075461,-0.4939370200092143,-0.3290143779194413,386744.7699139167,1.197130425586259,-1.407280511127171,1.16612742232259,0.09749648720026016,-0.4777355194091797,-0.2974563241004944,-0.2181352078914642,-0.0117059163749218,0.03981529921293259,XTrueNorthZVertical,0.6511525939899875,-0.2096527671641626,0.06435332295439578,0.7265704827373909,-0.3884626924991608,-0.9192327857017517,-0.06409203261137009,0,0,0,-1,192.168.1.8,10.71.35.210,1,0
2015-03-12 08:56:32.470,61,1426175785.020085,37.77915569552314,-122.4389425174134,57.40047,-1,-1,10,65,-9999,1426175792.451388,24.1794548034668,273.5230102539062,-37.24396514892578,29.47733879089355,15.70330715179443,-1,386744.8502982917,-0.6211700439453125,-0.916839599609375,-0.0335845947265625,386744.821687875,0.03729117947994354,-0.4991392388825751,-0.2626886172871269,386744.821687875,1.202345484680736,-1.432819861574712,1.176414925912967,0.0189641211181879,-0.4829433858394623,-0.2311139702796936,-0.1527397036552429,-0.03245404735207558,0.04076267033815384,XTrueNorthZVertical,0.6540998751909366,-0.2138446598371832,0.05438635960296274,0.7235094599405423,-0.3805854916572571,-0.9232344031333923,-0.05284763127565384,0,0,0,-1,192.168.1.8,10.71.35.210,1,0
2015-03-12 08:56:32.547,62,1426175785.020085,37.77915569552314,-122.4389425174134,57.40047,-1,-1,10,65,-9999,1426175792.451388,24.1794548034668,273.5230102539062,-37.24396514892578,29.47733879089355,15.70330715179443,-1,386744.899421375,-0.5370025634765625,-0.95196533203125,0.104278564453125,386744.873462125,-0.1867416545846832,-0.8547503402925287,-0.6496294120768817,386744.873462125,1.18991698830722,-1.454059174568557,1.195301842349434,-0.2050742357969284,-0.8385578393936157,-0.6180463433265686,-0.1960813850164413,-0.02185256220400333,0.09970572590827942,XTrueNorthZVertical,0.6561314965709474,-0.2193954965432808,0.03643393351631427,0.7211308090718513,-0.36423659324646,-0.9303264021873474,-0.04271414875984192,0,0,0,-1,192.168.1.8,10.71.35.210,1,0
2015-03-12 08:56:32.568,63,1426175785.020085,37.77915569552314,-122.4389425174134,57.40047,-1,-1,10,65,-9999,1426175792.552934,26.27682495117188,272.894287109375,-37.02762603759766,31.20084381103516,17.42681121826172,-1,386744.9485037917,-0.5084686279296875,-0.9890594482421875,0.0029754638671875,386744.9252340834,-0.2810750814530339,-0.2917719342874462,-0.6428777660813129,386744.9252340834,1.143697937999244,-1.44205293982037,1.226141283774742,-0.2994074523448944,-0.2755796313285828,-0.6112946271896362,-0.1464915871620178,-0.03327998518943787,0.1548746973276138,XTrueNorthZVertical,0.6556300404256976,-0.2201360669649479,0.01306205826346193,0.7221625473164073,-0.3350757956504822,-0.9411920309066772,-0.04337872564792633,0,0,0,-1,192.168.1.8,10.71.35.210,1,0
2015-03-12 08:56:32.650,64,1426175785.020085,37.77915569552314,-122.4389425174134,57.40047,-1,-1,10,65,-9999,1426175792.603921,27.7432804107666,272.2485961914062,-37.56015777587891,29.31155014038086,15.53751850128174,-1,386744.9976310834,-0.287322998046875,-1.2041015625,-0.0896148681640625,386744.97700825,-0.4039948794622952,0.3009150989419063,-0.8949222611236111,386744.97700825,1.085123290780441,-1.378327337257686,1.262566801228338,-0.422327071428299,0.3171072006225586,-0.8633394241333008,-0.1714527308940887,-0.153634175658226,0.07199167460203171,XTrueNorthZVertical,0.6551277068944292,-0.2044327422672444,0.000296506174351793,0.7273340729213964,-0.2977702915668488,-0.9528721570968628,-0.05802988260984421,0,0,0,-1,192.168.1.8,10.71.35.210,1,0
2015-03-12 08:56:32.667,65,1426175785.020085,37.77915569552314,-122.4389425174134,57.40047,-1,-1,10,65,-9999,1426175792.65633,28.74933815002441,270.9740905761719,-38.97469711303711,24.71903610229492,10.94500350952148,-1,386745.0468276667,-0.3458709716796875,-1.147125244140625,-0.1995697021484375,386745.0287822083,-1.417380404827029,-0.2838114794730904,-0.9957703126505136,386745.0287822083,0.8823245511899966,-1.180019071011052,1.291292413063522,-1.435712456703186,-0.2676195502281189,-0.9641878008842468,0.03634650632739067,-0.2470442801713943,-0.0004302892193663865,XTrueNorthZVertical,0.6418606784267845,-0.1883421113703468,-0.01933856608239054,0.7430801695886806,-0.2550812363624573,-0.9611924290657043,-0.105084240436554,0,0,0,-1,192.168.1.8,10.71.35.210,1,0
2015-03-12 08:56:32.748,66,1426175785.020085,37.77915569552314,-122.4389425174134,57.40047,-1,-1,10,65,-9999,1426175792.709163,30.48862838745117,269.1388244628906,-41.40437698364258,15.50041961669922,1.726387858390808,-1,386745.0958178334,-0.29937744140625,-1.1986083984375,-0.108428955078125,386745.0805545,-1.077526428638747,-0.02322462891825401,-0.9528073989970283,386745.0805545,0.5778566596541488,-0.891710756543361,1.299396094691899,-1.095858216285706,-0.007032853551208973,-0.9212251901626587,-0.1391873061656952,-0.1830726563930511,0.04520763084292412,XTrueNorthZVertical,0.621019749735103,-0.1736265622245315,-0.04536019215628811,0.7629749276985337,-0.2086062729358673,-0.9633964896202087,-0.1683765798807144,0,0,0,-1,192.168.1.8,10.71.35.210,1,0
2015-03-12 08:56:32.765,67,1426175785.020085,37.77915569552314,-122.4389425174134,57.40047,-1,-1,10,65,-9999,1426175792.709163,30.48862838745117,269.1388244628906,-41.40437698364258,15.50041961669922,1.726387858390808,-1,386745.1449979584,-0.4174346923828125,-1.085464477539062,-0.212890625,386745.1323284584,-0.6219213514634793,0.001508148125311873,-0.7683214418556422,386745.0805545,0.5778566596541488,-0.891710756543361,1.299396094691899,-1.095858216285706,-0.007032853551208973,-0.9212251901626587,-0.1391873061656952,-0.1830726563930511,0.04520763084292412,XTrueNorthZVertical,0.621019749735103,-0.1736265622245315,-0.04536019215628811,0.7629749276985337,-0.2086062729358673,-0.9633964896202087,-0.1683765798807144,0,0,0,-1,192.168.1.8,10.71.35.210,1,0
2015-03-12 08:56:32.849,68,1426175785.020085,37.77915569552314,-122.4389425174134,57.40047,-1,-1,10,65,-9999,1426175792.810416,33.18280792236328,265.944091796875,-45.33180618286133,7.209944725036621,353.4359130859375,-1,386745.1939992917,-0.117034912109375,-1.086471557617188,-0.3089599609375,386745.1841026667,-0.08890004561237108,0.2330979680991475,-0.4473040040574908,386745.1841026667,0.2315152821196644,-0.5487969968797147,1.300873929843936,-0.1072314903140068,0.2492894381284714,-0.4157224297523499,-0.1046699732542038,-0.1408531814813614,-0.04233758896589279,XTrueNorthZVertical,0.6038857373806854,-0.1468761322713394,-0.07450447448207696,0.779870823431256,-0.1391044408082962,-0.9637916088104248,-0.2274988293647766,0,0,0,-1,192.168.1.8,10.71.35.210,1,0
2015-03-12 08:56:32.863,69,1426175785.020085,37.77915569552314,-122.4389425174134,57.40047,-1,-1,10,65,-9999,1426175792.810416,33.18280792236328,265.944091796875,-45.33180618286133,7.209944725036621,353.4359130859375,-1,386745.2430569167,-0.4331207275390625,-0.886688232421875,0.05487060546875,386745.2358747917,0.2879502981231825,-0.4972776892806097,-0.05279344018529478,386745.1841026667,0.2315152821196644,-0.5487969968797147,1.300873929843936,-0.1072314903140068,0.2492894381284714,-0.4157224297523499,-0.1046699732542038,-0.1408531814813614,-0.04233758896589279,XTrueNorthZVertical,0.6038857373806854,-0.1468761322713394,-0.07450447448207696,0.779870823431256,-0.1391044408082962,-0.9637916088104248,-0.2274988293647766,0,0,0,-1,192.168.1.8,10.71.35.210,1,0
2015-03-12 08:56:32.954,70,1426175785.020085,37.77915569552314,-122.4389425174134,57.40047,-1,-1,10,65,-9999,1426175792.913989,34.39348602294922,266.1649780273438,-45.71456146240234,4.841994285583496,351.0679626464844,-1,386745.2921672917,-0.043609619140625,-0.9473876953125,-0.4483795166015625,386745.287648875,0.1504467636685383,0.7548628909708177,0.5470194131727827,386745.2358747917,0.1956002352389595,-0.5206224356252985,1.307022299579564,0.2696190774440765,-0.4810863733291626,-0.02121221274137497,-0.07537253946065903,-0.05181430280208588,0.1136486828327179,XTrueNorthZVertical,0.6046411061801067,-0.1460068724878247,-0.08082111171056815,0.7788190250664697,-0.1296903342008591,-0.9654128551483154,-0.2261822521686554,0,0,0,-1,192.168.1.8,10.71.35.210,1,0
2015-03-12 08:56:32.961,71,1426175785.020085,37.77915569552314,-122.4389425174134,57.40047,-1,-1,10,65,-9999,1426175792.913989,34.39348602294922,266.1649780273438,-45.71456146240234,4.841994285583496,351.0679626464844,-1,386745.341336875,-1.364974975585938,-3.50128173828125,-0.830963134765625,386745.3394228333,0.4458243517558428,1.462399012525947,0.6277076015638945,386745.287648875,0.3013780406595658,-0.6072381270763019,1.310913242676501,0.1321156769990921,0.7710540294647217,0.5786003470420837,-0.333583265542984,-0.05552211031317711,-0.3019412457942963,XTrueNorthZVertical,0.6106321258267566,-0.1470171632035439,-0.06660031469545798,0.7752926922874622,-0.1466260850429535,-0.96642005443573,-0.2110287249088287,0,0,0,-1,192.168.1.8,10.71.35.210,1,0
2015-03-12 08:56:33.050,72,1426175785.020085,37.77915569552314,-122.4389425174134,57.40047,-1,-1,10,65,-9999,1426175793.018021,32.43253326416016,266.793701171875,-45.63135528564453,5.748274803161621,351.9742431640625,-1,386745.3903307084,0.5889892578125,-1.22509765625,0.0202178955078125,386745.3911949167,-0.04313708438877648,-1.57834665480138,-0.01634541750647033,386745.3394228333,0.3913108188307658,-0.66420250038349,1.310637442100162,0.4274934530258179,1.47859001159668,0.659288227558136,-0.5493185520172119,-1.302403926849365,-0.1406523436307907,XTrueNorthZVertical,0.6153750704255203,-0.1415604077458368,-0.04917977804979162,0.7738575599479462,-0.1585671603679657,-0.9663491249084473,-0.2025483399629593,0,0,0,-1,192.168.1.8,10.71.35.210,1,0
2015-03-12 08:56:33.059,73,1426175785.020085,37.77915569552314,-122.4389425174134,57.40047,-1,-1,10,65,-9999,1426175793.018021,32.43253326416016,266.793701171875,-45.63135528564453,5.748274803161621,351.9742431640625,-1,386745.4393857917,-0.584930419921875,-0.8436431884765625,0.1075897216796875,386745.3911949167,-0.04313708438877648,-1.57834665480138,-0.01634541750647033,386745.3911949167,0.4145923317441783,-0.6607876065815537,1.290640969246642,-0.06146777793765068,-1.562155842781067,0.01523486152291298,0.7586910724639893,-0.2640851736068726,0.2385210692882538,XTrueNorthZVertical,0.6100871359085479,-0.1365360746380102,-0.03541010485968674,0.7796779536418691,-0.1697018295526505,-0.9610124826431274,-0.2183031737804413,0,0,0,-1,192.168.1.8,10.71.35.210,1,0
2015-03-12 08:56:33.156,74,1426175785.020085,37.77915569552314,-122.4389425174134,57.40047,-1,-1,10,65,-9999,1426175793.121859,31.06838417053223,267.4054565429688,-45.26523971557617,8.292220115661621,354.5181884765625,-1,386745.488482625,-0.0988311767578125,-1.054641723632812,-0.3460693359375,386745.4947432917,-0.08506216416545789,-0.125262314504095,0.2320545415840544,386745.4429690417,0.465041705024996,-0.7467799580474509,1.293809948017551,0.2731963992118835,0.7588362693786621,0.1945667415857315,-0.3991760015487671,0.1182407140731812,0.3082751631736755,XTrueNorthZVertical,0.6131596848427309,-0.1539235971504518,-0.04273600570686263,0.7736383915887637,-0.1857544183731079,-0.9618839025497437,-0.2006854563951492,0,0,0,-1,192.168.1.8,10.71.35.210,1,0
2015-03-12 08:56:33.159,75,1426175785.020085,37.77915569552314,-122.4389425174134,57.40047,-1,-1,10,65,-9999,1426175793.121859,31.06838417053223,267.4054565429688,-45.26523971557617,8.292220115661621,354.5181884765625,-1,386745.5375364583,-0.12091064453125,-0.9524993896484375,-0.0284423828125,386745.4947432917,-0.08506216416545789,-0.125262314504095,0.2320545415840544,386745.4947432917,0.5091926180726841,-0.7662714673628894,1.288662321555434,-0.1033925041556358,-0.10907182097435,0.2636342346668243,0.09423042088747025,-0.0941782146692276,-0.1454775333404541,XTrueNorthZVertical,0.6144292542128943,-0.148932160894662,-0.03054911304361086,0.7741851553154964,-0.1930616050958633,-0.9604635238647461,-0.2005918025970459,0,0,0,-1,192.168.1.8,10.71.35.210,1,0
2015-03-12 08:56:33.221,76,1426175785.020085,37.77915569552314,-122.4389425174134,57.40047,-1,-1,10,65,-9999,1426175793.173342,30.6932430267334,267.8472900390625,-45.13210296630859,9.569869041442871,355.7958374023438,-1,386745.5866489583,-0.0876007080078125,-0.99072265625,-0.21697998046875,386745.54651525,0.2098562949499169,0.2574078351616088,0.3197215436117188,386745.54651525,0.5513630286917343,-0.8092675553358846,1.277952740164297,0.1915261298418045,0.2735981643199921,0.3513009250164032,0.08802777528762817,0.004927482921630144,0.1707523018121719,XTrueNorthZVertical,0.6135333688506914,-0.1548530440075022,-0.02506198779398454,0.7739310284748531,-0.2089384198188782,-0.9574268460273743,-0.1991946846246719,0,0,0,-1,192.168.1.8,10.71.35.210,1,0
2015-03-12 08:56:33.256,77,1426175785.020085,37.77915569552314,-122.4389425174134,57.40047,-1,-1,10,65,-9999,1426175793.224956,30.0964298248291,268.0342102050781,-45.4815788269043,10.66334438323975,356.8893127441406,-1,386745.6358220833,-0.3140411376953125,-0.898040771484375,-0.07989501953125,386745.598289375,0.009849434975549055,0.6401469606995456,0.4425252277974526,386745.598289375,0.6104022392706757,-0.8310694716587029,1.266184896722316,-0.008480525575578213,0.6563371419906616,0.474104255437851,0.1290245354175568,-0.007126522250473499,-0.01436385326087475,XTrueNorthZVertical,0.6140693574410305,-0.1477566003859255,-0.006159686398508134,0.7752734160009765,-0.2215385735034943,-0.953963577747345,-0.2021736204624176,0,0,0,-1,192.168.1.8,10.71.35.210,1,0
2015-03-12 08:56:33.323,78,1426175785.020085,37.77915569552314,-122.4389425174134,57.40047,-1,-1,10,65,-9999,1426175793.277839,28.90280723571777,268.2381286621094,-45.68128204345703,11.46717739105225,357.6931457519531,-1,386745.6848085,-0.3505096435546875,-0.977447509765625,-0.0295562744140625,386745.6500637084,-0.02089569454497972,0.2654327384743445,0.6330749364248401,386745.6500637084,0.6657955076216572,-0.8695540731268365,1.242223391902119,-0.03922547027468681,0.2816227376461029,0.6646536588668823,-0.1367350220680237,0.06895559281110764,0.1917875409126282,XTrueNorthZVertical,0.610758056402423,-0.1512588035798356,0.009365479575162535,0.7771792963476674,-0.2465505003929138,-0.9465038180351257,-0.2081907391548157,0,0,0,-1,192.168.1.8,10.71.35.210,1,0
2015-03-12 08:56:33.355,79,1426175785.020085,37.77915569552314,-122.4389425174134,57.40047,-1,-1,10,65,-9999,1426175793.328614,27.36814498901367,268.510009765625,-45.84769821166992,13.554762840271,359.7807312011719,-1,386745.733869125,-0.4533843994140625,-0.9239349365234375,-0.11444091796875,386745.7018356667,0.001903893863297647,0.1326342107175433,0.4321104037224798,386745.7018356667,0.7181895122252542,-0.9074590898630657,1.216385746183029,-0.0163897443562746,0.1487762629985809,0.4637722074985504,0.006370848510414362,-0.0812833160161972,0.2535748481750488,XTrueNorthZVertical,0.6072297106651579,-0.1562942617004678,0.02475281959811523,0.778608682308998,-0.2734454274177551,-0.9378511905670166,-0.2136883586645126,0,0,0,-1,192.168.1.8,10.71.35.210,1,0
2015-03-12 08:56:33.421,80,1426175785.020085,37.77915569552314,-122.4389425174134,57.40047,-1,-1,10,65,-9999,1426175793.381158,26.15746688842773,268.764892578125,-46.2304573059082,14.90727138519287,1.13323974609375,-1,386745.782971375,-0.3625030517578125,-0.887786865234375,-0.2823333740234375,386745.7536099167,0.2287697986955507,0.7573153960186717,0.1113539557111562,386745.7536099167,0.7629701616305929,-0.9234137357171944,1.209608139890705,0.210476353764534,0.7734572887420654,0.1430154144763947,-0.120643176138401,-0.020714420825243,-0.008659167215228081,XTrueNorthZVertical,0.6089004353954097,-0.1505874953268452,0.03910145600244742,0.7778397920940744,-0.2818836867809296,-0.935477614402771,-0.2131273299455643,0,0,0,-1,192.168.1.8,10.71.35.210,1,0
2015-03-12 08:56:33.453,81,1426175785.020085,37.77915569552314,-122.4389425174134,57.40047,-1,-1,10,65,-9999,1426175793.43325,25.35602951049805,268.9858093261719,-46.14724731445312,15.83044910430908,2.056417465209961,-1,386745.832047625,-0.4600372314453125,-0.90850830078125,-0.160888671875,386745.805383875,0.157761934550768,0.2974023894640918,-0.1203266780558511,386745.805383875,0.7795587239949817,-0.9126293921783373,1.212382232225024,0.1394686847925186,0.3135440945625305,-0.08866553753614426,-0.1387754827737808,0.06796982139348984,-0.03621155768632889,XTrueNorthZVertical,0.6106887914762723,-0.1406267384643269,0.04810676711811054,0.7777975696487973,-0.277514785528183,-0.9364542961120605,-0.2145666480064392,0,0,0,-1,192.168.1.8,10.71.35.210,1,0
2015-03-12 08:56:33.521,82,1426175785.020085,37.77915569552314,-122.4389425174134,57.40047,-1,-1,10,65,-9999,1426175793.484859,25.32192611694336,268.7139282226562,-45.81441879272461,15.57596111297607,1.801929712295532,-1,386745.88116,-0.470794677734375,-0.8797454833984375,-0.140716552734375,386745.8571562084,0.1391650806587446,0.5013842836815119,-0.3700845829862073,386745.8571562084,0.7720540628615246,-0.88536558061825,1.224759179126942,0.1208719834685326,0.517525851726532,-0.3384237289428711,-0.192737802863121,0.04900055378675461,0.079810731112957,XTrueNorthZVertical,0.6131612030156071,-0.1291670469639493,0.05028219644387356,0.7777023298253912,-0.2625692188739777,-0.9407241940498352,-0.2146984189748764,0,0,0,-1,192.168.1.8,10.71.35.210,1,0
2015-03-12 08:56:33.553,83,1426175785.020085,37.77915569552314,-122.4389425174134,57.40047,-1,-1,10,65,-9999,1426175793.536076,25.4412899017334,268.7308959960938,-45.93091583251953,15.02560043334961,1.251568794250488,-1,386745.9302323334,-0.229217529296875,-0.9207763671875,-0.283721923828125,386745.9089301667,0.2106816085717325,0.8442652087647778,-0.4840652144805086,386745.9089301667,0.7593254711530234,-0.8374716683205016,1.244784363183634,0.1923886984586716,0.8604066371917725,-0.4524046778678894,-0.2353074997663498,0.02630660496652126,-0.01104908157140017,XTrueNorthZVertical,0.61711994331287,-0.109446200244143,0.05493486802622678,0.77728158674484,-0.2379438430070877,-0.9473271369934082,-0.2143690139055252,0,0,0,-1,192.168.1.8,10.71.35.210,1,0
2015-03-12 08:56:33.620,84,1426175785.020085,37.77915569552314,-122.4389425174134,57.40047,-1,-1,10,65,-9999,1426175793.589005,25.76527786254883,268.7138977050781,-46.11397171020508,13.58518886566162,359.8111572265625,-1,386745.9793395,-0.2810516357421875,-0.94293212890625,-0.25579833984375,386745.9607044167,0.1636208889489423,0.3130290197923497,-0.4277572006046362,386745.9607044167,0.7283561459075257,-0.7792942913257997,1.264967479094368,0.1453281790018082,0.3291702568531036,-0.3960970044136047,-0.0907885804772377,0.01245087664574385,-0.02492665126919746,XTrueNorthZVertical,0.6201033271357306,-0.09151474089999022,0.05592017093539264,0.7771549719044183,-0.2115948349237442,-0.9535977244377136,-0.2141938358545303,0,0,0,-1,192.168.1.8,10.71.35.210,1,0
2015-03-12 08:56:33.651,85,1426175785.020085,37.77915569552314,-122.4389425174134,57.40047,-1,-1,10,65,-9999,1426175793.639905,26.19157028198242,268.9347839355469,-46.46344375610352,12.04554653167725,358.2715148925781,-1,386746.0284090417,-0.0579833984375,-0.994964599609375,-0.315704345703125,386746.0124764583,0.02810034424197108,0.4124280453701402,-0.1205509162196358,386745.9607044167,0.7283561459075257,-0.7792942913257997,1.264967479094368,0.1453281790018082,0.3291702568531036,-0.3960970044136047,-0.0907885804772377,0.01245087664574385,-0.02492665126919746,XTrueNorthZVertical,0.6201033271357306,-0.09151474089999022,0.05592017093539264,0.7771549719044183,-0.2115948349237442,-0.9535977244377136,-0.2141938358545303,0,0,0,-1,192.168.1.8,10.71.35.210,1,0
2015-03-12 08:56:33.719,86,1426175785.020085,37.77915569552314,-122.4389425174134,57.40047,-1,-1,10,65,-9999,1426175793.691973,26.72017860412598,268.5439453125,-46.21381759643555,11.11695766448975,357.3429260253906,-1,386746.0775149583,-0.0451202392578125,-1.062225341796875,-0.0737762451171875,386746.06425075,0.148654988887133,-0.4220388611120181,-0.1388444360634991,386746.06425075,0.7086617943697784,-0.7430933640230994,1.280060494390875,0.1303626298904419,-0.4058979153633118,-0.1071848422288895,0.2928966581821442,0.01983129978179932,0.1121351942420006,XTrueNorthZVertical,0.6229366128616648,-0.08003596011256101,0.05594714719117584,0.7761534243733397,-0.1939434260129929,-0.9580332040786743,-0.2110884487628937,0,0,0,-1,192.168.1.8,10.71.35.210,1,0
2015-03-12 08:56:33.754,87,1426175785.020085,37.77915569552314,-122.4389425174134,57.40047,-1,-1,10,65,-9999,1426175793.744108,26.94185256958008,268.3910217285156,-45.99747467041016,10.74815273284912,356.97412109375,-1,386746.1265789167,-0.4167938232421875,-0.8800201416015625,-0.1624755859375,386746.1160246667,0.01037647455527574,0.1196188098381081,0.09481785587063615,386746.06425075,0.7086617943697784,-0.7430933640230994,1.280060494390875,0.1303626298904419,-0.4058979153633118,-0.1071848422288895,0.2928966581821442,0.01983129978179932,0.1121351942420006,XTrueNorthZVertical,0.6229366128616648,-0.08003596011256101,0.05594714719117584,0.7761534243733397,-0.1939434260129929,-0.9580332040786743,-0.2110884487628937,0,0,0,-1,192.168.1.8,10.71.35.210,1,0
2015-03-12 08:56:33.805,88,1426175785.020085,37.77915569552314,-122.4389425174134,57.40047,-1,-1,10,65,-9999,1426175793.795928,27.11237144470215,268.7308959960938,-45.59807586669922,11.398512840271,357.6244812011719,-1,386746.1758144167,-0.1859893798828125,-0.965484619140625,-0.0879058837890625,386746.1677970417,-0.1067264470010345,-0.007179882298853626,0.1312557585373183,386746.1160246667,0.7203454351763314,-0.757700434104228,1.277207429585373,-0.007915699854493141,0.1357595771551132,0.1264771223068237,-0.08605893701314926,0.0004853791906498373,-0.01039380207657814,XTrueNorthZVertical,0.6229341974589361,-0.08272907782083525,0.05660070549576657,0.7758255251385345,-0.1988836973905563,-0.957211434841156,-0.2102177739143372,0,0,0,-1,192.168.1.8,10.71.35.210,1,0
2015-03-12 08:56:33.850,89,1426175785.020085,37.77915569552314,-122.4389425174134,57.40047,-1,-1,10,65,-9999,1426175793.795928,27.11237144470215,268.7308959960938,-45.59807586669922,11.398512840271,357.6244812011719,-1,386746.2247609583,-0.28472900390625,-0.9917755126953125,-0.0405731201171875,386746.219571,0.09300823790992732,0.6610242794330038,0.06632336378733335,386746.1677970417,0.7239851304719072,-0.7566243763315537,1.273924547277744,-0.1250184178352356,0.008960707113146782,0.1629146784543991,0.1259538531303406,-0.01639998517930508,0.1907734125852585,XTrueNorthZVertical,0.6220341649358799,-0.08194951352353136,0.05912488514925261,0.7764418992055119,-0.2008134722709656,-0.9562562704086304,-0.2127155512571335,0,0,0,-1,192.168.1.8,10.71.35.210,1,0
2015-03-12 08:56:33.903,90,1426175785.020085,37.77915569552314,-122.4389425174134,57.40047,-1,-1,10,65,-9999,1426175793.847264,26.63491821289062,269.2067260742188,-45.89762878417969,12.04606533050537,358.2720336914062,-1,386746.2738782084,0.0918121337890625,-1.004653930664062,-0.004730224609375,386746.27134525,0.1192747294252698,-0.05120619617560756,-0.2802598878433607,386746.27134525,0.7500639619565344,-0.7295068504119386,1.271582395827649,0.1009831055998802,-0.0350659154355526,-0.2486015558242798,0.05763978883624077,-0.03669530153274536,0.1028079837560654,XTrueNorthZVertical,0.6213259379916241,-0.06386241329200035,0.07823586140031001,0.7770166156127534,-0.1964642554521561,-0.9555684924125671,-0.2197513431310654,0,0,0,-1,192.168.1.8,10.71.35.210,1,0
2015-03-12 08:56:33.955,91,1426175785.020085,37.77915569552314,-122.4389425174134,57.40047,-1,-1,10,65,-9999,1426175793.899625,26.41324424743652,268.9857788085938,-45.94755172729492,12.01414394378662,358.2401123046875,-1,386746.3229512083,-0.3463897705078125,-1.075347900390625,-0.2514801025390625,386746.27134525,0.1192747294252698,-0.05120619617560756,-0.2802598878433607,386746.27134525,0.7500639619565344,-0.7295068504119386,1.271582395827649,0.1009831055998802,-0.0350659154355526,-0.2486015558242798,0.05763978883624077,-0.03669530153274536,0.1028079837560654,XTrueNorthZVertical,0.6213259379916241,-0.06386241329200035,0.07823586140031001,0.7770166156127534,-0.1964642554521561,-0.9555684924125671,-0.2197513431310654,0,0,0,-1,192.168.1.8,10.71.35.210,1,0
2015-03-12 08:56:34.003,92,1426175785.020085,37.77915569552314,-122.4389425174134,57.40047,-1,-1,10,65,-9999,1426175793.955358,25.91874313354492,269.0027770996094,-46.33030700683594,11.17918300628662,357.4051513671875,-1,386746.372060625,-0.171295166015625,-0.9302825927734375,-0.2354888916015625,386746.3748915417,0.09939290030728327,0.3749677551609766,-0.4010717938498243,386746.32311725,0.734772867556202,-0.7094406384073129,1.280173545397266,-0.04231153801083565,0.5057889223098755,-0.1947221606969833,-0.159729078412056,-0.1172822937369347,-0.03406786173582077,XTrueNorthZVertical,0.6227637973693388,-0.05881438698951735,0.07653772087322346,0.7764329319733265,-0.1866606920957565,-0.9580656290054321,-0.2174122482538223,0,0,0,-1,192.168.1.8,10.71.35.210,1,0
2015-03-12 08:56:34.052,93,1426175785.020085,37.77915569552314,-122.4389425174134,57.40047,-1,-1,10,65,-9999,1426175793.955358,25.91874313354492,269.0027770996094,-46.33030700683594,11.17918300628662,357.4051513671875,-1,386746.4211105,-0.2513885498046875,-0.9693756103515625,-0.326690673828125,386746.3748915417,0.09939290030728327,0.3749677551609766,-0.4010717938498243,386746.3748915417,0.6970120052980737,-0.6481762035975531,1.288740643290502,0.08110165596008301,0.3911077082157135,-0.3694141209125519,-0.003257603384554386,0.03020271472632885,-0.01360750384628773,XTrueNorthZVertical,0.6221331099689081,-0.04482967548667535,0.07901557126533819,0.7776228090621966,-0.1680375635623932,-0.9604852795600891,-0.2218813896179199,0,0,0,-1,192.168.1.8,10.71.35.210,1,0
2015-03-12 08:56:34.100,94,1426175785.020085,37.77915569552314,-122.4389425174134,57.40047,-1,-1,10,65,-9999,1426175794.054711,26.61786460876465,268.1701049804688,-46.31367111206055,9.168807029724121,355.394775390625,-1,386746.4703415417,-0.033355712890625,-0.96319580078125,-0.2037506103515625,386746.4266655417,0.005799299589756549,0.02844868571255344,-0.2747279696270481,386746.4266655417,0.6605894670383313,-0.6009177924440168,1.300553473912829,-0.01249177753925323,0.04458848387002945,-0.2430706024169922,-0.1004463359713554,-0.0056695188395679,-0.1064929962158203,XTrueNorthZVertical,0.6234234712817036,-0.03527513572227746,0.07707857740169265,0.7772758411018394,-0.1509422063827515,-0.9637060761451721,-0.2201976776123047,0,0,0,-1,192.168.1.8,10.71.35.210,1,0
2015-03-12 08:56:34.151,95,1426175785.020085,37.77915569552314,-122.4389425174134,57.40047,-1,-1,10,65,-9999,1426175794.107046,27.12941932678223,268.4080200195312,-46.41352081298828,8.019301414489746,354.2452697753906,-1,386746.519286625,-0.103240966796875,-0.9810943603515625,-0.2515106201171875,386746.4784376667,0.009150887821621271,0.5195265359754587,0.094509994448623,386746.4784376667,0.6523999213927474,-0.5763075861285455,1.296414165025696,-0.009140006266534328,0.5356661677360535,0.126167044043541,0.114294745028019,-0.000603014777880162,0.02343757078051567,XTrueNorthZVertical,0.6209340511398014,-0.02910006034370247,0.08238705619060474,0.7789778325442572,-0.1476504653692245,-0.9625927805900574,-0.2271881848573685,0,0,0,-1,192.168.1.8,10.71.35.210,1,0
2015-03-12 08:56:34.199,96,1426175785.020085,37.77915569552314,-122.4389425174134,57.40047,-1,-1,10,65,-9999,1426175794.159283,27.38519859313965,267.9152221679688,-46.56328964233398,7.106795310974121,353.332763671875,-1,386746.5683940417,-0.032440185546875,-1.002822875976562,-0.152557373046875,386746.581986125,-0.1007756135452524,0.4231254308367705,0.1203820718065248,386746.5302118334,0.6617472431938332,-0.575665926955844,1.29921040773034,0.04963589459657669,-0.0482560433447361,0.005026427563279867,0.02648615278303623,0.01945323683321476,0.001742298947647214,XTrueNorthZVertical,0.6219679060176531,-0.02537408603341525,0.08566381088646874,0.7779291684635484,-0.1460387706756592,-0.9633466601371765,-0.2250241637229919,0,0,0,-1,192.168.1.8,10.71.35.210,1,0
2015-03-12 08:56:34.254,97,1426175785.020085,37.77915569552314,-122.4389425174134,57.40047,-1,-1,10,65,-9999,1426175794.210417,26.77133178710938,267.7453002929688,-46.62985610961914,6.886641502380371,353.1126098632812,-1,386746.6174543333,-0.0180816650390625,-0.994598388671875,-0.256622314453125,386746.581986125,-0.1007756135452524,0.4231254308367705,0.1203820718065248,386746.581986125,0.6764362179714276,-0.574738046992685,1.292546008130027,-0.1190661266446114,0.439264714717865,0.1520384550094604,0.1818484514951706,-0.01198850013315678,0.05669978260993958,XTrueNorthZVertical,0.6198806007776591,-0.02182792953563185,0.09301387936197417,0.7788581388916391,-0.1493167132139206,-0.9615374803543091,-0.2305431663990021,0,0,0,-1,192.168.1.8,10.71.35.210,1,0
2015-03-12 08:56:34.296,98,1426175794.28311,37.77911817256212,-122.4387831360214,57.6267,-1,-1,10,65,-9999,1426175794.262447,26.68607139587402,268.340087890625,-47.07918167114258,6.258986473083496,352.4849548339844,-1,386746.6665622917,-0.2582244873046875,-0.963836669921875,-0.103546142578125,386746.6337581667,0.04599385729010447,-0.06179492466976261,0.2864847605753119,386746.6337581667,0.7025278392984688,-0.588922259366921,1.285078966975741,0.02770351245999336,-0.04565577208995819,0.3181408643722534,0.1028751060366631,-0.001569338026456535,-0.02958052977919579,XTrueNorthZVertical,0.6183707386681381,-0.02084772175501817,0.1003179143969665,0.7791786175888591,-0.1565555185079575,-0.9594597220420837,-0.2343659996986389,0,0,0,-1,192.168.1.8,10.71.35.210,1,0
2015-03-12 08:56:34.355,99,1426175794.28311,37.77911817256212,-122.4387831360214,57.6267,-1,-1,10,65,-9999,1426175794.313076,25.90168762207031,268.9857788085938,-47.21231842041016,7.028273582458496,353.2542419433594,-1,386746.7156210417,-0.1783294677734375,-1.019073486328125,-0.1715087890625,386746.6855324584,0.1926440185086258,-0.1430602200690945,0.2882733395634091,386746.6855324584,0.7592345902249336,-0.6567475975190341,1.282113120833142,0.174390584230423,-0.1269668489694595,0.3200127482414246,-0.09145810455083847,0.03340290859341621,0.1764888167381287,XTrueNorthZVertical,0.6215682267997215,-0.03030137823485398,0.1019856231828309,0.7761016032544479,-0.1738159358501434,-0.9586195945739746,-0.2254695296287537,0,0,0,-1,192.168.1.8,10.71.35.210,1,0
2015-03-12 08:56:34.394,100,1426175794.28311,37.77911817256212,-122.4387831360214,57.6267,-1,-1,10,65,-9999,1426175794.369395,25.32192611694336,269.359619140625,-47.41201782226562,8.854079246520996,355.0800476074219,-1,386746.764725375,-0.3363494873046875,-0.9516448974609375,-0.1054840087890625,386746.7373064167,0.04065981194278477,0.2177123538495417,0.3944202827112424,386746.7373064167,0.8117764899913004,-0.6897825056927117,1.269149772375324,0.02240658737719059,0.2338055521249771,0.4261593222618103,0.05681286007165909,0.06263668835163116,0.006943773943930864,XTrueNorthZVertical,0.6200981080719957,-0.02986549035370422,0.1150961092990096,0.7754606853191794,-0.1890607923269272,-0.95484858751297,-0.2291727811098099,0,0,0,-1,192.168.1.8,10.71.35.210,1,0
2015-03-12 08:56:34.454,101,1426175794.28311,37.77911817256212,-122.4387831360214,57.6267,-1,-1,10,65,-9999,1426175794.369395,25.32192611694336,269.359619140625,-47.41201782226562,8.854079246520996,355.0800476074219,-1,386746.8137804584,-0.280792236328125,-0.977142333984375,-0.1617584228515625,386746.7890785834,-0.01438000462199185,-0.03295954796692966,0.2577314092340534,386746.7890785834,0.8558391409036733,-0.7374927481293928,1.261518948070717,-0.03263304382562637,-0.01686651632189751,0.2894701659679413,-0.2177399843931198,0.02225591242313385,0.1451731771230698,XTrueNorthZVertical,0.6213072876938415,-0.03655603875962278,0.1191927558484292,0.7735851583645983,-0.2046690732240677,-0.9525537490844727,-0.2252818197011948,0,0,0,-1,192.168.1.8,10.71.35.210,1,0
2015-03-12 08:56:34.493,102,1426175794.28311,37.77911817256212,-122.4387831360214,57.6267,-1,-1,10,65,-9999,1426175794.469466,23.94072723388672,270.1243286132812,-47.4952278137207,12.65861415863037,358.8845825195312,-1,386746.8628803334,-0.2147979736328125,-0.95001220703125,-0.188934326171875,386746.8408528334,-0.1942259361961329,0.2472342934813971,0.1837040530453388,386746.8408528334,0.8674969414982335,-0.7349756614031663,1.246581081036384,-0.2124788165092468,0.2633271813392639,0.2154425084590912,0.005306866951286793,0.01014161389321089,0.05123741179704666,XTrueNorthZVertical,0.6168936846288118,-0.03576198820906512,0.1281724688156859,0.7757158502326172,-0.2136198580265045,-0.9479010105133057,-0.2363265305757523,0,0,0,-1,192.168.1.8,10.71.35.210,1,0
2015-03-12 08:56:34.548,103,1426175794.28311,37.77911817256212,-122.4387831360214,57.6267,-1,-1,10,65,-9999,1426175794.520964,23.65084648132324,270.1073303222656,-47.84469985961914,12.909255027771,359.1352233886719,-1,386746.9119430417,-0.323638916015625,-0.962249755859375,-0.1868896484375,386746.8926270417,-0.04352670485625507,-0.101803327409914,0.1029508835236291,386746.8926270417,0.8684311677974317,-0.7330457649296303,1.235842998508115,-0.06177937984466553,-0.08571061491966248,0.1346890032291412,-0.07085541635751724,-0.003190924413502216,0.04674842208623886,XTrueNorthZVertical,0.6135574141200341,-0.03745592703876099,0.1317763605709198,0.7776756032579937,-0.2199618518352509,-0.944425642490387,-0.2442887127399445,0,0,0,-1,192.168.1.8,10.71.35.210,1,0
2015-03-12 08:56:34.591,104,1426175794.28311,37.77911817256212,-122.4387831360214,57.6267,-1,-1,10,65,-9999,1426175794.572771,23.1392936706543,270.0393676757812,-47.91126251220703,13.73795986175537,359.9639282226562,-1,386746.9611466667,-0.281036376953125,-0.9759368896484375,-0.1711578369140625,386746.9443992084,0.04702956063803629,0.1445377418418705,0.03051609766678196,386746.9443992084,0.8757168140078271,-0.7418773085554561,1.23406808271153,0.02877706475555897,0.1606303006410599,0.06225389614701271,-0.05547408759593964,-0.01242760475724936,0.1127583757042885,XTrueNorthZVertical,0.6137464255855335,-0.03910676029156442,0.132337787359818,0.7773497902599472,-0.2232429534196854,-0.9438406825065613,-0.2435719668865204,0,0,0,-1,192.168.1.8,10.71.35.210,1,0
2015-03-12 08:56:34.659,105,1426175794.28311,37.77911817256212,-122.4387831360214,57.6267,-1,-1,10,65,-9999,1426175794.624651,22.86646461486816,269.8694458007812,-48.41051483154297,14.33726406097412,0.563232421875,-1,386747.0101090834,-0.17291259765625,-0.9877777099609375,-0.315155029296875,386746.9961731251,-0.03619608763970296,0.3094135122964581,0.1500475558211354,386746.9443992084,0.8757168140078271,-0.7418773085554561,1.23406808271153,0.02877706475555897,0.1606303006410599,0.06225389614701271,-0.05547408759593964,-0.01242760475724936,0.1127583757042885,XTrueNorthZVertical,0.6137464255855335,-0.03910676029156442,0.132337787359818,0.7773497902599472,-0.2232429534196854,-0.9438406825065613,-0.2435719668865204,0,0,0,-1,192.168.1.8,10.71.35.210,1,0
2015-03-12 08:56:34.689,106,1426175794.28311,37.77911817256212,-122.4387831360214,57.6267,-1,-1,10,65,-9999,1426175794.679165,22.3719596862793,270.2942810058594,-48.69342041015625,14.31307506561279,0.5390430688858032,-1,386747.0593216667,-0.38983154296875,-0.845367431640625,-0.104583740234375,386747.0479473334,0.1743923102938768,-0.5571271747740695,0.4308659085450857,386747.0479473334,0.9109599825198377,-0.7633074488347514,1.222508289813391,0.1561401635408401,-0.5410349369049072,0.4626031219959259,0.0132362823933363,0.0986192524433136,-0.04852058738470078,XTrueNorthZVertical,0.6124782847532495,-0.03962985222041641,0.1423634585739215,0.7765516539043452,-0.2359383106231689,-0.939958393573761,-0.2465996444225311,0,0,0,-1,192.168.1.8,10.71.35.210,1,0
2015-03-12 08:56:34.752,107,1426175794.28311,37.77911817256212,-122.4387831360214,57.6267,-1,-1,10,65,-9999,1426175794.679165,22.3719596862793,270.2942810058594,-48.69342041015625,14.31307506561279,0.5390430688858032,-1,386747.1082794584,-0.2347869873046875,-0.9416351318359375,-0.2921295166015625,386747.0997195,-0.7426040941570741,0.4085153290965957,0.7922217147424493,386747.0479473334,0.9109599825198377,-0.7633074488347514,1.222508289813391,0.1561401635408401,-0.5410349369049072,0.4626031219959259,0.0132362823933363,0.0986192524433136,-0.04852058738470078,XTrueNorthZVertical,0.6124782847532495,-0.03962985222041641,0.1423634585739215,0.7765516539043452,-0.2359383106231689,-0.939958393573761,-0.2465996444225311,0,0,0,-1,192.168.1.8,10.71.35.210,1,0
2015-03-12 08:56:34.786,108,1426175794.28311,37.77911817256212,-122.4387831360214,57.6267,-1,-1,10,65,-9999,1426175794.781006,20.49626159667969,271.6197204589844,-49.15939331054688,15.34394645690918,1.5699143409729,-1,386747.1573791667,-0.324127197265625,-0.73895263671875,-0.1048431396484375,386747.151493625,-0.9935572257846578,-0.09043376008414772,1.145320389980022,386747.0997195,0.9533841345677769,-0.8033180334978008,1.187504226707147,-0.760856032371521,0.4246073961257935,0.8239585757255554,-0.07688676565885544,-0.04424118995666504,-0.03405661880970001,XTrueNorthZVertical,0.6062214342102064,-0.05163009038903865,0.1557024212902806,0.778194488848952,-0.2691367864608765,-0.927438497543335,-0.2596598267555237,0,0,0,-1,192.168.1.8,10.71.35.210,1,0
2015-03-12 08:56:34.856,109,1426175794.28311,37.77911817256212,-122.4387831360214,57.6267,-1,-1,10,65,-9999,1426175794.834061,18.65466690063477,272.84326171875,-51.85533905029297,14.19014739990234,0.4161162376403809,-1,386747.206443375,-0.17755126953125,-0.7363128662109375,-0.235260009765625,386747.20326775,-1.525218721583171,0.727307962120095,1.531736275718922,386747.151493625,0.94655339884268,-0.7878396581258582,1.119021075544741,-1.01180899143219,-0.07434185594320297,1.177056908607483,0.01109457667917013,0.1886444538831711,0.1492814272642136,XTrueNorthZVertical,0.584513129792736,-0.06613049853870667,0.1753922330346294,0.789435698999004,-0.3094496726989746,-0.8996735215187073,-0.3079423308372498,0,0,0,-1,192.168.1.8,10.71.35.210,1,0
2015-03-12 08:56:34.885,110,1426175794.28311,37.77911817256212,-122.4387831360214,57.6267,-1,-1,10,65,-9999,1426175794.834061,18.65466690063477,272.84326171875,-51.85533905029297,14.19014739990234,0.4161162376403809,-1,386747.2555554584,-0.2458343505859375,-0.751800537109375,-0.3246002197265625,386747.2550400834,-1.626325099735812,0.6175250051359765,1.790340136526086,386747.20326775,0.9539247203007525,-0.7726327196176529,1.021338815956162,-1.54347038269043,0.7433997392654419,1.563472509384155,0.1024550646543503,0.09963411837816238,0.2263387441635132,XTrueNorthZVertical,0.553116745902254,-0.0841767932735218,0.2073933139684447,0.8024737666727003,-0.3645247519016266,-0.8528079390525818,-0.3739522695541382,0,0,0,-1,192.168.1.8,10.71.35.210,1,0
2015-03-12 08:56:34.950,111,1426175794.28311,37.77911817256212,-122.4387831360214,57.6267,-1,-1,10,65,-9999,1426175794.886903,15.87521934509277,274.4916076660156,-54.96732711791992,10.59364223480225,356.8196105957031,-1,386747.3046205834,-0.404296875,-0.6763153076171875,-0.5347442626953125,386747.2550400834,-1.626325099735812,0.6175250051359765,1.790340136526086,386747.2550400834,0.967588709596541,-0.7492712129475331,0.9003649347858528,-1.644576549530029,0.63361656665802,1.822075963020325,0.1797331571578979,0.05511437356472015,0.2659138143062592,XTrueNorthZVertical,0.5117284904744701,-0.1033040866834382,0.248795987396892,0.8158203076452705,-0.4231871366500854,-0.7835537195205688,-0.4549244344234467,0,0,0,-1,192.168.1.8,10.71.35.210,1,0
2015-03-12 08:56:34.983,112,1426175794.28311,37.77911817256212,-122.4387831360214,57.6267,-1,-1,10,65,-9999,1426175794.886903,15.87521934509277,274.4916076660156,-54.96732711791992,10.59364223480225,356.8196105957031,-1,386747.3537444583,-0.350677490234375,-0.6358642578125,-0.3958892822265625,386747.358588375,-1.57477109472184,0.4366391091561595,1.939152784549751,386747.306814125,0.9897027101486634,-0.734436400185067,0.7718696710346032,-1.683127164840698,0.7209230661392212,1.917797684669495,0.0759514719247818,0.02116096951067448,-0.002871752949431539,XTrueNorthZVertical,0.4671417097064006,-0.1258664697562851,0.2917050591722889,0.8251329670404398,-0.480248361825943,-0.6974762678146362,-0.5318725109100342,0,0,0,-1,192.168.1.8,10.71.35.210,1,0
2015-03-12 08:56:35.027,113,1426175794.28311,37.77911817256212,-122.4387831360214,57.6267,-1,-1,10,65,-9999,1426175794.886903,15.87521934509277,274.4916076660156,-54.96732711791992,10.59364223480225,356.8196105957031,-1,386747.4028120834,-0.423614501953125,-0.624176025390625,-0.439178466796875,386747.358588375,-1.57477109472184,0.4366391091561595,1.939152784549751,386747.358588375,1.008563878521994,-0.7211143363466247,0.645424283280014,-1.593022108078003,0.4527303576469421,1.970888018608093,0.1767373234033585,-0.03432682901620865,0.2040993273258209,XTrueNorthZVertical,0.4214730793674537,-0.1495531212572012,0.3308139458772297,0.8309972566163376,-0.5274147987365723,-0.6015374064445496,-0.5999886393547058,0,0,0,-1,192.168.1.8,10.71.35.210,1,0
2015-03-12 08:56:35.083,114,1426175794.28311,37.77911817256212,-122.4387831360214,57.6267,-1,-1,10,65,-9999,1426175794.886903,15.87521934509277,274.4916076660156,-54.96732711791992,10.59364223480225,356.8196105957031,-1,386747.4520189583,-0.568695068359375,-0.4735260009765625,-0.6151275634765625,386747.4103604167,-1.551989882125084,0.9376947587591556,2.045114371685715,386747.4103604167,1.040252360407741,-0.7100825669091685,0.5206323258716263,-1.57024073600769,0.9537858366966248,2.076849222183228,0.1419087499380112,-0.1267472356557846,0.2186574190855026,XTrueNorthZVertical,0.376365928113733,-0.1715539096788857,0.3726510968961521,0.8306919430276598,-0.5655232667922974,-0.4974287748336792,-0.6578359007835388,0,0,0,-1,192.168.1.8,10.71.35.210,1,0
2015-03-12 08:56:35.123,115,1426175794.28311,37.77911817256212,-122.4387831360214,57.6267,-1,-1,10,65,-9999,1426175794.886903,15.87521934509277,274.4916076660156,-54.96732711791992,10.59364223480225,356.8196105957031,-1,386747.5009816667,-0.6471405029296875,-0.390899658203125,-0.881256103515625,386747.4621346667,-1.332879901335469,0.6161553413873487,1.638170307632266,386747.4621346667,1.06584389611569,-0.6880055329224178,0.4088704514184253,-1.351130604743958,0.6322462558746338,1.669904828071594,-0.08548145741224289,-0.007837625220417976,-0.07523679733276367,XTrueNorthZVertical,0.332393291981235,-0.187341029040829,0.4093532526543595,0.8287629050730331,-0.582655131816864,-0.3975731432437897,-0.7088360786437988,0,0,0,-1,192.168.1.8,10.71.35.210,1,0
2015-03-12 08:56:35.180,116,1426175794.28311,37.77911817256212,-122.4387831360214,57.6267,-1,-1,10,65,-9999,1426175794.886903,15.87521934509277,274.4916076660156,-54.96732711791992,10.59364223480225,356.8196105957031,-1,386747.5500995,-0.4936676025390625,-0.3104705810546875,-0.860626220703125,386747.5139087084,-1.36438935808885,0.5347723342678353,1.511844060272685,386747.5139087084,1.088808132538284,-0.6620758537138001,0.3055919281003881,-1.382639765739441,0.5508630275726318,1.543578624725342,-0.00756832817569375,-0.09033184498548508,-0.1390901356935501,XTrueNorthZVertical,0.2895019589413273,-0.2002517160977816,0.4417645245535243,0.8251860219459743,-0.5862732529640198,-0.3008577227592468,-0.7521757483482361,0,0,0,-1,192.168.1.8,10.71.35.210,1,0
2015-03-12 08:56:35.248,117,1426175794.28311,37.77911817256212,-122.4387831360214,57.6267,-1,-1,10,65,-9999,1426175794.886903,15.87521934509277,274.4916076660156,-54.96732711791992,10.59364223480225,356.8196105957031,-1,386747.5991492083,-0.7659759521484375,-0.0625457763671875,-0.9086761474609375,386747.5656810417,-1.387928772647952,-0.03742380490222948,1.461501260922481,386747.5656810417,1.101952772808327,-0.6470194118395773,0.2047793179433859,-1.406179785728455,-0.02133285254240036,1.493234515190125,0.205053374171257,-0.03933994472026825,-0.119864284992218,XTrueNorthZVertical,0.2481207493402204,-0.2186997924587308,0.4660785151390219,0.8205957057230776,-0.5902157425880432,-0.2033510953187943,-0.7812129855155945,0,0,0,-1,192.168.1.8,10.71.35.210,1,0
2015-03-12 08:56:35.278,118,1426175794.28311,37.77911817256212,-122.4387831360214,57.6267,-1,-1,10,65,-9999,1426175794.886903,15.87521934509277,274.4916076660156,-54.96732711791992,10.59364223480225,356.8196105957031,-1,386747.6482502084,-0.869140625,0.0303497314453125,-0.9091339111328125,386747.6174550417,-1.258033356795446,-0.2131125420147568,1.232070465644372,386747.6174550417,1.113928539910789,-0.6503243026139266,0.1078367711578833,-1.276284217834473,-0.1970217376947403,1.263803482055664,-0.1439066827297211,0.01268770545721054,-0.06095424667000771,XTrueNorthZVertical,0.2119761672417939,-0.2437907188312153,0.4855694448569462,0.8123142890252214,-0.6019276976585388,-0.1076278910040855,-0.7912643551826477,0,0,0,-1,192.168.1.8,10.71.35.210,1,0
2015-03-12 08:56:35.328,119,1426175794.28311,37.77911817256212,-122.4387831360214,57.6267,-1,-1,10,65,-9999,1426175794.886903,15.87521934509277,274.4916076660156,-54.96732711791992,10.59364223480225,356.8196105957031,-1,386747.6973021667,-0.5291290283203125,0.2358551025390625,-0.871490478515625,386747.6692293333,-1.099092174513991,0.07491046040618485,0.9346132150618249,386747.6692293333,1.116743728629006,-0.6503045291035333,0.02402870959897054,-1.117342710494995,0.09100107848644257,0.9663459062576294,-0.1311503797769547,0.1160826683044434,0.1174012720584869,XTrueNorthZVertical,0.1788914113132167,-0.2648830099022582,0.4987540674799916,0.8056545377490559,-0.605254054069519,-0.02402639761567116,-0.7956697344779968,0,0,0,-1,192.168.1.8,10.71.35.210,1,0
2015-03-12 08:56:35.379,120,1426175794.28311,37.77911817256212,-122.4387831360214,57.6267,-1,-1,10,65,-9999,1426175794.886903,15.87521934509277,274.4916076660156,-54.96732711791992,10.59364223480225,356.8196105957031,-1,386747.7465227917,-0.7765045166015625,0.3046112060546875,-0.7174530029296875,386747.7210014167,-0.8032799585367854,-0.2961898522197787,0.9458972949165997,386747.7210014167,1.123330234298034,-0.6533121131836332,-0.04687226487138904,-0.8214930295944214,-0.2801430523395538,0.9777133464813232,-0.2572734355926514,0.08990941941738129,-0.1377053558826447,XTrueNorthZVertical,0.1520663196803124,-0.2833273851861464,0.5106585919363643,0.7973890077647363,-0.6071522235870361,0.04685510322451591,-0.7932028770446777,0,0,0,-1,192.168.1.8,10.71.35.210,3,0
2015-03-12 08:56:35.459,121,1426175794.28311,37.77911817256212,-122.4387831360214,57.6267,-1,-1,10,65,-9999,1426175794.886903,15.87521934509277,274.4916076660156,-54.96732711791992,10.59364223480225,356.8196105957031,-1,386747.7954525417,-0.6702728271484375,0.223907470703125,-0.8163604736328125,386747.7727756667,-0.596871125617976,0.04185770180110241,0.4440392348771627,386747.7727756667,1.12763076848263,-0.6572802916063755,-0.09459632764189833,-0.6150840520858765,0.05790433660149574,0.4758549928665161,-0.090358667075634,0.2000545859336853,-0.05573942139744759,XTrueNorthZVertical,0.1344690123521741,-0.296410845622881,0.5181466616407708,0.7909378814702701,-0.6082344651222229,0.09445530921220779,-0.7881174087524414,0,0,0,-1,192.168.1.8,10.71.35.210,3,0
2015-03-12 08:56:35.474,122,1426175794.28311,37.77911817256212,-122.4387831360214,57.6267,-1,-1,10,65,-9999,1426175794.886903,15.87521934509277,274.4916076660156,-54.96732711791992,10.59364223480225,356.8196105957031,-1,386747.8445517084,-0.755859375,0.286590576171875,-0.878570556640625,386747.8245496667,-0.3447451378463214,-0.041171671504298,0.1888085339066937,386747.8245496667,1.126408701960298,-0.6568108352600694,-0.1231049264824929,-0.3629578948020935,-0.02512519434094429,0.2206239700317383,-0.008345409296452999,0.2146386355161667,-0.05227608606219292,XTrueNorthZVertical,0.1226412390780448,-0.3032886569821977,0.5211845380140548,0.788252367175899,-0.6059734225273132,0.1227942258119583,-0.785950243473053,0,0,0,-1,192.168.1.8,10.71.35.210,3,0
2015-03-12 08:56:35.521,123,1426175794.28311,37.77911817256212,-122.4387831360214,57.6267,-1,-1,10,65,-9999,1426175794.886903,15.87521934509277,274.4916076660156,-54.96732711791992,10.59364223480225,356.8196105957031,-1,386747.893598,-0.7304840087890625,0.339935302734375,-0.877685546875,386747.876322,-0.007572964875749322,0.01085104986152786,-0.2265545813008228,386747.8245496667,1.126408701960298,-0.6568108352600694,-0.1231049264824929,-0.3629578948020935,-0.02512519434094429,0.2206239700317383,-0.008345409296452999,0.2146386355161667,-0.05227608606219292,XTrueNorthZVertical,0.1226412390780448,-0.3032886569821977,0.5211845380140548,0.788252367175899,-0.6059734225273132,0.1227942258119583,-0.785950243473053,0,0,0,-1,192.168.1.8,10.71.35.210,3,0
2015-03-12 08:56:35.572,124,1426175794.28311,37.77911817256212,-122.4387831360214,57.6267,-1,-1,10,65,-9999,1426175794.886903,15.87521934509277,274.4916076660156,-54.96732711791992,10.59364223480225,356.8196105957031,-1,386747.942698375,-0.7379913330078125,0.28173828125,-0.8849334716796875,386747.928096,0.4260224174705586,-0.03237897884929239,-0.5699636112282513,386747.928096,1.110895617352539,-0.6596243796032696,-0.1093816627962456,0.4078100323677063,-0.0163328405469656,-0.5381488800048828,-0.103717640042305,0.21706922352314,-0.0715557262301445,XTrueNorthZVertical,0.1265841549752862,-0.3020372208375668,0.5131989694591782,0.7933327086941169,-0.6091577410697937,0.1091636791825294,-0.7854999303817749,0,0,0,-1,192.168.1.8,10.71.35.210,3,0
2015-03-12 08:56:35.651,125,1426175794.28311,37.77911817256212,-122.4387831360214,57.6267,-1,-1,10,65,-9999,1426175794.886903,15.87521934509277,274.4916076660156,-54.96732711791992,10.59364223480225,356.8196105957031,-1,386747.9917605,-0.720489501953125,0.2046966552734375,-0.8784027099609375,386747.9798703333,0.7739452391295625,-0.1213594519265839,-0.8851527209807644,386747.9798703333,1.102191314258759,-0.6633345250190092,-0.06473233529123669,0.7557330131530762,-0.1053134575486183,-0.8533381819725037,-0.123289130628109,0.2062784433364868,-0.07521811127662659,XTrueNorthZVertical,0.144345040711707,-0.2932881706418338,0.5038019560893421,0.7995812324110979,-0.6144580841064453,0.06468714028596878,-0.786293089389801,0,0,0,-1,192.168.1.8,10.71.35.210,3,0
2015-03-12 08:56:35.670,126,1426175794.28311,37.77911817256212,-122.4387831360214,57.6267,-1,-1,10,65,-9999,1426175794.886903,15.87521934509277,274.4916076660156,-54.96732711791992,10.59364223480225,356.8196105957031,-1,386748.0408618334,-0.7500152587890625,0.0989227294921875,-0.8096466064453125,386748.0316425417,0.92577471603607,-0.2755828443369636,-1.182441127150201,386747.9798703333,1.102191314258759,-0.6633345250190092,-0.06473233529123669,0.7557330131530762,-0.1053134575486183,-0.8533381819725037,-0.123289130628109,0.2062784433364868,-0.07521811127662659,XTrueNorthZVertical,0.144345040711707,-0.2932881706418338,0.5038019560893421,0.7995812324110979,-0.6144580841064453,0.06468714028596878,-0.786293089389801,0,0,0,-1,192.168.1.8,10.71.35.210,3,0
2015-03-12 08:56:35.722,127,1426175794.28311,37.77911817256212,-122.4387831360214,57.6267,-1,-1,10,65,-9999,1426175794.886903,15.87521934509277,274.4916076660156,-54.96732711791992,10.59364223480225,356.8196105957031,-1,386748.0899376667,-0.629852294921875,-0.0783233642578125,-0.842010498046875,386748.0834166667,1.176438095737053,-0.3146575427989332,-1.380064724265057,386748.0316425417,1.086936189787733,-0.6725919482600745,-0.0004454026001719285,0.9075626730918884,-0.2595370411872864,-1.150627017021179,-0.09954923391342163,0.1134919747710228,-0.05574226751923561,XTrueNorthZVertical,0.1704618263036205,-0.2825563111425494,0.4882038145733369,0.8079367130182832,-0.6230154633522034,0.0004454025765880942,-0.7822093963623047,0,0,0,-1,192.168.1.8,10.71.35.210,3,0
2015-03-12 08:56:35.770,128,1426175794.28311,37.77911817256212,-122.4387831360214,57.6267,-1,-1,10,65,-9999,1426175795.739055,-34.13899612426758,-2.114013671875,-25.08905792236328,331.4645690917969,317.6905517578125,15,386748.13899925,-0.6322174072265625,-0.137939453125,-0.7752227783203125,386748.1351906667,1.256688726761065,-0.5957531305923607,-1.505219447061112,386748.1351906667,2.858294531800737,-0.7077821016527925,0.1734191425383684,1.238476991653442,-0.5797076225280762,-1.473405957221985,0.0379660576581955,0.04100518673658371,-0.06174109876155853,XTrueNorthZVertical,0.3532588971840003,0.03168007716982259,0.9209108462805418,0.1616408757777903,-0.6403983235359192,-0.1725512146949768,-0.7484090328216553,-33.67577743530273,-8.918851852416992,-22.73701095581055,1,192.168.1.8,10.71.35.210,3,0
2015-03-12 08:56:35.821,129,1426175794.28311,37.77911817256212,-122.4387831360214,57.6267,-1,-1,10,65,-9999,1426175795.79122,-34.13899612426758,-6.3905029296875,-24.09090423583984,117.2961730957031,103.5221405029297,15,386748.188046875,-0.66326904296875,-0.2589263916015625,-0.69647216796875,386748.1351906667,1.256688726761065,-0.5957531305923607,-1.505219447061112,386748.1351906667,2.858294531800737,-0.7077821016527925,0.1734191425383684,1.238476991653442,-0.5797076225280762,-1.473405957221985,0.0379660576581955,0.04100518673658371,-0.06174109876155853,XTrueNorthZVertical,0.3532588971840003,0.03168007716982259,0.9209108462805418,0.1616408757777903,-0.6403983235359192,-0.1725512146949768,-0.7484090328216553,-33.67577743530273,-8.918851852416992,-22.73701095581055,1,192.168.1.8,10.71.35.210,3,0
2015-03-12 08:56:35.867,130,1426175794.28311,37.77911817256212,-122.4387831360214,57.6267,-1,-1,10,65,-9999,1426175795.84339,-33.30339813232422,-10.7518310546875,-22.31086730957031,116.0817413330078,102.3077087402344,15,386748.23712275,-0.69598388671875,-0.299285888671875,-0.67779541015625,386748.2387371667,1.418791880204771,-0.8144316792853832,-1.715274413828349,386748.1869628333,2.837374917481313,-0.7318654809995038,0.2699792303500119,1.164487481117249,-0.5452763438224792,-1.620927691459656,-0.02429833821952343,0.005038445815443993,0.0183576624840498,XTrueNorthZVertical,0.3695131583831536,0.07049373163723675,0.9073151197454538,0.1878030039998112,-0.6440519094467163,-0.266711413860321,-0.7169812917709351,-33.51774978637695,-12.41682910919189,-21.28282928466797,1,192.168.1.8,10.71.35.210,3,0
2015-03-12 08:56:35.906,131,1426175794.28311,37.77911817256212,-122.4387831360214,57.6267,-1,-1,10,65,-9999,1426175795.895044,-32.38253784179688,-15.197998046875,-20.18148040771484,119.4175720214844,105.6435394287109,15,386748.286292,-0.8242645263671875,-0.4644622802734375,-0.41455078125,386748.2387371667,1.418791880204771,-0.8144316792853832,-1.715274413828349,386748.2387371667,2.818685518114255,-0.7566732332973072,0.3722660396856777,1.400580644607544,-0.7983865141868591,-1.683461546897888,-0.05649949237704277,0.06444130092859268,-0.0004754983528982848,XTrueNorthZVertical,0.3859193462957453,0.1113835816289729,0.8903636975687252,0.2142719701650466,-0.6394844055175781,-0.3637271821498871,-0.6773198843002319,-32.98500442504883,-15.94611072540283,-19.70499801635742,1,192.168.1.8,10.71.35.210,3,0
2015-03-12 08:56:35.965,132,1426175794.28311,37.77911817256212,-122.4387831360214,57.6267,-1,-1,10,65,-9999,1426175795.946681,-30.98418807983398,-19.30484008789062,-17.81919097900391,127.082389831543,113.3083572387695,15,386748.3353897917,-0.5524444580078125,-0.5323486328125,-0.4895172119140625,386748.2905112917,1.559212907633597,-0.7041909249098801,-1.947050122446272,386748.2905112917,2.806404895304887,-0.791226711012907,0.4873691119897157,1.541001796722412,-0.6881458759307861,-1.915237545967102,-0.1958567053079605,0.003840663004666567,0.2065739929676056,XTrueNorthZVertical,0.4058878798446258,0.1571389186993563,0.8674405652231573,0.2410586863795981,-0.6284078359603882,-0.4683029353618622,-0.621124804019928,-31.94230651855469,-20.80171775817871,-16.65994262695312,1,192.168.1.8,10.71.35.210,3,0
2015-03-12 08:56:36.004,133,1426175794.28311,37.77911817256212,-122.4387831360214,57.6267,-1,-1,10,65,-9999,1426175795.999423,-29.33004570007324,-23.6322021484375,-15.20735931396484,134.7205352783203,120.9465103149414,15,386748.384328375,-0.4217681884765625,-0.744171142578125,-0.32720947265625,386748.3422834583,1.380208534963921,-0.1495050699070863,-1.905686969659598,386748.3422834583,2.788043649789006,-0.7956084305290158,0.6045761874296651,1.361997604370117,-0.1334601938724518,-1.873874664306641,0.03523233160376549,0.03606480732560158,0.08627978712320328,XTrueNorthZVertical,0.4123312021122762,0.205145022878849,0.8461153360462489,0.2683046266998041,-0.5876767635345459,-0.5684134364128113,-0.5757970213890076,-30.35171508789062,-24.50880813598633,-14.44533634185791,1,192.168.1.8,10.71.35.210,3,0
2015-03-12 08:56:36.063,134,1426175794.28311,37.77911817256212,-122.4387831360214,57.6267,-1,-1,10,65,-9999,1426175796.053193,-26.72093200683594,-27.55233764648438,-12.82843780517578,137.9358520507812,124.1618270874023,15,386748.433442,-0.3051910400390625,-0.7301025390625,-0.3875579833984375,386748.44583175,1.477391544198656,-0.7756597822393555,-1.903509835468458,386748.3940575,2.766607888192702,-0.8044022812697738,0.7234327914666483,1.31970489025116,-0.4583987593650818,-1.995257377624512,0.1182110011577606,-0.08220957219600677,0.1926264464855194,XTrueNorthZVertical,0.420396564368781,0.2516918165460824,0.8197525008953761,0.2965195283196885,-0.5399792194366455,-0.661961555480957,-0.519835889339447,-28.27437973022461,-27.85903549194336,-12.45027923583984,1,192.168.1.8,10.71.35.210,3,0
2015-03-12 08:56:36.103,135,1426175794.28311,37.77911817256212,-122.4387831360214,57.6267,-1,-1,10,65,-9999,1426175796.053193,-26.72093200683594,-27.55233764648438,-12.82843780517578,137.9358520507812,124.1618270874023,15,386748.4826105,-0.388702392578125,-0.7215576171875,-0.2637481689453125,386748.44583175,1.477391544198656,-0.7756597822393555,-1.903509835468458,386748.44583175,2.740199193196543,-0.810237502485688,0.8385116488402625,1.459181785583496,-0.7596153020858765,-1.871698975563049,0.09662061184644699,-0.004352222196757793,0.03376971930265427,XTrueNorthZVertical,0.427351101844263,0.2948549180556617,0.7906240748359994,0.3245692847283911,-0.4843464493751526,-0.743648886680603,-0.4608632326126099,-25.06896591186523,-31.8676929473877,-9.304460525512695,1,192.168.1.8,10.71.35.210,3,0
2015-03-12 08:56:36.161,136,1426175794.28311,37.77911817256212,-122.4387831360214,57.6267,-1,-1,10,65,-9999,1426175796.127577,-22.03134727478027,-32.55850219726562,-8.120498657226562,148.8544006347656,135.0803680419922,15,386748.531700875,-0.463470458984375,-0.7060089111328125,-0.1474151611328125,386748.4976037917,1.837797933467407,-1.269164304887541,-1.927171222805485,386748.4976037917,2.728142111152629,-0.8550496155726104,0.9632954995305048,1.819588780403137,-1.253119945526123,-1.895361065864563,0.02438388392329216,0.09408740699291229,0.1535206735134125,XTrueNorthZVertical,0.4461507926516026,0.3371494129193084,0.7498730452048032,0.3535112373154254,-0.4307406842708588,-0.8210771679878235,-0.3745594918727875,-22.51446151733398,-34.42375183105469,-6.21934986114502,1,192.168.1.8,10.71.35.210,3,0
2015-03-12 08:56:36.201,137,1426175794.28311,37.77911817256212,-122.4387831360214,57.6267,-1,-1,10,65,-9999,1426175796.180245,-18.51842308044434,-34.900390625,-4.959690093994141,158.1203918457031,144.3463592529297,15,386748.5806565,-0.25433349609375,-0.666412353515625,-0.1244049072265625,386748.5493779167,1.65839382031811,-0.4669000759905119,-2.065753337501611,386748.5493779167,2.737959182429901,-0.901902093513595,1.093651558200582,1.640184879302979,-0.4508558511734009,-2.03394341468811,-0.04384789615869522,0.2033580094575882,0.1157647520303726,XTrueNorthZVertical,0.4585242566779361,0.3838780108091343,0.7077608766348367,0.3761219956460293,-0.3602811396121979,-0.8883097767829895,-0.2847863435745239,-19.67076683044434,-36.57955551147461,-2.360692977905273,1,192.168.1.8,10.71.35.210,3,0
2015-03-12 08:56:36.260,138,1426175794.28311,37.77911817256212,-122.4387831360214,57.6267,-1,-1,10,65,-9999,1426175796.233203,-15.44888114929199,-36.801025390625,-1.931964874267578,163.7618408203125,149.9878082275391,15,386748.6297387084,-0.0674285888671875,-1.024017333984375,-0.5007171630859375,386748.6011520834,0.8390890888700998,0.6277182542082548,-1.323740997738753,386748.6011520834,2.734613767918567,-0.900853263132114,1.206100553226314,0.8208803534507751,0.6437622904777527,-1.291931390762329,0.002535923384130001,0.2108588963747025,0.08908290416002274,XTrueNorthZVertical,0.4543441818787862,0.4275947695461761,0.6762676434572946,0.3916582529589566,-0.2795744836330414,-0.9342322945594788,-0.2214681506156921,-15.2225284576416,-38.68143081665039,1.611698150634766,1,192.168.1.8,10.71.35.210,1,0
2015-03-12 08:56:36.299,139,1426175794.28311,37.77911817256212,-122.4387831360214,57.6267,-1,-1,10,65,-9999,1426175796.284074,-13.12967109680176,-37.71743774414062,-0.1685638427734375,162.6598358154297,148.8858032226562,15,386748.678785375,-0.0302734375,-0.9576568603515625,-0.1204833984375,386748.6529244584,-0.4434964826470045,-0.1246497874533768,0.5470473763642285,386748.6529244584,2.691578144477261,-0.8221737551211288,1.207121685472773,-0.4617050588130951,-0.1086059063673019,0.5788565874099731,0.2567430436611176,0.02299019135534763,-0.1135441809892654,XTrueNorthZVertical,0.4367940268586634,0.4337708375772472,0.6850980613612739,0.3894798070961403,-0.2606035172939301,-0.9345960021018982,-0.2421076744794846,-13.68102169036865,-39.25210952758789,1.636285781860352,1,192.168.1.8,10.71.35.210,1,0
2015-03-12 08:56:36.357,140,1426175794.28311,37.77911817256212,-122.4387831360214,57.6267,-1,-1,10,65,-9999,1426175796.335188,-12.44754791259766,-37.98898315429688,0.197418212890625,165.3922119140625,151.6181793212891,15,386748.72787475,-0.539703369140625,-0.93865966796875,-0.1774749755859375,386748.7046984167,0.2048093383681078,-0.5656623397516644,-0.1292029939690852,386748.7046984167,2.70252606439432,-0.8592813672422881,1.209453788852097,0.1866383999586105,-0.549660325050354,-0.09731077402830124,-0.1495885252952576,0.05093207210302353,0.0354296900331974,XTrueNorthZVertical,0.4470087930207174,0.4298355946826994,0.6783671659251005,0.3940082790363353,-0.2677546143531799,-0.9354230165481567,-0.2308489978313446,-14.21155452728271,-39.07684326171875,1.268099784851074,1,192.168.1.8,10.71.35.210,1,0
2015-03-12 08:56:36.397,141,1426175794.28311,37.77911817256212,-122.4387831360214,57.6267,-1,-1,10,65,-9999,1426175796.388004,-12.82271194458008,-37.92108154296875,-0.1020240783691406,166.0406951904297,152.2666625976562,15,386748.77702675,-0.1006317138671875,-0.86163330078125,-0.045623779296875,386748.7564725833,-0.5211089862951838,0.3733251174006157,1.141327246241557,386748.7564725833,2.745199547778851,-0.8985534348608064,1.181718173834776,-0.5392797589302063,0.3893269300460815,1.173219203948975,-0.1516381055116653,0.004284410737454891,-0.02533771842718124,XTrueNorthZVertical,0.452424083588189,0.4209491974400392,0.6857648291679254,0.3845007881510204,-0.2968024611473083,-0.9252591133117676,-0.2362284362316132,-14.60912990570068,-38.91038131713867,1.769621849060059,1,192.168.1.8,10.71.35.210,1,0
2015-03-12 08:56:36.457,142,1426175794.28311,37.77911817256212,-122.4387831360214,57.6267,-1,-1,10,65,-9999,1426175796.439179,-14.64738845825195,-37.46286010742188,-1.283161163330078,164.0310516357422,150.2570190429688,15,386748.826002125,-0.3579559326171875,-0.827789306640625,-0.159637451171875,386748.8082447917,-1.060941859266388,0.497993280665514,1.293273635919919,386748.8082447917,2.724316507042869,-0.8500645243156437,1.106544070689898,-1.079112410545349,0.5139949321746826,1.325165152549744,0.1677374988794327,0.1397010535001755,-0.01841516979038715,XTrueNorthZVertical,0.4423795576929176,0.3956715899285879,0.7134199580875396,0.3725269366229389,-0.3364081680774689,-0.8941566348075867,-0.2954886257648468,-16.43199729919434,-38.21718597412109,-0.109776496887207,1,192.168.1.8,10.71.35.210,1,0
2015-03-12 08:56:36.495,143,1426175794.28311,37.77911817256212,-122.4387831360214,57.6267,-1,-1,10,65,-9999,1426175796.491447,-17.13712692260742,-36.037353515625,-3.645450592041016,157.9421081542969,144.1680755615234,15,386748.8750492083,-0.2338409423828125,-0.6457366943359375,-0.0325164794921875,386748.860019125,-1.46491862923327,0.5388778634043014,1.849526761224225,386748.8082447917,2.724316507042869,-0.8500645243156437,1.106544070689898,-1.079112410545349,0.5139949321746826,1.325165152549744,0.1677374988794327,0.1397010535001755,-0.01841516979038715,XTrueNorthZVertical,0.4423795576929176,0.3956715899285879,0.7134199580875396,0.3725269366229389,-0.3364081680774689,-0.8941566348075867,-0.2954886257648468,-16.43199729919434,-38.21718597412109,-0.109776496887207,1,192.168.1.8,10.71.35.210,1,0
2015-03-12 08:56:36.554,144,1426175794.28311,37.77911817256212,-122.4387831360214,57.6267,-1,-1,10,65,-9999,1426175796.543133,-20.08729934692383,-34.42520141601562,-6.789627075195312,155.9064178466797,142.1323852539062,15,386748.9243020417,-0.30743408203125,-0.5924072265625,-0.21728515625,386748.9117930834,-1.645201319226184,0.9114650188668563,1.990899336110536,386748.9117930834,2.741348256476243,-0.7821908691559982,0.8716179280209765,-1.663371562957764,0.9274663329124451,2.022790193557739,0.2106280773878098,-0.01717577874660492,0.1260838806629181,XTrueNorthZVertical,0.4162543933411715,0.3137842314555975,0.7893630860820862,0.3243111001699658,-0.4536242783069611,-0.7653712034225464,-0.4565434753894806,-20.5528564453125,-30.65900039672852,-17.18654441833496,1,192.168.1.8,10.71.35.210,1,0
2015-03-12 08:56:36.593,145,1426175794.28311,37.77911817256212,-122.4387831360214,57.6267,-1,-1,10,65,-9999,1426175796.543133,-20.08729934692383,-34.42520141601562,-6.789627075195312,155.9064178466797,142.1323852539062,15,386748.9733029584,-0.2800140380859375,-0.70086669921875,-0.3320465087890625,386748.9635654584,-1.86307639221833,1.002503582834561,2.101527314108537,386748.9117930834,2.741348256476243,-0.7821908691559982,0.8716179280209765,-1.663371562957764,0.9274663329124451,2.022790193557739,0.2106280773878098,-0.01717577874660492,0.1260838806629181,XTrueNorthZVertical,0.4162543933411715,0.3137842314555975,0.7893630860820862,0.3243111001699658,-0.4536242783069611,-0.7653712034225464,-0.4565434753894806,-20.5528564453125,-30.65900039672852,-17.18654441833496,1,192.168.1.8,10.71.35.210,1,0
2015-03-12 08:56:36.652,146,1426175794.28311,37.77911817256212,-122.4387831360214,57.6267,-1,-1,10,65,-9999,1426175796.595185,-23.07157897949219,-31.59115600585938,-10.53269577026367,148.378662109375,134.6046295166016,15,386749.0222961667,-0.251251220703125,-0.5805206298828125,-0.43853759765625,386749.0153394584,-1.932953478164265,0.9834396104873377,2.119259173278502,386749.0153394584,2.794185444450697,-0.71491839897834,0.582550794363022,-1.951123356819153,0.999440610408783,2.151149272918701,0.2516228854656219,-0.1023863181471825,0.1959172636270523,XTrueNorthZVertical,0.3766087512315234,0.2070474759082523,0.8664600511812884,0.2540555178917964,-0.5474297404289246,-0.5501558184623718,-0.6305943727493286,-24.0630989074707,-22.80567741394043,-23.63556480407715,1,192.168.1.8,10.71.35.210,1,0
2015-03-12 08:56:36.691,147,1426175794.28311,37.77911817256212,-122.4387831360214,57.6267,-1,-1,10,65,-9999,1426175796.646648,-26.12407302856445,-27.3995361328125,-14.70828628540039,143.3024139404297,129.5283813476562,15,386749.0714747917,-0.4586334228515625,-0.5493011474609375,-0.7144622802734375,386749.0671137084,-1.943094529279178,0.6460559825262134,2.235436912672119,386749.0153394584,2.794185444450697,-0.71491839897834,0.582550794363022,-1.951123356819153,0.999440610408783,2.151149272918701,0.2516228854656219,-0.1023863181471825,0.1959172636270523,XTrueNorthZVertical,0.3766087512315234,0.2070474759082523,0.8664600511812884,0.2540555178917964,-0.5474297404289246,-0.5501558184623718,-0.6305943727493286,-24.0630989074707,-22.80567741394043,-23.63556480407715,1,192.168.1.8,10.71.35.210,1,0
2015-03-12 08:56:36.754,148,1426175794.28311,37.77911817256212,-122.4387831360214,57.6267,-1,-1,10,65,-9999,1426175796.699824,-28.66497611999512,-22.25753784179688,-18.484619140625,137.2382659912109,123.4642333984375,15,386749.120445875,-0.40362548828125,-0.3954925537109375,-0.717437744140625,386749.1188857917,-2.055234916460234,0.5034583535384656,2.193979217666747,386749.0671137084,2.821174835617659,-0.6852073860861509,0.4337256574350871,-1.961264133453369,0.6620568633079529,2.267326831817627,0.05107437819242477,-0.1871827393770218,0.03790556639432907,XTrueNorthZVertical,0.3562002262217202,0.1477313767347054,0.8965115039637722,0.2180917184965429,-0.5742372274398804,-0.4202544093132019,-0.7025936841964722,-25.25606155395508,-16.48712921142578,-27.35100173950195,1,192.168.1.8,10.71.35.210,1,0
2015-03-12 08:56:36.790,149,1426175794.28311,37.77911817256212,-122.4387831360214,57.6267,-1,-1,10,65,-9999,1426175796.754209,-30.69428825378418,-16.470703125,-21.49570465087891,127.9894943237305,114.215461730957,15,386749.1696062917,-0.6942901611328125,-0.1477203369140625,-0.9228057861328125,386749.1188857917,-2.055234916460234,0.5034583535384656,2.193979217666747,386749.1188857917,2.853062527694476,-0.6697010582205425,0.2865164250435747,-2.073404312133789,0.5194590091705322,2.225868940353394,0.1609827131032944,-0.0591539740562439,0.1686878204345703,XTrueNorthZVertical,0.3412678759130106,0.08667722992318035,0.9183286504187836,0.1808198544164268,-0.5954462289810181,-0.2826123833656311,-0.7520465850830078,-25.64753341674805,-12.81154918670654,-28.65262031555176,1,192.168.1.8,10.71.35.210,1,0
2015-03-12 08:56:36.850,150,1426175794.28311,37.77911817256212,-122.4387831360214,57.6267,-1,-1,10,65,-9999,1426175796.828612,-33.08171081542969,-7.204986572265625,-24.62324523925781,119.9174118041992,106.1433792114258,15,386749.2185822917,-0.6351165771484375,0.0807037353515625,-0.7508087158203125,386749.2224340833,-1.907974358719867,0.07989003901241501,1.764052339722023,386749.170660125,2.886134596206387,-0.6586582942624667,0.1394377205893738,-1.957006692886353,0.3603573739528656,2.184417009353638,-0.08817422389984131,-0.0087340222671628,-0.1396670341491699,XTrueNorthZVertical,0.3283913015624683,0.02428539426413038,0.9334011194157887,0.142589474385006,-0.6061159372329712,-0.1389863193035126,-0.7831387519836426,-26.19929122924805,-7.558027267456055,-29.98962593078613,1,192.168.1.8,10.71.35.210,1,0
2015-03-12 08:56:36.888,151,1426175794.28311,37.77911817256212,-122.4387831360214,57.6267,-1,-1,10,65,-9999,1426175796.880285,-33.55919647216797,-1.367279052734375,-25.52156066894531,113.9417266845703,100.1676940917969,15,386749.2676396667,-0.639404296875,0.16473388671875,-0.82989501953125,386749.2224340833,-1.907974358719867,0.07989003901241501,1.764052339722023,386749.2224340833,2.903321532745125,-0.6595964205959263,0.004074544938377344,-1.926143407821655,0.09589041024446487,1.795941233634949,-0.02232368104159832,0.08477827161550522,0.03942433744668961,XTrueNorthZVertical,0.3217849914361909,-0.03657720586508401,0.9393211170239875,0.1131034997637946,-0.6127929091453552,-0.004074533469974995,-0.7902330756187439,-26.437744140625,-0.6760189533233643,-30.71633148193359,1,192.168.1.8,10.71.35.210,1,0
2015-03-12 08:56:36.954,152,1426175794.28311,37.77911817256212,-122.4387831360214,57.6267,-1,-1,10,65,-9999,1426175796.937748,-33.35456085205078,3.89349365234375,-25.15557098388672,111.5630950927734,97.7890625,15,386749.3167310417,-0.9243011474609375,0.4525146484375,-0.927276611328125,386749.2742064167,-1.429924692509629,-0.1857237944160549,1.592534112876559,386749.2742064167,2.923434876309237,-0.662394695306224,-0.1151376548058573,-1.44809365272522,-0.1697235703468323,1.624422788619995,-0.0284693818539381,0.0498504526913166,-0.04659409075975418,XTrueNorthZVertical,0.3167842226829519,-0.08942758343990213,0.9405129753288403,0.08417744392559257,-0.6109349131584167,0.1148834303021431,-0.7833009362220764,-26.30692481994629,3.948095321655273,-30.58206367492676,1,192.168.1.8,10.71.35.210,1,0
2015-03-12 08:56:36.986,153,1426175794.28311,37.77911817256212,-122.4387831360214,57.6267,-1,-1,10,65,-9999,1426175796.937748,-33.35456085205078,3.89349365234375,-25.15557098388672,111.5630950927734,97.7890625,15,386749.365785375,-0.7657623291015625,0.4313201904296875,-1.024703979492188,386749.3259804167,-1.038475964942697,-0.005367867493163712,0.8423437380382857,386749.3259804167,2.940078678225278,-0.6691653944048904,-0.2031299906895092,-1.056644797325134,0.01063220389187336,0.8742321133613586,-0.3167236149311066,0.2507787048816681,-0.159062996506691,XTrueNorthZVertical,0.3153929962587214,-0.1281423132844604,0.9382630877116154,0.06139396504067731,-0.6075775623321533,0.2017359584569931,-0.7682136297225952,-26.21593475341797,7.738646507263184,-29.928955078125,1,192.168.1.8,10.71.35.210,1,0
2015-03-12 08:56:37.049,154,1426175794.28311,37.77911817256212,-122.4387831360214,57.6267,-1,-1,10,65,-9999,1426175797.009494,-33.42277145385742,9.391815185546875,-24.75631713867188,106.3595581054688,92.58552551269531,15,386749.4148825417,-0.880615234375,0.5347442626953125,-0.7145538330078125,386749.3777545,-0.4443950331987973,-0.2073300203398678,0.2531193468582542,386749.3777545,2.934041487702825,-0.6755228194038516,-0.2484484600735913,-0.4625635743141174,-0.1913301199674606,0.2850073873996735,-0.1615794599056244,0.2136028110980988,-0.1362052410840988,XTrueNorthZVertical,0.3149432043258969,-0.1503377821709937,0.9354448613641585,0.05614513244022745,-0.6061054468154907,0.2459003627300262,-0.7564186453819275,-26.96342658996582,9.898616790771484,-29.5833911895752,2,192.168.1.8,10.71.35.210,1,0
2015-03-12 08:56:37.083,155,1426175794.28311,37.77911817256212,-122.4387831360214,57.6267,-1,-1,10,65,-9999,1426175797.061698,-33.57624435424805,10.80032348632812,-24.70641326904297,103.6834259033203,89.90939331054688,15,386749.4639386667,-0.7050323486328125,0.47430419921875,-0.7501678466796875,386749.42952675,0.06878918464063771,-0.03849599355709539,-0.368561254842682,386749.42952675,2.925726473984981,-0.6835835568826828,-0.2536296435923939,0.05062081664800644,-0.02249626070261002,-0.3366735279560089,-0.1748542338609695,0.1897699534893036,-0.06000575423240662,XTrueNorthZVertical,0.3177131776517942,-0.1542823204033979,0.9337179767121303,0.05853270513520804,-0.6113701462745667,0.2509191334247589,-0.7505106329917908,-27.12559509277344,10.59418773651123,-29.19163131713867,2,192.168.1.8,10.71.35.210,1,0
