loggingTime,loggingSample,locationTimestamp_since1970,locationLatitude,locationLongitude,locationAltitude,locationSpeed,locationCourse,locationVerticalAccuracy,locationHorizontalAccuracy,locationFloor,locationHeadingTimestamp_since1970,locationHeadingX,locationHeadingY,locationHeadingZ,locationTrueHeading,locationMagneticHeading,locationHeadingAccuracy,accelerometerTimestamp_sinceReboot,accelerometerAccelerationX,accelerometerAccelerationY,accelerometerAccelerationZ,gyroTimestamp_sinceReboot,gyroRotationX,gyroRotationY,gyroRotationZ,motionTimestamp_sinceReboot,motionYaw,motionRoll,motionPitch,motionRotationRateX,motionRotationRateY,motionRotationRateZ,motionUserAccelerationX,motionUserAccelerationY,motionUserAccelerationZ,motionAttitudeReferenceFrame,motionQuaternionX,motionQuaternionY,motionQuaternionZ,motionQuaternionW,motionGravityX,motionGravityY,motionGravityZ,motionMagneticFieldX,motionMagneticFieldY,motionMagneticFieldZ,motionMagneticFieldCalibrationAccuracy,IP_en0,IP_pdp_ip0,deviceOrientation,state
2015-03-08 18:13:06.088,1,1425863584.091335,33.32496374535334,-111.9419938014769,355.9993,-1,-1,10,86.1022059117314,-9999,1425863586.077447,16.27688598632812,-38.36985778808594,-27.28704643249512,17.75779914855957,7.235251903533936,10,329111.802160125,0.36846923828125,-0.9629364013671875,-0.02056884765625,329111.7655181667,-0.03458993518627617,0.4329434405114566,-0.002305498555681597,329111.7655181667,-3.093751834555972,1.63629264791682,1.280500387908227,-0.04813097417354584,0.4473673403263092,0.03228439390659332,-0.02651268057525158,0.002699614502489567,0.01366041135042906,XTrueNorthZVertical,0.5949244304696855,-0.3942485521821283,-0.5376050017774127,0.4490143576339244,0.2856221795082092,-0.9581592082977295,0.01873399689793587,14.59717178344727,-37.99047470092773,-29.36388206481934,2,0.0.0.0,10.144.231.151,1,0
2015-03-08 18:13:06.139,2,1425863584.091335,33.32496374535334,-111.9419938014769,355.9993,-1,-1,10,86.1022059117314,-9999,1425863586.129311,16.73728179931641,-38.52278137207031,-27.17055320739746,17.20161056518555,6.679064750671387,10,329111.8511616667,0.304962158203125,-0.9567718505859375,0.0101318359375,329111.8172923333,-0.001289768915925375,0.006603574238960479,-0.03441443287043995,329111.8172923333,-3.084640759953253,1.639002537615192,1.279818259009406,-0.01483262795954943,0.02102669142186642,0.0001738085557008162,0.08741960674524307,-0.005766121670603752,-0.05211472883820534,XTrueNorthZVertical,0.5975828545421505,-0.3907313246795919,-0.534889603091579,0.451792990805303,0.286222368478775,-0.957963764667511,0.01955247297883034,15.15136337280273,-37.87064743041992,-29.23767280578613,2,0.0.0.0,10.144.231.151,1,0
2015-03-08 18:13:06.188,3,1425863584.091335,33.32496374535334,-111.9419938014769,355.9993,-1,-1,10,86.1022059117314,-9999,1425863586.180658,16.48150634765625,-38.23391723632812,-27.08734512329102,17.54045104980469,7.017903804779053,10,329111.90017725,0.2424774169921875,-0.973968505859375,0.0350494384765625,329111.8690681667,0.03682991997914182,-0.1978395794792614,3.488741028003802e-05,329111.8690681667,-3.088633384812831,1.635874984266203,1.281139084390465,0.02328719571232796,-0.1834166049957275,0.03462278470396996,-0.01091035548597574,0.001402134308591485,0.0006664329557679594,XTrueNorthZVertical,0.5956848474092997,-0.3929974714847875,-0.5364431819918909,0.4504900583063064,0.2850192487239838,-0.9583418369293213,0.01857490092515945,15.01407051086426,-37.89664840698242,-29.27477836608887,2,0.0.0.0,10.144.231.151,1,0
2015-03-08 18:13:06.224,4,1425863584.091335,33.32496374535334,-111.9419938014769,355.9993,-1,-1,10,86.1022059117314,-9999,1425863586.180658,16.48150634765625,-38.23391723632812,-27.08734512329102,17.54045104980469,7.017903804779053,10,329111.9491908334,0.3082427978515625,-0.9665985107421875,-1.52587890625e-05,329111.9208437083,-0.001947569705174947,0.1133268254466869,-0.03955380114207486,329111.9208437083,-3.087274574701019,1.634274850239167,1.281653195059299,-0.01547242514789104,0.1277585029602051,-0.004956399090588093,-0.007518286816775799,0.006263815797865391,0.005410984624177217,XTrueNorthZVertical,0.5954144044820006,-0.3930972681750621,-0.5365044321834137,0.4506875293383233,0.2845568656921387,-0.9584885239601135,0.01808755099773407,14.81919765472412,-37.92534255981445,-29.33685302734375,2,0.0.0.0,10.144.231.151,1,0
2015-03-08 18:13:06.290,5,1425863584.091335,33.32496374535334,-111.9419938014769,355.9993,-1,-1,10,86.1022059117314,-9999,1425863586.284214,16.25983047485352,-38.08099365234375,-27.47010231018066,17.73496055603027,7.212413787841797,10,329111.9982147917,0.317169189453125,-0.9486846923828125,0.0153961181640625,329111.972618125,0.02215457079226018,-0.01066356332078628,-0.02790486821795926,329111.972618125,-3.086865723944701,1.638413456633951,1.281660408429137,0.008629851043224335,0.003767973510548472,0.006692189257591963,0.04009703174233437,-0.01578307710587978,-0.0263599306344986,XTrueNorthZVertical,0.5966019542323944,-0.3920438817777401,-0.5351773526541288,0.451611486056022,0.2844726741313934,-0.9584906101226807,0.0192645937204361,15.01494216918945,-37.90509796142578,-29.26339340209961,2,0.0.0.0,10.144.231.151,1,0
2015-03-08 18:13:06.323,6,1425863584.091335,33.32496374535334,-111.9419938014769,355.9993,-1,-1,10,86.1022059117314,-9999,1425863586.284214,16.25983047485352,-38.08099365234375,-27.47010231018066,17.73496055603027,7.212413787841797,10,329112.047227375,0.26055908203125,-0.9769134521484375,0.02142333984375,329112.02439375,0.04713342392054938,-0.07764765737456829,-0.02014255258870531,329112.02439375,-3.092436666452898,1.641050358693919,1.282582585721564,0.0336088240146637,-0.06321624666452408,0.01445419434458017,-0.002899394370615482,0.002164385979995131,0.00684183556586504,XTrueNorthZVertical,0.5960188966266763,-0.393367225181907,-0.5354530076731817,0.4509033241785094,0.2835390567779541,-0.9587531089782715,0.01995259709656239,14.93698406219482,-37.94908905029297,-29.24627113342285,2,0.0.0.0,10.144.231.151,1,0
2015-03-08 18:13:06.391,7,1425863584.091335,33.32496374535334,-111.9419938014769,355.9993,-1,-1,10,86.1022059117314,-9999,1425863586.386424,16.65202331542969,-37.9620361328125,-27.02077293395996,16.82176971435547,6.29922342300415,10,329112.0962515417,0.3048553466796875,-0.9613037109375,0.0112762451171875,329112.0761695834,0.01802747005096438,0.06305406723315207,-0.01263350357911789,329112.0761695834,-3.093094623672464,1.643080995469574,1.283126127630238,0.004499872680753469,0.0775051936507225,0.02196760103106499,0.005641856696456671,0.0009912261739373207,0.004426920786499977,XTrueNorthZVertical,0.5963175213111912,-0.3932566016049177,-0.5348814359687007,0.4512832133952794,0.2829781472682953,-0.9589074850082397,0.02049068175256252,14.89012336730957,-37.97185516357422,-29.24061584472656,2,0.0.0.0,10.144.231.151,1,0
2015-03-08 18:13:06.420,8,1425863584.091335,33.32496374535334,-111.9419938014769,355.9993,-1,-1,10,86.1022059117314,-9999,1425863586.386424,16.65202331542969,-37.9620361328125,-27.02077293395996,16.82176971435547,6.29922342300415,10,329112.1452692084,0.2982177734375,-0.9578704833984375,0.015533447265625,329112.1279437917,0.01493633897370941,-0.03488527975116595,-0.02483371084887989,329112.0761695834,-3.093094623672464,1.643080995469574,1.283126127630238,0.004499872680753469,0.0775051936507225,0.02196760103106499,0.005641856696456671,0.0009912261739373207,0.004426920786499977,XTrueNorthZVertical,0.5963175213111912,-0.3932566016049177,-0.5348814359687007,0.4512832133952794,0.2829781472682953,-0.9589074850082397,0.02049068175256252,14.89012336730957,-37.97185516357422,-29.24061584472656,2,0.0.0.0,10.144.231.151,1,0
2015-03-08 18:13:06.487,9,1425863584.091335,33.32496374535334,-111.9419938014769,355.9993,-1,-1,10,86.1022059117314,-9999,1425863586.440941,16.78843688964844,-37.99603271484375,-27.25375747680664,16.66477966308594,6.142232418060303,10,329112.1943061667,0.283172607421875,-0.9649810791015625,0.025787353515625,329112.1797197083,0.02955469651326335,-0.015594938711286,-0.02657009187961155,329112.1797197083,-3.093635419299885,1.643690436136492,1.283200059429767,0.01602341793477535,-0.001145569025538862,0.008021772839128971,-0.003002924146130681,-0.005030280910432339,-0.00144715781789273,XTrueNorthZVertical,0.596358447877526,-0.3933008876812384,-0.5348061614831725,0.4512797504860745,0.2828948795795441,-0.9589284658432007,0.02065797336399555,14.9285774230957,-37.97880172729492,-29.21197128295898,2,0.0.0.0,10.144.231.151,1,0
2015-03-08 18:13:06.520,10,1425863584.091335,33.32496374535334,-111.9419938014769,355.9993,-1,-1,10,86.1022059117314,-9999,1425863586.491745,16.8907470703125,-38.16595458984375,-27.02077293395996,16.65331649780273,6.130770206451416,10,329112.2433249584,0.30218505859375,-0.958160400390625,0.0160064697265625,329112.2314952917,0.007407049939837386,-0.009286975353324319,-0.0303595037946853,329112.2314952917,-3.093552037828613,1.644890729466058,1.282945972620851,-0.00615727761760354,0.005240136757493019,0.00421524653211236,0.01135124545544386,0.0005891451146453619,-0.00362053164280951,XTrueNorthZVertical,0.5967497212194877,-0.3929345311461028,-0.5344828452897766,0.4514646638589587,0.2831128537654877,-0.9588563442230225,0.02101555094122887,14.93628883361816,-38.00112915039062,-29.1789722442627,2,0.0.0.0,10.144.231.151,1,0
2015-03-08 18:13:06.587,11,1425863584.091335,33.32496374535334,-111.9419938014769,355.9993,-1,-1,10,86.1022059117314,-9999,1425863586.544577,16.37919616699219,-38.09797668457031,-27.12062454223633,16.66747665405273,6.144929885864258,10,329112.292356625,0.282012939453125,-0.9646759033203125,0.0130767822265625,329112.2832696667,0.03700941703661316,-0.02907000119486893,-0.02135082877527426,329112.2314952917,-3.093552037828613,1.644890729466058,1.282945972620851,-0.00615727761760354,0.005240136757493019,0.00421524653211236,0.01135124545544386,0.0005891451146453619,-0.00362053164280951,XTrueNorthZVertical,0.5967497212194877,-0.3929345311461028,-0.5344828452897766,0.4514646638589587,0.2831128537654877,-0.9588563442230225,0.02101555094122887,14.93628883361816,-38.00112915039062,-29.1789722442627,2,0.0.0.0,10.144.231.151,1,0
2015-03-08 18:13:06.617,12,1425863584.091335,33.32496374535334,-111.9419938014769,355.9993,-1,-1,10,86.1022059117314,-9999,1425863586.595708,16.20867538452148,-38.1319580078125,-27.58659172058105,16.69820404052734,6.175656795501709,10,329112.3413707917,0.2981719970703125,-0.9571685791015625,0.0357513427734375,329112.3350454167,0.01601758237628158,-0.01174773620055754,-0.0327592782529557,329112.2832696667,-3.090815831381553,1.641884810575137,1.280816630649663,0.02343709021806717,-0.01454605907201767,0.013204675167799,0.009985843673348427,-0.01002729590982199,-0.008163422346115112,XTrueNorthZVertical,0.5969346427940906,-0.3922036991052957,-0.5352113787672731,0.4509923512026895,0.2852106988430023,-0.9582496881484985,0.02030941843986511,15.03941059112549,-37.93170928955078,-29.21630859375,2,0.0.0.0,10.144.231.151,1,0
2015-03-08 18:13:06.688,13,1425863584.091335,33.32496374535334,-111.9419938014769,355.9993,-1,-1,10,86.1022059117314,-9999,1425863586.647368,16.58382034301758,-38.40386962890625,-27.61987686157227,16.72312164306641,6.200575351715088,10,329112.3903989583,0.2999114990234375,-0.9609832763671875,0.0140838623046875,329112.3868212917,0.01957689717317248,0.009852897084966157,-0.02107838739575916,329112.3868212917,-3.093953533846897,1.645859379242814,1.280093602880815,0.006011227145791054,0.02437851205468178,0.01346524246037006,0.009011791087687016,-0.005702423863112926,0.002446242840960622,XTrueNorthZVertical,0.5975360314617252,-0.3920434793012263,-0.5348840378933225,0.4507235268034891,0.2858185172080994,-0.9580426812171936,0.02149479649960995,15.03964519500732,-37.94241333007812,-29.2022819519043,2,0.0.0.0,10.144.231.151,1,0
2015-03-08 18:13:06.719,14,1425863584.091335,33.32496374535334,-111.9419938014769,355.9993,-1,-1,10,86.1022059117314,-9999,1425863586.698715,16.66907501220703,-38.48883056640625,-27.33696556091309,16.73870086669922,6.216153621673584,10,329112.4394053334,0.2931671142578125,-0.9723052978515625,0.0151824951171875,329112.3868212917,0.01957689717317248,0.009852897084966157,-0.02107838739575916,329112.3868212917,-3.093953533846897,1.645859379242814,1.280093602880815,0.006011227145791054,0.02437851205468178,0.01346524246037006,0.009011791087687016,-0.005702423863112926,0.002446242840960622,XTrueNorthZVertical,0.5975360314617252,-0.3920434793012263,-0.5348840378933225,0.4507235268034891,0.2858185172080994,-0.9580426812171936,0.02149479649960995,15.03964519500732,-37.94241333007812,-29.2022819519043,2,0.0.0.0,10.144.231.151,1,0
2015-03-08 18:13:06.773,15,1425863584.091335,33.32496374535334,-111.9419938014769,355.9993,-1,-1,10,86.1022059117314,-9999,1425863586.750973,16.70317840576172,-38.35285949707031,-27.0041332244873,16.7459602355957,6.223413467407227,10,329112.488550125,0.2888641357421875,-0.9588775634765625,0.021148681640625,329112.4903715,0.03456250462704835,-0.0302990500379405,-0.01886876263932041,329112.4385955834,-3.092276555815723,1.643339024808109,1.280035898857279,-0.0145789347589016,-0.02869483269751072,0.0172447320073843,0.00743854371830821,-0.02285458520054817,-0.002132132183760405,XTrueNorthZVertical,0.5972027244419501,-0.3920944938773474,-0.5352710623887101,0.4506614402456909,0.2859269380569458,-0.9580261707305908,0.02077837288379669,15.07790088653564,-37.93745422363281,-29.18899536132812,2,0.0.0.0,10.144.231.151,1,0
2015-03-08 18:13:06.816,16,1425863584.091335,33.32496374535334,-111.9419938014769,355.9993,-1,-1,10,86.1022059117314,-9999,1425863586.802523,16.48150634765625,-38.16592407226562,-27.02077293395996,16.75582313537598,6.233275890350342,10,329112.5374603334,0.3047027587890625,-0.955108642578125,0.0122528076171875,329112.4903715,0.03456250462704835,-0.0302990500379405,-0.01886876263932041,329112.4903715,-3.092918176552172,1.643131090294254,1.28033155877266,0.02095662802457809,-0.01564544625580311,0.0156196178868413,0.003215408185496926,-0.000766692915931344,0.0004502355877775699,XTrueNorthZVertical,0.5969585708303651,-0.3924151981413831,-0.5354154554138432,0.4505342353791707,0.2856487333774567,-0.9581108689308167,0.02069844678044319,15.0406322479248,-37.93256378173828,-29.21457099914551,2,0.0.0.0,10.144.231.151,1,0
2015-03-08 18:13:06.872,17,1425863584.091335,33.32496374535334,-111.9419938014769,355.9993,-1,-1,10,86.1022059117314,-9999,1425863586.85452,16.58382034301758,-38.57376098632812,-27.05405616760254,16.76483154296875,6.242285251617432,10,329112.5865937917,0.279571533203125,-0.970855712890625,0.0320587158203125,329112.5421471667,0.006327937066137278,-0.03038027645118792,0.001978196057710858,329112.5421471667,-3.090405707414037,1.639824606636553,1.280977249145254,-0.007280542980879545,-0.01572784781455994,0.03645997866988182,0.01960438303649426,0.003186952322721481,-0.007458359934389591,XTrueNorthZVertical,0.596429564236704,-0.3925905739531022,-0.5356996521643111,0.4507441946198593,0.2850983738899231,-0.9582955837249756,0.01971116848289967,15.0109338760376,-37.94992446899414,-29.20730018615723,2,0.0.0.0,10.144.231.151,1,0
2015-03-08 18:13:06.913,18,1425863584.091335,33.32496374535334,-111.9419938014769,355.9993,-1,-1,10,86.1022059117314,-9999,1425863586.906061,16.46446228027344,-38.52278137207031,-27.60322952270508,16.77971649169922,6.257170677185059,10,329112.635506875,0.2907867431640625,-0.9598541259765625,0.0091552734375,329112.59392175,-0.003365702985642141,-0.05312127531548354,-0.01088540463958988,329112.59392175,-3.090283995003129,1.637195416695171,1.282387516591143,-0.01699080690741539,-0.03836381435394287,0.02353542670607567,-0.004228923935443163,-0.01215804647654295,0.01318688131868839,XTrueNorthZVertical,0.5954509236484105,-0.3935404868504773,-0.5361573186597824,0.4506655550939938,0.2838004529476166,-0.9586976766586304,0.01887183450162411,14.8794116973877,-37.93987655639648,-29.28754043579102,2,0.0.0.0,10.144.231.151,1,0
2015-03-08 18:13:06.969,19,1425863584.091335,33.32496374535334,-111.9419938014769,355.9993,-1,-1,10,86.1022059117314,-9999,1425863586.958128,16.34509658813477,-38.33584594726562,-27.61987113952637,16.79052352905273,6.267976760864258,10,329112.6845734167,0.29510498046875,-0.9754180908203125,0.017974853515625,329112.6974733333,-0.009623332599001328,-0.03372866888974455,-0.007693872389238919,329112.6456975417,-3.084922949954205,1.632670031536852,1.283195247191028,-0.022277707234025,0.02233229391276836,0.01956235058605671,0.01548926997929811,0.004657684825360775,-0.008338401094079018,XTrueNorthZVertical,0.5951220122591697,-0.3931914496029701,-0.5361235976859958,0.4514441190809969,0.2831099629402161,-0.9589270949363708,0.01753945089876652,14.83186912536621,-37.93300247192383,-29.32053756713867,2,0.0.0.0,10.144.231.151,1,0
2015-03-08 18:13:07.014,20,1425863584.091335,33.32496374535334,-111.9419938014769,355.9993,-1,-1,10,86.1022059117314,-9999,1425863587.009487,16.31099700927734,-37.9959716796875,-27.7197208404541,16.80235481262207,6.279808044433594,10,329112.7335504583,0.2890167236328125,-0.9540863037109375,0.008941650390625,329112.6974733333,-0.009623332599001328,-0.03372866888974455,-0.007693872389238919,329112.6974733333,-3.081177776473397,1.628836591471739,1.282565496105638,-0.0232499074190855,-0.01897229440510273,0.02671462669968605,0.01083875820040703,-0.01500660926103592,0.001256905263289809,XTrueNorthZVertical,0.5949619235139756,-0.3927656333915969,-0.5365531817470753,0.4515154262226474,0.2837779521942139,-0.9587482810020447,0.01648906618356705,14.87908172607422,-37.87826538085938,-29.36734580993652,2,0.0.0.0,10.144.231.151,1,0
2015-03-08 18:13:07.068,21,1425863584.091335,33.32496374535334,-111.9419938014769,355.9993,-1,-1,10,86.1022059117314,-9999,1425863587.061778,15.93585968017578,-37.82603454589844,-27.48673439025879,16.81708908081055,6.29454231262207,10,329112.7827046667,0.2922210693359375,-0.9615631103515625,0.0178375244140625,329112.7492478333,-0.004868524788773855,-0.0103754092908397,-0.03153315888708322,329112.7492478333,-3.077799670969447,1.625162243270318,1.283286007880789,-0.01851175166666508,0.004476817790418863,0.002784929238259792,0.003764240769669414,-0.004395553842186928,-0.001126490999013186,XTrueNorthZVertical,0.5944890275138838,-0.3927940363027724,-0.5367283076136561,0.451905294482854,0.2831467688083649,-0.9589528441429138,0.01540871802717447,14.82379913330078,-37.85706329345703,-29.42258834838867,2,0.0.0.0,10.144.231.151,1,0
2015-03-08 18:13:07.117,22,1425863584.091335,33.32496374535334,-111.9419938014769,355.9993,-1,-1,10,86.1022059117314,-9999,1425863587.113384,15.56072616577148,-37.79205322265625,-27.75300407409668,16.84518623352051,6.322639942169189,10,329112.83159275,0.2884368896484375,-0.978851318359375,0.0031280517578125,329112.801023625,0.008600412424301892,-0.003292998687882978,-0.02684306589134467,329112.801023625,-3.074387192212451,1.622290239434157,1.283304976035226,-0.005041963886469603,0.01155927591025829,0.007470977958291769,0.008500062860548496,0.0007672953652217984,-0.005423988215625286,XTrueNorthZVertical,0.5943841769718095,-0.3924343388548889,-0.5368064716716687,0.4522627355745398,0.283171683549881,-0.9589582085609436,0.01459452044218779,14.83564949035645,-37.83170700073242,-29.44921875,2,0.0.0.0,10.144.231.151,1,0
2015-03-08 18:13:07.166,23,1425863584.091335,33.32496374535334,-111.9419938014769,355.9993,-1,-1,10,86.1022059117314,-9999,1425863587.113384,15.56072616577148,-37.79205322265625,-27.75300407409668,16.84518623352051,6.322639942169189,10,329112.8807195,0.283660888671875,-0.9647064208984375,0.006744384765625,329112.8527995,0.007697068182547014,-0.053405700919904,0.001334243706129698,329112.8527995,-3.069942254151244,1.616611175603083,1.284205541002422,-0.005953412037342787,-0.03855643421411514,0.03564513474702835,0.009757581166923046,-0.008041460998356342,-0.00431011151522398,XTrueNorthZVertical,0.5935451693554308,-0.3926543327441039,-0.5372926594341648,0.4525962165055727,0.2823871970176697,-0.9592131972312927,0.01294658612459898,14.833327293396,-37.80820083618164,-29.48056030273438,2,0.0.0.0,10.144.231.151,1,0
2015-03-08 18:13:07.213,24,1425863584.091335,33.32496374535334,-111.9419938014769,355.9993,-1,-1,10,86.1022059117314,-9999,1425863587.166857,15.30494689941406,-37.67308044433594,-27.83621215820312,16.88362693786621,6.361080169677734,10,329112.9296372917,0.2762603759765625,-0.9681549072265625,0.0048370361328125,329112.90457375,0.0151848119034138,-0.07180601352347947,0.01157063598806727,329112.90457375,-3.066986762272183,1.611497532646145,1.286102481578336,0.001520021236501634,-0.05689971894025803,0.04577873647212982,-0.002127718180418015,-0.004378901328891516,-0.005858879070729017,XTrueNorthZVertical,0.5923606702373083,-0.3934755454470641,-0.5377267691162878,0.4529191798011891,0.2806311249732971,-0.9597476720809937,0.01142833661288023,14.66272068023682,-37.79299926757812,-29.58521461486816,2,0.0.0.0,10.144.231.151,1,0
2015-03-08 18:13:07.264,25,1425863584.091335,33.32496374535334,-111.9419938014769,355.9993,-1,-1,10,86.1022059117314,-9999,1425863587.217251,15.81650161743164,-38.14891052246094,-27.93606376647949,16.90400314331055,6.381456851959229,10,329112.9786793333,0.27227783203125,-0.947296142578125,-0.022979736328125,329112.9563497917,-0.02075747648440461,-0.01929486841373309,0.005416603341112163,329112.9563497917,-3.063175262084811,1.606723741188201,1.288132617644684,-0.03442442789673805,-0.004389471840113401,0.03962690383195877,0.003735946025699377,-0.01343898382037878,-0.005456152372062206,XTrueNorthZVertical,0.5914104161232029,-0.3940088637778317,-0.5378313354231271,0.4535727282006035,0.2787347435951233,-0.9603158831596375,0.01001853030174971,14.54056739807129,-37.79954528808594,-29.63709259033203,2,0.0.0.0,10.144.231.151,1,0
2015-03-08 18:13:07.314,26,1425863584.091335,33.32496374535334,-111.9419938014769,355.9993,-1,-1,10,86.1022059117314,-9999,1425863587.269207,16.08932495117188,-38.14891052246094,-27.70307922363281,16.90526390075684,6.382717132568359,10,329113.027708375,0.2783050537109375,-0.97479248046875,-0.0243682861328125,329113.0081257084,0.0297882557408633,-0.0532341933457029,-0.0219505726527601,329113.0081257084,-3.050517838584182,1.592503017987076,1.289720289395485,0.01610162109136581,-0.03833558037877083,0.01226070430129766,0.005115803796797991,-0.02053521201014519,-0.04171104729175568,XTrueNorthZVertical,0.5897531452619683,-0.3939563400094959,-0.5388054321583242,0.4546189242228054,0.277324378490448,-0.9607574939727783,0.006020740140229464,14.48238372802734,-37.76983642578125,-29.70338249206543,2,0.0.0.0,10.144.231.151,1,0
2015-03-08 18:13:07.361,27,1425863584.091335,33.32496374535334,-111.9419938014769,355.9993,-1,-1,10,86.1022059117314,-9999,1425863587.321458,15.96996307373047,-38.02996826171875,-27.52002334594727,16.90042877197266,6.377882957458496,10,329113.0767657083,0.251251220703125,-0.9861907958984375,-0.04095458984375,329113.0599002084,0.07388833917981243,-0.0342916611441873,-0.01761521271422011,329113.0599002084,-3.047416438118591,1.587760390966972,1.291915280660318,0.06017165258526802,-0.01934139989316463,0.01650133915245533,-0.02688854932785034,0.007857596501708031,-0.04113815352320671,XTrueNorthZVertical,0.5886443826569034,-0.3947563987370807,-0.5390064795686836,0.4551233036996229,0.2752406001091003,-0.9613640904426575,0.004669647198170424,14.30270481109619,-37.70691299438477,-29.86992454528809,2,0.0.0.0,10.144.231.151,1,0
2015-03-08 18:13:07.412,28,1425863584.091335,33.32496374535334,-111.9419938014769,355.9993,-1,-1,10,86.1022059117314,-9999,1425863587.372772,15.86764526367188,-37.96199035644531,-27.4201717376709,16.89006996154785,6.367522716522217,10,329113.1257967083,0.250091552734375,-0.97686767578125,-0.0338287353515625,329113.111675875,0.0930684253505631,0.04509823621551082,0.009702694799485689,329113.0599002084,-3.047416438118591,1.587760390966972,1.291915280660318,0.06017165258526802,-0.01934139989316463,0.01650133915245533,-0.02688854932785034,0.007857596501708031,-0.04113815352320671,XTrueNorthZVertical,0.5886443826569034,-0.3947563987370807,-0.5390064795686836,0.4551233036996229,0.2752406001091003,-0.9613640904426575,0.004669647198170424,14.30270481109619,-37.70691299438477,-29.86992454528809,2,0.0.0.0,10.144.231.151,1,0
2015-03-08 18:13:07.459,29,1425863584.091335,33.32496374535334,-111.9419938014769,355.9993,-1,-1,10,86.1022059117314,-9999,1425863587.424886,15.91880035400391,-38.21687316894531,-27.37024879455566,16.87958145141602,6.357035160064697,10,329113.1748414167,0.306488037109375,-0.991363525390625,0.0242156982421875,329113.1634519167,0.05756342801373571,0.02613865978301871,0.001682585176712063,329113.1634519167,-3.057279874574103,1.599730106436445,1.295474761188381,0.04381968080997467,0.04107967019081116,0.03580957278609276,0.02620038390159607,-0.003604555036872625,-0.0032108083833009,XTrueNorthZVertical,0.5891922014665684,-0.3959607547365896,-0.5369338658992252,0.4558175997642068,0.2717427313327789,-0.962337851524353,0.007864738814532757,14.18452167510986,-37.79955291748047,-29.80912780761719,2,0.0.0.0,10.144.231.151,1,0
2015-03-08 18:13:07.516,30,1425863584.091335,33.32496374535334,-111.9419938014769,355.9993,-1,-1,10,86.1022059117314,-9999,1425863587.476968,15.69712829589844,-38.19989013671875,-27.25375747680664,16.87038230895996,6.347836017608643,10,329113.2238707917,0.315765380859375,-0.9613800048828125,0.0867767333984375,329113.2152263334,0.0179675489264376,-0.1157023651390375,0.1056377467474101,329113.1634519167,-3.057279874574103,1.599730106436445,1.295474761188381,0.04381968080997467,0.04107967019081116,0.03580957278609276,0.02620038390159607,-0.003604555036872625,-0.0032108083833009,XTrueNorthZVertical,0.5891922014665684,-0.3959607547365896,-0.5369338658992252,0.4558175997642068,0.2717427313327789,-0.962337851524353,0.007864738814532757,14.18452167510986,-37.79955291748047,-29.80912780761719,2,0.0.0.0,10.144.231.151,1,0
2015-03-08 18:13:07.558,31,1425863584.091335,33.32496374535334,-111.9419938014769,355.9993,-1,-1,10,86.1022059117314,-9999,1425863587.5286,15.4754524230957,-38.11492919921875,-27.17054748535156,16.5491828918457,6.026636123657227,10,329113.2729147084,0.328125,-0.96820068359375,0.0293731689453125,329113.267002375,-0.1014464638238434,-0.2687337266454978,0.1158315284519064,329113.2152263334,-3.063145775040486,1.604896084105114,1.299341893359012,0.004214776679873466,-0.1007007881999016,0.1396399289369583,0.03339920938014984,0.007983374409377575,0.07011265307664871,XTrueNorthZVertical,0.5886193633864102,-0.3976153849812041,-0.5358931407987143,0.456341782529933,0.2679771184921265,-0.9633819460868835,0.009141498245298862,14.12206268310547,-37.9173583984375,-29.68892669677734,2,0.0.0.0,10.144.231.151,1,0
2015-03-08 18:13:07.614,32,1425863584.091335,33.32496374535334,-111.9419938014769,355.9993,-1,-1,10,86.1022059117314,-9999,1425863587.580013,14.98095321655273,-38.30183410644531,-27.71972465515137,17.15598487854004,6.633438110351562,10,329113.321913875,0.294158935546875,-0.965667724609375,0.0464935302734375,329113.318778125,0.07691129333316138,-0.5138318986165422,0.115582789206093,329113.267002375,-3.052926560102085,1.587356810856392,1.306054965851924,-0.1151990965008736,-0.253732293844223,0.1498333811759949,0.08449123054742813,-0.01390473265200853,0.057663444429636,XTrueNorthZVertical,0.584575200880405,-0.4005475523148711,-0.5372036832158397,0.4574338485009791,0.26162388920784,-0.9651601910591125,0.004333014134317636,13.73802375793457,-37.96624755859375,-29.80640411376953,2,0.0.0.0,10.144.231.151,1,0
2015-03-08 18:13:07.656,33,1425863584.091335,33.32496374535334,-111.9419938014769,355.9993,-1,-1,10,86.1022059117314,-9999,1425863587.632124,14.4864501953125,-38.2508544921875,-27.80293273925781,17.49467086791992,6.972124576568604,10,329113.3710423334,0.203857421875,-0.9888916015625,-0.0234222412109375,329113.370552875,-0.07273199463450003,-0.3431560296238711,0.1323372682559995,329113.318778125,-3.050807957295108,1.563975319125481,1.314458425064611,0.06315878033638,-0.4988306164741516,0.1495843380689621,0.05551747232675552,0.01400158554315567,0.04482020437717438,XTrueNorthZVertical,0.5769898523143501,-0.4076984401429314,-0.5416000772524883,0.4555590836722109,0.2535340487957001,-0.96732497215271,-0.001729384413920343,13.31683540344238,-37.93517303466797,-30.03624153137207,2,0.0.0.0,10.144.231.151,1,0
2015-03-08 18:13:07.719,34,1425863584.091335,33.32496374535334,-111.9419938014769,355.9993,-1,-1,10,86.1022059117314,-9999,1425863587.683379,13.49744415283203,-38.35281372070312,-27.86949729919434,18.26187324523926,7.739326953887939,10,329113.4199521667,0.2523040771484375,-0.9819488525390625,-0.019989013671875,329113.370552875,-0.07273199463450003,-0.3431560296238711,0.1323372682559995,329113.370552875,-3.046812123740724,1.539330253506259,1.321685029488752,-0.08648436516523361,-0.3281548917293549,0.1663384735584259,-0.04376888647675514,-0.02807573415338993,-0.006785168778151274,XTrueNorthZVertical,0.5696560523361961,-0.4142629038256803,-0.5460862299994733,0.4535064366913654,0.2464208602905273,-0.9691318869590759,-0.007756457198411226,11.85815525054932,-38.10626602172852,-30.42840385437012,2,0.0.0.0,10.144.231.151,1,0
2015-03-08 18:13:07.754,35,1425863584.091335,33.32496374535334,-111.9419938014769,355.9993,-1,-1,10,86.1022059117314,-9999,1425863587.735724,12.90063095092773,-38.43777465820312,-27.95270729064941,17.94800758361816,7.425460338592529,10,329113.468971625,0.228363037109375,-0.9674530029296875,-0.008392333984375,329113.4741047084,-0.01926397574508817,-0.2502876076711729,0.1311199373217243,329113.4223286667,-3.02011514080317,1.50211995803731,1.329761361468237,-0.1009436175227165,-0.1630258560180664,0.1547441035509109,0.01415885798633099,-0.010857411660254,-0.003608303843066096,XTrueNorthZVertical,0.5634380508150091,-0.4175490485480145,-0.5486455895533977,0.4551685426069292,0.2381452172994614,-0.9710914492607117,-0.01638071052730083,11.19719791412354,-38.03858184814453,-30.76166534423828,2,0.0.0.0,10.144.231.151,1,0
2015-03-08 18:13:07.817,36,1425863584.091335,33.32496374535334,-111.9419938014769,355.9993,-1,-1,10,86.1022059117314,-9999,1425863587.791475,12.37202453613281,-38.82861328125,-28.56845283508301,18.32176971435547,7.799222469329834,10,329113.517994375,0.2204132080078125,-0.968048095703125,0.0113067626953125,329113.4741047084,-0.01926397574508817,-0.2502876076711729,0.1311199373217243,329113.4741047084,-3.006287341860999,1.478415732155442,1.338180287498409,-0.03294551745057106,-0.2352647632360458,0.1650078594684601,-0.001178014324977994,0.005613662768155336,0.01287333387881517,XTrueNorthZVertical,0.5582215523128233,-0.4216110344980234,-0.5500884031507882,0.4561092117101622,0.2295410484075546,-0.9730666875839233,-0.02126566879451275,10.85640239715576,-37.99791717529297,-30.93360328674316,2,0.0.0.0,10.144.231.151,1,0
2015-03-08 18:13:07.852,37,1425863584.091335,33.32496374535334,-111.9419938014769,355.9993,-1,-1,10,86.1022059117314,-9999,1425863587.791475,12.37202453613281,-38.82861328125,-28.56845283508301,18.32176971435547,7.799222469329834,10,329113.567023,0.198211669921875,-0.9687957763671875,0.0128936767578125,329113.5258791667,0.05330503343069901,-0.07942478476997816,0.01291766286742935,329113.5258791667,-3.005655086903796,1.469004167818981,1.342110768858962,0.03962361440062523,-0.06440209597349167,0.04680528491735458,-0.005110954865813255,0.005917121190577745,0.03434297442436218,XTrueNorthZVertical,0.5550222455413961,-0.4247731177583655,-0.5515917528821048,0.4552633015095244,0.2255241572856903,-0.9739652276039124,-0.02303620986640453,10.00199699401855,-38.052978515625,-31.1532039642334,2,0.0.0.0,10.144.231.151,1,0
2015-03-08 18:13:07.918,38,1425863584.091335,33.32496374535334,-111.9419938014769,355.9993,-1,-1,10,86.1022059117314,-9999,1425863587.867282,12.4061279296875,-38.35281372070312,-28.36874580383301,17.08494186401367,6.562395095825195,10,329113.6160404167,0.2383880615234375,-0.9769287109375,-0.0126800537109375,329113.5776550833,0.05928276481349087,0.1471612218317075,0.01085664249981702,329113.5776550833,-3.022652091333041,1.49105789984771,1.346000724046169,0.04561095684766769,0.1621861755847931,0.04475313052535057,-0.001221191021613777,0.002046109875664115,0.02080720104277134,XTrueNorthZVertical,0.5567299327753769,-0.4256454629615067,-0.548377598290342,0.4562452867377446,0.2221989780664444,-0.9748396873474121,-0.01775544323027134,9.943999290466309,-38.18378067016602,-31.01140022277832,2,0.0.0.0,10.144.231.151,1,0
2015-03-08 18:13:07.950,39,1425863584.091335,33.32496374535334,-111.9419938014769,355.9993,-1,-1,10,86.1022059117314,-9999,1425863587.918514,12.25266265869141,-38.09793090820312,-28.48523902893066,16.92641830444336,6.403872489929199,10,329113.6650693333,0.248260498046875,-0.989776611328125,0.004852294921875,329113.6294310833,0.03251133795546932,0.1031253205750293,-0.02590270371043769,329113.6294310833,-3.025051831279747,1.501047388691254,1.346323820514594,0.01884038560092449,0.1181504055857658,0.007990546524524689,0.01645909249782562,0.002255408558994532,0.01035551819950342,XTrueNorthZVertical,0.5588904124126541,-0.4241285329706034,-0.5460610885096654,0.457792324328334,0.2220510393381119,-0.974911630153656,-0.01551298890262842,10.05141544342041,-38.24754333496094,-30.89798545837402,2,0.0.0.0,10.144.231.151,1,0
2015-03-08 18:13:08.017,40,1425863584.091335,33.32496374535334,-111.9419938014769,355.9993,-1,-1,10,86.1022059117314,-9999,1425863587.970071,12.26971054077148,-38.62471008300781,-28.26889991760254,17.14242172241211,6.619874954223633,10,329113.7140795834,0.271728515625,-0.9647216796875,-0.0005645751953125,329113.6812057917,0.0371082203130551,0.1561597768389763,-0.01012507214837226,329113.6812057917,-3.030912956189717,1.513705849373465,1.346232948311305,0.02343996800482273,0.1711855083703995,0.02376566641032696,0.03334294632077217,-0.01168083865195513,0.02205969020724297,XTrueNorthZVertical,0.5611165011651832,-0.4228418690989066,-0.5438818374906353,0.4588524848682617,0.2223180681467056,-0.9748914241790771,-0.01270605158060789,10.39703941345215,-38.28322982788086,-30.739013671875,2,0.0.0.0,10.144.231.151,1,0
2015-03-08 18:13:08.049,41,1425863584.091335,33.32496374535334,-111.9419938014769,355.9993,-1,-1,10,86.1022059117314,-9999,1425863588.022793,12.37202453613281,-38.62471008300781,-28.2689037322998,17.0065975189209,6.484050273895264,10,329113.7631095833,0.2103118896484375,-0.9962158203125,0.0092010498046875,329113.732981625,0.07613498187540328,-0.001389371140694338,-0.0306822789188029,329113.732981625,-3.047112153272356,1.535908242560377,1.346146674322295,0.06246686354279518,0.01363637577742338,0.003201049054041505,0.03284849599003792,-0.003826518543064594,0.01341601833701134,XTrueNorthZVertical,0.5637351087434828,-0.4222766794188998,-0.5413764530383138,0.4591260169598937,0.2226294130086899,-0.9748722314834595,-0.007770266383886337,10.63116264343262,-38.36526489257812,-30.55610656738281,2,0.0.0.0,10.144.231.151,1,0
2015-03-08 18:13:08.088,42,1425863584.091335,33.32496374535334,-111.9419938014769,355.9993,-1,-1,10,86.1022059117314,-9999,1425863588.07458,12.64485168457031,-38.69268798828125,-27.76965713500977,16.52702903747559,6.004482746124268,10,329113.8121311667,0.2266845703125,-0.9949951171875,-0.04388427734375,329113.7847575833,-0.107215669693282,0.06230625159905782,0.02675278473039099,329113.7847575833,-3.043004562353849,1.532688495870649,1.348464442936341,-0.1208729818463326,0.07733477652072906,0.06064171716570854,-0.009880275465548038,0.003050094936043024,-0.01865290477871895,XTrueNorthZVertical,0.5632618121624912,-0.4225348117659774,-0.540789419618126,0.4601600782328772,0.220344752073288,-0.9753859043121338,-0.008400927297770977,10.65139675140381,-38.42630004882812,-30.47225570678711,2,0.0.0.0,10.144.231.151,1,0
2015-03-08 18:13:08.147,43,1425863584.091335,33.32496374535334,-111.9419938014769,355.9993,-1,-1,10,86.1022059117314,-9999,1425863588.127007,12.47433090209961,-38.8966064453125,-27.66980934143066,16.46018600463867,5.937639236450195,10,329113.861264125,0.21820068359375,-0.9827423095703125,-0.0146484375,329113.8365322917,-0.1241935879586462,0.02413356579829806,-0.002833070767626294,329113.8365322917,-3.007529561364898,1.502153149092197,1.350286764607573,-0.137856125831604,0.03916046768426895,0.03105481155216694,0.004841073416173458,-0.01440247800201178,-0.01356212422251701,XTrueNorthZVertical,0.5621179444818696,-0.4201455128413006,-0.5407454285993221,0.4637839757307424,0.218211904168129,-0.9757861495018005,-0.01500232890248299,10.61659622192383,-38.22804260253906,-30.7326488494873,2,0.0.0.0,10.144.231.151,1,0
2015-03-08 18:13:08.214,44,1425863584.091335,33.32496374535334,-111.9419938014769,355.9993,-1,-1,10,86.1022059117314,-9999,1425863588.178578,12.6277961730957,-38.67572021484375,-27.65316581726074,15.56329917907715,5.040751934051514,10,329113.9101751667,0.213897705078125,-0.96783447265625,-0.0596923828125,329113.888308375,-0.1777758564588224,-0.04422498569407385,0.05892590122742025,329113.888308375,-2.969989633207301,1.46482244094933,1.353249905426567,-0.1914377212524414,-0.02919804491102695,0.09281234443187714,-0.008248713798820972,-0.0093793710693717,-0.0102204866707325,XTrueNorthZVertical,0.5593331129230718,-0.4192033442089618,-0.5417367990158199,0.4668364764548525,0.2146238386631012,-0.9764299392700195,-0.0228300504386425,10.52425098419189,-38.05451965332031,-30.97877502441406,2,0.0.0.0,10.144.231.151,1,0
2015-03-08 18:13:08.244,45,1425863584.091335,33.32496374535334,-111.9419938014769,355.9993,-1,-1,10,86.1022059117314,-9999,1425863588.230174,12.33791732788086,-38.52278137207031,-27.83622169494629,15.32565498352051,4.803108215332031,10,329113.959235125,0.20928955078125,-1.00262451171875,0.0157318115234375,329113.9400842917,-0.0710811010747599,-0.02797384409019232,-0.03219335652131387,329113.9400842917,-2.932638671168958,1.426504502354931,1.354362886669999,-0.08474761992692947,-0.01294839754700661,0.001693586818873882,-0.01270227693021297,0.000961562036536634,0.01270572002977133,XTrueNorthZVertical,0.5565575987184512,-0.4180958866086751,-0.543398561254773,0.4692094443857448,0.212516114115715,-0.9766695499420166,-0.0308789387345314,10.37912082672119,-37.88381576538086,-31.23590087890625,2,0.0.0.0,10.144.231.151,1,0
2015-03-08 18:13:08.290,46,1425863584.091335,33.32496374535334,-111.9419938014769,355.9993,-1,-1,10,86.1022059117314,-9999,1425863588.282898,12.15034484863281,-38.33587646484375,-28.25226020812988,15.04054927825928,4.518002510070801,10,329114.00823025,0.2552642822265625,-0.9681243896484375,-0.0513763427734375,329113.991859125,-0.06361546159094078,0.1582911046593667,-0.01366787534650467,329113.9400842917,-2.932638671168958,1.426504502354931,1.354362886669999,-0.08474761992692947,-0.01294839754700661,0.001693586818873882,-0.01270227693021297,0.000961562036536634,0.01270572002977133,XTrueNorthZVertical,0.5565575987184512,-0.4180958866086751,-0.543398561254773,0.4692094443857448,0.212516114115715,-0.9766695499420166,-0.0308789387345314,10.37912082672119,-37.88381576538086,-31.23590087890625,2,0.0.0.0,10.144.231.151,1,0
2015-03-08 18:13:08.342,47,1425863584.091335,33.32496374535334,-111.9419938014769,355.9993,-1,-1,10,86.1022059117314,-9999,1425863588.333642,12.26970672607422,-38.08099365234375,-28.4353199005127,15.0779914855957,4.555445194244385,10,329114.057352,0.1844329833984375,-1.006118774414062,-0.0426177978515625,329114.0436349583,-0.05143842382266247,-0.02480867713463314,-0.01273683422941297,329114.0436349583,-2.903436929560891,1.406361505118305,1.352487463726769,-0.06509952992200851,-0.009781920351088047,0.02113841846585274,0.02585957013070583,-0.02730544656515121,-0.007760022766888142,XTrueNorthZVertical,0.5574817138267623,-0.4141107396680685,-0.5426298803365409,0.4725243667486065,0.2136576473712921,-0.9762651324272156,-0.03545286878943443,10.62952136993408,-37.57422637939453,-31.5243091583252,2,0.0.0.0,10.144.231.151,1,0
2015-03-08 18:13:08.388,48,1425863584.091335,33.32496374535334,-111.9419938014769,355.9993,-1,-1,10,86.1022059117314,-9999,1425863588.384861,12.06508255004883,-38.14895629882812,-28.60173225402832,15.43160438537598,4.909057140350342,10,329114.1062557917,0.264129638671875,-0.9766082763671875,-0.075408935546875,329114.095411125,-0.05689257773514475,0.06786133931685411,0.03141518085079271,329114.0436349583,-2.903436929560891,1.406361505118305,1.352487463726769,-0.06509952992200851,-0.009781920351088047,0.02113841846585274,0.02585957013070583,-0.02730544656515121,-0.007760022766888142,XTrueNorthZVertical,0.5574817138267623,-0.4141107396680685,-0.5426298803365409,0.4725243667486065,0.2136576473712921,-0.9762651324272156,-0.03545286878943443,10.62952136993408,-37.57422637939453,-31.5243091583252,2,0.0.0.0,10.144.231.151,1,0
2015-03-08 18:13:08.440,49,1425863584.091335,33.32496374535334,-111.9419938014769,355.9993,-1,-1,10,86.1022059117314,-9999,1425863588.384861,12.06508255004883,-38.14895629882812,-28.60173225402832,15.43160438537598,4.909057140350342,10,329114.1552882083,0.240386962890625,-1.009765625,-0.0536041259765625,329114.1471857917,-0.03035737326581324,-0.04724980406018584,0.0942109214582071,329114.095411125,-2.88431862003431,1.391337938687141,1.354707298933573,-0.07055351138114929,0.08288796246051788,0.06528979539871216,0.01251216977834702,0.007978214882314205,0.005633173044770956,XTrueNorthZVertical,0.5570002998866562,-0.4130554497290853,-0.5416898896324744,0.4750873130384719,0.2109680473804474,-0.9767434597015381,-0.03827172145247459,10.59389591217041,-37.51416397094727,-31.60771942138672,2,0.0.0.0,10.144.231.151,1,0
2015-03-08 18:13:08.519,50,1425863584.091335,33.32496374535334,-111.9419938014769,355.9993,-1,-1,10,86.1022059117314,-9999,1425863588.488607,12.03099060058594,-38.14898681640625,-28.96784782409668,14.81251430511475,4.28996753692627,10,329114.2042968334,0.3354034423828125,-1.027099609375,-0.0248565673828125,329114.1989618334,-0.2232424078530912,-0.02344194286320448,0.2285088089087229,329114.1471857917,-2.863847679214056,1.371822253155262,1.357766433098987,-0.04401815310120583,-0.03222334757447243,0.1280851662158966,0.04627376422286034,-0.02524495497345924,-0.01784080266952515,XTrueNorthZVertical,0.555459929284035,-0.4129999930260115,-0.5414094840931346,0.4772536782667831,0.2072510123252869,-0.9773948192596436,-0.04179054498672485,10.55062770843506,-37.38491439819336,-31.7748908996582,2,0.0.0.0,10.144.231.151,1,0
2015-03-08 18:13:08.541,51,1425863584.091335,33.32496374535334,-111.9419938014769,355.9993,-1,-1,10,86.1022059117314,-9999,1425863588.488607,12.03099060058594,-38.14898681640625,-28.96784782409668,14.81251430511475,4.28996753692627,10,329114.2533141667,0.2093048095703125,-0.9532623291015625,-0.0250244140625,329114.25073775,-0.1453135206674106,-0.2907420898939126,0.4650803380176607,329114.25073775,-2.746084438519835,1.248388279950367,1.380935215644661,-0.1589677929878235,-0.2757138609886169,0.4989371597766876,0.03802700340747833,0.009313170798122883,0.04520964249968529,XTrueNorthZVertical,0.5433288220640883,-0.4182048156791913,-0.5402504270669448,0.487881163272417,0.1789987534284592,-0.98203045129776,-0.05979704484343529,9.998252868652344,-37.18907165527344,-32.18071746826172,2,0.0.0.0,10.144.231.151,1,0
2015-03-08 18:13:08.587,52,1425863584.091335,33.32496374535334,-111.9419938014769,355.9993,-1,-1,10,86.1022059117314,-9999,1425863588.540968,11.26365661621094,-37.58821105957031,-29.21747016906738,13.9460563659668,3.423510074615479,10,329114.3023228333,0.2097930908203125,-1.0313720703125,-0.0340728759765625,329114.25073775,-0.1453135206674106,-0.2907420898939126,0.4650803380176607,329114.25073775,-2.746084438519835,1.248388279950367,1.380935215644661,-0.1589677929878235,-0.2757138609886169,0.4989371597766876,0.03802700340747833,0.009313170798122883,0.04520964249968529,XTrueNorthZVertical,0.5433288220640883,-0.4182048156791913,-0.5402504270669448,0.487881163272417,0.1789987534284592,-0.98203045129776,-0.05979704484343529,9.998252868652344,-37.18907165527344,-32.18071746826172,2,0.0.0.0,10.144.231.151,1,0
2015-03-08 18:13:08.636,53,1425863584.091335,33.32496374535334,-111.9419938014769,355.9993,-1,-1,10,86.1022059117314,-9999,1425863588.592784,10.34285354614258,-37.48626708984375,-29.91642189025879,13.5593786239624,3.036831855773926,10,329114.3513317917,0.193756103515625,-0.985015869140625,-0.0950927734375,329114.3542886667,-0.06520084138786494,-0.1311263289083405,0.520844534398939,329114.3025124167,-2.674461258975287,1.169489723447964,1.395810147850234,-0.1926771402359009,-0.001687613315880299,0.3561234474182129,0.04952998086810112,-0.04664312675595284,0.03393224626779556,XTrueNorthZVertical,0.5354634194387732,-0.4234103974558433,-0.5394444957206319,0.492952561582566,0.1602631062269211,-0.9847289323806763,-0.06800512224435806,8.347535133361816,-37.0932731628418,-32.75666046142578,2,0.0.0.0,10.144.231.151,1,0
2015-03-08 18:13:08.687,54,1425863584.091335,33.32496374535334,-111.9419938014769,355.9993,-1,-1,10,86.1022059117314,-9999,1425863588.646308,9.711933135986328,-37.63922119140625,-30.36574363708496,12.97826290130615,2.455715894699097,10,329114.4004435834,0.115814208984375,-0.9577178955078125,-0.1681671142578125,329114.3542886667,-0.06520084138786494,-0.1311263289083405,0.520844534398939,329114.3542886667,-2.568353288646934,1.062001313640594,1.416213158878406,-0.07886521518230438,-0.1160175353288651,0.5545187592506409,0.05929052457213402,0.003059926442801952,-0.02009086310863495,XTrueNorthZVertical,0.5275192247021175,-0.4292115006373013,-0.5351650752356666,0.5010981218316773,0.1344655752182007,-0.9880757927894592,-0.07500191032886505,7.523478507995605,-37.01934051513672,-33.03871536254883,2,0.0.0.0,10.144.231.151,1,0
2015-03-08 18:13:08.736,55,1425863584.091335,33.32496374535334,-111.9419938014769,355.9993,-1,-1,10,86.1022059117314,-9999,1425863588.696535,8.569465637207031,-37.89410400390625,-30.81506538391113,11.33147239685059,0.808925449848175,10,329114.4493619584,-0.1100311279296875,-0.9759521484375,-0.086456298828125,329114.4060647084,-0.02474422863625323,-0.5297749124823016,0.4183003155737648,329114.4060647084,-2.456625667072702,0.9342542792969621,1.436598609076662,-0.03840847685933113,-0.5146662592887878,0.4519742131233215,0.008221756666898727,0.03329109773039818,-0.08863662928342819,XTrueNorthZVertical,0.5167005663743706,-0.4396081007259558,-0.5336935702574018,0.5049123148778494,0.1075924560427666,-0.991008996963501,-0.07953048497438431,6.766068458557129,-37.06462860107422,-33.15153884887695,2,0.0.0.0,10.144.231.151,1,0
2015-03-08 18:13:08.774,56,1425863584.091335,33.32496374535334,-111.9419938014769,355.9993,-1,-1,10,86.1022059117314,-9999,1425863588.748704,7.324680328369141,-37.60520935058594,-30.79842185974121,10.87497043609619,0.3524236381053925,10,329114.4984719583,-0.0467681884765625,-0.9723968505859375,-0.0879364013671875,329114.4578393333,-0.02034601809598736,-0.6482352472462253,0.3968187255889677,329114.4578393333,-2.335047041128035,0.7808411203612965,1.452267859191357,-0.03401012718677521,-0.6331267356872559,0.4304923117160797,-0.1932655572891235,0.01703157275915146,-0.002459785202518106,XTrueNorthZVertical,0.5027070329373153,-0.453086506383267,-0.536842998527496,0.5037835664902658,0.08323442935943604,-0.9929836988449097,-0.08399651199579239,4.110124111175537,-37.17200088500977,-33.46551132202148,2,0.0.0.0,10.144.231.151,1,0
2015-03-08 18:13:08.832,57,1425863584.091335,33.32496374535334,-111.9419938014769,355.9993,-1,-1,10,86.1022059117314,-9999,1425863588.800578,6.182209014892578,-37.24835205078125,-30.58208656311035,9.477380752563477,358.954833984375,10,329114.5473768333,0.0393524169921875,-0.978546142578125,-0.0711517333984375,329114.5613914584,0.0320130605155155,-0.01146943586664425,0.0185795433449378,329114.509615375,-2.229919317695112,0.6701551722894156,1.458196181845089,-0.1094437539577484,0.2238082885742188,0.1472272127866745,-0.08999190479516983,0.01435821689665318,-0.003857532050460577,XTrueNorthZVertical,0.4971606177987871,-0.456947057636823,-0.5359459841558603,0.5067471152942689,0.06978926807641983,-0.9936673045158386,-0.08806141465902328,6.613829612731934,-37.54127883911133,-30.56382942199707,2,0.0.0.0,10.144.231.151,1,0
2015-03-08 18:13:08.872,58,1425863584.091335,33.32496374535334,-111.9419938014769,355.9993,-1,-1,10,86.1022059117314,-9999,1425863588.852251,5.636554718017578,-37.6221923828125,-30.54879951477051,8.921319961547852,358.3987731933594,10,329114.5964815834,0.0045166015625,-0.9684295654296875,-0.0356292724609375,329114.5613914584,0.0320130605155155,-0.01146943586664425,0.0185795433449378,329114.5613914584,-2.193007681696449,0.6402813424372934,1.45969145242135,0.01834923401474953,0.003638752736151218,0.05225242301821709,-0.05308698862791061,0.007185640279203653,0.02142545580863953,XTrueNorthZVertical,0.4976905064816786,-0.4559019845252243,-0.5334936680104437,0.5097470712241641,0.06624006479978561,-0.9938341975212097,-0.08891507983207703,6.645236015319824,-37.48550796508789,-30.62540626525879,2,0.0.0.0,10.144.231.151,1,0
2015-03-08 18:13:08.931,59,1425863584.091335,33.32496374535334,-111.9419938014769,355.9993,-1,-1,10,86.1022059117314,-9999,1425863588.904028,4.971534729003906,-37.63919067382812,-30.76513862609863,9.625635147094727,359.1030883789062,10,329114.64543875,0.001068115234375,-0.9997711181640625,-0.0577239990234375,329114.61316625,0.1017841526500654,0.2088759853526588,-0.1632501769252032,329114.61316625,-2.221924759713697,0.672002789805268,1.460379252838252,0.08812045305967331,0.223984032869339,-0.1295776069164276,-0.06377943605184555,0.03164521232247353,0.06545204669237137,XTrueNorthZVertical,0.4996021241225203,-0.455280639233993,-0.5327202691717796,0.5092410058993458,0.06860121339559555,-0.9939102530479431,-0.08623451739549637,6.725555419921875,-37.54045867919922,-30.54044914245605,2,0.0.0.0,10.144.231.151,1,0
2015-03-08 18:13:08.970,60,1425863584.091335,33.32496374535334,-111.9419938014769,355.9993,-1,-1,10,86.1022059117314,-9999,1425863588.956267,5.6195068359375,-37.77513122558594,-30.29917335510254,8.714410781860352,358.1918640136719,10,329114.69442125,0.194671630859375,-1.022171020507812,-0.1014862060546875,329114.6649424583,0.01948927917330887,0.4117449445505348,-0.1498757819308253,329114.6649424583,-2.273128314797316,0.7424990039207234,1.457633244633319,0.005825714208185673,0.4268528521060944,-0.1162035316228867,-0.03962215781211853,0.01748389378190041,0.0003130328841507435,XTrueNorthZVertical,0.5066073033124344,-0.4491655070150253,-0.5289828157684138,0.5116410834999833,0.07635006308555603,-0.9936038851737976,-0.08319877833127975,7.405890941619873,-37.5765495300293,-30.33798599243164,2,0.0.0.0,10.144.231.151,1,0
2015-03-08 18:13:09.028,61,1425863584.091335,33.32496374535334,-111.9419938014769,355.9993,-1,-1,10,86.1022059117314,-9999,1425863589.007596,6.540302276611328,-37.74114990234375,-30.4655933380127,8.203516006469727,357.6809692382812,10,329114.7435593334,0.1338958740234375,-1.00567626953125,-0.0081634521484375,329114.7167184167,0.06124764506575133,0.211438478953533,-0.1497868323504167,329114.7167184167,-2.328623830661567,0.8199980530698056,1.453220286224784,0.04758422821760178,0.2265462130308151,-0.1161149591207504,0.08172840625047684,-0.02744243294000626,0.01351545099169016,XTrueNorthZVertical,0.5145544047283123,-0.441836517758992,-0.5249271216138106,0.5142623876081333,0.08576732128858566,-0.993095874786377,-0.08002851158380508,7.959110260009766,-37.55246353149414,-30.22751998901367,2,0.0.0.0,10.144.231.151,1,0
2015-03-08 18:13:09.068,62,1425863584.091335,33.32496374535334,-111.9419938014769,355.9993,-1,-1,10,86.1022059117314,-9999,1425863589.059182,7.375843048095703,-37.9620361328125,-30.38238334655762,7.749353408813477,357.226806640625,10,329114.7925497917,0.1217803955078125,-1.015396118164062,-0.056427001953125,329114.768493375,0.03947949894766165,0.1643058539813107,-0.06782618559046506,329114.768493375,-2.350939199757739,0.8455870048782296,1.451377528041958,0.02581620588898659,0.1794134527444839,-0.03415461629629135,0.01599207706749439,-0.001247321139089763,0.02412044629454613,XTrueNorthZVertical,0.5163295753146578,-0.440332811568457,-0.5246928349332115,0.5140119102182655,0.08915624022483826,-0.9928780198097229,-0.07902157306671143,8.782743453979492,-37.53554153442383,-30.01973533630371,2,0.0.0.0,10.144.231.151,1,0
2015-03-08 18:13:09.128,63,1425863584.091335,33.32496374535334,-111.9419938014769,355.9993,-1,-1,10,86.1022059117314,-9999,1425863589.111348,7.716873168945312,-37.86009216308594,-30.14940071105957,7.702966690063477,357.180419921875,10,329114.841588375,0.16253662109375,-1.007736206054688,-0.1148529052734375,329114.820269375,0.08471275743043949,0.3989279491723105,-0.06282130695387915,329114.820269375,-2.397407268550156,0.9088879281957595,1.450614609661115,0.07104960083961487,0.4140354096889496,-0.02915007621049881,0.0633087232708931,-0.01729919388890266,0.01100583933293819,XTrueNorthZVertical,0.5226947024105338,-0.435827690304231,-0.5204702175272321,0.5157084983477352,0.0945739671587944,-0.9927868843078613,-0.07368894666433334,9.288530349731445,-37.58446884155273,-29.80551719665527,2,0.0.0.0,10.144.231.151,1,0
2015-03-08 18:13:09.166,64,1425863584.091335,33.32496374535334,-111.9419938014769,355.9993,-1,-1,10,86.1022059117314,-9999,1425863589.111348,7.716873168945312,-37.86009216308594,-30.14940071105957,7.702966690063477,357.180419921875,10,329114.8904855,0.0964813232421875,-1.002960205078125,-0.0752105712890625,329114.872045625,-0.06863472129741312,-0.02568405818494219,-0.02491600252656334,329114.872045625,-2.396495008156994,0.9173628319169762,1.450534509171046,-0.08229772001504898,-0.01057677622884512,0.008754856884479523,0.01776364259421825,-0.0261588990688324,-0.0444222018122673,XTrueNorthZVertical,0.5250943862422246,-0.4333697181455273,-0.5180415508205756,0.5177833086530099,0.0952582061290741,-0.9927772879600525,-0.0729331448674202,9.661299705505371,-37.63615036010742,-29.6212329864502,2,0.0.0.0,10.144.231.151,1,0
2015-03-08 18:13:09.225,65,1425863584.091335,33.32496374535334,-111.9419938014769,355.9993,-1,-1,10,86.1022059117314,-9999,1425863589.214666,8.38189697265625,-37.60517883300781,-30.06619453430176,6.982294082641602,356.4597473144531,10,329114.939614625,0.080810546875,-1.00152587890625,-0.05828857421875,329114.9238202917,-0.139917423666692,-0.01567962723395052,-0.005469333930695731,329114.9238202917,-2.348110361196081,0.8671930822426452,1.448809230097348,-0.1535802930593491,-0.0005724966758862138,0.02820118889212608,-0.003080336609855294,0.008468454703688622,0.04454679042100906,XTrueNorthZVertical,0.5225749848591452,-0.4330729120616688,-0.5192189777831837,0.5193986150468191,0.0927867591381073,-0.9925687909126282,-0.07872647792100906,9.652732849121094,-37.50296020507812,-29.79246520996094,2,0.0.0.0,10.144.231.151,1,0
2015-03-08 18:13:09.264,66,1425863584.091335,33.32496374535334,-111.9419938014769,355.9993,-1,-1,10,86.1022059117314,-9999,1425863589.214666,8.38189697265625,-37.60517883300781,-30.06619453430176,6.982294082641602,356.4597473144531,10,329114.9886300833,0.1234893798828125,-0.978729248046875,-0.0571136474609375,329114.9755965417,-0.04330433090523345,0.2534309367057934,0.01325082431979826,329114.9238202917,-2.348110361196081,0.8671930822426452,1.448809230097348,-0.1535802930593491,-0.0005724966758862138,0.02820118889212608,-0.003080336609855294,0.008468454703688622,0.04454679042100906,XTrueNorthZVertical,0.5225749848591452,-0.4330729120616688,-0.5192189777831837,0.5193986150468191,0.0927867591381073,-0.9925687909126282,-0.07872647792100906,9.652732849121094,-37.50296020507812,-29.79246520996094,2,0.0.0.0,10.144.231.151,1,0
2015-03-08 18:13:09.323,67,1425863584.091335,33.32496374535334,-111.9419938014769,355.9993,-1,-1,10,86.1022059117314,-9999,1425863589.318413,9.06396484375,-36.95942687988281,-30.63200950622559,5.633508682250977,355.1109619140625,10,329115.0375601667,0.1550140380859375,-1.034744262695312,-0.1199951171875,329115.0273725417,-0.08974213714905414,0.2078032640655749,-0.06624559948350303,329115.0273725417,-2.299418377023056,0.8385021817703332,1.439574661869373,-0.103400245308876,0.2229124009609222,-0.03260627388954163,0.07319934666156769,-0.007452806457877159,-0.005186204332858324,XTrueNorthZVertical,0.5254834171433638,-0.4244136750412232,-0.5171348530120137,0.5256536737343867,0.09730236232280731,-0.991402804851532,-0.08748041838407516,10.01638031005859,-37.22174072265625,-30.02419090270996,2,0.0.0.0,10.144.231.151,1,0
2015-03-08 18:13:09.361,68,1425863584.091335,33.32496374535334,-111.9419938014769,355.9993,-1,-1,10,86.1022059117314,-9999,1425863589.318413,9.06396484375,-36.95942687988281,-30.63200950622559,5.633508682250977,355.1109619140625,10,329115.0865672083,-0.0215301513671875,-1.001907348632812,-0.094696044921875,329115.0791475,0.07372375582444554,-0.1981586261778529,0.07826204863804956,329115.0273725417,-2.299418377023056,0.8385021817703332,1.439574661869373,-0.103400245308876,0.2229124009609222,-0.03260627388954163,0.07319934666156769,-0.007452806457877159,-0.005186204332858324,XTrueNorthZVertical,0.5254834171433638,-0.4244136750412232,-0.5171348530120137,0.5256536737343867,0.09730236232280731,-0.991402804851532,-0.08748041838407516,10.01638031005859,-37.22174072265625,-30.02419090270996,2,0.0.0.0,10.144.231.151,1,0
2015-03-08 18:13:09.422,69,1425863584.091335,33.32496374535334,-111.9419938014769,355.9993,-1,-1,10,86.1022059117314,-9999,1425863589.370778,9.899505615234375,-37.11236572265625,-30.58209037780762,4.453149795532227,353.9306030273438,10,329115.135692125,0.0720062255859375,-0.9948577880859375,-0.093994140625,329115.1309235417,-0.05785930521084352,0.4274770360579599,0.05047222897918172,329115.0791475,-2.271349507587012,0.8135820060350862,1.44059997338099,0.06005456671118736,-0.1830518394708633,0.1118959859013557,-0.1054619625210762,-0.005289751570671797,-0.03154801577329636,XTrueNorthZVertical,0.5250237069901551,-0.4239815391143761,-0.5159425000311425,0.5276297266218165,0.0943535640835762,-0.9915364384651184,-0.08917952328920364,10.39449501037598,-37.05702209472656,-30.09932518005371,2,0.0.0.0,10.144.231.151,1,0
2015-03-08 18:13:09.460,70,1425863584.091335,33.32496374535334,-111.9419938014769,355.9993,-1,-1,10,86.1022059117314,-9999,1425863589.422619,9.848354339599609,-37.43524169921875,-30.33246040344238,3.266992568969727,352.7444458007812,10,329115.184699125,0.2390289306640625,-0.9818267822265625,-0.09075927734375,329115.1826997917,0.003236805988882306,0.07585108890320083,0.02988253164345211,329115.1309235417,-2.262561764527851,0.8101686212966343,1.442405637662453,-0.071528360247612,0.4425836503505707,0.08410582691431046,-0.05939578637480736,-0.0004945626715198159,0.02102119475603104,XTrueNorthZVertical,0.5260569640326508,-0.4232383861579648,-0.5139083648618558,0.5291800844372767,0.09275149554014206,-0.9917692542076111,-0.08826667815446854,10.24070835113525,-37.13393783569336,-30.05722427368164,2,0.0.0.0,10.144.231.151,1,0
2015-03-08 18:13:09.518,71,1425863584.091335,33.32496374535334,-111.9419938014769,355.9993,-1,-1,10,86.1022059117314,-9999,1425863589.474016,9.575527191162109,-37.60516357421875,-29.93306159973145,2.741235733032227,352.2186889648438,10,329115.2335994167,0.12774658203125,-0.9897308349609375,-0.0891571044921875,329115.2344745417,-0.09585861922463912,-0.1874234238237435,0.02692083019517499,329115.1826997917,-2.21862994926245,0.7840849837210092,1.443864428769432,-0.01043212506920099,0.09095758199691772,0.06351582705974579,0.1319020986557007,0.01003662217408419,-0.02868544310331345,XTrueNorthZVertical,0.5286922028464943,-0.419128799824841,-0.5086069756260592,0.5349154870781936,0.08939611166715622,-0.9919549822807312,-0.08963120728731155,10.54055786132812,-37.10151290893555,-29.99353408813477,2,0.0.0.0,10.144.231.151,1,0
2015-03-08 18:13:09.558,72,1425863584.091335,33.32496374535334,-111.9419938014769,355.9993,-1,-1,10,86.1022059117314,-9999,1425863589.525341,9.251541137695312,-37.38423156738281,-30.18268013000488,3.740930557250977,353.2183837890625,10,329115.2827127083,0.074920654296875,-0.9997100830078125,-0.0829925537109375,329115.2344745417,-0.09585861922463912,-0.1874234238237435,0.02692083019517499,329115.2344745417,-2.188012041706567,0.7488816866824086,1.443203601611159,-0.1095274016261101,-0.1723171025514603,0.06055375933647156,0.04111425578594208,0.002140250522643328,0.004045065492391586,XTrueNorthZVertical,0.5261218652897393,-0.4202317191549827,-0.5099205554918917,0.5353336738257852,0.08663232624530792,-0.9918710589408875,-0.09320217370986938,10.56249618530273,-37.03972625732422,-30.06210517883301,2,0.0.0.0,10.144.231.151,1,0
2015-03-08 18:13:09.620,73,1425863584.091335,33.32496374535334,-111.9419938014769,355.9993,-1,-1,10,86.1022059117314,-9999,1425863589.578653,9.115127563476562,-37.0103759765625,-30.28253364562988,3.861383438110352,353.3388366699219,10,329115.33162025,0.097015380859375,-0.9923553466796875,-0.16845703125,329115.338026875,-0.2196157150806213,-0.0410403776625571,-0.04505189721254345,329115.286250875,-2.144632180086233,0.6955919024391187,1.437875785850651,-0.2434067726135254,-0.1617046743631363,-0.001968765864148736,-0.01000966224819422,-0.00853101909160614,0.01874710991978645,XTrueNorthZVertical,0.5212756385518589,-0.4211910214423881,-0.5140467735092288,0.5353744268437739,0.08493031561374664,-0.9911790490150452,-0.1017396673560143,10.3421745300293,-36.9583854675293,-30.23830795288086,2,0.0.0.0,10.144.231.151,1,0
2015-03-08 18:13:09.657,74,1425863584.091335,33.32496374535334,-111.9419938014769,355.9993,-1,-1,10,86.1022059117314,-9999,1425863589.630533,8.552417755126953,-36.44961547851562,-30.86499214172363,4.628473281860352,354.1059265136719,10,329115.3806970834,0.026885986328125,-0.9727020263671875,-0.1754913330078125,329115.338026875,-0.2196157150806213,-0.0410403776625571,-0.04505189721254345,329115.338026875,-2.087849810206399,0.6399968353689797,1.426923979192986,-0.2331923693418503,-0.02592301182448864,-0.01153087802231312,0.01139182969927788,-0.002687132684513927,-0.05345491319894791,XTrueNorthZVertical,0.5179629280267984,-0.4173887229545137,-0.5168669740473747,0.5388409973677715,0.08562354743480682,-0.9896681904792786,-0.1150021180510521,10.12505340576172,-36.66243362426758,-30.66899681091309,2,0.0.0.0,10.144.231.151,1,0
2015-03-08 18:13:09.720,75,1425863584.091335,33.32496374535334,-111.9419938014769,355.9993,-1,-1,10,86.1022059117314,-9999,1425863589.680842,8.620624542236328,-36.2796630859375,-31.49737739562988,4.588220596313477,354.065673828125,10,329115.4296386667,0.117828369140625,-1.003036499023438,-0.148529052734375,329115.389801875,-0.3529567287514717,-0.1197977742633614,0.0281211168984737,329115.389801875,-2.017475343182987,0.5647634148395038,1.416090657825413,-0.3665332198143005,-0.104680560529232,0.06164179742336273,-0.05558515712618828,0.01535490062087774,-0.04532961547374725,XTrueNorthZVertical,0.5119682543033121,-0.4157013930390113,-0.5207396091159775,0.5421357284607439,0.08247113972902298,-0.9880568981170654,-0.1301617175340652,9.987092971801758,-36.03682327270508,-31.44588088989258,2,0.0.0.0,10.144.231.151,1,0
2015-03-08 18:13:09.754,76,1425863584.091335,33.32496374535334,-111.9419938014769,355.9993,-1,-1,10,86.1022059117314,-9999,1425863589.734047,8.688831329345703,-36.04177856445312,-31.86349678039551,3.684259414672852,353.1617126464844,10,329115.478736125,-0.0637969970703125,-1.033050537109375,-0.0893707275390625,329115.4415779167,-0.1559587081766753,0.1902809956733985,-0.07180042088519031,329115.4415779167,-1.969340762160202,0.5220800643073936,1.403047981438263,-0.1695350855588913,0.2053980380296707,-0.03828010708093643,0.02545712515711784,-0.02789177186787128,0.02503077127039433,XTrueNorthZVertical,0.5091277273123066,-0.410400536991154,-0.5226721856723787,0.5469681645292659,0.08326175063848495,-0.9859632253646851,-0.1447207182645798,9.903341293334961,-35.69472122192383,-31.85982894897461,2,0.0.0.0,10.144.231.151,1,0
2015-03-08 18:13:09.820,77,1425863584.091335,33.32496374535334,-111.9419938014769,355.9993,-1,-1,10,86.1022059117314,-9999,1425863589.784318,9.098075866699219,-35.76988220214844,-32.3294563293457,2.793848037719727,352.2713012695312,10,329115.527643,-0.0004119873046875,-0.991943359375,-0.1893157958984375,329115.4933542917,-0.1084330006275573,-0.1222012771471579,0.2038854877859593,329115.4933542917,-1.929185405184666,0.4777188366595921,1.405552613004056,-0.1219843327999115,-0.1070806235074997,0.2374217510223389,-0.2166786044836044,-0.02862109430134296,-0.03357972949743271,XTrueNorthZVertical,0.5061628610642629,-0.4132318145013457,-0.5221574766708974,0.5480786670585934,0.07562635838985443,-0.9863783121109009,-0.1460772454738617,10.13757038116455,-35.38619613647461,-32.12918853759766,2,0.0.0.0,10.144.231.151,1,0
2015-03-08 18:13:09.852,78,1425863584.091335,33.32496374535334,-111.9419938014769,355.9993,-1,-1,10,86.1022059117314,-9999,1425863589.837601,8.927558898925781,-35.531982421875,-32.76213836669922,1.258691787719727,350.7361450195312,10,329115.576752875,-0.0427093505859375,-1.112991333007812,-0.0873260498046875,329115.5451292084,0.1474333968951136,0.1882314268984735,-0.02948066063495915,329115.5451292084,-1.925901127560329,0.4765720374880135,1.409049149012204,0.1338821947574615,0.2033519446849823,0.004055306315422058,-0.06583481281995773,-0.07665121555328369,-0.003477532882243395,XTrueNorthZVertical,0.507062405050196,-0.4139305738493474,-0.52046530256194,0.5483293685472698,0.07387619465589523,-0.9869474172592163,-0.1430983990430832,9.607578277587891,-35.55344772338867,-32.10739517211914,2,0.0.0.0,10.144.231.151,1,0
2015-03-08 18:13:09.916,79,1425863584.091335,33.32496374535334,-111.9419938014769,355.9993,-1,-1,10,86.1022059117314,-9999,1425863589.8893,8.569473266601562,-35.8548583984375,-32.51251220703125,0.7519779205322266,350.2294311523438,10,329115.625668375,0.2693328857421875,-1.093780517578125,-0.1623077392578125,329115.5969053333,0.05848621333144816,-0.0791267770439983,0.4593723848532939,329115.5969053333,-1.849226095620189,0.3954089309422467,1.421090945520037,0.04493515193462372,-0.06400642544031143,0.4929079711437225,-0.004577568266540766,-0.1888582706451416,0.2218366712331772,XTrueNorthZVertical,0.5039652995212197,-0.4209508734655719,-0.5162511266221382,0.5498219197461219,0.05744927376508713,-0.9888150691986084,-0.1376386731863022,9.574277877807617,-35.70781326293945,-31.94563293457031,2,0.0.0.0,10.144.231.151,1,0
2015-03-08 18:13:09.950,80,1425863584.091335,33.32496374535334,-111.9419938014769,355.9993,-1,-1,10,86.1022059117314,-9999,1425863589.940776,8.518314361572266,-35.97381591796875,-32.22961044311523,358.3808288574219,347.8582763671875,10,329115.674775625,0.5659637451171875,-0.6353607177734375,-0.19244384765625,329115.6486814167,-0.5481150376452413,2.075640056732421,0.1577528798030617,329115.6486814167,-1.66699322592954,0.2829984415567237,1.414395220695899,-0.561665952205658,2.090760231018066,0.1912881284952164,0.2677232027053833,0.05731330066919327,-0.320829451084137,XTrueNorthZVertical,0.5117902579610991,-0.4040872211723526,-0.4955312410643274,0.5737883484660911,0.04349504411220551,-0.9877942800521851,-0.149568498134613,8.810056686401367,-35.96382522583008,-31.87826919555664,2,0.0.0.0,10.144.231.151,1,0
2015-03-08 18:13:10.017,81,1425863584.091335,33.32496374535334,-111.9419938014769,355.9993,-1,-1,10,86.1022059117314,-9999,1425863589.991911,8.978713989257812,-35.58299255371094,-32.17968368530273,356.941162109375,346.4186096191406,10,329115.7236815,0.8441162109375,-0.735687255859375,0.49468994140625,329115.7004562917,0.4681371143168537,-1.534686791890621,-1.004272454430592,329115.7004562917,-1.758072324197414,0.3796297194548093,1.396934937472662,0.4545863270759583,-1.519566774368286,-0.9707375168800354,0.7110568284988403,0.4346159100532532,0.3571122586727142,XTrueNorthZVertical,0.5141053857047018,-0.3941577685283503,-0.5017960630844163,0.5731806409292201,0.06410491466522217,-0.9849241375923157,-0.1606706082820892,11.28368377685547,-35.08478546142578,-32.07762908935547,2,0.0.0.0,10.144.231.151,1,0
2015-03-08 18:13:10.047,82,1425863584.091335,33.32496374535334,-111.9419938014769,355.9993,-1,-1,10,86.1022059117314,-9999,1425863590.044548,10.0018196105957,-35.48101806640625,-32.079833984375,1.286951065063477,350.764404296875,10,329115.7726875,0.2047882080078125,-0.9891510009765625,-0.007904052734375,329115.7522326667,1.007337220213055,-1.161616006374108,-1.214041397696754,329115.7522326667,-2.215571053782156,0.7882869842920436,1.389434294623666,0.9937865734100342,-1.146496057510376,-1.180506706237793,0.3751585483551025,-0.002805482596158981,-0.4100293517112732,XTrueNorthZVertical,0.5279579252981552,-0.3970826606635463,-0.5248458437852618,0.5367705842736198,0.12790846824646,-0.9835989475250244,-0.1271715760231018,11.25876617431641,-35.25127029418945,-31.90338897705078,2,0.0.0.0,10.144.231.151,1,0
2015-03-08 18:13:10.127,83,1425863584.091335,33.32496374535334,-111.9419938014769,355.9993,-1,-1,10,86.1022059117314,-9999,1425863590.099184,8.995761871337891,-35.80389404296875,-32.0299072265625,9.647760391235352,359.1252136230469,10,329115.8217013333,-0.658935546875,-1.026519775390625,-0.1099395751953125,329115.8040089167,0.5733210584145143,-3.823933407020009,-0.5833763557423265,329115.8040089167,-2.483830747551654,0.8861879960120722,1.386612622084587,0.5597710609436035,-3.808813571929932,-0.5498418807983398,-0.3014674484729767,0.3259663283824921,0.219925582408905,XTrueNorthZVertical,0.4985642162948009,-0.439916229902338,-0.5691225548736806,0.4837426801490629,0.1418757736682892,-0.9830860495567322,-0.1158148646354675,11.76415634155273,-35.76961135864258,-31.13482666015625,2,0.0.0.0,10.144.231.151,1,0
2015-03-08 18:13:10.148,84,1425863584.091335,33.32496374535334,-111.9419938014769,355.9993,-1,-1,10,86.1022059117314,-9999,1425863590.099184,8.995761871337891,-35.80389404296875,-32.0299072265625,9.647760391235352,359.1252136230469,10,329115.87081525,0.0592803955078125,-0.917724609375,-0.2375640869140625,329115.8557837083,-0.690340623028705,0.4987794458193054,0.8033047259349231,329115.8040089167,-2.483830747551654,0.8861879960120722,1.386612622084587,0.5597710609436035,-3.808813571929932,-0.5498418807983398,-0.3014674484729767,0.3259663283824921,0.219925582408905,XTrueNorthZVertical,0.4985642162948009,-0.439916229902338,-0.5691225548736806,0.4837426801490629,0.1418757736682892,-0.9830860495567322,-0.1158148646354675,11.76415634155273,-35.76961135864258,-31.13482666015625,2,0.0.0.0,10.144.231.151,1,0
2015-03-08 18:13:10.222,85,1425863584.091335,33.32496374535334,-111.9419938014769,355.9993,-1,-1,10,86.1022059117314,-9999,1425863590.173372,6.182216644287109,-36.60256958007812,-31.7802906036377,14.46497440338135,3.94242787361145,10,329115.9197365417,0.454498291015625,-1.128326416015625,-0.088165283203125,329115.9075599167,-0.1891787132982147,1.381249564634033,-0.2730560370946963,329115.9075599167,-2.504302865355764,0.9423650450671087,1.382073264323699,-0.2027284055948257,1.396369099617004,-0.2395221889019012,0.4708259701728821,0.06101046502590179,0.2207011133432388,XTrueNorthZVertical,0.5100989167388343,-0.4297148293789355,-0.5614171488519978,0.4898520957324503,0.1517631411552429,-0.982244610786438,-0.1102885231375694,6.759595394134521,-36.40652084350586,-31.87649345397949,2,0.0.0.0,10.144.231.151,1,0
2015-03-08 18:13:10.244,86,1425863584.091335,33.32496374535334,-111.9419938014769,355.9993,-1,-1,10,86.1022059117314,-9999,1425863590.225737,6.523250579833984,-36.26272583007812,-31.74700736999512,15.8459005355835,5.32335376739502,10,329115.9687489167,0.0452117919921875,-1.129592895507812,0.0427093505859375,329115.9593363333,0.1314203418926852,-1.191597607610111,0.1093536554163976,329115.9075599167,-2.504302865355764,0.9423650450671087,1.382073264323699,-0.2027284055948257,1.396369099617004,-0.2395221889019012,0.4708259701728821,0.06101046502590179,0.2207011133432388,XTrueNorthZVertical,0.5100989167388343,-0.4297148293789355,-0.5614171488519978,0.4898520957324503,0.1517631411552429,-0.982244610786438,-0.1102885231375694,6.759595394134521,-36.40652084350586,-31.87649345397949,2,0.0.0.0,10.144.231.151,1,0
2015-03-08 18:13:10.322,87,1425863584.091335,33.32496374535334,-111.9419938014769,355.9993,-1,-1,10,86.1022059117314,-9999,1425863590.277331,7.7509765625,-35.7529296875,-31.78028678894043,13.49802303314209,2.975476264953613,10,329116.01775625,0.0633087158203125,-0.9006805419921875,-0.2207489013671875,329116.011111125,0.181557278890626,0.3959143160827768,-0.3907387288203168,329115.9593363333,-2.45469061982359,0.8704171524558162,1.391297183759963,0.1178707927465439,-1.176478266716003,0.1428871303796768,-0.02568437345325947,-0.07174608111381531,0.05735968053340912,XTrueNorthZVertical,0.5004277913336956,-0.4382211945222795,-0.5644428193957283,0.4888134042043309,0.1365089565515518,-0.9839332103729248,-0.1150684207677841,9.888678550720215,-36.05450057983398,-31.45671463012695,2,0.0.0.0,10.144.231.151,1,0
2015-03-08 18:13:10.342,88,1425863584.091335,33.32496374535334,-111.9419938014769,355.9993,-1,-1,10,86.1022059117314,-9999,1425863590.329856,7.853290557861328,-35.71894836425781,-31.91341972351074,14.6179084777832,4.095361709594727,10,329116.066747625,0.05316162109375,-1.01605224609375,-0.1842193603515625,329116.0628875417,-0.1264636664718297,0.1990590409424087,0.04902240408174258,329116.011111125,-2.491406686643064,0.8964869114474312,1.381122404241518,0.1680078655481339,0.4110335409641266,-0.3572055995464325,-0.1627625674009323,0.09832248091697693,-0.2499905824661255,XTrueNorthZVertical,0.4999385970507026,-0.4372682674434681,-0.570172915953334,0.4834880945215865,0.1472748965024948,-0.982065737247467,-0.1177157238125801,8.342724800109863,-36.05083084106445,-31.90571784973145,2,0.0.0.0,10.144.231.151,1,0
2015-03-08 18:13:10.420,89,1425863584.091335,33.32496374535334,-111.9419938014769,355.9993,-1,-1,10,86.1022059117314,-9999,1425863590.38261,8.398944854736328,-36.1607666015625,-31.6804370880127,13.59099006652832,3.068443298339844,10,329116.1157457083,0.153839111328125,-0.998687744140625,-0.0057220458984375,329116.1146635833,-0.1913699622431319,0.3681772270134925,0.04120016732796185,329116.0628875417,-2.519672151225771,0.9388518543466909,1.37310577181142,-0.1400129646062851,0.214178130030632,0.08255523443222046,-0.1804484277963638,-0.05812773481011391,-0.08356530219316483,XTrueNorthZVertical,0.5060709659829776,-0.4311407520091001,-0.5689530553500248,0.484047807885579,0.1584757715463638,-0.9805227518081665,-0.1160196587443352,9.065799713134766,-36.11075592041016,-31.63956832885742,2,0.0.0.0,10.144.231.151,1,0
2015-03-08 18:13:10.439,90,1425863584.091335,33.32496374535334,-111.9419938014769,355.9993,-1,-1,10,86.1022059117314,-9999,1425863590.435438,8.467151641845703,-35.95686340332031,-31.64715766906738,12.19790649414062,1.67535924911499,10,329116.1647545,0.2401123046875,-1.047134399414062,-0.0771484375,329116.1146635833,-0.1913699622431319,0.3681772270134925,0.04120016732796185,329116.1146635833,-2.478357359667529,0.9080224396230898,1.378306306436633,-0.2049191296100616,0.3832961618900299,0.07473266869783401,0.002197409747168422,0.005380416288971901,0.1873666346073151,XTrueNorthZVertical,0.5060967658224403,-0.4301289749444694,-0.5650134071222109,0.4895048605216459,0.1508024632930756,-0.9815309047698975,-0.117710255086422,9.460792541503906,-35.96659851074219,-31.6880931854248,2,0.0.0.0,10.144.231.151,1,0
2015-03-08 18:13:10.520,91,1425863584.091335,33.32496374535334,-111.9419938014769,355.9993,-1,-1,10,86.1022059117314,-9999,1425863590.510253,8.620624542236328,-35.63398742675781,-32.39603424072266,11.97817802429199,1.455630779266357,10,329116.2137490417,0.1467437744140625,-0.90234375,-0.1648712158203125,329116.218214875,-0.313712919560282,-0.134539169845277,-0.2149956632215519,329116.1664387917,-2.468389616954165,0.9099846529088446,1.37686246330303,-0.003328063292428851,0.15074822306633,0.03375903144478798,0.08796045929193497,-0.06588070839643478,0.04113536700606346,XTrueNorthZVertical,0.5088108540944333,-0.4265789642555555,-0.5625378058605096,0.4926389643063907,0.1521518379449844,-0.9812536835670471,-0.1182838007807732,9.739728927612305,-35.86041259765625,-31.72390937805176,2,0.0.0.0,10.144.231.151,1,0
2015-03-08 18:13:10.538,92,1425863584.091335,33.32496374535334,-111.9419938014769,355.9993,-1,-1,10,86.1022059117314,-9999,1425863590.510253,8.620624542236328,-35.63398742675781,-32.39603424072266,11.97817802429199,1.455630779266357,10,329116.2627474584,-0.1279449462890625,-0.9018402099609375,-0.0405426025390625,329116.218214875,-0.313712919560282,-0.134539169845277,-0.2149956632215519,329116.218214875,-2.435465345784553,0.8785670557359077,1.369626183860678,-0.3272618055343628,-0.1194205582141876,-0.1814638674259186,-0.007079706061631441,0.07748968899250031,-0.03733757883310318,XTrueNorthZVertical,0.5070321156888777,-0.423263057136551,-0.564744683029494,0.494803285436017,0.1538234800100327,-0.9798334240913391,-0.1275336295366287,9.829038619995117,-35.81629180908203,-31.7461986541748,2,0.0.0.0,10.144.231.151,1,0
2015-03-08 18:13:10.616,93,1425863584.091335,33.32496374535334,-111.9419938014769,355.9993,-1,-1,10,86.1022059117314,-9999,1425863590.562657,9.081024169921875,-35.92288208007812,-32.71222686767578,12.03957366943359,1.517026424407959,10,329116.3117686667,0.1028289794921875,-1.068389892578125,-0.2110748291015625,329116.269991125,-0.02930222884192384,-0.03295262374809545,-0.04682103512468309,329116.269991125,-2.406284997489657,0.8437725974098702,1.361760275382053,-0.04277295246720314,-0.017830740660429,-0.0133754201233387,-0.2829926013946533,0.07639119774103165,0.09738343954086304,XTrueNorthZVertical,0.5033257042807566,-0.4215450345801406,-0.5688700602758894,0.4953280770536772,0.155047670006752,-0.9782314300537109,-0.1379260420799255,9.896055221557617,-35.39156341552734,-32.19849395751953,2,0.0.0.0,10.144.231.151,1,0
2015-03-08 18:13:10.635,94,1425863584.091335,33.32496374535334,-111.9419938014769,355.9993,-1,-1,10,86.1022059117314,-9999,1425863590.613853,9.422065734863281,-35.6510009765625,-32.61238098144531,9.915765762329102,359.3932189941406,10,329116.3607754167,0.35284423828125,-1.407180786132812,-0.2765655517578125,329116.3217661667,0.5849223207551174,0.3382390353032578,-0.09888290495853311,329116.3217661667,-2.475859680159783,0.9296924494335074,1.366226029210603,0.571451723575592,0.3533607721328735,-0.06543765962123871,-0.001905049080960453,-0.09342243522405624,-0.1064377948641777,XTrueNorthZVertical,0.5129752972818078,-0.4196514566036591,-0.5627966955766244,0.493972579159997,0.1628089845180511,-0.9791483879089355,-0.1214979961514473,10.35578346252441,-35.43811798095703,-32.00211715698242,2,0.0.0.0,10.144.231.151,1,0
2015-03-08 18:13:10.720,95,1425863584.091335,33.32496374535334,-111.9419938014769,355.9993,-1,-1,10,86.1022059117314,-9999,1425863590.666003,9.763107299804688,-36.1268310546875,-31.64716529846191,9.252405166625977,358.7298583984375,10,329116.4097915,0.2836456298828125,-1.101150512695312,-0.3414459228515625,329116.3735425834,0.1841725030810838,-0.3227231924763471,0.7038223434150132,329116.3735425834,-2.549633746371265,1.001094088114815,1.394884549495315,0.1707020550966263,-0.3076016008853912,0.7372672557830811,0.2477146685123444,-0.5605223178863525,-0.07239881157875061,XTrueNorthZVertical,0.5161969696995982,-0.4316748586507342,-0.5533127799929414,0.4909607953219716,0.1473658978939056,-0.984567403793335,-0.09439501166343689,10.60389995574951,-36.02981948852539,-31.25135803222656,2,0.0.0.0,10.144.231.151,1,0
2015-03-08 18:13:10.735,96,1425863584.091335,33.32496374535334,-111.9419938014769,355.9993,-1,-1,10,86.1022059117314,-9999,1425863590.717714,8.927566528320312,-35.76997375488281,-32.09648513793945,7.423395156860352,356.9008483886719,10,329116.4587945833,0.2887420654296875,-0.6810302734375,0.093475341796875,329116.42531875,-1.21248557898793,-0.7257063370405212,0.2700306860963663,329116.42531875,-2.304537168925616,0.7421932387824269,1.381551814210146,-1.225955843925476,-0.7105848789215088,0.3034752905368805,0.1314870268106461,0.09577883780002594,-0.1660474836826324,XTrueNorthZVertical,0.4966949160603327,-0.4289220801813149,-0.5623884044733856,0.5030301404205433,0.1271494477987289,-0.9821466207504272,-0.1386400163173676,9.444894790649414,-36.570556640625,-30.99397659301758,2,0.0.0.0,10.144.231.151,1,0
2015-03-08 18:13:10.822,97,1425863584.091335,33.32496374535334,-111.9419938014769,355.9993,-1,-1,10,86.1022059117314,-9999,1425863590.770351,7.358795166015625,-34.92031860351562,-33.32796859741211,7.527307510375977,357.0047607421875,10,329116.507811,0.5634307861328125,-0.651214599609375,-0.0684661865234375,329116.4770939584,-0.8016011017855994,-0.03188602773151872,0.3117150161105046,329116.4770939584,-2.068568326727714,0.4955013393086373,1.35535026128142,-0.8150712847709656,-0.01676474511623383,0.3451592922210693,0.243475154042244,0.2345257848501205,0.2894358336925507,XTrueNorthZVertical,0.4748879235274349,-0.4247889046419813,-0.5705426657754105,0.5181862052154937,0.1016481444239616,-0.9768811464309692,-0.1880716979503632,7.494635581970215,-34.27262878417969,-34.00669479370117,2,0.0.0.0,10.144.231.151,1,0
2015-03-08 18:13:10.836,98,1425863584.091335,33.32496374535334,-111.9419938014769,355.9993,-1,-1,10,86.1022059117314,-9999,1425863590.821229,6.216327667236328,-34.12164306640625,-34.37639236450195,7.151971817016602,356.6294250488281,10,329116.55682825,0.560028076171875,-0.4777069091796875,0.234405517578125,329116.5288700833,-0.0845010361237782,-1.197262417564819,0.4377049062244092,329116.5288700833,-1.965846432585684,0.3717614226445344,1.341313782515193,-0.09797107428312302,-1.182141304016113,0.4711487889289856,0.2140756994485855,0.631117582321167,0.08719419687986374,XTrueNorthZVertical,0.4592203703623364,-0.427959407171713,-0.576965166595044,0.5225692527869832,0.08263146132230759,-0.9737842082977295,-0.2119347900152206,7.202381134033203,-33.58979034423828,-34.74319458007812,2,0.0.0.0,10.144.231.151,1,0
2015-03-08 18:13:10.919,99,1425863584.091335,33.32496374535334,-111.9419938014769,355.9993,-1,-1,10,86.1022059117314,-9999,1425863590.873937,5.909393310546875,-34.12164306640625,-34.57608795166016,7.430932998657227,356.9083862304688,10,329116.605899,-0.21246337890625,-1.996841430664062,-0.8417205810546875,329116.5806465,0.1274698087316617,0.7386988347345819,-1.053712974803477,329116.5806465,-2.128551853389145,0.5212788829486995,1.349720948147519,0.1139999032020569,0.7538198232650757,-1.020269393920898,0.07999503612518311,-0.1457214653491974,-0.07662958651781082,XTrueNorthZVertical,0.468816059458615,-0.430271961214097,-0.581585659185528,0.5067895943893125,0.1091986894607544,-0.9756622314453125,-0.1901550889015198,5.405213356018066,-33.53670501708984,-35.1185302734375,2,0.0.0.0,10.144.231.151,1,0
2015-03-08 18:13:10.930,100,1425863584.091335,33.32496374535334,-111.9419938014769,355.9993,-1,-1,10,86.1022059117314,-9999,1425863590.925488,5.994655609130859,-34.002685546875,-34.62600708007812,11.33441543579102,0.8118688464164734,10,329116.6548663334,-0.0067901611328125,-0.5800933837890625,-0.12213134765625,329116.6324214584,0.01080471085856048,-1.108582349058488,0.5270355849850461,329116.6324214584,-2.118662147320377,0.5032064403750128,1.34619315097482,-0.002665069187059999,-1.093461513519287,0.5604788661003113,-0.2327546030282974,0.02744909189641476,-0.3107631504535675,XTrueNorthZVertical,0.4652718250854531,-0.4312382012140977,-0.5844020434401643,0.5059940952057832,0.1074036434292793,-0.9748825430870056,-0.195111483335495,6.966029167175293,-33.79623031616211,-34.59085464477539,2,0.0.0.0,10.144.231.151,1,0
2015-03-08 18:13:11.019,101,1425863584.091335,33.32496374535334,-111.9419938014769,355.9993,-1,-1,10,86.1022059117314,-9999,1425863590.976678,5.960556030273438,-33.96870422363281,-34.49287796020508,8.970331192016602,358.4477844238281,10,329116.7038860417,0.2710723876953125,-1.311355590820312,-0.2475738525390625,329116.6841978334,0.07540767258170264,0.9444796942683505,0.2390109846674504,329116.6841978334,-2.055176784307676,0.4368674094514655,1.354607151034325,0.06193802505731583,0.9596003890037537,0.2724539339542389,-0.0920565128326416,0.1356728076934814,0.1098138615489006,XTrueNorthZVertical,0.4607912870136229,-0.4364515839242115,-0.5810469795035365,0.5094760470101329,0.0907595157623291,-0.9767220020294189,-0.1943628042936325,5.567777633666992,-33.91170501708984,-34.73088073730469,2,0.0.0.0,10.144.231.151,1,0
2015-03-08 18:13:11.028,102,1425863584.091335,33.32496374535334,-111.9419938014769,355.9993,-1,-1,10,86.1022059117314,-9999,1425863590.976678,5.960556030273438,-33.96870422363281,-34.49287796020508,8.970331192016602,358.4477844238281,10,329116.752900125,0.39923095703125,-0.816741943359375,-0.2244415283203125,329116.7359740834,-0.3146282480269423,0.2658386042244726,0.3008786136349721,329116.7359740834,-2.001011377182661,0.437630905274754,1.355621629664065,-0.3280977308750153,0.2809590995311737,0.3343211710453033,0.2999692261219025,-0.06654844433069229,-0.08233044296503067,XTrueNorthZVertical,0.4728077501617624,-0.4239751092852999,-0.5665496111056337,0.5250899983949644,0.09048791229724884,-0.9769390821456909,-0.1933958828449249,6.255183219909668,-33.99918365478516,-34.52775955200195,2,0.0.0.0,10.144.231.151,1,0
2015-03-08 18:13:11.118,103,1425863584.091335,33.32496374535334,-111.9419938014769,355.9993,-1,-1,10,86.1022059117314,-9999,1425863591.106339,5.0738525390625,-33.93475341796875,-35.09197616577148,7.067773818969727,356.5452270507812,10,329116.8019252084,-0.0138397216796875,-1.082504272460938,-0.2903900146484375,329116.7877492917,-0.3106137989997568,-0.5749290750807041,0.4407475677698248,329116.7877492917,-1.864068791857333,0.2769266835701688,1.354487174705891,-0.3240831792354584,-0.5598086714744568,0.474189817905426,0.1920381635427475,0.04745125770568848,0.001111626974307001,XTrueNorthZVertical,0.4563858629844365,-0.4341513196834463,-0.5680974767130764,0.5296129367775934,0.0586790032684803,-0.976696252822876,-0.2064491510391235,5.703511714935303,-33.75661849975586,-34.85969543457031,2,0.0.0.0,10.144.231.151,1,0
2015-03-08 18:13:11.126,104,1425863584.091335,33.32496374535334,-111.9419938014769,355.9993,-1,-1,10,86.1022059117314,-9999,1425863591.106339,5.0738525390625,-33.93475341796875,-35.09197616577148,7.067773818969727,356.5452270507812,10,329116.851041,0.063751220703125,-0.763580322265625,-0.1689453125,329116.8395255,-0.4920640188145616,-0.5910625049644042,0.7998814986697352,329116.7877492917,-1.864068791857333,0.2769266835701688,1.354487174705891,-0.3240831792354584,-0.5598086714744568,0.474189817905426,0.1920381635427475,0.04745125770568848,0.001111626974307001,XTrueNorthZVertical,0.4563858629844365,-0.4341513196834463,-0.5680974767130764,0.5296129367775934,0.0586790032684803,-0.976696252822876,-0.2064491510391235,5.703511714935303,-33.75661849975586,-34.85969543457031,2,0.0.0.0,10.144.231.151,1,0
2015-03-08 18:13:11.231,105,1425863591.15616,33.32490728903951,-111.9419473495104,355.9995,-1,-1,10,90.93705576117196,-9999,1425863591.209575,1.339504241943359,-31.06292724609375,-37.60486221313477,4.601892471313477,354.079345703125,10,329116.89994925,0.034637451171875,-0.802581787109375,-0.320220947265625,329116.8913017917,-1.447281578598112,-0.07417196583590586,0.4264767527525262,329116.8913017917,-1.581031721923581,-0.03793369201288263,1.288857311152705,-1.460750699043274,-0.05905191227793694,0.4599183201789856,0.0618361234664917,0.0941542461514473,0.04576452821493149,XTrueNorthZVertical,0.4117571977924948,-0.4375462615172114,-0.5760901184395504,0.5541926422279232,-0.01055133156478405,-0.9605177640914917,-0.2780185639858246,2.559643745422363,-32.50117492675781,-36.39175415039062,2,0.0.0.0,10.144.231.151,1,0
2015-03-08 18:13:11.240,106,1425863591.15616,33.32490728903951,-111.9419473495104,355.9995,-1,-1,10,90.93705576117196,-9999,1425863591.209575,1.339504241943359,-31.06292724609375,-37.60486221313477,4.601892471313477,354.079345703125,10,329116.948954375,0.0524749755859375,-0.938446044921875,-0.1580352783203125,329116.8913017917,-1.447281578598112,-0.07417196583590586,0.4264767527525262,329116.8913017917,-1.581031721923581,-0.03793369201288263,1.288857311152705,-1.460750699043274,-0.05905191227793694,0.4599183201789856,0.0618361234664917,0.0941542461514473,0.04576452821493149,XTrueNorthZVertical,0.4117571977924948,-0.4375462615172114,-0.5760901184395504,0.5541926422279232,-0.01055133156478405,-0.9605177640914917,-0.2780185639858246,2.559643745422363,-32.50117492675781,-36.39175415039062,2,0.0.0.0,10.144.231.151,1,0
2015-03-08 18:13:11.293,107,1425863591.15616,33.32490728903951,-111.9419473495104,355.9995,-1,-1,10,90.93705576117196,-9999,1425863591.261166,-0.8090324401855469,-28.20803833007812,-39.53529739379883,5.092798233032227,354.5702514648438,10,329116.9979774583,-0.162017822265625,-0.750091552734375,-0.273651123046875,329116.9948532917,-1.593645716315558,-0.5834581147877919,0.9973799272133574,329116.9430769584,-1.513075556897379,-0.1390435905738851,1.224810030956976,-1.345900416374207,-1.146027326583862,0.6302679181098938,0.2236065566539764,-0.05066786706447601,0.2677060961723328,XTrueNorthZVertical,0.3780048432368729,-0.4349556403967498,-0.5893475210907794,0.5662114966384486,-0.04700133204460144,-0.9407414197921753,-0.3358518481254578,0.3033982515335083,-29.38714790344238,-39.03256988525391,2,0.0.0.0,10.144.231.151,1,0
2015-03-08 18:13:11.332,108,1425863591.15616,33.32490728903951,-111.9419473495104,355.9995,-1,-1,10,90.93705576117196,-9999,1425863591.317263,-3.486167907714844,-25.20025634765625,-41.18282318115234,4.849847793579102,354.3273010253906,10,329117.0469800417,-0.0433197021484375,-0.77606201171875,-0.3500213623046875,329117.0466295833,-1.998979366857837,0.4203818422817708,0.956863659653328,329116.9948532917,-1.430045160009087,-0.246709365318598,1.130277233364485,-1.607114553451538,-0.5683383345603943,1.030820846557617,-0.1857970505952835,0.2574509680271149,0.06773382425308228,XTrueNorthZVertical,0.3331692098851767,-0.4269066482557174,-0.5992399119235619,0.5896274666111447,-0.1041351929306984,-0.9045304656028748,-0.4134979844093323,-1.62141227722168,-27.52949142456055,-40.33281326293945,2,0.0.0.0,10.144.231.151,1,0
2015-03-08 18:13:11.424,109,1425863591.15616,33.32490728903951,-111.9419473495104,355.9995,-1,-1,10,90.93705576117196,-9999,1425863591.368152,-5.788162231445312,-21.37680053710938,-42.76377868652344,3.562097549438477,353.03955078125,10,329117.0959937084,-0.2786712646484375,-1.046554565429688,-0.44671630859375,329117.09840475,-1.589491451331144,-0.6326389769543942,1.27505947827654,329117.0466295833,-1.388530660556454,-0.2955464174888139,1.036214865969714,-2.012448072433472,0.4355014562606812,0.9903042316436768,0.08178814500570297,-0.09392479807138443,0.08805370330810547,XTrueNorthZVertical,0.2946123006278799,-0.4117133187372184,-0.6058298401961451,0.6137311873987867,-0.1483927667140961,-0.8604819178581238,-0.487391471862793,-3.685215473175049,-24.34054183959961,-42.20420837402344,2,0.0.0.0,10.144.231.151,1,0
2015-03-08 18:13:11.427,110,1425863591.15616,33.32490728903951,-111.9419473495104,355.9995,-1,-1,10,90.93705576117196,-9999,1425863591.368152,-5.788162231445312,-21.37680053710938,-42.76377868652344,3.562097549438477,353.03955078125,10,329117.1449965417,-0.131866455078125,-0.3724212646484375,-0.79669189453125,329117.09840475,-1.589491451331144,-0.6326389769543942,1.27505947827654,329117.09840475,-1.336347867547906,-0.3450916716700723,0.9300725461737946,-1.602959990501404,-0.6175195574760437,1.308499693870544,-0.07645388692617416,-0.2448912560939789,0.1158173307776451,XTrueNorthZVertical,0.2517140928409071,-0.3941740663380499,-0.6059755645682713,0.6434753034910115,-0.2022173702716827,-0.801663339138031,-0.5625336170196533,-5.382574558258057,-17.88719177246094,-45.14768981933594,2,0.0.0.0,10.144.231.151,1,0
2015-03-08 18:13:11.489,111,1425863591.15616,33.32490728903951,-111.9419473495104,355.9995,-1,-1,10,90.93705576117196,-9999,1425863591.442874,-7.936691284179688,-14.68148803710938,-44.66091918945312,358.9462890625,348.4237365722656,10,329117.1940120833,-0.356842041015625,-1.129867553710938,-0.46392822265625,329117.2019574583,-1.84384517335465,-0.03431935801952412,1.045126410816843,329117.150181125,-1.279671858387252,-0.3840460802164556,0.8147715851273737,-2.076672315597534,0.3445046544075012,1.501571655273438,0.1251734793186188,0.355147659778595,-0.1606305986642838,XTrueNorthZVertical,0.2073744172279022,-0.3727803719745947,-0.5987818816554594,0.6778576057815513,-0.2570399343967438,-0.7275689244270325,-0.6360613107681274,-6.65852689743042,-15.40152549743652,-45.88785171508789,2,0.0.0.0,10.144.231.151,1,0
2015-03-08 18:13:11.523,112,1425863591.15616,33.32490728903951,-111.9419473495104,355.9995,-1,-1,10,90.93705576117196,-9999,1425863591.49489,-8.80633544921875,-9.804412841796875,-45.17681503295898,357.1647033691406,346.6421508789062,10,329117.2430154583,-0.2612152099609375,-0.27374267578125,-0.965484619140625,329117.2019574583,-1.84384517335465,-0.03431935801952412,1.045126410816843,329117.2019574583,-1.252124289420404,-0.4114650350228157,0.7123042684297288,-1.857313394546509,-0.01920019276440144,1.078566074371338,-0.05413483083248138,-0.4762880504131317,0.229759156703949,XTrueNorthZVertical,0.1643934449262003,-0.3551494082732064,-0.5953241436537452,0.7017356248732863,-0.3027072250843048,-0.6535795331001282,-0.693687379360199,-6.962870121002197,-10.80880546569824,-47.13731002807617,2,0.0.0.0,10.144.231.151,1,0
2015-03-08 18:13:11.589,113,1425863591.15616,33.32490728903951,-111.9419473495104,355.9995,-1,-1,10,90.93705576117196,-9999,1425863591.547249,-9.437255859375,-4.7574462890625,-45.45972442626953,356.3521728515625,345.8296203613281,10,329117.29201825,-0.3642730712890625,-0.4389190673828125,-0.6902008056640625,329117.2537328334,-1.7754163144095,-1.167302121617536,1.160453536558288,329117.2537328334,-1.239800520151896,-0.4200296879674823,0.5971498687751614,-1.788884401321411,-1.152183175086975,1.19389283657074,-0.2230557352304459,0.1449752449989319,-0.1316422969102859,XTrueNorthZVertical,0.118410037112291,-0.3293151462515109,-0.5929648219388265,0.7252057278237306,-0.3372164964675903,-0.5622878670692444,-0.7550612092018127,-7.54018497467041,-3.394170761108398,-48.15457916259766,2,0.0.0.0,10.144.231.151,1,0
2015-03-08 18:13:11.625,114,1425863591.15616,33.32490728903951,-111.9419473495104,355.9995,-1,-1,10,90.93705576117196,-9999,1425863591.60228,-9.778297424316406,0.17059326171875,-45.659423828125,353.6231079101562,343.1005554199219,10,329117.3410213334,-0.5048065185546875,-0.335174560546875,-0.7620849609375,329117.3055090417,-2.069521976760182,0.4914552201893695,0.7888400327902667,329117.3055090417,-1.243267726771217,-0.4136744896525821,0.4896395500051827,-2.083016633987427,0.5066201686859131,0.822188675403595,0.06693403422832489,0.1867232322692871,0.0754278227686882,XTrueNorthZVertical,0.07680760741461896,-0.3001148649398925,-0.5934208529783048,0.7428885385444657,-0.3547453284263611,-0.4703078269958496,-0.8080633282661438,-8.614048004150391,-0.5172214508056641,-48.09125518798828,2,0.0.0.0,10.144.231.151,1,0
2015-03-08 18:13:11.689,115,1425863591.15616,33.32490728903951,-111.9419473495104,355.9995,-1,-1,10,90.93705576117196,-9999,1425863591.676403,-9.675979614257812,7.00189208984375,-44.8939094543457,351.2613525390625,340.7388000488281,10,329117.390035875,-0.469146728515625,-0.1800689697265625,-0.9386138916015625,329117.3572854584,-1.365457552002081,-0.5482268904110247,0.9434831393884429,329117.3572854584,-1.232651648970663,-0.4369361846118642,0.3984580247920015,-1.378952145576477,-0.5330621004104614,0.9768314361572266,-0.3765714466571808,-0.1044797897338867,0.1087237372994423,XTrueNorthZVertical,0.03485714281598569,-0.2850415308318935,-0.5881414502442472,0.7560595016036696,-0.3900148570537567,-0.3879976272583008,-0.8350726366043091,-7.605830669403076,4.199245452880859,-48.08071899414062,2,0.0.0.0,10.144.231.151,1,0
2015-03-08 18:13:11.726,116,1425863591.15616,33.32490728903951,-111.9419473495104,355.9995,-1,-1,10,90.93705576117196,-9999,1425863591.676403,-9.675979614257812,7.00189208984375,-44.8939094543457,351.2613525390625,340.7388000488281,10,329117.4390280417,-0.4662322998046875,-0.4312591552734375,-0.867095947265625,329117.4090605833,-1.115967827393496,0.3873043162785506,0.5695798497151709,329117.4090605833,-1.222305268560877,-0.4233079520139211,0.3233809072767289,-1.129462242126465,0.4024689197540283,0.6029278039932251,0.08144213259220123,0.2375585734844208,-0.2459054291248322,XTrueNorthZVertical,0.009931490878498411,-0.2601211989060108,-0.5813875105523157,0.77086115488283,-0.38948655128479,-0.3177740275859833,-0.8644766807556152,-7.687344551086426,9.635692596435547,-47.27892303466797,2,0.0.0.0,10.144.231.151,1,0
2015-03-08 18:13:11.773,117,1425863591.15616,33.32490728903951,-111.9419473495104,355.9995,-1,-1,10,90.93705576117196,-9999,1425863591.727639,-9.30084228515625,10.40054321289062,-44.19496154785156,351.1174011230469,340.5948486328125,10,329117.488085625,-0.468780517578125,0.097564697265625,-0.9048309326171875,329117.4608370417,-0.8442753287769201,0.1185916286056645,0.3214483372625262,329117.4608370417,-1.221583977980666,-0.4352351237579289,0.2770458636644433,-0.8577695488929749,0.133756086230278,0.3547959327697754,-0.08830459415912628,0.07179416716098785,-0.08071775734424591,XTrueNorthZVertical,-0.01219162589902155,-0.2524966442125287,-0.5790475818635534,0.775113370431836,-0.405546098947525,-0.2735153436660767,-0.8721936345100403,-7.481644630432129,11.13372039794922,-46.9819450378418,2,0.0.0.0,10.144.231.151,1,0
2015-03-08 18:13:11.825,118,1425863591.15616,33.32490728903951,-111.9419473495104,355.9995,-1,-1,10,90.93705576117196,-9999,1425863591.779925,-9.181480407714844,13.00051879882812,-43.84548950195312,350.1569213867188,339.6343688964844,10,329117.537023,-0.65606689453125,-0.3785400390625,-0.9124603271484375,329117.512613375,-0.5005800090323079,-0.1038640814614173,-0.2142110959644145,329117.512613375,-1.239968830979843,-0.4185312560948946,0.2458569386861071,-0.5140741467475891,-0.08869977295398712,-0.1808638274669647,-0.1039408817887306,0.05036390200257301,-0.258716493844986,XTrueNorthZVertical,-0.0221707622218737,-0.237492562621822,-0.584790108973349,0.7753233510050109,-0.394197553396225,-0.2433875799179077,-0.8862114548683167,-7.436612129211426,12.9466609954834,-46.52223968505859,2,0.0.0.0,10.144.231.151,1,0
2015-03-08 18:13:11.872,119,1425863591.15616,33.32490728903951,-111.9419473495104,355.9995,-1,-1,10,90.93705576117196,-9999,1425863591.832396,-9.522514343261719,14.63189697265625,-43.64579010009766,351.3829345703125,340.8603820800781,10,329117.586041,-0.397369384765625,-0.0968170166015625,-1.14215087890625,329117.56438875,0.08810003202091128,0.05055931434682731,-0.02712216517358498,329117.56438875,-1.238797268070055,-0.4227735642444236,0.239528816134656,0.07460600882768631,0.0657234787940979,0.006224801763892174,-0.2117282599210739,0.3336041867733002,-0.133216455578804,XTrueNorthZVertical,-0.02581810578960022,-0.237432925116388,-0.5839686277492744,0.7758477321315194,-0.3985775113105774,-0.2372449189424515,-0.8859180808067322,-7.372203826904297,14.27682304382324,-46.14175033569336,2,0.0.0.0,10.144.231.151,1,0
2015-03-08 18:13:11.918,120,1425863591.15616,33.32490728903951,-111.9419473495104,355.9995,-1,-1,10,90.93705576117196,-9999,1425863591.883329,-9.795341491699219,14.90380859375,-43.51265335083008,351.8455810546875,341.3230285644531,10,329117.63503575,-0.4757080078125,-0.06756591796875,-1.066635131835938,329117.6161650417,0.6172176763461813,0.06191263638994411,-0.2705537309344579,329117.6161650417,-1.230487800435927,-0.4345909990396463,0.2641872757901504,0.6037237644195557,0.07707663625478745,-0.2372071444988251,-0.3132798075675964,-0.03495671600103378,-0.08011594414710999,XTrueNorthZVertical,-0.01831594433688166,-0.248753412383857,-0.5818640373689931,0.7740933652938573,-0.4064314961433411,-0.2611248195171356,-0.8755725026130676,-7.516477584838867,13.95450878143311,-46.21701049804688,2,0.0.0.0,10.144.231.151,1,0
2015-03-08 18:13:11.969,121,1425863591.15616,33.32490728903951,-111.9419473495104,355.9995,-1,-1,10,90.93705576117196,-9999,1425863591.935629,-9.420204162597656,13.95217895507812,-43.21310424804688,351.1194152832031,340.5968627929688,10,329117.6840457917,-0.4620361328125,-0.4303436279296875,-0.8910675048828125,329117.6679414167,1.144605331227336,-0.2642532244275484,-0.706068453478386,329117.6679414167,-1.238226555099204,-0.4234075557289997,0.3109656434596327,1.1311115026474,-0.2490893751382828,-0.6727222204208374,0.2445724010467529,0.1190732046961784,-0.2193733006715775,XTrueNorthZVertical,0.002831109756323265,-0.2569201887855413,-0.587013209514813,0.7677235983294683,-0.3911635875701904,-0.3059781193733215,-0.8679680228233337,-7.686086654663086,12.56242942810059,-46.58699035644531,2,0.0.0.0,10.144.231.151,5,0
2015-03-08 18:13:12.027,122,1425863591.15616,33.32490728903951,-111.9419473495104,355.9995,-1,-1,10,90.93705576117196,-9999,1425863591.987013,-9.624824523925781,11.67507934570312,-43.7789192199707,352.3880004882812,341.8654479980469,10,329117.7330550417,-0.5009613037109375,-0.1489715576171875,-0.9572601318359375,329117.7197167084,1.313513127572304,0.02893923998534604,-0.7174425481780053,329117.6679414167,-1.238226555099204,-0.4234075557289997,0.3109656434596327,1.1311115026474,-0.2490893751382828,-0.6727222204208374,0.2445724010467529,0.1190732046961784,-0.2193733006715775,XTrueNorthZVertical,0.002831109756323265,-0.2569201887855413,-0.587013209514813,0.7677235983294683,-0.3911635875701904,-0.3059781193733215,-0.8679680228233337,-7.686086654663086,12.56242942810059,-46.58699035644531,2,0.0.0.0,10.144.231.151,5,0
2015-03-08 18:13:12.070,123,1425863591.15616,33.32490728903951,-111.9419473495104,355.9995,-1,-1,10,90.93705576117196,-9999,1425863592.040411,-9.863540649414062,8.922149658203125,-44.21159744262695,352.6370544433594,342.114501953125,10,329117.78209675,-0.153900146484375,-0.50958251953125,-1.026016235351562,329117.7714933333,1.510128984530674,0.1778746597352644,-1.053045320318194,329117.7714933333,-1.250169006808804,-0.4209043414939389,0.4616230554163975,1.496635437011719,0.193038210272789,-1.019699692726135,-0.08280400931835175,-0.0380881242454052,-0.0603773444890976,XTrueNorthZVertical,0.06241714060286443,-0.295822639030816,-0.5958330231756298,0.7440269521019212,-0.3658196330070496,-0.4454018771648407,-0.8171861171722412,-8.516810417175293,6.493488311767578,-47.67112731933594,2,0.0.0.0,10.144.231.151,5,0
2015-03-08 18:13:12.135,124,1425863591.15616,33.32490728903951,-111.9419473495104,355.9995,-1,-1,10,90.93705576117196,-9999,1425863592.092314,-10.37509918212891,5.5574951171875,-45.04368591308594,355.271484375,344.7489318847656,10,329117.83111075,-0.578704833984375,-0.619903564453125,-0.712615966796875,329117.8232695833,1.598295861894946,-0.5907541109101729,-1.157343763353403,329117.7714933333,-1.250169006808804,-0.4209043414939389,0.4616230554163975,1.496635437011719,0.193038210272789,-1.019699692726135,-0.08280400931835175,-0.0380881242454052,-0.0603773444890976,XTrueNorthZVertical,0.06241714060286443,-0.295822639030816,-0.5958330231756298,0.7440269521019212,-0.3658196330070496,-0.4454018771648407,-0.8171861171722412,-8.516810417175293,6.493488311767578,-47.67112731933594,2,0.0.0.0,10.144.231.151,5,0
2015-03-08 18:13:12.168,125,1425863592.140917,33.32495158169004,-111.9418864478005,356.1959,0.06544697,-1,10,200,-9999,1425863592.142752,-10.76728820800781,1.36016845703125,-45.72599411010742,357.4528198242188,346.9302673339844,10,329117.88014175,-0.330108642578125,-0.496826171875,-0.781768798828125,329117.8750448333,1.744818457697252,-0.05669443855004285,-1.216347695200763,329117.8232695833,-1.26904213763233,-0.4239540795750742,0.5573760991648241,1.584802508354187,-0.5755906701087952,-1.123998522758484,-0.100296325981617,-0.05732719227671623,0.1650706976652145,XTrueNorthZVertical,0.09668271589866811,-0.3223274625468487,-0.6037760572875071,0.7226423473239025,-0.3491055369377136,-0.5289612412452698,-0.7735149264335632,-8.309894561767578,2.864841461181641,-48.06221389770508,2,0.0.0.0,10.144.231.151,5,0
2015-03-08 18:13:12.227,126,1425863592.140917,33.32495158169004,-111.9418864478005,356.1959,0.06544697,-1,10,200,-9999,1425863592.19494,-11.05718231201172,-3.448944091796875,-45.84248733520508,359.1170349121094,348.594482421875,10,329117.9291515833,-0.445159912109375,-0.8211212158203125,-0.6663665771484375,329117.9268212917,1.991033293113367,-0.1499881673288267,-1.197309555516113,329117.8750448333,-1.290908437376516,-0.4190581743289839,0.656055773955701,1.731325268745422,-0.04153119400143623,-1.183002710342407,-0.05600365251302719,0.07197128236293793,-0.0907660573720932,XTrueNorthZVertical,0.133281864375832,-0.3468661387063365,-0.6105619710803608,0.6993811093265266,-0.3224295675754547,-0.6099961996078491,-0.7238396406173706,-9.313126564025879,-3.797157287597656,-47.81302642822266,2,0.0.0.0,10.144.231.151,5,0
2015-03-08 18:13:12.266,127,1425863592.140917,33.32495158169004,-111.9418864478005,356.1959,0.06544697,-1,10,200,-9999,1425863592.246982,-10.69908905029297,-8.86981201171875,-45.02704620361328,0.5637760162353516,350.0412292480469,10,329117.9781868334,-0.214691162109375,-0.76202392578125,-0.4064178466796875,329117.9785979167,2.528467456890737,-0.1104950862596056,-1.618832029692765,329117.9268212917,-1.314898739374035,-0.4167762916597455,0.7686035327373146,1.977540254592896,-0.1348250508308411,-1.163964867591858,-0.1476455479860306,-0.09615825861692429,0.03002553060650826,XTrueNorthZVertical,0.1731377644012827,-0.3759665962167218,-0.6156653273667767,0.6705435615309252,-0.2910141348838806,-0.6951320171356201,-0.6573448777198792,-9.355077743530273,-6.701793670654297,-47.48480224609375,2,0.0.0.0,10.144.231.151,5,0
2015-03-08 18:13:12.318,128,1425863592.140917,33.32495158169004,-111.9418864478005,356.1959,0.06544697,-1,10,200,-9999,1425863592.299723,-9.351997375488281,-14.86837768554688,-43.74564361572266,3.978357315063477,353.455810546875,10,329118.027199,-0.127685546875,-0.8822479248046875,-0.414886474609375,329117.9785979167,2.528467456890737,-0.1104950862596056,-1.618832029692765,329117.9785979167,-1.351851990074341,-0.3893958138780596,0.8942933175421568,2.514974594116211,-0.09533214569091797,-1.585487723350525,0.02298351190984249,0.01774291694164276,0.1727837175130844,XTrueNorthZVertical,0.2218108944808117,-0.4014961370732409,-0.6187155590034586,0.6378023723825464,-0.237674668431282,-0.779766857624054,-0.5792015790939331,-9.256318092346191,-11.41689300537109,-46.59627532958984,2,0.0.0.0,10.144.231.151,5,0
2015-03-08 18:13:12.361,129,1425863592.140917,33.32495158169004,-111.9418864478005,356.1959,0.06544697,-1,10,200,-9999,1425863592.351143,-6.964736938476562,-21.25784301757812,-41.61550903320312,6.271203994750977,355.7486572265625,10,329118.076336375,0.2024383544921875,-0.63287353515625,-0.1303558349609375,329118.082149625,3.834196963545065,-0.168619375998912,-1.875358891165775,329118.0303730417,-1.423276205243649,-0.3095981781695612,1.045668534151746,2.700868606567383,0.8127408623695374,-1.794673562049866,0.02505569905042648,-0.01698804087936878,0.06260224431753159,XTrueNorthZVertical,0.2863829452192782,-0.4233679823875821,-0.6173662769555289,0.5979993899825883,-0.1527412384748459,-0.8652598857879639,-0.4774887263774872,-6.672402381896973,-20.48273086547852,-43.85401916503906,2,0.0.0.0,10.144.231.151,1,0
2015-03-08 18:13:12.422,130,1425863592.140917,33.32495158169004,-111.9418864478005,356.1959,0.06544697,-1,10,200,-9999,1425863592.402919,-3.588481903076172,-28.42898559570312,-37.88778686523438,10.9084415435791,0.385894775390625,10,329118.1252425,-0.03985595703125,-0.653778076171875,0.207305908203125,329118.082149625,3.834196963545065,-0.168619375998912,-1.875358891165775,329118.082149625,-1.532058510715772,-0.192798459702554,1.229077769448429,3.820704460144043,-0.1534567326307297,-1.842015147209167,0.2666469216346741,0.3093066215515137,0.1985421031713486,XTrueNorthZVertical,0.3590760620673417,-0.4545496820465141,-0.6038007542195581,0.5476072018978524,-0.06420856714248657,-0.9421801567077637,-0.3288979232311249,-4.55333137512207,-24.5024528503418,-42.02540969848633,2,0.0.0.0,10.144.231.151,1,0
2015-03-08 18:13:12.459,131,1425863592.140917,33.32495158169004,-111.9418864478005,356.1959,0.06544697,-1,10,200,-9999,1425863592.454862,-0.02465057373046875,-34.29165649414062,-33.47775268554688,13.59548282623291,3.072935819625854,10,329118.17427475,0.47509765625,-1.120864868164062,-0.7371368408203125,329118.1339259584,3.51949441332371,0.5448934116745725,-1.217594853539247,329118.1339259584,-1.780885812213913,0.05216088152442031,1.431387228074544,3.506001710891724,0.5600559115409851,-1.184251546859741,-0.04710084944963455,0.3365201950073242,0.3460750579833984,XTrueNorthZVertical,0.427914344143568,-0.4974984741949032,-0.5756552791161187,0.4878581884529001,0.007244893815368414,-0.9902982711791992,-0.1387691646814346,-2.249306201934814,-31.38554763793945,-37.37815093994141,2,0.0.0.0,10.144.231.151,1,0
2015-03-08 18:13:12.521,132,1425863592.140917,33.32495158169004,-111.9418864478005,356.1959,0.06544697,-1,10,200,-9999,1425863592.506325,2.379657745361328,-37.46942138671875,-30.89830207824707,11.96530914306641,1.442762613296509,10,329118.2234237083,0.446929931640625,-0.828460693359375,-0.4903106689453125,329118.1857014584,0.4235363565929697,2.591044551972656,-0.4049999564576912,329118.1857014584,-2.309116376409132,0.668332111345756,1.479354306218723,0.4100439846515656,2.606206655502319,-0.3716570138931274,0.6305631995201111,-0.04075322672724724,-0.9470229148864746,XTrueNorthZVertical,0.4790470998508138,-0.4844371168830685,-0.5488565272293399,0.484346052521513,0.05658584460616112,-0.9958220720291138,-0.07166910916566849,2.911986827850342,-38.11927032470703,-30.42497825622559,2,0.0.0.0,10.144.231.151,1,0
2015-03-08 18:13:12.558,133,1425863592.140917,33.32495158169004,-111.9418864478005,356.1959,0.06544697,-1,10,200,-9999,1425863592.506325,2.379657745361328,-37.46942138671875,-30.89830207824707,11.96530914306641,1.442762613296509,10,329118.2724337917,-0.3628997802734375,-0.898590087890625,-0.04449462890625,329118.2374777917,-0.5963225144334197,-2.644349319087246,0.4996186078787894,329118.2374777917,-2.118971013313145,0.4453108643080859,1.497012228954423,-0.6098147630691528,-2.629187107086182,0.5329611897468567,0.2515569627285004,0.1740217357873917,-0.2341155409812927,XTrueNorthZVertical,0.4658877163828507,-0.4996843464316493,-0.5496879742227069,0.4807362591011451,0.03175298497080803,-0.997279167175293,-0.06652837991714478,4.461688995361328,-38.55232620239258,-29.68247985839844,2,0.0.0.0,10.144.231.151,1,0
2015-03-08 18:13:12.628,134,1425863592.140917,33.32495158169004,-111.9418864478005,356.1959,0.06544697,-1,10,200,-9999,1425863592.610107,0.07766342163085938,-36.05894470214844,-32.34612655639648,12.80685043334961,2.284303188323975,10,329118.3213444167,-0.124969482421875,-0.8347320556640625,-0.2142486572265625,329118.2892544583,-1.532389016502101,-0.2329634784640985,0.2422637696228732,329118.2892544583,-1.844440558862113,0.09300279747631669,1.455717526128377,-1.5458163022995,-0.2178124785423279,0.2755622267723083,-0.4994942545890808,-0.06288867443799973,0.06466160714626312,XTrueNorthZVertical,0.4290832654054976,-0.5086482750583571,-0.5756759892388527,0.4751438405450084,0.01066367700695992,-0.9933857321739197,-0.1143289655447006,0.6881646513938904,-38.14021682739258,-30.53012275695801,2,0.0.0.0,10.144.231.151,1,0
2015-03-08 18:13:12.655,135,1425863592.140917,33.32495158169004,-111.9418864478005,356.1959,0.06544697,-1,10,200,-9999,1425863592.610107,0.07766342163085938,-36.05894470214844,-32.34612655639648,12.80685043334961,2.284303188323975,10,329118.3704855417,0.1811370849609375,-0.7177276611328125,-0.145355224609375,329118.341029625,-1.940135490991991,1.622191341091791,0.7869728905500122,329118.341029625,-1.60228743144792,-0.08819258664260395,1.350660929802488,-1.953562617301941,1.637342095375061,0.8202709555625916,0.2607795596122742,0.37815061211586,0.1410972028970718,XTrueNorthZVertical,0.4099050260014334,-0.4724629764245071,-0.5791506971722877,0.5228203378758252,-0.01923294365406036,-0.9758678674697876,-0.2175132185220718,-0.700010359287262,-34.19709777832031,-34.88991928100586,2,0.0.0.0,10.144.231.151,1,0
2015-03-08 18:13:12.722,136,1425863592.140917,33.32495158169004,-111.9418864478005,356.1959,0.06544697,-1,10,200,-9999,1425863592.663338,-0.2633705139160156,-33.17010498046875,-35.14192199707031,9.702112197875977,359.1795654296875,10,329118.4193985417,0.3102264404296875,-1.010238647460938,-0.324981689453125,329118.39280625,-1.463992115490032,0.6491841315426204,0.4412724768206794,329118.39280625,-1.508087447410547,-0.1189348039470633,1.234876901085987,-1.477419137954712,0.664334774017334,0.4745702147483826,0.5580644011497498,0.1511388868093491,0.2137680649757385,XTrueNorthZVertical,0.3880902787591831,-0.4309658672924373,-0.5822861075663535,0.5697343906256673,-0.03911299630999565,-0.9441076517105103,-0.327308714389801,0.1764239072799683,-31.8111515045166,-37.08446502685547,2,0.0.0.0,10.144.231.151,1,0
2015-03-08 18:13:12.753,137,1425863592.140917,33.32495158169004,-111.9418864478005,356.1959,0.06544697,-1,10,200,-9999,1425863592.715822,-0.2463188171386719,-29.14268493652344,-38.353759765625,5.620111465454102,355.0975646972656,10,329118.4684232917,0.2952423095703125,-0.960113525390625,-0.0242156982421875,329118.444582625,-2.336418122253526,-1.232878202402993,0.9331522048878075,329118.444582625,-1.463132330774364,-0.1794207907911322,1.116744528692751,-2.349845170974731,-1.217727661132812,0.9664496779441833,0.153622180223465,0.1162066236138344,0.004140308126807213,XTrueNorthZVertical,0.3418995661276289,-0.4090475925040669,-0.5996157090916847,0.5968632886379599,-0.07827427983283997,-0.8986773490905762,-0.431569516658783,0.6455205678939819,-28.25237274169922,-39.85755157470703,2,0.0.0.0,10.144.231.151,1,0
2015-03-08 18:13:12.840,138,1425863592.140917,33.32495158169004,-111.9418864478005,356.1959,0.06544697,-1,10,200,-9999,1425863592.792344,-3.298595428466797,-22.46432495117188,-42.13141250610352,4.741388320922852,354.2188415527344,10,329118.5174387083,-0.0570220947265625,-0.60565185546875,-0.252899169921875,329118.496358,-2.310519679600832,-0.6386563894374282,1.04654188093622,329118.444582625,-1.463132330774364,-0.1794207907911322,1.116744528692751,-2.349845170974731,-1.217727661132812,0.9664496779441833,0.153622180223465,0.1162066236138344,0.004140308126807213,XTrueNorthZVertical,0.3418995661276289,-0.4090475925040669,-0.5996157090916847,0.5968632886379599,-0.07827427983283997,-0.8986773490905762,-0.431569516658783,0.6455205678939819,-28.25237274169922,-39.85755157470703,2,0.0.0.0,10.144.231.151,1,0
2015-03-08 18:13:12.851,139,1425863592.140917,33.32495158169004,-111.9418864478005,356.1959,0.06544697,-1,10,200,-9999,1425863592.843593,-6.060989379882812,-16.95852661132812,-44.32810974121094,3.546625137329102,353.0240783691406,10,329118.56646825,-0.293182373046875,-0.904083251953125,-0.6168365478515625,329118.5481345,-2.262854156094485,-0.5553218178711047,1.506725464657552,329118.5481345,-1.383585621009194,-0.3148792823162501,0.864991456371761,-2.276280641555786,-0.5401716232299805,1.540022134780884,-0.1505839824676514,-0.1370425969362259,0.2720590829849243,XTrueNorthZVertical,0.2279777621140773,-0.3736958336378304,-0.6226262001327076,0.6486248599740598,-0.2008869647979736,-0.7610897421836853,-0.6167551279067993,-4.998929500579834,-17.3270320892334,-45.40950012207031,2,0.0.0.0,10.144.231.151,1,0
2015-03-08 18:13:12.919,140,1425863592.140917,33.32495158169004,-111.9418864478005,356.1959,0.06544697,-1,10,200,-9999,1425863592.89536,-7.408088684082031,-10.5860595703125,-45.77593231201172,359.6927490234375,349.1701965332031,10,329118.61548,-0.051849365234375,-0.4574432373046875,-0.3458251953125,329118.599911125,-2.394820179694527,0.3311262646638741,1.461343335469839,329118.599911125,-1.320935593497505,-0.3325652162403674,0.7213715163637696,-2.408246755599976,0.3462763428688049,1.494639754295349,0.1152170225977898,0.4260554313659668,-0.2201590538024902,XTrueNorthZVertical,0.1798465756123056,-0.3358221983014947,-0.612223790379443,0.6928641432682062,-0.2451456189155579,-0.6604151725769043,-0.7097573280334473,-6.564010143280029,-12.10127830505371,-46.87974548339844,2,0.0.0.0,10.144.231.151,1,0
2015-03-08 18:13:12.950,141,1425863592.140917,33.32495158169004,-111.9418864478005,356.1959,0.06544697,-1,10,200,-9999,1425863592.89536,-7.408088684082031,-10.5860595703125,-45.77593231201172,359.6927490234375,349.1701965332031,10,329118.66451425,-0.4779052734375,-0.5211181640625,-0.496826171875,329118.6516865417,-2.060138328659288,-0.1301630635420588,1.874824394734997,329118.6516865417,-1.269121158972015,-0.3932927569700998,0.5889105796317643,-2.073564529418945,-0.1150131300091743,1.908120512962341,-0.2238054424524307,-0.2018687725067139,-0.2435676455497742,XTrueNorthZVertical,0.1183763639260011,-0.3193074656344663,-0.6020402446994781,0.7222031243222536,-0.3186750411987305,-0.5554554462432861,-0.7680595517158508,-7.444890022277832,-2.901435852050781,-48.20159149169922,2,0.0.0.0,10.144.231.151,1,0
2015-03-08 18:13:13.019,142,1425863592.140917,33.32495158169004,-111.9418864478005,356.1959,0.06544697,-1,10,200,-9999,1425863593.001075,-8.874542236328125,0.9693603515625,-46.20861053466797,352.7909240722656,342.2683715820312,10,329118.7135189167,-0.49462890625,-0.6207122802734375,-0.9150848388671875,329118.703462875,-1.774466897480887,-0.4983735800691773,1.393099832536558,329118.6516865417,-1.269121158972015,-0.3932927569700998,0.5889105796317643,-2.073564529418945,-0.1150131300091743,1.908120512962341,-0.2238054424524307,-0.2018687725067139,-0.2435676455497742,XTrueNorthZVertical,0.1183763639260011,-0.3193074656344663,-0.6020402446994781,0.7222031243222536,-0.3186750411987305,-0.5554554462432861,-0.7680595517158508,-7.444890022277832,-2.901435852050781,-48.20159149169922,2,0.0.0.0,10.144.231.151,1,0
2015-03-08 18:13:13.048,143,1425863592.140917,33.32495158169004,-111.9418864478005,356.1959,0.06544697,-1,10,200,-9999,1425863593.001075,-8.874542236328125,0.9693603515625,-46.20861053466797,352.7909240722656,342.2683715820312,10,329118.7625794167,-0.4462738037109375,0.0596923828125,-1.362548828125,329118.7552395834,-1.916795280882427,0.1958789602847451,0.5415996140383624,329118.7552395834,-1.22307062549614,-0.4220550772032569,0.3605004938132269,-1.930221319198608,0.2110285609960556,0.5748950839042664,0.01263831276446581,0.2315115183591843,0.1173124238848686,XTrueNorthZVertical,0.02521826834059122,-0.2693678221417745,-0.5830400984474682,0.7660739449320443,-0.3833048045635223,-0.352742612361908,-0.8536100387573242,-7.876268863677979,5.241329193115234,-47.93465423583984,2,0.0.0.0,10.144.231.151,1,0
2015-03-08 18:13:13.091,144,1425863592.140917,33.32495158169004,-111.9418864478005,356.1959,0.06544697,-1,10,200,-9999,1425863593.07722,-10.03407287597656,8.752227783203125,-44.744140625,350.9248657226562,340.4023132324219,10,329118.8115453334,-0.6253204345703125,-0.21539306640625,-0.9897003173828125,329118.7552395834,-1.916795280882427,0.1958789602847451,0.5415996140383624,329118.7552395834,-1.22307062549614,-0.4220550772032569,0.3605004938132269,-1.930221319198608,0.2110285609960556,0.5748950839042664,0.01263831276446581,0.2315115183591843,0.1173124238848686,XTrueNorthZVertical,0.02521826834059122,-0.2693678221417745,-0.5830400984474682,0.7660739449320443,-0.3833048045635223,-0.352742612361908,-0.8536100387573242,-7.876268863677979,5.241329193115234,-47.93465423583984,2,0.0.0.0,10.144.231.151,1,0
