loggingTime,loggingSample,locationTimestamp_since1970,locationLatitude,locationLongitude,locationAltitude,locationSpeed,locationCourse,locationVerticalAccuracy,locationHorizontalAccuracy,locationFloor,locationHeadingTimestamp_since1970,locationHeadingX,locationHeadingY,locationHeadingZ,locationTrueHeading,locationMagneticHeading,locationHeadingAccuracy,accelerometerTimestamp_sinceReboot,accelerometerAccelerationX,accelerometerAccelerationY,accelerometerAccelerationZ,gyroTimestamp_sinceReboot,gyroRotationX,gyroRotationY,gyroRotationZ,motionTimestamp_sinceReboot,motionYaw,motionRoll,motionPitch,motionRotationRateX,motionRotationRateY,motionRotationRateZ,motionUserAccelerationX,motionUserAccelerationY,motionUserAccelerationZ,motionAttitudeReferenceFrame,motionQuaternionX,motionQuaternionY,motionQuaternionZ,motionQuaternionW,motionGravityX,motionGravityY,motionGravityZ,motionMagneticFieldX,motionMagneticFieldY,motionMagneticFieldZ,motionMagneticFieldCalibrationAccuracy,activityTimestamp_sinceReboot,activity,activityActivityConfidence,activityActivityStartDate,pedometerStartDate,pedometerNumberofSteps,pedometerDistance,pedometerFloorAscended,pedometerFloorDescended,pedometerEndDate,altimeterTimestamp_sinceReboot,altimeterReset,altimeterRelativeAltitude,altimeterPressure,IP_en0,IP_pdp_ip0,deviceOrientation,state
2015-02-16 17:20:25.711,1,1424136019.983147,37.77934888872807,-122.4387631056451,55.68754,-1,-1,10,65,-9999,1424136025.6044,-27.79302215576172,-37.79910278320312,9.4053955078125,136.2305145263672,122.4495544433594,25,526925.3503247917,-0.222808837890625,-0.9354705810546875,-0.2163543701171875,526925.2465037917,0.004225371385519719,-0.04246836463905758,-0.01062814327828822,526925.2465037917,2.943280031831681,-0.8650043180935607,1.239053006030542,0.02129930630326271,-0.05017209053039551,-0.02025316655635834,-0.03216110914945602,0.001292645698413253,0.005689331796020269,XTrueNorthZVertical,0.3917591867319755,0.4908124596889951,0.7114625660818152,0.3153552227774605,-0.2478834539651871,-0.9454759955406189,-0.211255744099617,-28.30566024780273,-35.79817581176758,9.550906181335449,1,526920.2770250418,unknown,2,2015-02-16 17:20:20.560,null,0,0,0,0,null,0,0.03183746,100.667,192.168.1.3,10.191.100.224,1,0
2015-02-16 17:20:25.809,2,1424136019.983147,37.77934888872807,-122.4387631056451,55.68754,-1,-1,10,65,-9999,1424136025.721671,-28.07119750976562,-37.9378662109375,9.87493896484375,135.9472808837891,122.1663284301758,25,526925.4495557917,-0.2388763427734375,-0.9390716552734375,-0.1989288330078125,526925.3464337917,-0.1205463888457827,-0.3902905188088565,0.01780589504826979,526925.3464337917,2.929114718268002,-0.8597280223757322,1.242222259007375,-0.1034738048911095,-0.3979937434196472,0.008180818520486355,0.01870951056480408,0.007843776606023312,-0.002515488304197788,XTrueNorthZVertical,0.3930957829112261,0.4900751944324883,0.7093617897716427,0.3195432535900957,-0.2444938123226166,-0.9465034604072571,-0.2106040120124817,-28.07321166992188,-35.95708084106445,9.639652252197266,1,526920.2770250418,unknown,2,2015-02-16 17:20:20.560,null,0,0,0,0,null,0,0.03183746,100.667,192.168.1.3,10.191.100.224,1,0
2015-02-16 17:20:25.909,3,1424136019.983147,37.77934888872807,-122.4387631056451,55.68754,-1,-1,10,65,-9999,1424136025.84094,-26.74985122680664,-37.59098815917969,11.21670532226562,139.5351409912109,125.7541809082031,25,526925.5488107917,-0.2987823486328125,-0.9228973388671875,-0.1564788818359375,526925.5463047917,0.02855361425950257,-0.7703531674512637,-0.01529986046250522,526925.4463687917,2.901168935360168,-0.8959871611760755,1.235167052766324,0.03275539353489876,-0.5457939505577087,-0.07414881885051727,0.01572054624557495,0.01134190894663334,0.001972888363525271,XTrueNorthZVertical,0.41318690168065,0.4758066274687566,0.6994438007574518,0.3371394927354636,-0.257175624370575,-0.94420325756073,-0.205769270658493,-27.5633430480957,-36.06021118164062,10.6706714630127,1,526920.2770250418,unknown,2,2015-02-16 17:20:20.560,null,0,0,0,0,null,0,0.03183746,100.667,192.168.1.3,10.191.100.224,1,0
2015-02-16 17:20:26.021,4,1424136025.950518,37.77933603749697,-122.4387459588775,55.02693,-1,-1,10,65,-9999,1424136025.961748,-25.77622985839844,-37.38285827636719,13.83316040039062,143.3009185791016,129.5199584960938,25,526925.6480447917,-0.289794921875,-0.9332275390625,-0.0602264404296875,526925.5463047917,0.02855361425950257,-0.7703531674512637,-0.01529986046250522,526925.5463047917,2.909449793986733,-0.9808153546205269,1.235521854196036,0.04562966153025627,-0.7780556678771973,-0.02493147924542427,-0.02064551971852779,0.01989681832492352,0.02536907605826855,XTrueNorthZVertical,0.4405265267987062,0.4630439271131626,0.6826694927616129,0.3542443998802153,-0.273406594991684,-0.944320023059845,-0.1830534040927887,-26.684326171875,-36.05611801147461,12.72174263000488,1,526920.2770250418,unknown,2,2015-02-16 17:20:20.560,null,0,0,0,0,null,0,0.03183746,100.667,192.168.1.3,10.191.100.224,1,0
2015-02-16 17:20:26.107,5,1424136025.950518,37.77933603749697,-122.4387459588775,55.02693,-1,-1,10,65,-9999,1424136026.078925,-24.31579208374023,-37.03599548339844,16.583740234375,146.5869750976562,132.8060150146484,25,526925.7472777917,-0.2061614990234375,-0.954986572265625,0.0078277587890625,526925.6462617917,0.3676323442544623,-0.2201558041496894,-0.07229044252576489,526925.6462617917,2.944424874159574,-1.077321875885092,1.253337337805111,0.3846544921398163,-0.2279119044542313,-0.08191133290529251,-0.0333162322640419,0.02296868152916431,0.08418869972229004,XTrueNorthZVertical,0.4630420112018809,0.4600655191897028,0.6623027904327706,0.3678136187573748,-0.2749113142490387,-0.9500316977500916,-0.1478636264801025,-25.31903457641602,-36.06431579589844,15.23979377746582,1,526920.2770250418,unknown,2,2015-02-16 17:20:20.560,null,0,0,0,0,null,0,0.03183746,100.667,192.168.1.3,10.191.100.224,1,0
2015-02-16 17:20:26.206,6,1424136025.950518,37.77933603749697,-122.4387459588775,55.02693,-1,-1,10,65,-9999,1424136026.179558,-21.18629455566406,-36.34222412109375,20.87741088867188,152.6026306152344,138.8216705322266,25,526925.8465207916,-0.3421783447265625,-0.987457275390625,-0.0884246826171875,526925.7461837917,0.3215828268975752,-2.289863935870069,0.04716298500864926,526925.7461837917,3.096504252171095,-1.326942535730053,1.284625277886749,0.3386121094226837,-2.297622442245483,0.03754521161317825,0.1085703000426292,0.0003168530238326639,0.04027733951807022,XTrueNorthZVertical,0.5036370334223478,0.4607300348616239,0.6223719945607535,0.3830544404807448,-0.2739298045635223,-0.959331750869751,-0.06815514713525772,-24.00825500488281,-35.62093734741211,18.12987327575684,1,526920.2770250418,unknown,2,2015-02-16 17:20:20.560,null,0,0,0,0,null,0,0.03183746,100.667,192.168.1.3,10.191.100.224,1,0
2015-02-16 17:20:26.305,7,1424136025.950518,37.77933603749697,-122.4387459588775,55.02693,-1,-1,10,65,-9999,1424136026.294568,-19.20428466796875,-36.16876220703125,23.39315795898438,156.7006683349609,142.9197082519531,25,526925.9457477917,-0.1963043212890625,-0.9735260009765625,0.004638671875,526925.8461137917,0.2700567850750491,-0.1409414091058275,-0.2756467602031255,526925.8461137917,-3.08281161165909,-1.533038477827428,1.309474915675181,0.2870857417583466,-0.1486998796463013,-0.2852643132209778,-0.09535758197307587,-0.013625867664814,-0.08445505797863007,XTrueNorthZVertical,0.5370666800839249,0.4546240527742343,0.5835366418540904,0.4054150587237934,-0.2581732869148254,-0.9660494327545166,-0.009752703830599785,-20.21242141723633,-35.15422058105469,23.0125675201416,1,526920.2770250418,unknown,2,2015-02-16 17:20:20.560,null,0,0,0,0,null,0,0.03183746,100.667,192.168.1.3,10.191.100.224,1,0
2015-02-16 17:20:26.420,8,1424136025.950518,37.77933603749697,-122.4387459588775,55.02693,-1,-1,10,65,-9999,1424136026.395712,-17.84815979003906,-36.61970520019531,23.62796020507812,159.0784912109375,145.2975311279297,25,526926.0449867917,-0.3272705078125,-0.955291748046875,0.011993408203125,526925.9460537917,0.01439944569794943,-0.08955385165998553,-0.1843381517008867,526925.9460537917,-3.030546251819955,-1.581593641784152,1.33494512548793,0.03142803907394409,-0.09731215983629227,-0.1939555257558823,0.03735289350152016,-0.00121020816732198,0.0021157031878829,XTrueNorthZVertical,0.5333246879785704,0.4656460689165399,0.5759171677388353,0.408727246513389,-0.2336572110652924,-0.972315788269043,0.0025229686871171,-19.16757583618164,-35.26770782470703,23.72198677062988,1,526920.2770250418,unknown,2,2015-02-16 17:20:20.560,null,0,0,0,0,null,0,0.03183746,100.667,192.168.1.3,10.191.100.224,1,0
2015-02-16 17:20:26.505,9,1424136025.950518,37.77933603749697,-122.4387459588775,55.02693,-1,-1,10,65,-9999,1424136026.395712,-17.84815979003906,-36.61970520019531,23.62796020507812,159.0784912109375,145.2975311279297,25,526926.1442227917,-0.1910858154296875,-0.9886322021484375,-0.0262298583984375,526926.0459847917,-0.2738557843700472,-0.4291881170583358,0.1099640519382438,526926.0459847917,-3.095201510533458,-1.57837901506283,1.332414115562969,-0.2568275332450867,-0.4369462430477142,0.1003468632698059,-0.09114626795053482,0.01642950810492039,0.01020291727036238,XTrueNorthZVertical,0.5477636340108287,0.4481631919900589,0.563820454787019,0.4256891821598194,-0.2361242324113846,-0.9717212319374084,0.001790490816347301,-17.93366241455078,-35.52374267578125,24.29788589477539,1,526920.2770250418,unknown,2,2015-02-16 17:20:20.560,null,0,0,0,0,null,0,0.03183746,100.667,192.168.1.3,10.191.100.224,1,0
2015-02-16 17:20:26.602,10,1424136025.950518,37.77933603749697,-122.4387459588775,55.02693,-1,-1,10,65,-9999,1424136026.514306,-17.1527099609375,-36.75843811035156,23.695068359375,161.3026885986328,147.521728515625,25,526926.2434837917,-0.20709228515625,-0.982879638671875,-0.0167083740234375,526926.1459207917,-0.1976275918564911,0.1431113527620241,-0.142369396082328,526926.1459207917,3.119352722078815,-1.502178582823422,1.336217973434365,-0.1805993765592575,0.1353520303964615,-0.1519773900508881,0.04080024361610413,-0.01601976901292801,-0.01029334031045437,XTrueNorthZVertical,0.5407102061327852,0.4468380177241974,0.5690520779262348,0.4291247160809887,-0.2318860590457916,-0.9726124405860901,-0.01593651808798313,-17.78368377685547,-35.95452117919922,23.76873207092285,1,526920.2770250418,unknown,2,2015-02-16 17:20:20.560,null,0,0,0,0,null,0,0.03183746,100.667,192.168.1.3,10.191.100.224,1,0
2015-02-16 17:20:26.702,11,1424136025.950518,37.77933603749697,-122.4387459588775,55.02693,-1,-1,10,65,-9999,1424136026.630483,-16.21385955810547,-37.55628967285156,22.78939819335938,163.093994140625,149.3130340576172,25,526926.3427137916,-0.142730712890625,-0.9091033935546875,0.029449462890625,526926.2458577917,-0.3348496301839139,-0.3803183121070548,-0.3599235581631189,526926.2458577917,2.98425485972904,-1.402929996613041,1.357633889710521,-0.317821741104126,-0.3880774676799774,-0.3695313334465027,0.001485987682826817,-0.005512855015695095,0.0186375267803669,XTrueNorthZVertical,0.5384161837690401,0.438674210682213,0.5608720473668981,0.4506612107381648,-0.2085782736539841,-0.9773668050765991,-0.0353459008038044,-16.45532608032227,-36.9423942565918,23.20390892028809,1,526920.2770250418,unknown,2,2015-02-16 17:20:20.560,null,0,0,0,0,null,0,0.03183746,100.667,192.168.1.3,10.191.100.224,1,0
2015-02-16 17:20:26.803,12,1424136025.950518,37.77933603749697,-122.4387459588775,55.02693,-1,-1,10,65,-9999,1424136026.749713,-12.94527053833008,-39.01316833496094,21.64895629882812,168.3968353271484,154.6158752441406,25,526926.4419617917,-0.0625762939453125,-0.9434356689453125,-0.0220794677734375,526926.3457937917,-0.1490888178287069,0.02614398610519887,-0.7062101336483781,526926.3457937917,2.793162069675638,-1.223783039745858,1.405649082860741,-0.1320579200983047,0.01838380843400955,-0.7158163189888,0.01186772249639034,0.07729076594114304,0.0853595957159996,XTrueNorthZVertical,0.5233683293086838,0.4451185501923103,0.5507677638390239,0.4739303418337954,-0.1545984297990799,-0.9863941669464111,-0.0559101365506649,-14.46276092529297,-38.16226959228516,22.54793167114258,1,526920.2770250418,unknown,2,2015-02-16 17:20:20.560,null,0,0,0,0,null,0,0.03183746,100.667,192.168.1.3,10.191.100.224,1,0
2015-02-16 17:20:26.901,13,1424136025.950518,37.77933603749697,-122.4387459588775,55.02693,-1,-1,10,65,-9999,1424136026.868933,-8.70306396484375,-40.40069580078125,22.31982421875,174.6631317138672,160.8821716308594,25,526926.5412117917,-0.1886749267578125,-0.961639404296875,-0.069122314453125,526926.4457227917,0.1606996675492344,-0.2578158314406089,-0.8677910412023198,526926.4457227917,2.514903959808978,-0.9393764809728231,1.484888270166105,0.1777303516864777,-0.2655758857727051,-0.8773970603942871,0.006682855077087879,0.05287650227546692,0.02856916934251785,XTrueNorthZVertical,0.503083581710138,0.470725601276638,0.5307126594046626,0.4936278169913855,-0.0692591518163681,-0.9963122010231018,-0.05064863711595535,-11.44179534912109,-39.27299118041992,22.37537002563477,1,526920.2770250418,unknown,2,2015-02-16 17:20:20.560,null,0,0,0,0,null,0,0.03183746,100.667,192.168.1.3,10.191.100.224,1,0
2015-02-16 17:20:27.000,14,1424136025.950518,37.77933603749697,-122.4387459588775,55.02693,-1,-1,10,65,-9999,1424136026.969048,-4.947662353515625,-40.33131408691406,22.99066162109375,181.2843475341797,167.5033874511719,25,526926.6404247917,-0.154327392578125,-1.03631591796875,-0.1081695556640625,526926.5456647917,-0.07286941374674812,-0.6609033719195141,-0.4574160267165217,526926.5456647917,1.416239163027347,0.1009304608585291,1.52851590965742,-0.05583904311060905,-0.6686633229255676,-0.4670217633247375,-0.1929338723421097,0.03746691346168518,-0.02706891484558582,XTrueNorthZVertical,0.5012809608945257,0.4771694648224978,0.4954431702288644,0.5249407543740996,0.004258940927684307,-0.9991062879562378,-0.04205340147018433,-7.537535190582275,-39.7634391784668,23.15155029296875,1,526920.2770250418,unknown,2,2015-02-16 17:20:20.560,null,0,0,0,0,null,0,0.03183746,100.667,192.168.1.3,10.191.100.224,1,0
2015-02-16 17:20:27.101,15,1424136025.950518,37.77933603749697,-122.4387459588775,55.02693,-1,-1,10,65,-9999,1424136027.086753,-3.000419616699219,-40.88633728027344,22.11862182617188,184.3151550292969,170.5341949462891,25,526926.7396877917,-0.1206207275390625,-0.7752685546875,-0.044586181640625,526926.6456007917,-0.1196070919293117,0.3979553627422135,-0.4892466606973668,526926.6456007917,0.8608588374839705,0.6452529425954125,1.505225600077829,-0.1026220917701721,0.3901451826095581,-0.498844176530838,-0.1937336772680283,-0.03846490755677223,-0.05581915751099586,XTrueNorthZVertical,0.4925855383834798,0.4808162724183645,0.4858040748461295,0.5386739559879121,0.03940628468990326,-0.9978510141372681,-0.05235039815306664,-5.114811897277832,-40.16036987304688,23.12840461730957,1,526920.2770250418,unknown,2,2015-02-16 17:20:20.560,null,0,0,0,0,null,0,0.03183746,100.667,192.168.1.3,10.191.100.224,1,0
2015-02-16 17:20:27.203,16,1424136025.950518,37.77933603749697,-122.4387459588775,55.02693,-1,-1,10,65,-9999,1424136027.086753,-3.000419616699219,-40.88633728027344,22.11862182617188,184.3151550292969,170.5341949462891,25,526926.8389307917,-0.0438232421875,-0.7865447998046875,-0.072906494140625,526926.7455257917,-0.3810448224524284,0.1318062339346377,-0.5318939897616777,526926.7455257917,0.6605115792345713,0.8651499177288184,1.449403749337491,-0.364065408706665,0.1239969357848167,-0.5414835810661316,-0.2127972394227982,0.2173724174499512,0.03394700214266777,XTrueNorthZVertical,0.4675460827731371,0.4920712034533337,0.4833090628870905,0.5528824209452581,0.09217651933431625,-0.9926409721374512,-0.07853318005800247,-3.705782651901245,-40.79081726074219,22.27814865112305,1,526920.2770250418,unknown,2,2015-02-16 17:20:20.560,null,0,0,0,0,null,0,0.0793457,100.6664,192.168.1.3,10.191.100.224,1,0
2015-02-16 17:20:27.302,17,1424136025.950518,37.77933603749697,-122.4387459588775,55.02693,-1,-1,10,65,-9999,1424136027.205463,-1.29656982421875,-42.37789916992188,20.27371215820312,185.4479522705078,171.6669921875,25,526926.9381527917,0.013153076171875,-0.707427978515625,-0.0992279052734375,526926.8454797918,0.1106639306727166,0.9439838136733778,-0.5608281697409526,526926.8454797918,0.5395677571378501,1.04577995967761,1.399398590688124,0.1276429891586304,0.9361746311187744,-0.570417582988739,-0.1914114356040955,0.1988025307655334,0.01258277799934149,XTrueNorthZVertical,0.4359316416835346,0.5169322658504426,0.4866202783716943,0.5531232877242522,0.1475881934165955,-0.9853473305702209,-0.08548927307128906,-2.264965057373047,-41.58727264404297,20.95967864990234,1,526920.2770250418,unknown,2,2015-02-16 17:20:20.560,null,0,0,0,0,null,0,0.0793457,100.6664,192.168.1.3,10.191.100.224,1,0
2015-02-16 17:20:27.399,18,1424136025.950518,37.77933603749697,-122.4387459588775,55.02693,-1,-1,10,65,-9999,1424136027.324214,1.415664672851562,-41.47601318359375,21.2799072265625,187.7933654785156,174.0124053955078,25,526927.0374037917,0.11474609375,-0.87066650390625,0.0568695068359375,526926.9454087917,-0.0730606287130158,0.4317364959054327,-1.015929376837977,526926.9454087917,0.3396624802700893,1.30048306283949,1.328107913597295,-0.05608190968632698,0.423927515745163,-1.025518536567688,-0.2184337377548218,0.263267457485199,-0.03505625948309898,XTrueNorthZVertical,0.4029144583233614,0.5527875865382679,0.4736752224571519,0.554723027750753,0.2315868139266968,-0.970695436000824,-0.06417164951562881,-0.4197673797607422,-41.43494415283203,21.37542915344238,1,526920.2770250418,unknown,2,2015-02-16 17:20:20.560,null,0,0,0,0,null,0,0.0793457,100.6664,192.168.1.3,10.191.100.224,1,0
2015-02-16 17:20:27.498,19,1424136025.950518,37.77933603749697,-122.4387459588775,55.02693,-1,-1,10,65,-9999,1424136027.44279,1.798171997070312,-41.44131469726562,19.90457153320312,183.7796020507812,169.9986419677734,25,526927.1366397917,0.6855010986328125,-0.9494171142578125,-0.02569580078125,526927.0453457917,0.1607635834153963,2.799045688907223,-0.3507436418856159,526927.0453457917,0.3025473747850549,1.480436738029326,1.252078687636169,0.1777419596910477,2.791236639022827,-0.3603326976299286,-0.1973246783018112,0.07897152006626129,0.08514509350061417,XTrueNorthZVertical,0.3453088065497862,0.6054948685477899,0.4808360842917346,0.5319158606096032,0.3120707869529724,-0.9496380090713501,-0.02827558480203152,0.747136116027832,-41.59645843505859,21.05032920837402,1,526920.2770250418,unknown,2,2015-02-16 17:20:20.560,null,0,0,0,0,null,0,0.0793457,100.6664,192.168.1.3,10.191.100.224,1,0
2015-02-16 17:20:27.599,20,1424136025.950518,37.77933603749697,-122.4387459588775,55.02693,-1,-1,10,65,-9999,1424136027.561426,-1.609512329101562,-41.6494140625,20.17294311523438,174.9571228027344,161.1761627197266,25,526927.2359407917,0.3637237548828125,-0.981292724609375,-0.03173828125,526927.1452807917,-0.119920545989614,0.1193985664159585,0.1984800697214255,526927.1452807917,0.3208254179534707,1.634176624156995,1.253605837389022,-0.1029425039887428,0.1115898862481117,0.1888912171125412,0.3742288053035736,0.000698334421031177,-0.04545079171657562,XTrueNorthZVertical,0.3019303238534636,0.6470823551189282,0.5107309158506127,0.4788282231338122,0.3112722933292389,-0.950115442276001,0.01975498907268047,-3.431719779968262,-41.62107086181641,20.73281288146973,1,526920.2770250418,unknown,2,2015-02-16 17:20:20.560,null,0,0,0,0,null,0,0.0793457,100.6664,192.168.1.3,10.191.100.224,1,0
2015-02-16 17:20:27.701,21,1424136025.950518,37.77933603749697,-122.4387459588775,55.02693,-1,-1,10,65,-9999,1424136027.679724,-2.72222900390625,-42.75944519042969,18.16030883789062,174.3013305664062,160.5203704833984,25,526927.3351587917,0.157073974609375,-1.084320068359375,-0.0379791259765625,526927.2452467917,-0.5726818997528953,-0.2489512334361711,0.3899208720495535,526927.2452467917,0.4922770116772982,1.421006913206359,1.289262357141638,-0.5557041764259338,-0.2567597627639771,0.3803322017192841,0.08900509029626846,-0.0206623375415802,0.009722213260829449,XTrueNorthZVertical,0.3147489373924478,0.6166059190108395,0.5277434791443644,0.4921555625158888,0.2747186720371246,-0.9606303572654724,-0.04146049544215202,-4.130986213684082,-42.37025833129883,19.01671600341797,1,526920.2770250418,unknown,2,2015-02-16 17:20:20.560,null,0,0,0,0,null,0,0.0793457,100.6664,192.168.1.3,10.191.100.224,1,0
2015-02-16 17:20:27.797,22,1424136025.950518,37.77933603749697,-122.4387459588775,55.02693,-1,-1,10,65,-9999,1424136027.780146,-4.912887573242188,-43.69601440429688,15.64453125,169.7028961181641,155.9219360351562,25,526927.4343897917,0.2404632568359375,-0.9875335693359375,-0.1092529296875,526927.3451947917,-0.491572399277333,0.2570184810102392,0.3678539192571569,526927.3451947917,0.7304751913477769,1.205704893487115,1.304126578566145,-0.4745950698852539,0.2492101192474365,0.3582654595375061,-0.1043064296245575,-0.1381446272134781,0.1048891767859459,XTrueNorthZVertical,0.3059210263111111,0.5994742276086729,0.5552204435567235,0.4886443139892483,0.2461521327495575,-0.9646538496017456,-0.09408595412969589,-5.457357406616211,-43.21270751953125,16.63786888122559,1,526920.2770250418,unknown,2,2015-02-16 17:20:20.560,null,0,0,0,0,null,0,0.0793457,100.6664,192.168.1.3,10.191.100.224,1,0
2015-02-16 17:20:27.898,23,1424136025.950518,37.77933603749697,-122.4387459588775,55.02693,-1,-1,10,65,-9999,1424136027.780146,-4.912887573242188,-43.69601440429688,15.64453125,169.7028961181641,155.9219360351562,25,526927.5336267917,0.2675933837890625,-0.884857177734375,-0.0455780029296875,526927.4451317918,-0.5444649090551787,0.8960114940094535,0.4632941558745446,526927.4451317918,0.9908472593806487,1.011771279738598,1.323576875490838,-0.5274878740310669,0.8882032632827759,0.4537058770656586,0.05299468338489532,0.02378055453300476,0.005302645731717348,XTrueNorthZVertical,0.2911849083887266,0.5918778806508552,0.5900536971504198,0.4655411780343683,0.2074575871229172,-0.9695965647697449,-0.1297838538885117,-8.208583831787109,-43.69580078125,14.04406642913818,1,526920.2770250418,unknown,2,2015-02-16 17:20:20.560,null,0,0,0,0,null,0,0.0793457,100.6664,192.168.1.3,10.191.100.224,1,0
2015-02-16 17:20:27.994,24,1424136025.950518,37.77933603749697,-122.4387459588775,55.02693,-1,-1,10,65,-9999,1424136027.899289,-8.320549011230469,-43.21038818359375,13.02813720703125,162.9025115966797,149.1215515136719,25,526927.6328667917,0.2336883544921875,-1.058334350585938,-0.121826171875,526927.5450667917,-0.6548955468164044,0.5422025537091564,0.6664837596676662,526927.5450667917,1.327630131098144,0.7510359247636648,1.327055364166462,-0.6379189491271973,0.5343945622444153,0.6568948030471802,0.09152434021234512,0.09147465974092484,0.1280868947505951,XTrueNorthZVertical,0.2732859247053946,0.5806109408374049,0.6294925593274175,0.4381151525944349,0.164685994386673,-0.9704419374465942,-0.1764114797115326,-11.53982162475586,-43.91382598876953,10.59944725036621,1,526920.2770250418,unknown,2,2015-02-16 17:20:20.560,null,0,0,0,0,null,0,0.0793457,100.6664,192.168.1.3,10.191.100.224,1,0
2015-02-16 17:20:28.096,25,1424136025.950518,37.77933603749697,-122.4387459588775,55.02693,-1,-1,10,65,-9999,1424136028.018094,-12.49321746826172,-43.21041870117188,9.0699462890625,154.5125579833984,140.7315979003906,25,526927.7320987917,0.0930023193359375,-1.056854248046875,-0.2606964111328125,526927.6450037917,-0.2853675644980236,0.2887790738544151,0.8990421713299636,526927.6450037917,1.701322861899118,0.4300585176057893,1.333450780729633,-0.2683902680873871,0.2809712886810303,0.889452338218689,0.1322875320911407,-0.1103098690509796,0.07191356271505356,XTrueNorthZVertical,0.2723951373242773,0.5647513992890252,0.6641553171237528,0.4071295756181688,0.09802863746881485,-0.9719655513763428,-0.2137134969234467,-14.81307601928711,-43.45972442626953,8.109542846679688,1,526920.2770250418,unknown,2,2015-02-16 17:20:20.560,null,0,0,0,0,null,0,0.0793457,100.6664,192.168.1.3,10.191.100.224,1,0
2015-02-16 17:20:28.194,26,1424136025.950518,37.77933603749697,-122.4387459588775,55.02693,-1,-1,10,65,-9999,1424136028.134798,-17.01361465454102,-41.75349426269531,7.6611328125,147.8310089111328,134.050048828125,25,526927.8313477917,0.018310546875,-0.96942138671875,-0.2960205078125,526927.7449387917,-0.2540834111728629,-0.06082872982628187,0.6744135881294862,526927.7449387917,2.072841525131654,0.0710089677071685,1.332665372424336,-0.2371437102556229,-0.06868415325880051,0.6648294925689697,0.02171614021062851,-0.07553695142269135,-0.03419309109449387,XTrueNorthZVertical,0.2905921806106628,0.5458113164209983,0.6872502107108768,0.3812261399172135,0.01673600822687149,-0.97178053855896,-0.2352923899888992,-18.8038387298584,-42.10763931274414,6.877651214599609,1,526920.2770250418,unknown,2,2015-02-16 17:20:20.560,null,0,0,0,0,null,0,0.0793457,100.6664,192.168.1.3,10.191.100.224,1,0
2015-02-16 17:20:28.292,27,1424136025.950518,37.77933603749697,-122.4387459588775,55.02693,-1,-1,10,65,-9999,1424136028.255192,-19.79539489746094,-40.78224182128906,6.45361328125,144.1630249023438,130.3820648193359,25,526927.9305917918,0.0903167724609375,-0.9834442138671875,-0.1201324462890625,526927.8448767917,-0.3294777679491151,0.06168227295565226,0.3899459057638002,526927.8448767917,2.283427150796111,-0.1270666303242685,1.304067429040775,-0.3125384151935577,0.05382700636982918,0.3803620338439941,0.03927648440003395,-0.01607464626431465,-0.02143017388880253,XTrueNorthZVertical,0.2978343339724721,0.5296871255273576,0.7053096642976703,0.3650541965923051,-0.03340185061097145,-0.9646382331848145,-0.2614525258541107,-21.30692100524902,-41.0850830078125,5.654275894165039,1,526927.8865827917,unknown,2,2015-02-16 17:20:28.182,null,0,0,0,0,null,0,0.0793457,100.6664,192.168.1.3,10.191.100.224,1,0
2015-02-16 17:20:28.392,28,1424136025.950518,37.77933603749697,-122.4387459588775,55.02693,-1,-1,10,65,-9999,1424136028.373302,-21.39491653442383,-39.74160766601562,4.44110107421875,140.0124359130859,126.2314834594727,25,526928.0298307918,-0.0805206298828125,-0.97186279296875,-0.18609619140625,526927.9448087917,-0.1729049348250675,0.7540732637076093,0.2608848582808162,526927.9448087917,2.36179315347376,-0.1372243193817344,1.272984255945993,-0.1559630930423737,0.7462182641029358,0.2512979805469513,0.1702816039323807,-0.01604986004531384,0.1143098995089531,XTrueNorthZVertical,0.2763847028423077,0.5275187230542432,0.726590431124104,0.3426395609156727,-0.04013939201831818,-0.9559807777404785,-0.2906709909439087,-22.54714393615723,-40.66267395019531,3.480354309082031,1,526927.8865827917,unknown,2,2015-02-16 17:20:28.182,null,0,0,0,0,null,0,0.0793457,100.6664,192.168.1.3,10.191.100.224,1,0
2015-02-16 17:20:28.504,29,1424136025.950518,37.77933603749697,-122.4387459588775,55.02693,-1,-1,10,65,-9999,1424136028.491804,-20.97764205932617,-39.81098937988281,7.25872802734375,142.9088287353516,129.1278686523438,25,526928.1290637917,-0.362823486328125,-1.155990600585938,-0.2950897216796875,526928.0447397917,0.4012763246215423,-0.2239510750191613,0.1418399596576202,526928.0447397917,2.461122134491457,-0.3044364582376102,1.27456523820904,0.4182178378105164,-0.2318058907985687,0.1322532743215561,0.08005765080451965,-0.02237731032073498,0.09770794957876205,XTrueNorthZVertical,0.3111477137528108,0.5137509701203953,0.7187750071331298,0.350156480007336,-0.08750393986701965,-0.9564434885978699,-0.2784940898418427,-23.5610523223877,-39.97840881347656,4.532472610473633,1,526927.8865827917,unknown,2,2015-02-16 17:20:28.182,null,0,0,0,0,null,0,0.0793457,100.6664,192.168.1.3,10.191.100.224,1,0
2015-02-16 17:20:28.590,30,1424136025.950518,37.77933603749697,-122.4387459588775,55.02693,-1,-1,10,65,-9999,1424136028.491804,-20.97764205932617,-39.81098937988281,7.25872802734375,142.9088287353516,129.1278686523438,25,526928.2282987917,0.26580810546875,-1.500869750976562,-0.49005126953125,526928.1446637918,-0.1824180125549396,-1.609777548302604,-0.6543759640877299,526928.1446637918,2.293563164556435,-0.2516512658296428,1.296316036477402,-0.1654768288135529,-1.617632269859314,-0.6639624834060669,-0.362394243478775,-0.139682948589325,0.04389685392379761,XTrueNorthZVertical,0.3376042311252591,0.5047460956393768,0.6896861719663382,0.394446164520779,-0.06749161332845688,-0.9625661969184875,-0.2625095248222351,-22.61083793640137,-40.3238410949707,6.056206703186035,1,526927.8865827917,unknown,2,2015-02-16 17:20:28.182,null,0,0,0,0,null,0,0.0879364,100.6663,192.168.1.3,10.191.100.224,1,0
2015-02-16 17:20:28.689,31,1424136025.950518,37.77933603749697,-122.4387459588775,55.02693,-1,-1,10,65,-9999,1424136028.612584,-18.57835388183594,-40.74754333496094,8.7681884765625,148.7017974853516,134.9208374023438,25,526928.3275407917,-0.033660888671875,-0.9862213134765625,-0.4235992431640625,526928.2446137917,-0.1524326828934104,-2.102094301104615,-0.1743582218319238,526928.2446137917,2.183275530307237,-0.1088017382968355,1.301920823273563,-0.1354918330907822,-2.109948635101318,-0.1839445233345032,0.2062293589115143,-0.524760365486145,-0.3461526930332184,XTrueNorthZVertical,0.3173332529761824,0.5169731187267811,0.6896808868468439,0.3954474754391761,-0.02884592860937119,-0.964070200920105,-0.2640767991542816,-20.24317932128906,-41.50117874145508,6.465718269348145,1,526927.8865827917,unknown,2,2015-02-16 17:20:28.182,null,0,0,0,0,null,0,0.0879364,100.6663,192.168.1.3,10.191.100.224,1,0
2015-02-16 17:20:28.788,32,1424136025.950518,37.77933603749697,-122.4387459588775,55.02693,-1,-1,10,65,-9999,1424136028.729954,-16.49201965332031,-41.23318481445312,9.70733642578125,153.3937683105469,139.6128082275391,25,526928.4267937917,-0.01763916015625,-1.003005981445312,-0.103118896484375,526928.3445547917,0.2598100064648602,0.8533660291579056,-0.2158625221563727,526928.3445547917,2.091542396579954,-0.06987522302933391,1.316997183017186,0.2767512202262878,0.8455113172531128,-0.2254465222358704,0.1027505621314049,-0.01677570305764675,-0.2879510521888733,XTrueNorthZVertical,0.3304393529997256,0.515339251442188,0.6732534894581731,0.4146867001582376,-0.01753022707998753,-0.9679654836654663,-0.2504705786705017,-18.43368530273438,-41.95514297485352,8.596804618835449,1,526927.8865827917,unknown,2,2015-02-16 17:20:28.182,null,0,0,0,0,null,0,0.0879364,100.6663,192.168.1.3,10.191.100.224,1,0
2015-02-16 17:20:28.897,33,1424136025.950518,37.77933603749697,-122.4387459588775,55.02693,-1,-1,10,65,-9999,1424136028.848813,-14.2666015625,-41.99630737304688,11.1832275390625,157.9652252197266,144.1842651367188,25,526928.5260127917,0.0164642333984375,-1.016082763671875,-0.225555419921875,526928.4444797917,0.1817130738143956,-0.1969423605080137,-0.2113772262484612,526928.4444797917,1.95397827747633,-0.008784650969800996,1.333185948983737,0.1986539512872696,-0.2047968804836273,-0.2209610342979431,0.02719893865287304,0.01149977836757898,0.06902051717042923,XTrueNorthZVertical,0.3488159919555329,0.5105305924032338,0.6498682647294517,0.4419922928260391,-0.002067712601274252,-0.9719032049179077,-0.2353718429803848,-16.91554641723633,-42.32682037353516,9.810404777526855,1,526927.8865827917,unknown,2,2015-02-16 17:20:28.182,null,0,0,0,0,null,0,0.0879364,100.6663,192.168.1.3,10.191.100.224,1,0
2015-02-16 17:20:28.987,34,1424136025.950518,37.77933603749697,-122.4387459588775,55.02693,-1,-1,10,65,-9999,1424136028.9498,-13.60591888427734,-41.96160888671875,11.68637084960938,159.8623657226562,146.0814056396484,25,526928.6252757917,0.06890869140625,-0.96771240234375,-0.19573974609375,526928.5444277917,0.05625794644737887,-0.4426147100100793,-0.05301501518798938,526928.5444277917,1.901741874392844,-0.01513966979427974,1.343801040885749,0.07319848984479904,-0.4504690766334534,-0.06259863078594208,-0.01508658472448587,-0.02698050811886787,0.04242329299449921,XTrueNorthZVertical,0.3664534344727787,0.5031890984760654,0.6342520271687271,0.4585160935168105,-0.003407067852094769,-0.9743469953536987,-0.2250252217054367,-15.61602306365967,-42.48253631591797,11.19435405731201,1,526927.8865827917,unknown,2,2015-02-16 17:20:28.182,null,0,0,0,0,null,0,0.0879364,100.6663,192.168.1.3,10.191.100.224,1,0
2015-02-16 17:20:29.085,35,1424136025.950518,37.77933603749697,-122.4387459588775,55.02693,-1,-1,10,65,-9999,1424136029.068926,-13.049560546875,-42.10037231445312,12.96096801757812,161.3117370605469,147.5307769775391,25,526928.7245157917,-0.038787841796875,-0.95556640625,-0.1786956787109375,526928.6443607917,0.03159947159822619,-0.5169539223624422,-0.09443302909311971,526928.6443607917,1.882350210472258,-0.004824999638448776,1.354672106994802,0.04853967577219009,-0.5248081684112549,-0.1040164604783058,0.02763076685369015,0.0135706439614296,-0.009952506981790066,XTrueNorthZVertical,0.3705549827526609,0.5054378125691357,0.6289331475143707,0.4600703737296888,-0.001034696586430073,-0.9767359495162964,-0.214443251490593,-15.14674472808838,-42.44046783447266,11.97174167633057,1,526927.8865827917,unknown,2,2015-02-16 17:20:28.182,null,0,0,0,0,null,0,0.0879364,100.6663,192.168.1.3,10.191.100.224,1,0
2015-02-16 17:20:29.185,36,1424136025.950518,37.77933603749697,-122.4387459588775,55.02693,-1,-1,10,65,-9999,1424136029.068926,-13.049560546875,-42.10037231445312,12.96096801757812,161.3117370605469,147.5307769775391,25,526928.8237727917,-0.1434478759765625,-0.9852447509765625,-0.14141845703125,526928.7442987917,0.09392276742826053,0.02649605600130735,0.02846865942072904,526928.7442987917,1.882676327575286,-0.038873144311322,1.363467166041621,0.110833153128624,0.01859663054347038,0.01889046281576157,0.03603030368685722,0.03142537549138069,0.04318549856543541,XTrueNorthZVertical,0.3830966221402589,0.5003910236239206,0.6203377479938944,0.4669335182215966,-0.007999909110367298,-0.9785841703414917,-0.2056916058063507,-14.49519824981689,-42.34706115722656,13.05969142913818,1,526927.8865827917,unknown,2,2015-02-16 17:20:28.182,null,0,0,0,0,null,0,0.0879364,100.6663,192.168.1.3,10.191.100.224,1,0
2015-02-16 17:20:29.296,37,1424136025.950518,37.77933603749697,-122.4387459588775,55.02693,-1,-1,10,65,-9999,1424136029.186579,-13.01479339599609,-41.99629211425781,13.9337158203125,162.6573944091797,148.8764343261719,25,526928.9230257916,0.2670745849609375,-0.9282379150390625,-0.1290130615234375,526928.8442347917,0.1008224851804378,0.6943215162261555,-0.2386740947895554,526928.8442347917,1.814813065114398,0.01089171077973337,1.366970110815493,0.1177325174212456,0.6864222288131714,-0.2482520788908005,-0.09023258835077286,0.02339715510606766,0.03364371880888939,XTrueNorthZVertical,0.3855388412550486,0.5001568135347579,0.6130351755990393,0.4747534809565201,0.002204634016379714,-0.9792992472648621,-0.2024059295654297,-13.77248477935791,-42.44003295898438,13.53151607513428,1,526927.8865827917,unknown,2,2015-02-16 17:20:28.182,null,0,0,0,0,null,0,0.0879364,100.6663,192.168.1.3,10.191.100.224,1,0
2015-02-16 17:20:29.385,38,1424136025.950518,37.77933603749697,-122.4387459588775,55.02693,-1,-1,10,65,-9999,1424136029.303027,-11.83253860473633,-43.24507141113281,13.86669921875,163.9847412109375,150.2037811279297,25,526929.0222717917,-0.0400390625,-0.98504638671875,-0.0148468017578125,526928.9441677917,0.1128655659458851,0.1111342449212246,-0.07079321336092234,526928.9441677917,1.711716358751356,0.172021669287225,1.383453485199097,0.1297752559185028,0.1032351478934288,-0.08037101477384567,0.2011511325836182,0.03665603697299957,-0.09900109469890594,XTrueNorthZVertical,0.3666626823359434,0.5232670598515452,0.6153358416247185,0.4616404379082654,0.03188109025359154,-0.9825025796890259,-0.1835001260042191,-13.68881702423096,-42.50739288330078,13.40438079833984,1,526927.8865827917,unknown,2,2015-02-16 17:20:28.182,null,0,0,0,0,null,0,0.0879364,100.6663,192.168.1.3,10.191.100.224,1,0
2015-02-16 17:20:29.485,39,1424136025.950518,37.77933603749697,-122.4387459588775,55.02693,-1,-1,10,65,-9999,1424136029.421517,-11.27619171142578,-42.20443725585938,14.26919555664062,165.2468109130859,151.4658508300781,25,526929.1215167918,0.00103759765625,-0.9660797119140625,-0.1249847412109375,526929.0441077917,0.1600072456658138,0.7551667576511958,-0.04919870534590583,526929.0441077917,1.666252597268621,0.1729618761016263,1.381620231987425,0.1769165992736816,0.7472678422927856,-0.05877631902694702,0.03184545040130615,0.01859749108552933,0.09804008156061172,XTrueNorthZVertical,0.3776669210098226,0.5145344187095786,0.6052514721792083,0.4757023382396416,0.03236353397369385,-0.9821594953536987,-0.1852440536022186,-12.65757846832275,-42.62675094604492,14.02446174621582,1,526927.8865827917,unknown,2,2015-02-16 17:20:28.182,null,0,0,0,0,null,0,0.0879364,100.6663,192.168.1.3,10.191.100.224,1,0
2015-02-16 17:20:29.584,40,1424136025.950518,37.77933603749697,-122.4387459588775,55.02693,-1,-1,10,65,-9999,1424136029.540286,-10.6502799987793,-41.99632263183594,15.54391479492188,167.5205535888672,153.7395935058594,25,526929.2207567916,0.12353515625,-0.984039306640625,-0.2078399658203125,526929.1440397917,-0.01429797926041741,-0.4405686033445714,-0.1178198445217595,526929.1440397917,1.625250181469164,0.1637898215894004,1.380951706464289,0.002611039904877543,-0.4484673738479614,-0.1273972690105438,-0.06659781932830811,0.001778441132046282,0.08142928034067154,XTrueNorthZVertical,0.3906724773536195,0.5042663782484075,0.59372584081642,0.4904896447398858,0.03077018260955811,-0.9820335507392883,-0.1861808747053146,-12.2509880065918,-42.6300163269043,14.37131690979004,1,526927.8865827917,unknown,2,2015-02-16 17:20:28.182,null,0,0,0,0,null,0,0.0879364,100.6663,192.168.1.3,10.191.100.224,1,0
2015-02-16 17:20:29.696,41,1424136025.950518,37.77933603749697,-122.4387459588775,55.02693,-1,-1,10,65,-9999,1424136029.659062,-9.433242797851562,-43.14102172851562,15.1749267578125,169.4473876953125,155.6664276123047,25,526929.3200007917,0.0720367431640625,-0.9741668701171875,-0.159881591796875,526929.2439797916,-0.08015076248313376,-0.9812907058037528,0.02680418373942952,526929.2439797916,1.587812414073528,0.1813480663387701,1.3848529647623,-0.06324207782745361,-0.9891893267631531,0.01722695305943489,0.04911544546484947,0.02002424746751785,0.04948745295405388,XTrueNorthZVertical,0.396025974902377,0.5022373271338586,0.5871424583093167,0.4961701910939001,0.03334305062890053,-0.9827622771263123,-0.1818421930074692,-11.57978248596191,-42.66455078125,14.81838417053223,1,526927.8865827917,unknown,2,2015-02-16 17:20:28.182,null,0,0,0,0,null,0,0.0879364,100.6663,192.168.1.3,10.191.100.224,1,0
2015-02-16 17:20:29.783,42,1424136025.950518,37.77933603749697,-122.4387459588775,55.02693,-1,-1,10,65,-9999,1424136029.777835,-9.502792358398438,-42.16975402832031,15.44329833984375,170.4674377441406,156.6864776611328,25,526929.4192367917,-0.06854248046875,-0.9951934814453125,-0.1917572021484375,526929.3439147917,0.04310352855904147,-0.4462648386001419,0.2049536816991901,526929.3439147917,1.636489645214835,0.08830421065926228,1.388546870889489,0.06001187115907669,-0.4541633129119873,0.1953766494989395,0.05858602747321129,0.003000252414494753,-0.007818294689059258,XTrueNorthZVertical,0.4121376089861669,0.4897698362502681,0.5797340059257065,0.5041593117016584,0.01598367281258106,-0.9834384918212891,-0.1805361956357956,-10.84637928009033,-42.58005142211914,15.59599494934082,1,526927.8865827917,unknown,2,2015-02-16 17:20:28.182,null,0,0,0,0,null,0,0.0879364,100.6663,192.168.1.3,10.191.100.224,1,0
2015-02-16 17:20:29.881,43,1424136025.950518,37.77933603749697,-122.4387459588775,55.02693,-1,-1,10,65,-9999,1424136029.777835,-9.502792358398438,-42.16975402832031,15.44329833984375,170.4674377441406,156.6864776611328,25,526929.5184837917,-0.053924560546875,-0.975006103515625,-0.15032958984375,526929.4438517917,0.03974634768888759,-0.213018266112168,0.1258599278527088,526929.4438517917,1.73029041025199,-0.06399471941216632,1.391669523574946,0.05665435269474983,-0.2209165841341019,0.11628308147192,0.01629226468503475,0.02887574397027493,0.04561895877122879,XTrueNorthZVertical,0.4342023088192243,0.4717684082280029,0.5706283981026697,0.5131142034054967,-0.01139419432729483,-0.9839996695518494,-0.1778058409690857,-10.59367847442627,-42.36848831176758,16.32864952087402,1,526927.8865827917,unknown,2,2015-02-16 17:20:28.182,null,0,0,0,0,null,0,0.0793457,100.6664,192.168.1.3,10.191.100.224,1,0
2015-02-16 17:20:29.982,44,1424136025.950518,37.77933603749697,-122.4387459588775,55.02693,-1,-1,10,65,-9999,1424136029.896084,-9.189834594726562,-42.20445251464844,16.68447875976562,172.7809906005859,159.0000305175781,25,526929.6177197917,-0.0467681884765625,-0.9810791015625,-0.18829345703125,526929.5437877917,-0.002007224513592722,0.2780305556948554,0.0199774366011204,526929.5437877917,1.763361440090982,-0.1189749670360169,1.390818725758653,0.01490045804530382,0.2701323926448822,0.01040077302604914,0.01483853254467249,0.02515324391424656,-0.01714301481842995,XTrueNorthZVertical,0.4419022444949744,0.4645979839526124,0.5673194917670737,0.5167395323779931,-0.02124722301959991,-0.9838476777076721,-0.1777422428131104,-10.41463279724121,-42.27229309082031,16.68916320800781,1,526927.8865827917,unknown,2,2015-02-16 17:20:28.182,null,0,0,0,0,null,0,0.0793457,100.6664,192.168.1.3,10.191.100.224,1,0
2015-02-16 17:20:30.082,45,1424136025.950518,37.77933603749697,-122.4387459588775,55.02693,-1,-1,10,65,-9999,1424136029.996918,-9.502784729003906,-42.10038757324219,16.38259887695312,172.1587829589844,158.3778228759766,25,526929.7169757917,0.0098419189453125,-0.96051025390625,-0.174468994140625,526929.6437217917,-0.06735374081308501,0.03811223204401497,-0.06698222984101895,526929.6437217917,1.73867373596877,-0.09704960989602904,1.387003968609553,-0.05044639483094215,0.03021422773599625,-0.07655870169401169,-0.0432346947491169,0.009784262627363205,0.007430510595440865,XTrueNorthZVertical,0.4405281675695326,0.4636649450636512,0.5667482482430248,0.519370971323985,-0.0177089087665081,-0.9831576943397522,-0.1818995028734207,-10.31187915802002,-42.36090850830078,16.52749633789062,1,526927.8865827917,unknown,2,2015-02-16 17:20:28.182,null,0,0,0,0,null,0,0.0793457,100.6664,192.168.1.3,10.191.100.224,1,0
2015-02-16 17:20:30.180,46,1424136025.950518,37.77933603749697,-122.4387459588775,55.02693,-1,-1,10,65,-9999,1424136030.113241,-8.911659240722656,-42.27384948730469,16.41616821289062,172.9644012451172,159.1834411621094,25,526929.8162097917,0.0890045166015625,-0.968536376953125,-0.163360595703125,526929.7436447917,-0.04713582076553045,0.1961143837251081,-0.09704399222583339,526929.7436447917,1.658665386007033,0.01232474784102353,1.385510490760525,-0.03024866990745068,0.1881737411022186,-0.1066223233938217,-0.00564269395545125,-0.002849400276318192,0.001016606111079454,XTrueNorthZVertical,0.4278251613472595,0.474192806289874,0.5701308402986845,0.5167762273605926,0.00227050157263875,-0.982883632183075,-0.1842136234045029,-10.32532215118408,-42.48163604736328,16.20611572265625,1,526927.8865827917,unknown,2,2015-02-16 17:20:28.182,null,0,0,0,0,null,0,0.0793457,100.6664,192.168.1.3,10.191.100.224,1,0
2015-02-16 17:20:30.279,47,1424136025.950518,37.77933603749697,-122.4387459588775,55.02693,-1,-1,10,65,-9999,1424136030.232954,-8.946434020996094,-42.51664733886719,15.64468383789062,171.5774688720703,157.7965087890625,25,526929.9154537917,0.070068359375,-0.960906982421875,-0.2090301513671875,526929.8435947917,-0.008371114254446069,0.3671708184375516,0.02417031742134115,526929.8435947917,1.612463731886965,0.1027715989352389,1.388426417446525,0.008527358993887901,0.3592299520969391,0.01459082961082458,0.08422303199768066,0.009356588125228882,-0.03511123359203339,XTrueNorthZVertical,0.4137974815085386,0.4884359661875103,0.5766705898775587,0.5075953235063717,0.01860594935715199,-0.9834166169166565,-0.1804039031267166,-10.30974006652832,-42.59558868408203,15.91429328918457,1,526927.8865827917,unknown,2,2015-02-16 17:20:28.182,null,0,0,0,0,null,0,0.0793457,100.6664,192.168.1.3,10.191.100.224,1,0
2015-02-16 17:20:30.378,48,1424136025.950518,37.77933603749697,-122.4387459588775,55.02693,-1,-1,10,65,-9999,1424136030.351565,-9.746208190917969,-42.62069702148438,15.74526977539062,170.0542755126953,156.2733154296875,25,526930.0147017917,-0.0423583984375,-0.9883270263671875,-0.193206787109375,526929.9435227917,-0.02945695850125745,0.05445738323437629,0.1407203667353509,526929.9435227917,1.667008965247105,0.06330777715456755,1.389153836289928,-0.0125588234513998,0.04651668295264244,0.1311410665512085,0.03939840197563171,0.00463595800101757,-0.01745510473847389,XTrueNorthZVertical,0.4120865975118771,0.4899416956347589,0.5821180490504807,0.5012787432585677,0.01142862252891064,-0.9835482835769653,-0.1802835464477539,-11.10404777526855,-42.50003814697266,15.63286685943604,1,526927.8865827917,unknown,2,2015-02-16 17:20:28.182,null,0,0,0,0,null,0,0.0793457,100.6664,192.168.1.3,10.191.100.224,1,0
2015-02-16 17:20:30.477,49,1424136025.950518,37.77933603749697,-122.4387459588775,55.02693,-1,-1,10,65,-9999,1424136030.470172,-9.468032836914062,-42.82884216308594,15.47698974609375,170.4918670654297,156.7109069824219,25,526930.1139457917,-0.010986328125,-0.97198486328125,-0.1630706787109375,526930.0434507917,0.01298291031413629,0.2080541338402603,0.04877952379032736,526930.0434507917,1.706315914741451,0.03019907976130802,1.390082665420611,0.02988272160291672,0.2001141309738159,0.03919600695371628,-0.04363491758704185,0.02547898143529892,-0.01779888197779655,XTrueNorthZVertical,0.4123587570035768,0.4900360512988921,0.5848945237444074,0.4977181436187177,0.005426909774541855,-0.9837156534194946,-0.1796498447656631,-11.53506660461426,-42.40069198608398,15.59048461914062,1,526927.8865827917,unknown,2,2015-02-16 17:20:28.182,null,0,0,0,0,null,0,0.0793457,100.6664,192.168.1.3,10.191.100.224,1,0
2015-02-16 17:20:30.579,50,1424136025.950518,37.77933603749697,-122.4387459588775,55.02693,-1,-1,10,65,-9999,1424136030.470172,-9.468032836914062,-42.82884216308594,15.47698974609375,170.4918670654297,156.7109069824219,25,526930.2131997917,-0.0084991455078125,-0.9734344482421875,-0.195587158203125,526930.1434037917,-0.02980636523627584,0.06265778886294829,0.01281619642989733,526930.1434037917,1.754169407750833,-0.007100773902743782,1.392057911887086,-0.01290736068040133,0.05471530184149742,0.003251896472647786,-0.04881692305207253,0.02146806195378304,0.00719062564894557,XTrueNorthZVertical,0.412056837655227,0.4912404898097577,0.5885735005623739,0.4924156867854649,-0.001262424397282302,-0.984068751335144,-0.1777838915586472,-11.88257312774658,-42.32500457763672,15.53506660461426,1,526927.8865827917,unknown,2,2015-02-16 17:20:28.182,null,0,0,0,0,null,0,0.0793457,100.6664,192.168.1.3,10.191.100.224,1,0
2015-02-16 17:20:30.676,51,1424136025.950518,37.77933603749697,-122.4387459588775,55.02693,-1,-1,10,65,-9999,1424136030.588976,-10.78938293457031,-41.92698669433594,15.40988159179688,168.0290222167969,154.2480621337891,25,526930.3124677917,-0.0234375,-0.9668426513671875,-0.203857421875,526930.2433507917,-0.09623811967997542,0.0507939388388633,-0.1020800298471732,526930.2433507917,1.757748969839719,0.009040750293198041,1.387571368248073,-0.07934659719467163,0.04284963011741638,-0.1116268336772919,1.599101960891858e-05,0.01213084347546101,0.001865813508629799,XTrueNorthZVertical,0.4053019353157737,0.4946041345541247,0.59385422746204,0.4882973256944185,0.001647216966375709,-0.9832612276077271,-0.1821941882371902,-12.441650390625,-42.3012809753418,15.15739440917969,1,526927.8865827917,unknown,2,2015-02-16 17:20:28.182,null,0,0,0,0,null,0,0.0793457,100.6664,192.168.1.3,10.191.100.224,1,0
2015-02-16 17:20:30.774,52,1424136025.950518,37.77933603749697,-122.4387459588775,55.02693,-1,-1,10,65,-9999,1424136030.707098,-10.30255889892578,-42.34323120117188,14.73904418945312,168.2038421630859,154.4228820800781,25,526930.4116937917,0.064208984375,-0.9539947509765625,-0.178741455078125,526930.3432757917,-0.1498771135113704,0.5045995180655646,-0.261179936529597,526930.3432757917,1.656940630322372,0.1266390516735554,1.375235547740595,-0.1329821348190308,0.4966544508934021,-0.2707223892211914,0.02149339579045773,0.0228242315351963,0.01974128186702728,XTrueNorthZVertical,0.3921655435454848,0.4998258108864231,0.5954540133364673,0.4917467779991065,0.02454237081110477,-0.9809388518333435,-0.1927606910467148,-11.9693660736084,-42.65254974365234,14.54077339172363,1,526927.8865827917,unknown,2,2015-02-16 17:20:28.182,null,0,0,0,0,null,0,0.0793457,100.6664,192.168.1.3,10.191.100.224,1,0
2015-02-16 17:20:30.874,53,1424136025.950518,37.77933603749697,-122.4387459588775,55.02693,-1,-1,10,65,-9999,1424136030.825934,-9.085533142089844,-43.41854858398438,13.69915771484375,169.1737823486328,155.392822265625,25,526930.5109637917,0.09686279296875,-0.96429443359375,-0.22637939453125,526930.4432087917,-0.1433907183603734,0.4601124773202269,-0.2249172698626421,526930.4432087917,1.529404334750753,0.2827283488363773,1.348371303102635,-0.1265064626932144,0.4521694481372833,-0.2344671189785004,0.02888253144919872,-0.000205310367164202,0.06265236437320709,XTrueNorthZVertical,0.3697635877116163,0.5073027864570141,0.5989246573851713,0.4972002184987874,0.06154105067253113,-0.9753653407096863,-0.2118375450372696,-11.12546157836914,-43.22006225585938,13.49777793884277,1,526927.8865827917,unknown,2,2015-02-16 17:20:28.182,null,0,0,0,0,null,0,0.0793457,100.6664,192.168.1.3,10.191.100.224,1,0
2015-02-16 17:20:30.981,54,1424136025.950518,37.77933603749697,-122.4387459588775,55.02693,-1,-1,10,65,-9999,1424136030.926839,-7.416481018066406,-43.97354125976562,13.16253662109375,171.0945587158203,157.3135986328125,25,526930.6102227917,0.221038818359375,-0.780975341796875,-0.3118438720703125,526930.5431317918,-0.404627912853407,0.4902738419298103,-0.6099869276705072,526930.5431317918,1.415252797973774,0.4154363709610487,1.311969092633093,-0.3877440094947815,0.4823309481143951,-0.6195365786552429,0.07838890701532364,0.09384229779243469,-0.01770050078630447,XTrueNorthZVertical,0.3473028787531138,0.5121450430920166,0.5996294000602598,0.5074768746189855,0.1032974943518639,-0.9666908383369446,-0.2341763377189636,-9.738792419433594,-43.97217559814453,12.06414794921875,1,526927.8865827917,unknown,2,2015-02-16 17:20:28.182,null,0,0,0,0,null,0,0.0793457,100.6664,192.168.1.3,10.191.100.224,1,0
2015-02-16 17:20:31.073,55,1424136025.950518,37.77933603749697,-122.4387459588775,55.02693,-1,-1,10,65,-9999,1424136031.049521,-3.765388488769531,-44.56326293945312,9.64031982421875,173.1378173828125,159.3568572998047,25,526930.7094767917,0.3112640380859375,-0.86090087890625,-0.369720458984375,526930.6430847917,-0.7688045392773826,0.9730250527284738,-1.244601171205413,526930.6430847917,1.232717595060531,0.6557360987012905,1.21516723431187,-0.7519209980964661,0.9650822877883911,-1.254150629043579,0.06341066211462021,0.06007778272032738,0.02398376539349556,XTrueNorthZVertical,0.2881845342014175,0.5281722923744224,0.5993398869205071,0.5279918883891843,0.2123004049062729,-0.9374276399612427,-0.2759674191474915,-6.890247821807861,-45.09604644775391,9.633822441101074,1,526927.8865827917,unknown,2,2015-02-16 17:20:28.182,null,0,0,0,0,null,0,0.0793457,100.6664,192.168.1.3,10.191.100.224,1,0
2015-02-16 17:20:31.174,56,1424136025.950518,37.77933603749697,-122.4387459588775,55.02693,-1,-1,10,65,-9999,1424136031.163363,3.536781311035156,-45.95077514648438,4.60858154296875,179.0590209960938,165.2780609130859,25,526930.8087257918,0.412933349609375,-0.79010009765625,-0.4691314697265625,526930.7430137917,-0.9239113022213415,0.2037099854701231,-1.351010968352837,526930.7430137917,1.131901722209094,0.7877751253593075,1.056303461786893,-0.9070454239845276,0.1957255899906158,-1.360558390617371,-0.1384463310241699,-0.06512655317783356,0.1185426339507103,XTrueNorthZVertical,0.2150411802899109,0.5293297780841276,0.5909335086131922,0.5695304167949559,0.3487887382507324,-0.8705424070358276,-0.3471345603466034,-1.791886329650879,-46.21889877319336,5.877261161804199,1,526927.8865827917,unknown,2,2015-02-16 17:20:28.182,null,0,0,0,0,null,0,-0.4447365,100.6727,192.168.1.3,10.191.100.224,1,0
2015-02-16 17:20:31.273,57,1424136025.950518,37.77933603749697,-122.4387459588775,55.02693,-1,-1,10,65,-9999,1424136031.264306,10.21306610107422,-44.77140808105469,1.92498779296875,185.1864166259766,171.4054565429688,25,526930.9079557917,0.47088623046875,-0.8302459716796875,-0.37152099609375,526930.8429597917,-0.7137761743052933,0.5567974754311177,-1.359455852169478,526930.8429597917,1.065457583035589,0.8776830995678675,0.9036655635114007,-0.6969106197357178,0.5488132238388062,-1.369003176689148,0.01721125654876232,0.1051497533917427,0.06500895321369171,XTrueNorthZVertical,0.146331653133415,0.530020222811314,0.573429301577955,0.6073256764189291,0.475968062877655,-0.7856001853942871,-0.3953312337398529,5.786737442016602,-46.24118804931641,1.485304832458496,1,526927.8865827917,unknown,2,2015-02-16 17:20:28.182,null,0,0,0,0,null,0,-0.4447365,100.6727,192.168.1.3,10.191.100.224,1,0
2015-02-16 17:20:31.395,58,1424136025.950518,37.77933603749697,-122.4387459588775,55.02693,-1,-1,10,65,-9999,1424136031.364619,15.22026062011719,-43.31449890136719,-1.0938720703125,189.9609222412109,176.1799621582031,25,526931.0072167917,0.543212890625,-0.67742919921875,-0.44378662109375,526930.9428927917,-0.7016702429381201,0.1656637998211421,-1.186438798262519,526930.9428927917,1.046595167733742,0.9049281322978225,0.767411425618073,-0.6848050355911255,0.1576797068119049,-1.195985913276672,-0.02350111119449139,-0.05763280391693115,-0.0322723351418972,XTrueNorthZVertical,0.08904089104718232,0.5193977761007986,0.5585306182803683,0.6405788388559385,0.5659663081169128,-0.6942745447158813,-0.4445953369140625,9.787495613098145,-45.57476806640625,-1.041688919067383,1,526927.8865827917,unknown,2,2015-02-16 17:20:28.182,null,0,0,0,0,null,0,-0.4447365,100.6727,192.168.1.3,10.191.100.224,1,0
2015-02-16 17:20:31.485,59,1424136025.950518,37.77933603749697,-122.4387459588775,55.02693,-1,-1,10,65,-9999,1424136031.364619,15.22026062011719,-43.31449890136719,-1.0938720703125,189.9609222412109,176.1799621582031,25,526931.1064377917,0.65106201171875,-0.5189361572265625,-0.5153350830078125,526931.0428277917,-0.8728292093525317,0.07840292985971475,-1.376617794866167,526931.0428277917,1.017627071812773,0.9399167168848174,0.6200009523062479,-0.8559643030166626,0.07041899859905243,-1.386164784431458,-0.0836968868970871,0.0007594463531859219,0.05996520817279816,XTrueNorthZVertical,0.02744606886881584,0.5091282929865089,0.5342719247442007,0.6742318855245745,0.6572137475013733,-0.5810359120368958,-0.4800702035427094,16.56709671020508,-43.34577178955078,-4.54035758972168,1,526927.8865827917,unknown,2,2015-02-16 17:20:28.182,null,0,0,0,0,null,0,-0.4447365,100.6727,192.168.1.3,10.191.100.224,1,0
2015-02-16 17:20:31.569,60,1424136025.950518,37.77933603749697,-122.4387459588775,55.02693,-1,-1,10,65,-9999,1424136031.485898,22.90491485595703,-40.15788269042969,-4.951416015625,196.5572204589844,182.7762603759766,25,526931.2056947917,0.7173614501953125,-0.298248291015625,-0.5397796630859375,526931.1427717917,-1.030643874492883,0.005368133809272721,-1.368610734732735,526931.1427717917,1.00723010159672,0.9571391263097164,0.4469799642126573,-1.013779282569885,-0.002615640871226788,-1.378157496452332,0.05697588622570038,0.01418386958539486,0.07069354504346848,XTrueNorthZVertical,-0.04440387684669854,0.4882468154237823,0.5071165108849536,0.7088555690554976,0.7372288107872009,-0.4322441816329956,-0.5192866921424866,23.00007438659668,-39.70023345947266,-8.296244621276855,1,526927.8865827917,unknown,2,2015-02-16 17:20:28.182,null,0,0,0,0,null,0,-0.4447365,100.6727,192.168.1.3,10.191.100.224,1,0
2015-02-16 17:20:31.668,61,1424136025.950518,37.77933603749697,-122.4387459588775,55.02693,-1,-1,10,65,-9999,1424136031.600777,29.05960845947266,-35.12811279296875,-8.80889892578125,205.8144073486328,192.033447265625,25,526931.3049437917,0.887359619140625,-0.192657470703125,-0.6832427978515625,526931.2427107916,-0.863866074387761,0.2378660917148253,-1.233986343732575,526931.2427107916,1.003973612386306,0.9514817001643715,0.2753969889424279,-0.8470019102096558,0.2298824787139893,-1.24353289604187,0.1005323752760887,0.006120882462710142,0.01110267452895641,XTrueNorthZVertical,-0.1113205407110572,0.4564056252566294,0.4787979615573132,0.7416563792633813,0.7835924029350281,-0.271928995847702,-0.5586032867431641,26.94209289550781,-36.24921035766602,-11.57833194732666,1,526927.8865827917,unknown,2,2015-02-16 17:20:28.182,null,0,0,0,0,null,0,-0.4447365,100.6727,192.168.1.3,10.191.100.224,1,0
2015-02-16 17:20:31.776,62,1424136025.950518,37.77933603749697,-122.4387459588775,55.02693,-1,-1,10,65,-9999,1424136031.719722,33.61476135253906,-31.00025939941406,-10.72100830078125,211.4808959960938,197.6999359130859,25,526931.4041977917,0.8531646728515625,-0.1215667724609375,-0.576141357421875,526931.3426417917,-0.2591753751770944,0.1329974658902301,-0.4203506832970169,526931.3426417917,1.001852636326826,0.950654252139257,0.179206854776962,-0.242311492562294,0.1250140070915222,-0.4298970401287079,0.05952725186944008,0.1134298518300056,0.04733826965093613,XTrueNorthZVertical,-0.1491010972664262,0.4380033338083139,0.4612065879390612,0.7571066345317308,0.8007632493972778,-0.178249180316925,-0.5718438625335693,31.11715316772461,-31.72411346435547,-14.11534690856934,1,526927.8865827917,unknown,2,2015-02-16 17:20:28.182,null,0,0,0,0,null,0,-0.4447365,100.6727,192.168.1.3,10.191.100.224,1,0
2015-02-16 17:20:31.867,63,1424136025.950518,37.77933603749697,-122.4387459588775,55.02693,-1,-1,10,65,-9999,1424136031.838021,33.6495361328125,-30.27177429199219,-10.4190673828125,211.8597869873047,198.0788269042969,25,526931.5034497917,0.925689697265625,-0.160400390625,-0.459381103515625,526931.4425557917,0.2825917516938341,0.3496014120940809,0.3601110447038605,526931.4425557917,0.9932067402497496,0.9758481231850887,0.1834074153913773,0.2994552850723267,0.3416181206703186,0.3505648374557495,0.06190287694334984,0.05530569702386856,-0.04796383529901505,XTrueNorthZVertical,-0.1512960513389573,0.4489728845939959,0.4568208158702192,0.7528928385765521,0.8142873048782349,-0.182380884885788,-0.5510656833648682,31.77002906799316,-31.38548278808594,-13.39986515045166,1,526927.8865827917,unknown,2,2015-02-16 17:20:28.182,null,0,0,0,0,null,0,-0.4447365,100.6727,192.168.1.3,10.191.100.224,4,0
2015-02-16 17:20:31.966,64,1424136031.959704,37.77915916215708,-122.4387326892296,55.93147,-1,-1,10,65,-9999,1424136031.956886,32.43247985839844,-33.01213073730469,-8.03759765625,209.5305023193359,195.7495422363281,25,526931.6026997917,0.822265625,-0.3065643310546875,-0.5518341064453125,526931.5424907916,0.6274133222634407,0.04176715432403972,0.9200012491088873,526931.5424907916,0.9944443660854313,0.9987561973633908,0.2645030516915534,0.64427649974823,0.03378401696681976,0.9104552865028381,0.1782649010419846,0.1018684804439545,0.06249981746077538,XTrueNorthZVertical,-0.1246789201096104,0.4724344091531836,0.4705816141666696,0.7347202670270367,0.8115574717521667,-0.261429637670517,-0.5225217938423157,30.31074714660645,-33.50424957275391,-11.5179615020752,1,526927.8865827917,unknown,2,2015-02-16 17:20:28.182,null,0,0,0,0,null,0,-0.4447365,100.6727,192.168.1.3,10.191.100.224,4,0
2015-02-16 17:20:32.067,65,1424136031.959704,37.77915916215708,-122.4387326892296,55.93147,-1,-1,10,65,-9999,1424136031.956886,32.43247985839844,-33.01213073730469,-8.03759765625,209.5305023193359,195.7495422363281,25,526931.7019527917,0.88519287109375,-0.327789306640625,-0.3979339599609375,526931.6424277917,0.7099510760316124,0.06518725926630554,1.462226706003418,526931.6424277917,0.9891727506561553,1.014303614013429,0.3994323124635766,0.7268139123916626,0.05720429122447968,1.452680945396423,-0.01110844872891903,-0.06982956826686859,-0.05040149018168449,XTrueNorthZVertical,-0.07332044386798564,0.5013066099919976,0.4914840709787112,0.7083496549777728,0.7822723984718323,-0.3888953924179077,-0.4866316020488739,26.63895988464355,-37.33958053588867,-8.370251655578613,1,526927.8865827917,unknown,2,2015-02-16 17:20:28.182,null,0,0,0,0,null,0,-0.4447365,100.6727,192.168.1.3,10.191.100.224,4,0
2015-02-16 17:20:32.177,66,1424136031.959704,37.77915916215708,-122.4387326892296,55.93147,-1,-1,10,65,-9999,1424136032.074128,26.45166015625,-37.66035461425781,-4.54901123046875,203.2189483642578,189.43798828125,25,526931.8012187917,0.67828369140625,-0.7426910400390625,-0.370269775390625,526931.7423797917,0.7955144471142233,-0.2062487769372956,1.580547224810113,526931.7423797917,1.003984882873495,0.9914602398283832,0.5717933694898548,0.812364935874939,-0.2142714560031891,1.57100248336792,-0.04786064848303795,-0.04629184305667877,0.07798318564891815,XTrueNorthZVertical,-0.002127401841357375,0.5194262465820624,0.5236682610627054,0.675250643333453,0.7037138938903809,-0.5411410331726074,-0.4603836834430695,21.3497142791748,-41.05527114868164,-5.709112167358398,1,526927.8865827917,unknown,2,2015-02-16 17:20:28.182,null,0,0,0,0,null,0,-0.4447365,100.6727,192.168.1.3,10.191.100.224,4,0
2015-02-16 17:20:32.265,67,1424136031.959704,37.77915916215708,-122.4387326892296,55.93147,-1,-1,10,65,-9999,1424136032.192672,19.42765808105469,-42.30851745605469,-1.93255615234375,194.9791870117188,181.1982269287109,25,526931.9004657917,0.4708404541015625,-0.86444091796875,-0.36761474609375,526931.8423167916,0.7027283168392086,-0.4310552592985904,1.595972253843852,526931.8423167916,1.029518657899676,0.9719241680014413,0.7427652864588822,0.7195784449577332,-0.439077764749527,1.586427807807922,0.05699339881539345,-0.008456527255475521,0.03173122927546501,XTrueNorthZVertical,0.06503669600495533,0.5368007459687923,0.5531818771059568,0.6337231482163495,0.6084118485450745,-0.6763274073600769,-0.4152303636074066,14.41337299346924,-44.28832244873047,-2.176851272583008,1,526927.8865827917,unknown,2,2015-02-16 17:20:28.182,null,0,0,0,0,null,0,-0.4447365,100.6727,192.168.1.3,10.191.100.224,4,0
2015-02-16 17:20:32.365,68,1424136031.959704,37.77915916215708,-122.4387326892296,55.93147,-1,-1,10,65,-9999,1424136032.31143,9.726211547851562,-44.91014099121094,1.38818359375,185.5589904785156,171.7780303955078,25,526931.9997197917,0.2856597900390625,-0.877777099609375,-0.3336639404296875,526931.9422347917,0.755341461018705,0.058211641423061,1.682719932663221,526931.9422347917,1.085904479712108,0.9014402405608173,0.9223172170548524,0.7721912860870361,0.05018927529454231,1.673175573348999,-0.1107960790395737,-0.09644457697868347,0.006438437849283218,XTrueNorthZVertical,0.1413872646730394,0.5409548015877863,0.5824512362861611,0.5900238400435365,0.4736500978469849,-0.7970033288002014,-0.3747550845146179,6.463835716247559,-46.1640625,1.018816947937012,1,526927.8865827917,unknown,2,2015-02-16 17:20:28.182,null,0,0,0,0,null,0,-0.4447365,100.6727,192.168.1.3,10.191.100.224,4,0
2015-02-16 17:20:32.462,69,1424136031.959704,37.77915916215708,-122.4387326892296,55.93147,-1,-1,10,65,-9999,1424136032.428932,0.33770751953125,-44.97952270507812,6.0172119140625,176.5895233154297,162.8085632324219,25,526932.0989697917,0.09228515625,-0.8343505859375,-0.263641357421875,526932.0421877917,0.8195132569613633,-0.2737210284188891,1.783046537248686,526932.0421877917,1.187706573258381,0.7999829087117667,1.107606657308946,0.8363627195358276,-0.2817432284355164,1.773502349853516,-0.118012860417366,-0.0264038722962141,0.06120527163147926,XTrueNorthZVertical,0.2161469015134453,0.545556692731043,0.608091702975044,0.5346708550117703,0.3205122649669647,-0.8946319222450256,-0.311296820640564,-0.6929836273193359,-46.41987991333008,4.319075584411621,1,526927.8865827917,unknown,2,2015-02-16 17:20:28.182,null,0,0,0,0,null,0,-0.4447365,100.6727,192.168.1.3,10.191.100.224,4,0
2015-02-16 17:20:32.563,70,1424136031.959704,37.77915916215708,-122.4387326892296,55.93147,-1,-1,10,65,-9999,1424136032.530104,-7.659919738769531,-44.63264465332031,9.90826416015625,168.0076599121094,154.2266998291016,25,526932.198265875,0.484375,-0.768798828125,-0.296295166015625,526932.1421217917,0.8451901246113623,0.2514117279672954,1.76538977922146,526932.1421217917,1.428171466115657,0.5571680594075255,1.290727023260612,0.8620392084121704,0.2433896958827972,1.755845785140991,-0.003330376697704196,0.1156688556075096,0.07696130871772766,XTrueNorthZVertical,0.2931365667922661,0.5447599424381993,0.6280329338897035,0.4721040380228368,0.1461679041385651,-0.9610362648963928,-0.2346151173114777,-9.277185440063477,-44.8728141784668,8.619985580444336,1,526927.8865827917,unknown,2,2015-02-16 17:20:28.182,null,0,0,0,0,null,0,-0.4674797,100.6729,192.168.1.3,10.191.100.224,1,0
2015-02-16 17:20:32.662,71,1424136031.959704,37.77915916215708,-122.4387326892296,55.93147,-1,-1,10,65,-9999,1424136032.648844,-13.8841552734375,-42.23918151855469,11.9544677734375,158.3403778076172,144.5594177246094,25,526932.2975128751,-0.1131134033203125,-0.8951568603515625,-0.086944580078125,526932.242104875,-0.09428895207814642,-0.04925942541875964,0.2284150656383521,526932.242104875,1.759578899779317,0.2723449650526005,1.388420315373218,-0.07744017243385315,-0.05728130415081978,0.2188712805509567,0.4070093035697937,0.1071643158793449,-0.3956151008605957,XTrueNorthZVertical,0.3235651189054277,0.5549455279908955,0.6421242559955375,0.418350983142629,0.0487859919667244,-0.9834155440330505,-0.174682155251503,-15.76154613494873,-42.39335632324219,11.32770156860352,1,526927.8865827917,unknown,2,2015-02-16 17:20:28.182,null,0,0,0,0,null,0,-0.4674797,100.6729,192.168.1.3,10.191.100.224,1,0
2015-02-16 17:20:32.760,72,1424136031.959704,37.77915916215708,-122.4387326892296,55.93147,-1,-1,10,65,-9999,1424136032.648844,-13.8841552734375,-42.23918151855469,11.9544677734375,158.3403778076172,144.5594177246094,25,526932.396758875,0.218536376953125,-0.7894134521484375,-0.435791015625,526932.342057875,-0.2797818504276915,1.485048664964852,-0.2830902954498969,526932.342057875,1.718605859312332,0.3192727396623062,1.339325967026481,-0.2629334032535553,1.47702693939209,-0.2926338911056519,-0.07739236950874329,-0.04043329507112503,0.0845911055803299,XTrueNorthZVertical,0.305764118487876,0.5455277333465216,0.6506927523807863,0.4307049668135471,0.07200601696968079,-0.9733301401138306,-0.2178155928850174,-15.2005672454834,-42.9027214050293,10.11132907867432,1,526927.8865827917,unknown,2,2015-02-16 17:20:28.182,null,0,0,0,0,null,0,-0.4674797,100.6729,192.168.1.3,10.191.100.224,1,0
2015-02-16 17:20:32.861,73,1424136031.959704,37.77915916215708,-122.4387326892296,55.93147,-1,-1,10,65,-9999,1424136032.766042,-12.24986267089844,-43.38389587402344,9.70697021484375,159.2456665039062,145.4647064208984,25,526932.495995875,0.1493988037109375,-0.81610107421875,-0.34625244140625,526932.4419938751,-0.6344962654986155,0.1464986273524958,-1.18662095848108,526932.4419938751,1.527230223644215,0.5401404930841156,1.254228996508848,-0.6176481246948242,0.1384770572185516,-1.19616436958313,-0.08228676021099091,0.0176924392580986,0.006810077931731939,XTrueNorthZVertical,0.2591173315556569,0.5471419956259513,0.6527473861120713,0.4554280683899372,0.1600913256406784,-0.9503096342086792,-0.266987681388855,-12.82916259765625,-44.27692794799805,6.993264198303223,1,526927.8865827917,unknown,2,2015-02-16 17:20:28.182,null,0,0,0,0,null,0,-0.4674797,100.6729,192.168.1.3,10.191.100.224,1,0
2015-02-16 17:20:32.959,74,1424136031.959704,37.77915916215708,-122.4387326892296,55.93147,-1,-1,10,65,-9999,1424136032.884738,-7.312202453613281,-44.70204162597656,5.2791748046875,163.1584320068359,149.3774719238281,25,526932.595250875,0.34637451171875,-0.808197021484375,-0.355987548828125,526932.541929875,-0.8260710248295745,0.326448688525259,-1.458008258836733,526932.541929875,1.363130614351343,0.737131931028301,1.116093790265185,-0.8092232346534729,0.3184272646903992,-1.467551469802856,-0.02119521796703339,0.0239105112850666,0.007949604652822018,XTrueNorthZVertical,0.1910669009713876,0.5485467388815763,0.6466974692955276,0.4943402960167635,0.2952125370502472,-0.8983917236328125,-0.3251798152923584,-7.986035346984863,-45.77327346801758,3.869172096252441,1,526927.8865827917,unknown,2,2015-02-16 17:20:28.182,null,0,0,0,0,null,0,-0.4674797,100.6729,192.168.1.3,10.191.100.224,1,0
2015-02-16 17:20:33.059,75,1424136031.959704,37.77915916215708,-122.4387326892296,55.93147,-1,-1,10,65,-9999,1424136033.003375,1.207000732421875,-45.56927490234375,1.89129638671875,172.2205810546875,158.4396209716797,25,526932.6944868751,0.4093475341796875,-0.643829345703125,-0.453765869140625,526932.641855875,-0.943388064537527,-0.2238115253780412,-1.802426360501192,526932.641855875,1.247536788940256,0.8526737348035034,0.942460200915225,-0.9265406131744385,-0.2318327724933624,-1.811969399452209,-0.1823992729187012,-0.04493621736764908,0.05618925765156746,XTrueNorthZVertical,0.1202844445366625,0.5405125539032225,0.6262361862366859,0.5488224676221415,0.4426379203796387,-0.8090066313743591,-0.3867556750774384,-0.3341283798217773,-46.62428665161133,-0.06424045562744141,1,526927.8865827917,unknown,2,2015-02-16 17:20:28.182,null,0,0,0,0,null,0,-0.4674797,100.6729,192.168.1.3,10.191.100.224,1,0
2015-02-16 17:20:33.157,76,1424136031.959704,37.77915916215708,-122.4387326892296,55.93147,-1,-1,10,65,-9999,1424136033.122137,11.56912231445312,-43.97358703613281,-2.46942138671875,183.1511383056641,169.3701782226562,25,526932.7937248751,0.6389007568359375,-0.6844024658203125,-0.5260162353515625,526932.7417858751,-0.933742894017587,0.6450016370506511,-1.865143804172559,526932.7417858751,1.168154267317452,0.9367977183884806,0.7331083005142091,-0.9169034957885742,0.6369423866271973,-1.874686479568481,-0.1014043316245079,-0.1882545053958893,-0.08388864994049072,XTrueNorthZVertical,0.03437306237742126,0.52794282957571,0.5943288975900748,0.6056963374623957,0.5986882448196411,-0.6691826581954956,-0.4401897192001343,9.037176132202148,-45.53478240966797,-4.341983795166016,1,526927.8865827917,unknown,2,2015-02-16 17:20:28.182,null,0,0,0,0,null,0,-0.4674797,100.6729,192.168.1.3,10.191.100.224,1,0
2015-02-16 17:20:33.256,77,1424136031.959704,37.77915916215708,-122.4387326892296,55.93147,-1,-1,10,65,-9999,1424136033.240705,22.55715179443359,-39.74165344238281,-6.0921630859375,193.698486328125,179.9175262451172,25,526932.892972875,0.804412841796875,-0.4768524169921875,-0.4113311767578125,526932.841737875,-0.8935403468339689,0.4283007517831214,-1.96096966651579,526932.841737875,1.121115311328076,0.988146415852551,0.5131935955648578,-0.876701295375824,0.42024165391922,-1.970512270927429,0.05003837868571281,-0.1313677728176117,0.07145944982767105,XTrueNorthZVertical,-0.05462261092949555,0.507284604502548,0.5546842622290992,0.6572701880421038,0.7274426817893982,-0.4909619390964508,-0.4793573915958405,17.12716674804688,-42.65554046630859,-7.816930770874023,1,526927.8865827917,unknown,2,2015-02-16 17:20:28.182,null,0,0,0,0,null,0,-0.4674797,100.6729,192.168.1.3,10.191.100.224,1,0
2015-02-16 17:20:33.356,78,1424136031.959704,37.77915916215708,-122.4387326892296,55.93147,-1,-1,10,65,-9999,1424136033.240705,22.55715179443359,-39.74165344238281,-6.0921630859375,193.698486328125,179.9175262451172,25,526932.992211875,0.9010772705078125,-0.205230712890625,-0.412353515625,526932.941678875,-0.7337938246388739,-0.04020600929303526,-1.215978581073678,526932.941678875,1.097447881590296,1.016056326384794,0.3296676449288303,-0.7169551253318787,-0.04826493561267853,-1.225520968437195,0.1333591639995575,-0.03053471632301807,-0.03173201903700829,XTrueNorthZVertical,-0.1279777511113216,0.4841926660037061,0.5176498963178322,0.6936986180571896,0.8042628765106201,-0.3237285912036896,-0.4983583092689514,25.13657760620117,-37.73139953613281,-10.88272666931152,1,526927.8865827917,unknown,2,2015-02-16 17:20:28.182,null,0,0,0,0,null,0,-0.4674797,100.6729,192.168.1.3,10.191.100.224,1,0
2015-02-16 17:20:33.462,79,1424136031.959704,37.77915916215708,-122.4387326892296,55.93147,-1,-1,10,65,-9999,1424136033.460365,31.52841186523438,-33.08157348632812,-10.45281982421875,203.5141448974609,189.7331848144531,25,526933.091474875,0.89239501953125,-0.1445770263671875,-0.5268402099609375,526933.041618875,-0.14263997324908,-0.3421006188838727,-0.2656812114040489,526933.041618875,1.095072094476713,1.012132501068874,0.2497050761198296,-0.125801607966423,-0.3501593768596649,-0.2752233743667603,0.2314205169677734,0.1031515151262283,-0.008511023595929146,XTrueNorthZVertical,-0.1573875036294581,0.4673564628012751,0.5033289795424156,0.7095541411164925,0.8216648101806641,-0.2471181899309158,-0.5136142373085022,28.83534812927246,-34.28951263427734,-12.91090774536133,1,526927.8865827917,unknown,2,2015-02-16 17:20:28.182,null,0,0,0,0,null,0,-0.4674797,100.6729,192.168.1.3,10.191.100.224,1,0
2015-02-16 17:20:33.554,80,1424136031.959704,37.77915916215708,-122.4387326892296,55.93147,-1,-1,10,65,-9999,1424136033.460365,31.52841186523438,-33.08157348632812,-10.45281982421875,203.5141448974609,189.7331848144531,25,526933.190712875,0.8413848876953125,-0.307586669921875,-0.4821929931640625,526933.141546875,0.4023980480726837,-0.1540822448726055,0.5435762121994192,526933.141546875,1.089035783606749,1.005964971967127,0.2832325937402072,0.4192360639572144,-0.1621408313512802,0.5340341925621033,0.1254685074090958,0.1094932481646538,0.0858459398150444,XTrueNorthZVertical,-0.1414220045340464,0.4722568741326448,0.5075038901470925,0.7066916536914869,0.8110244274139404,-0.2794609069824219,-0.513946533203125,28.1978816986084,-34.94547271728516,-12.55519866943359,1,526927.8865827917,unknown,2,2015-02-16 17:20:28.182,null,0,0,0,0,null,0,-0.4674797,100.6729,192.168.1.3,10.191.100.224,1,0
2015-02-16 17:20:33.655,81,1424136031.959704,37.77915916215708,-122.4387326892296,55.93147,-1,-1,10,65,-9999,1424136033.576957,30.27661895751953,-35.57908630371094,-9.17816162109375,202.4598236083984,188.6788635253906,25,526933.2899478751,0.850830078125,-0.4936065673828125,-0.488067626953125,526933.241484875,0.6910277185899455,0.2671643258151141,1.154062216258207,526933.241484875,1.082343480760129,1.015869060626956,0.3885508402188909,0.7078653573989868,0.2591058909893036,1.144520401954651,0.05728854238986969,0.01289613731205463,-0.07104754447937012,XTrueNorthZVertical,-0.1012586185595584,0.495926478157801,0.5221169702370908,0.6864382858374497,0.7865835428237915,-0.3788476884365082,-0.4876072406768799,25.21104431152344,-37.84722518920898,-10.2922534942627,1,526927.8865827917,unknown,2,2015-02-16 17:20:28.182,null,0,0,0,0,null,0,-0.4674797,100.6729,192.168.1.3,10.191.100.224,4,0
2015-02-16 17:20:33.753,82,1424136031.959704,37.77915916215708,-122.4387326892296,55.93147,-1,-1,10,65,-9999,1424136033.695523,24.67828369140625,-38.527587890625,-5.38775634765625,197.4485931396484,183.6676330566406,25,526933.3891878751,0.72149658203125,-0.6660003662109375,-0.3186187744140625,526933.341419875,0.7521102476681119,-0.151847053769702,1.690401021879227,526933.341419875,1.094267661984957,1.021841201830136,0.5527256223739444,0.7689476013183594,-0.1599053293466568,1.680859327316284,0.07566677778959274,-0.01618978567421436,0.03504138812422752,XTrueNorthZVertical,-0.04146751771294145,0.5255767703763895,0.5505293275698382,0.6472765972476978,0.7260452508926392,-0.5250089168548584,-0.4440990090370178,20.47150421142578,-41.26121520996094,-7.236637115478516,1,526927.8865827917,unknown,2,2015-02-16 17:20:28.182,null,0,0,0,0,null,0,-0.4674797,100.6729,192.168.1.3,10.191.100.224,4,0
2015-02-16 17:20:33.861,83,1424136031.959704,37.77915916215708,-122.4387326892296,55.93147,-1,-1,10,65,-9999,1424136033.815453,16.12432098388672,-42.82891845703125,-1.697998046875,188.83203125,175.0510711669922,25,526933.488427875,0.3822021484375,-0.8516387939453125,-0.337005615234375,526933.4413478751,1.059767937857881,-0.4508414809334431,1.918927407651145,526933.4413478751,1.118236574586162,0.9783060909793556,0.7554052670971263,1.076604962348938,-0.458899587392807,1.909386038780212,0.05375990644097328,-0.03662998974323273,0.08467886596918106,XTrueNorthZVertical,0.04429301992313846,0.5429289804717806,0.5821284742825347,0.6036495013027482,0.6039091348648071,-0.685583770275116,-0.406532496213913,12.2968692779541,-44.82971954345703,-3.608743667602539,1,526927.8865827917,unknown,2,2015-02-16 17:20:28.182,null,0,0,0,0,null,0,-0.4674797,100.6729,192.168.1.3,10.191.100.224,4,0
2015-02-16 17:20:33.951,84,1424136031.959704,37.77915916215708,-122.4387326892296,55.93147,-1,-1,10,65,-9999,1424136033.933417,4.371299743652344,-45.74270629882812,2.93109130859375,178.1964874267578,164.41552734375,25,526933.587650875,0.1209259033203125,-0.959197998046875,-0.2851409912109375,526933.5412908751,1.286636772167333,-0.6901446143724752,2.233966581434286,526933.5412908751,1.152441642676256,0.9044837970023105,0.9899937855664017,1.303473353385925,-0.6982025504112244,2.224425315856934,-0.1396150887012482,-0.1815708130598068,-0.07079888135194778,XTrueNorthZVertical,0.1487654566984779,0.5552449598616004,0.6053206313673052,0.5505986170762475,0.4313326179981232,-0.8360225558280945,-0.3391437530517578,4.118474960327148,-46.43590545654297,0.8272705078125,1,526927.8865827917,unknown,2,2015-02-16 17:20:28.182,null,0,0,0,0,null,0,-0.4674797,100.6729,192.168.1.3,10.191.100.224,4,0
2015-02-16 17:20:34.050,85,1424136031.959704,37.77915916215708,-122.4387326892296,55.93147,-1,-1,10,65,-9999,1424136033.933417,4.371299743652344,-45.74270629882812,2.93109130859375,178.1964874267578,164.41552734375,25,526933.686891875,0.5655059814453125,-0.5794525146484375,-0.331817626953125,526933.641226875,1.274787036897025,-0.4801956414166235,2.170908785775608,526933.641226875,1.327962324755257,0.6506260671199998,1.245158863950252,1.29162335395813,-0.4882534444332123,2.161367654800415,-0.1575419753789902,0.2224256247282028,0.1466460525989532,XTrueNorthZVertical,0.2751511742219231,0.5449896602601756,0.6211518270831917,0.4913741341265471,0.1937663406133652,-0.9474470019340515,-0.2545562088489532,-6.705855369567871,-45.56999206542969,7.235143661499023,1,526927.8865827917,unknown,2,2015-02-16 17:20:28.182,null,0,0,0,0,null,0,-0.4674797,100.6729,192.168.1.3,10.191.100.224,1,0
2015-02-16 17:20:34.150,86,1424136031.959704,37.77915916215708,-122.4387326892296,55.93147,-1,-1,10,65,-9999,1424136034.051559,-7.277420043945312,-44.25112915039062,9.740478515625,168.7403411865234,154.9593811035156,25,526933.786121875,-0.0654144287109375,-0.9852294921875,-0.158477783203125,526933.741152875,0.1542982272370109,-1.24827420298085,0.7745665546118781,526933.741152875,1.581407770252098,0.4363013554602502,1.400182429625109,0.1711311191320419,-1.256368279457092,0.7650250196456909,0.3067894876003265,0.1639017462730408,-0.3298216462135315,XTrueNorthZVertical,0.3247582335498249,0.5635522202018108,0.628834571488706,0.4260376708595461,0.07175054401159286,-0.9854807257652283,-0.1538819670677185,-14.43535232543945,-42.66928100585938,12.03713989257812,1,526927.8865827917,unknown,2,2015-02-16 17:20:28.182,null,0,0,0,0,null,0,-0.4674797,100.6729,192.168.1.3,10.191.100.224,1,0
2015-02-16 17:20:34.256,87,1424136031.959704,37.77915916215708,-122.4387326892296,55.93147,-1,-1,10,65,-9999,1424136034.172091,-13.01483154296875,-42.41267395019531,13.262451171875,160.8769226074219,147.0959625244141,25,526933.885356875,0.1638336181640625,-1.000106811523438,-0.2834014892578125,526933.841099875,0.03770476839723284,1.678438901210918,-0.01565246299083171,526933.841099875,1.657725910070435,0.3136194137490083,1.385294514686284,0.0545373372733593,1.670345067977905,-0.02519377879798412,-0.09437594562768936,0.01398700848221779,0.2423380464315414,XTrueNorthZVertical,0.3376087121439352,0.5461671936904816,0.6277156264424946,0.4401078013217765,0.05690035596489906,-0.982843816280365,-0.1754435151815414,-14.20231533050537,-42.52466583251953,12.80182361602783,1,526927.8865827917,unknown,2,2015-02-16 17:20:28.182,null,0,0,0,0,null,0,-0.4674797,100.6729,192.168.1.3,10.191.100.224,1,0
2015-02-16 17:20:34.349,88,1424136031.959704,37.77915916215708,-122.4387326892296,55.93147,-1,-1,10,65,-9999,1424136034.272337,-12.63233947753906,-42.79423522949219,12.89352416992188,161.0630493164062,147.2820892333984,25,526933.984612875,0.159820556640625,-0.8323822021484375,-0.3836669921875,526933.941035875,-0.5352178811182056,0.5960751067681512,-0.8004812425472211,526933.941035875,1.591696376797962,0.4079223190922072,1.352270432445847,-0.518385648727417,0.5879814028739929,-0.8100224137306213,0.1162689030170441,0.1465824693441391,-0.2119623869657516,XTrueNorthZVertical,0.31589570461741,0.5483690475428777,0.6344093392609604,0.4438762352314693,0.08600160479545593,-0.9762181043624878,-0.1990025788545609,-14.21148681640625,-42.89322280883789,11.49542236328125,1,526927.8865827917,unknown,2,2015-02-16 17:20:28.182,null,0,0,0,0,null,0,-0.4674797,100.6729,192.168.1.3,10.191.100.224,1,0
2015-02-16 17:20:34.450,89,1424136031.959704,37.77915916215708,-122.4387326892296,55.93147,-1,-1,10,65,-9999,1424136034.390568,-9.3289794921875,-43.73078918457031,8.96881103515625,164.0367736816406,150.2558135986328,25,526934.0838568751,0.170806884765625,-0.8913116455078125,-0.2817230224609375,526934.0409728751,-1.248700308755263,-0.4656457271170846,-1.903586001875634,526934.0409728751,1.341876549525942,0.6919122798598181,1.209376208766925,-1.231868386268616,-0.4737392663955688,-1.913126945495605,-0.1183943152427673,0.1895612627267838,-0.0296721700578928,XTrueNorthZVertical,0.2454536367183697,0.5510086289106988,0.6321643129973855,0.4863232617342355,0.2256025671958923,-0.9353955984115601,-0.2722840011119843,-9.406981468200684,-45.06730651855469,7.374698638916016,1,526927.8865827917,unknown,2,2015-02-16 17:20:28.182,null,0,0,0,0,null,0,-0.4674797,100.6729,192.168.1.3,10.191.100.224,1,0
2015-02-16 17:20:34.547,90,1424136031.959704,37.77915916215708,-122.4387326892296,55.93147,-1,-1,10,65,-9999,1424136034.509736,1.172225952148438,-45.32643127441406,4.6751708984375,174.6592407226562,160.8782806396484,25,526934.183097875,0.36004638671875,-0.9591217041015625,-0.3336029052734375,526934.140909875,-1.028402558119472,0.7282243558511912,-2.171896285907809,526934.140909875,1.191727940236049,0.8475411879638906,0.98731899579337,-1.011571049690247,0.720130980014801,-2.181437015533447,-0.160458892583847,-0.1245087310671806,0.01444671675562859,XTrueNorthZVertical,0.1542766816517045,0.5421147220044342,0.6117692285500473,0.5550214186204686,0.4130071103572845,-0.8345519304275513,-0.3646206557750702,-1.461562156677246,-46.52293014526367,2.724063873291016,1,526927.8865827917,unknown,2,2015-02-16 17:20:28.182,null,0,0,0,0,null,0,-0.4674797,100.6729,192.168.1.3,10.191.100.224,1,0
2015-02-16 17:20:34.657,91,1424136031.959704,37.77915916215708,-122.4387326892296,55.93147,-1,-1,10,65,-9999,1424136034.629593,12.12550354003906,-44.52862548828125,-0.188720703125,184.3471221923828,170.566162109375,25,526934.282341875,0.7711639404296875,-0.709747314453125,-0.3436126708984375,526934.2408388751,-0.8412001766662056,0.401802565252942,-1.925928325524745,526934.2408388751,1.116840481314436,0.9792265185883415,0.7665534930600078,-0.824368953704834,0.3937093615531921,-1.935468912124634,0.1233357414603233,0.00812520831823349,0.173371821641922,XTrueNorthZVertical,0.04879370534778283,0.5447702584516823,0.5828236947856893,0.6009668136135985,0.597901463508606,-0.6936568021774292,-0.4016890823841095,10.1689395904541,-45.43624877929688,-2.465685844421387,1,526927.8865827917,unknown,2,2015-02-16 17:20:28.182,null,0,0,0,0,null,0,-0.4674797,100.6729,192.168.1.3,10.191.100.224,1,0
2015-02-16 17:20:34.746,92,1424136031.959704,37.77915916215708,-122.4387326892296,55.93147,-1,-1,10,65,-9999,1424136034.629593,12.12550354003906,-44.52862548828125,-0.188720703125,184.3471221923828,170.566162109375,25,526934.3815858751,0.802947998046875,-0.43182373046875,-0.540924072265625,526934.340775875,-0.4889473213908418,0.3815939662692027,-1.792672266692668,526934.340775875,1.063328989171867,1.004115215916773,0.5740752083531551,-0.4721164405345917,0.3735009133815765,-1.802212595939636,-0.05223570764064789,-0.04625121131539345,0.03006219863891602,XTrueNorthZVertical,-0.02006948690353598,0.5236491670334925,0.5436597438706606,0.6556087849462122,0.7084399461746216,-0.543058454990387,-0.450777530670166,16.26622772216797,-43.38479614257812,-5.206598281860352,1,526927.8865827917,unknown,2,2015-02-16 17:20:28.182,null,0,0,0,0,null,0,-0.4674797,100.6729,192.168.1.3,10.191.100.224,1,0
2015-02-16 17:20:34.844,93,1424136031.959704,37.77915916215708,-122.4387326892296,55.93147,-1,-1,10,65,-9999,1424136034.748239,21.54878234863281,-40.47012329101562,-3.7779541015625,194.7105407714844,180.9295806884766,25,526934.480821875,0.9079437255859375,-0.3798828125,-0.429779052734375,526934.440714875,-0.4351408147268809,-0.3141209158392822,-1.162242914494713,526934.440714875,1.023099078463446,1.02148923141691,0.4334345227017786,-0.418310284614563,-0.3222137987613678,-1.171783089637756,0.009962392970919609,-0.1195605769753456,-0.07235566526651382,XTrueNorthZVertical,-0.07012712469344372,0.5081077353499939,0.5087207519595269,0.6914563924276551,0.7740189433097839,-0.419990211725235,-0.4738174378871918,23.21751403808594,-39.80608367919922,-7.096654891967773,1,526927.8865827917,unknown,2,2015-02-16 17:20:28.182,null,0,0,0,0,null,0,-0.4674797,100.6729,192.168.1.3,10.191.100.224,1,0
2015-02-16 17:20:34.945,94,1424136031.959704,37.77915916215708,-122.4387326892296,55.93147,-1,-1,10,65,-9999,1424136034.866005,28.50323486328125,-36.79316711425781,-5.92486572265625,202.9082183837891,189.1272583007812,25,526934.5800488751,0.8747406005859375,-0.2778778076171875,-0.3349456787109375,526934.5406518751,-0.03894793199408184,0.04413310663646611,-0.2077601208559156,526934.5406518751,1.005090817457373,1.032257338672133,0.3558178689305135,-0.0221177376806736,0.03604038804769516,-0.2173001021146774,0.145066112279892,0.04249469563364983,-0.01690905354917049,XTrueNorthZVertical,-0.09906597418534004,0.4998077201903305,0.4888430516445255,0.7081035778043531,0.8046867251396179,-0.3483571112155914,-0.4807563424110413,27.1180305480957,-36.94266510009766,-8.590185165405273,1,526927.8865827917,unknown,2,2015-02-16 17:20:28.182,null,0,0,0,0,null,0,-0.4674797,100.6729,192.168.1.3,10.191.100.224,1,0
2015-02-16 17:20:35.043,95,1424136031.959704,37.77915916215708,-122.4387326892296,55.93147,-1,-1,10,65,-9999,1424136034.985665,30.24186706542969,-34.71192932128906,-6.05902099609375,205.7781829833984,191.9972229003906,25,526934.679311875,0.895721435546875,-0.3549346923828125,-0.3985595703125,526934.640587875,0.2160486771165692,0.08180991184225313,0.6163731879645172,526934.640587875,1.00661331751675,1.034341115067793,0.3829095029453161,0.2328785359859467,0.07371734827756882,0.6068333983421326,0.06505495309829712,0.006387571804225445,0.1260879039764404,XTrueNorthZVertical,-0.08922432383142009,0.504974353703834,0.4940022446227109,0.7021408226912528,0.7972802519798279,-0.3736208379268646,-0.4740798473358154,26.61497116088867,-37.40536117553711,-8.149965286254883,1,526927.8865827917,unknown,2,2015-02-16 17:20:28.182,null,0,0,0,0,null,0,-0.4674797,100.6729,192.168.1.3,10.191.100.224,4,0
2015-02-16 17:20:35.142,96,1424136031.959704,37.77915916215708,-122.4387326892296,55.93147,-1,-1,10,65,-9999,1424136035.103389,27.52962493896484,-38.04197692871094,-3.71099853515625,201.8717803955078,188.0908203125,25,526934.7785578751,0.76873779296875,-0.61846923828125,-0.4575958251953125,526934.740524875,0.5493510107071471,-0.1346129394074722,1.244417945722416,526934.740524875,1.012920761362344,1.046553637470798,0.4843208087812257,0.5661812424659729,-0.1427402049303055,1.234876990318298,0.09541705250740051,0.07360909879207611,-0.03703711926937103,XTrueNorthZVertical,-0.0536970598688169,0.5249972034583243,0.5127046029023344,0.677221221410514,0.7661399245262146,-0.4656073749065399,-0.4429891109466553,23.36195373535156,-39.89042663574219,-6.075580596923828,1,526927.8865827917,unknown,2,2015-02-16 17:20:28.182,null,0,0,0,0,null,0,-0.6008987,100.6745,192.168.1.3,10.191.100.224,4,0
2015-02-16 17:20:35.243,97,1424136031.959704,37.77915916215708,-122.4387326892296,55.93147,-1,-1,10,65,-9999,1424136035.222465,21.47925567626953,-42.06578063964844,-2.0338134765625,194.6000518798828,180.819091796875,25,526934.8777948751,0.729248046875,-0.6547393798828125,-0.2633819580078125,526934.840466875,0.6461039194258348,-0.09394540429752619,1.913414664194681,526934.840466875,1.041927034795623,1.031995210678218,0.6499926340918577,0.6629338264465332,-0.1020725220441818,1.903873920440674,0.05909908562898636,-0.0818311795592308,0.02792453207075596,XTrueNorthZVertical,0.008168978526976208,0.543777438347866,0.5468977395741196,0.6365078618728779,0.6833020448684692,-0.605180561542511,-0.4084787368774414,17.94619750976562,-42.86606597900391,-3.791303634643555,1,526927.8865827917,unknown,2,2015-02-16 17:20:28.182,null,0,0,0,0,null,0,-0.6008987,100.6745,192.168.1.3,10.191.100.224,4,0
2015-02-16 17:20:35.341,98,1424136031.959704,37.77915916215708,-122.4387326892296,55.93147,-1,-1,10,65,-9999,1424136035.222465,21.47925567626953,-42.06578063964844,-2.0338134765625,194.6000518798828,180.819091796875,25,526934.977024875,0.344757080078125,-0.97222900390625,-0.35845947265625,526934.940407875,1.246976178265546,-0.450536548988629,2.136856542813419,526934.940407875,1.077813920115741,0.9785333574994713,0.86824683879149,1.263805747032166,-0.4586634933948517,2.127315998077393,0.04747729748487473,-0.006211901549249887,0.111630991101265,XTrueNorthZVertical,0.09982902506304911,0.5564857886638392,0.5806320123756564,0.5858534197376922,0.5361103415489197,-0.7631973028182983,-0.3607154786586761,14.57335090637207,-44.38130187988281,0.1946220397949219,1,526927.8865827917,unknown,2,2015-02-16 17:20:28.182,null,0,0,0,0,null,0,-0.6008987,100.6745,192.168.1.3,10.191.100.224,4,0
2015-02-16 17:20:35.439,99,1424136031.959704,37.77915916215708,-122.4387326892296,55.93147,-1,-1,10,65,-9999,1424136035.342652,10.63031768798828,-44.91020202636719,2.79644775390625,185.1641082763672,171.3831481933594,25,526935.0762558751,-0.0768280029296875,-0.8438873291015625,-0.221923828125,526935.040333875,1.365198426428016,-1.183959661603764,2.541179257405903,526935.040333875,1.144287422238291,0.8388935808379884,1.137728593993725,1.382027626037598,-1.192086338996887,2.531638860702515,-0.3046012222766876,-0.1372087299823761,0.02329488843679428,XTrueNorthZVertical,0.2278521945188887,0.5548493009280635,0.6010643104446148,0.5281546704005493,0.3121848404407501,-0.9076825976371765,-0.2804512679576874,2.428993225097656,-46.16039657592773,6.740799903869629,1,526927.8865827917,unknown,2,2015-02-16 17:20:28.182,null,0,0,0,0,null,0,-0.6008987,100.6745,192.168.1.3,10.191.100.224,4,0
2015-02-16 17:20:35.540,100,1424136031.959704,37.77915916215708,-122.4387326892296,55.93147,-1,-1,10,65,-9999,1424136035.4605,-2.72222900390625,-44.97958374023438,9.0355224609375,174.0512237548828,160.270263671875,25,526935.1755088751,0.769927978515625,-0.90093994140625,-0.7647705078125,526935.1402698751,1.384275980896799,2.971397218857772,1.338984665502257,526935.1402698751,1.467039414691864,0.5009224861349544,1.375037272922913,1.401104807853699,2.963270425796509,1.329444527626038,0.2560456991195679,0.3770642578601837,0.0667622908949852,XTrueNorthZVertical,0.3284652893060765,0.5538986823294002,0.6180919864385621,0.4508537791555808,0.09341110289096832,-0.9809002876281738,-0.1706136018037796,-6.578879833221436,-44.64688491821289,12.06210803985596,1,526927.8865827917,unknown,2,2015-02-16 17:20:28.182,null,0,0,0,0,null,0,-0.6008987,100.6745,192.168.1.3,10.191.100.224,4,0
2015-02-16 17:20:35.638,101,1424136031.959704,37.77915916215708,-122.4387326892296,55.93147,-1,-1,10,65,-9999,1424136035.579702,-11.90209579467773,-42.41265869140625,13.32907104492188,160.9988555908203,147.2178955078125,25,526935.2747488751,-0.2118072509765625,-0.9974822998046875,0.042022705078125,526935.240208875,-0.7117058328738657,-2.886939858575871,-0.288067210895037,526935.240208875,1.523723858889874,0.4377305377384045,1.388491993047747,-0.6948772072792053,-2.895066261291504,-0.2976071834564209,-0.3589838147163391,-0.07556194067001343,0.2166779637336731,XTrueNorthZVertical,0.3367068115642211,0.5518396742462383,0.6183551285430045,0.4469210919415561,0.07684881240129471,-0.9834285378456116,-0.1642029881477356,-9.865571022033691,-43.6395378112793,13.43063354492188,1,526927.8865827917,unknown,2,2015-02-16 17:20:28.182,null,0,0,0,0,null,0,-0.6008987,100.6745,192.168.1.3,10.191.100.224,1,0
2015-02-16 17:20:35.738,102,1424136031.959704,37.77915916215708,-122.4387326892296,55.93147,-1,-1,10,65,-9999,1424136035.680273,-11.06755065917969,-42.62077331542969,13.32901000976562,164.6875305175781,150.9065704345703,25,526935.373979875,0.1885528564453125,-0.901275634765625,-0.2307891845703125,526935.3401388751,-0.382845385665431,-0.2837478299230375,-0.3726662513469301,526935.3401388751,1.485165157025217,0.5489051512660054,1.373384736729395,-0.3660172820091248,-0.2918740212917328,-0.3822064399719238,0.3697285950183868,-0.01663010939955711,-0.04010851308703423,XTrueNorthZVertical,0.3078650070182202,0.5670620824353507,0.6299459419991704,0.432235899388447,0.1023325547575951,-0.9805775284767151,-0.1673194617033005,-9.626518249511719,-44.00129699707031,12.38291549682617,1,526927.8865827917,unknown,2,2015-02-16 17:20:28.182,null,0,0,0,0,null,0,-0.6008987,100.6745,192.168.1.3,10.191.100.224,1,0
2015-02-16 17:20:35.835,103,1424136031.959704,37.77915916215708,-122.4387326892296,55.93147,-1,-1,10,65,-9999,1424136035.798176,-10.26779174804688,-43.9736328125,11.48406982421875,162.7906951904297,149.0097351074219,25,526935.473216875,0.164031982421875,-0.9128875732421875,-0.2838287353515625,526935.4400948751,-0.751811973626023,0.9443105835391304,-1.267005280191814,526935.4400948751,1.336382128959194,0.6866995579123094,1.280717172876491,-0.7349842190742493,0.9361845850944519,-1.276545286178589,-0.06802672892808914,0.180068776011467,-0.01020175963640213,XTrueNorthZVertical,0.2743657457358442,0.560468152035813,0.6257036772718065,0.4680745953504863,0.1813384890556335,-0.9582212567329407,-0.2211977690458298,-6.615750312805176,-45.00318908691406,10.63320541381836,1,526927.8865827917,unknown,2,2015-02-16 17:20:28.182,null,0,0,0,0,null,0,-0.6008987,100.6745,192.168.1.3,10.191.100.224,1,0
2015-02-16 17:20:35.942,104,1424136031.959704,37.77915916215708,-122.4387326892296,55.93147,-1,-1,10,65,-9999,1424136035.914587,-2.270179748535156,-45.29176330566406,6.720947265625,169.4223480224609,155.6413879394531,25,526935.572445875,0.4091796875,-0.887725830078125,0.0471038818359375,526935.540013875,-1.334179257631319,0.002104696209489622,-2.009314029783998,526935.540013875,1.202294859523342,0.8863641227306428,1.086968711998748,-1.317351818084717,-0.006021174136549234,-2.018853902816772,-0.02567219920456409,0.1268133223056793,0.1123490557074547,XTrueNorthZVertical,0.1776759118100468,0.5669065406309393,0.6202014387957755,0.512248426363213,0.3604042530059814,-0.8852209448814392,-0.2940964996814728,0.3150415420532227,-46.33463668823242,5.926451683044434,1,526935.530350875,unknown,2,2015-02-16 17:20:35.804,null,0,0,0,0,null,0,-0.6008987,100.6745,192.168.1.3,10.191.100.224,1,0
2015-02-16 17:20:36.035,105,1424136031.959704,37.77915916215708,-122.4387326892296,55.93147,-1,-1,10,65,-9999,1424136036.03338,8.613533020019531,-45.257080078125,0.71661376953125,179.5080871582031,165.7271270751953,25,526935.671669875,0.4758453369140625,-0.7726287841796875,-0.4285430908203125,526935.6399338751,-1.0820543351241,-0.6183207576696922,-1.781364484704192,526935.6399338751,1.159168175694893,0.9259869179397433,0.8674368311867433,-1.065227270126343,-0.6264464855194092,-1.79090404510498,-0.005398306995630264,-0.0201785434037447,0.04998637735843658,XTrueNorthZVertical,0.09263965835359203,0.5450179053390573,0.6016877855181807,0.5764938991540091,0.5169187188148499,-0.7626736164093018,-0.3887467384338379,9.572329521179199,-45.72102355957031,0.2812919616699219,1,526935.530350875,unknown,2,2015-02-16 17:20:35.804,null,0,0,0,0,null,0,-0.6008987,100.6745,192.168.1.3,10.191.100.224,1,0
2015-02-16 17:20:36.134,106,1424136031.959704,37.77915916215708,-122.4387326892296,55.93147,-1,-1,10,65,-9999,1424136036.03338,8.613533020019531,-45.257080078125,0.71661376953125,179.5080871582031,165.7271270751953,25,526935.770886875,0.710418701171875,-0.57525634765625,-0.35089111328125,526935.7398928751,-0.7851928336774032,0.9920006081275065,-1.77747520424824,526935.7398928751,1.113516245678331,0.9503926121698741,0.6612443023468549,-0.7683620452880859,0.9838415384292603,-1.78701651096344,-0.1335146129131317,-0.2530271112918854,0.02264118567109108,XTrueNorthZVertical,0.01639456274579875,0.5199199490396779,0.570530728606119,0.6355384984898496,0.6421510577201843,-0.614099383354187,-0.4588289260864258,16.8917121887207,-43.35053253173828,-4.185877799987793,1,526935.530350875,unknown,2,2015-02-16 17:20:35.804,null,0,0,0,0,null,0,-0.6008987,100.6745,192.168.1.3,10.191.100.224,1,0
2015-02-16 17:20:36.234,107,1424136031.959704,37.77915916215708,-122.4387326892296,55.93147,-1,-1,10,65,-9999,1424136036.152122,18.73224639892578,-41.96171569824219,-4.6168212890625,190.0021514892578,176.22119140625,25,526935.870139875,0.7840118408203125,-0.5002288818359375,-0.434844970703125,526935.8398208751,-0.7641179083910611,-0.03313265343778481,-1.386424086632057,526935.8398208751,1.084519208616362,0.9866695531534233,0.4819570864219013,-0.7472874522209167,-0.04129151627421379,-1.395965218544006,0.08944276720285416,-0.02034198492765427,0.1023155152797699,XTrueNorthZVertical,-0.05729052769672758,0.5023857048119916,0.5382064938467463,0.6742849542008108,0.7391704916954041,-0.4635142087936401,-0.4886527955532074,24.48648452758789,-39.17008209228516,-6.945311546325684,1,526935.530350875,unknown,2,2015-02-16 17:20:35.804,null,0,0,0,0,null,0,-0.6008987,100.6745,192.168.1.3,10.191.100.224,1,0
2015-02-16 17:20:36.338,108,1424136031.959704,37.77915916215708,-122.4387326892296,55.93147,-1,-1,10,65,-9999,1424136036.270785,26.17351531982422,-37.660400390625,-6.76361083984375,198.2831573486328,184.502197265625,25,526935.969384875,0.9337310791015625,-0.2671966552734375,-0.5908660888671875,526935.9397588751,-0.08686965159729466,0.003049319448140728,-0.5688842320384423,526935.9397588751,1.060613213555906,1.025378674321822,0.367197042943369,-0.07003956288099289,-0.005109373480081558,-0.5784251689910889,0.2336656600236893,0.07601124048233032,-0.02331509254872799,XTrueNorthZVertical,-0.1066912008380931,0.4965086824710955,0.5106127670043806,0.6938088703023921,0.7979200482368469,-0.3590007424354553,-0.4841922223567963,29.31220626831055,-35.43210983276367,-8.214659690856934,1,526935.530350875,unknown,2,2015-02-16 17:20:35.804,null,0,0,0,0,null,0,-0.6008987,100.6745,192.168.1.3,10.191.100.224,1,0
2015-02-16 17:20:36.432,109,1424136031.959704,37.77915916215708,-122.4387326892296,55.93147,-1,-1,10,65,-9999,1424136036.389558,29.47687530517578,-35.89131164550781,-8.0047607421875,201.7092437744141,187.9282836914062,25,526936.068620875,0.8272552490234375,-0.37664794921875,-0.454620361328125,526936.039694875,0.3068981566468783,-0.04521461635514729,0.31673614002974,526936.039694875,1.045602896308661,1.010319546751907,0.3690579882348279,0.3237279057502747,-0.05337314680218697,0.3071953952312469,0.1378090679645538,0.03210846707224846,-0.02991420775651932,XTrueNorthZVertical,-0.09841887276892616,0.4923568821583905,0.5064613618037715,0.7009959668340752,0.7899711132049561,-0.3607369959354401,-0.4957968592643738,29.72269821166992,-34.98872375488281,-8.629648208618164,1,526935.530350875,unknown,2,2015-02-16 17:20:35.804,null,0,0,0,0,null,0,-0.6008987,100.6745,192.168.1.3,10.191.100.224,1,0
2015-02-16 17:20:36.531,110,1424136031.959704,37.77915916215708,-122.4387326892296,55.93147,-1,-1,10,65,-9999,1424136036.507588,27.00804138183594,-37.93791198730469,-5.48895263671875,200.2908020019531,186.5098419189453,25,526936.1678498751,0.8373260498046875,-0.4524993896484375,-0.4846038818359375,526936.139621875,0.6088196641647254,-0.02879516297037275,1.145013327506336,526936.139621875,1.044902911639086,1.019669985644555,0.4592797370267832,0.625649094581604,-0.03695352748036385,1.135472774505615,0.07213396579027176,-0.03109315410256386,0.04677522554993629,XTrueNorthZVertical,-0.06496402429112387,0.5109680533454831,0.5203812189267805,0.6810981878115048,0.7636509537696838,-0.4433026015758514,-0.469382643699646,27.47186660766602,-37.17768096923828,-6.725854873657227,1,526935.530350875,unknown,2,2015-02-16 17:20:35.804,null,0,0,0,0,null,0,-0.6054459,100.6746,192.168.1.3,10.191.100.224,4,0
2015-02-16 17:20:36.631,111,1424136031.959704,37.77915916215708,-122.4387326892296,55.93147,-1,-1,10,65,-9999,1424136036.607805,22.31377410888672,-40.81700134277344,-3.64404296875,195.2353973388672,181.4544372558594,25,526936.2670908751,0.7406768798828125,-0.6338043212890625,-0.435302734375,526936.239567875,0.8618809541112159,-0.06926562415965289,1.660146446631491,526936.239567875,1.058505769961663,1.00229081406847,0.6157936372142262,0.8787100315093994,-0.0774238258600235,1.650606155395508,0.02966084517538548,-0.08247339725494385,0.07488881051540375,XTrueNorthZVertical,-0.001731647175615811,0.5293919554099885,0.547657107013842,0.6479296894926835,0.687914252281189,-0.5776065587997437,-0.4394823312759399,22.99682426452637,-40.42037582397461,-4.411330223083496,1,526935.530350875,unknown,2,2015-02-16 17:20:35.804,null,0,0,0,0,null,0,-0.6054459,100.6746,192.168.1.3,10.191.100.224,4,0
2015-02-16 17:20:36.737,112,1424136031.959704,37.77915916215708,-122.4387326892296,55.93147,-1,-1,10,65,-9999,1424136036.726365,13.02959442138672,-43.90425109863281,0.14642333984375,186.6539459228516,172.8729858398438,25,526936.3663268751,0.407196044921875,-0.88262939453125,-0.3011474609375,526936.3394978751,1.178435732870722,-0.4019138853865073,2.02510337925486,526936.3394978751,1.087359234337894,0.9538496127761165,0.8248747842229877,1.195264458656311,-0.4100719094276428,2.015563249588013,-0.01905430108308792,-0.05673592165112495,0.06615357846021652,XTrueNorthZVertical,0.08721703333724529,0.5441303836059869,0.5785037970939713,0.60137234881903,0.5535391569137573,-0.7344627976417542,-0.3926306366920471,13.66237735748291,-44.67010498046875,-0.2036828994750977,1,526935.530350875,unknown,2,2015-02-16 17:20:35.804,null,0,0,0,0,null,0,-0.6054459,100.6746,192.168.1.3,10.191.100.224,4,0
2015-02-16 17:20:36.829,113,1424136031.959704,37.77915916215708,-122.4387326892296,55.93147,-1,-1,10,65,-9999,1424136036.726365,13.02959442138672,-43.90425109863281,0.14642333984375,186.6539459228516,172.8729858398438,25,526936.4655808751,-0.022552490234375,-0.9313812255859375,-0.1607513427734375,526936.439445875,1.495480533270802,-0.8826711874770286,2.582052921184221,526936.439445875,1.139097348152881,0.8457079360453301,1.088781346871171,1.512308955192566,-0.8908290266990662,2.572512865066528,-0.3015106916427612,-0.07823178917169571,-0.04157686233520508,XTrueNorthZVertical,0.2084281372732188,0.5503080965701141,0.5996469219959246,0.5423488820184076,0.3469513654708862,-0.8860626220703125,-0.3074374198913574,6.370977401733398,-46.10652542114258,3.964775085449219,1,526935.530350875,unknown,2,2015-02-16 17:20:35.804,null,0,0,0,0,null,0,-0.6054459,100.6746,192.168.1.3,10.191.100.224,4,0
2015-02-16 17:20:36.929,114,1424136031.959704,37.77915916215708,-122.4387326892296,55.93147,-1,-1,10,65,-9999,1424136036.844055,0.7202072143554688,-45.291748046875,6.7880859375,176.6702270507812,162.8892669677734,25,526936.5648218751,0.6328125,-0.8269195556640625,-0.4571990966796875,526936.539374875,0.9826843380021912,1.040634989638424,1.281374632169445,526936.539374875,1.357098231568237,0.6505998291010973,1.336419390232369,0.9995123744010925,1.032477259635925,1.271834850311279,0.3077829480171204,0.3102751970291138,-0.1118044778704643,XTrueNorthZVertical,0.2995834266672651,0.5637835037685653,0.6209862230719334,0.4547241719363547,0.1406576186418533,-0.9726592302322388,-0.1847958564758301,-5.294258117675781,-45.17474746704102,10.6458215713501,1,526935.530350875,unknown,2,2015-02-16 17:20:35.804,null,0,0,0,0,null,0,-0.6054459,100.6746,192.168.1.3,10.191.100.224,4,0
2015-02-16 17:20:37.028,115,1424136031.959704,37.77915916215708,-122.4387326892296,55.93147,-1,-1,10,65,-9999,1424136036.962811,-10.78938293457031,-43.52267456054688,12.38986206054688,162.2569732666016,148.4760131835938,25,526936.664071875,-0.393157958984375,-0.9632568359375,0.1226043701171875,526936.639312875,-0.5875205007145987,-2.236587398263033,0.2182327355265432,526936.639312875,1.582057884036618,0.3731960179649729,1.372341969154547,-0.5706927180290222,-2.244744777679443,0.2086931467056274,-0.2171601057052612,0.012354901060462,0.2179922014474869,XTrueNorthZVertical,0.3356843744772336,0.5436213617892124,0.6232384055399651,0.4509609030081013,0.07188117504119873,-0.9803724884986877,-0.1835836321115494,-9.514919281005859,-43.95635604858398,12.62639713287354,1,526935.530350875,unknown,2,2015-02-16 17:20:35.804,null,0,0,0,0,null,0,-0.6054459,100.6746,192.168.1.3,10.191.100.224,4,0
2015-02-16 17:20:37.152,116,1424136031.959704,37.77915916215708,-122.4387326892296,55.93147,-1,-1,10,65,-9999,1424136037.081708,-11.48482894897461,-43.38394165039062,12.926513671875,164.817138671875,151.0361785888672,25,526936.7632988751,0.1475067138671875,-0.976806640625,-0.2369232177734375,526936.7392478751,0.05118089614525181,-0.6068228259793841,0.05481158365935683,526936.639312875,1.582057884036618,0.3731960179649729,1.372341969154547,-0.5706927180290222,-2.244744777679443,0.2086931467056274,-0.2171601057052612,0.012354901060462,0.2179922014474869,XTrueNorthZVertical,0.3356843744772336,0.5436213617892124,0.6232384055399651,0.4509609030081013,0.07188117504119873,-0.9803724884986877,-0.1835836321115494,-9.514919281005859,-43.95635604858398,12.62639713287354,1,526935.530350875,unknown,2,2015-02-16 17:20:35.804,null,0,0,0,0,null,0,-0.6054459,100.6746,192.168.1.3,10.191.100.224,1,0
2015-02-16 17:20:37.238,117,1424136031.959704,37.77915916215708,-122.4387326892296,55.93147,-1,-1,10,65,-9999,1424136037.20044,-12.94527053833008,-42.9676513671875,13.26199340820312,161.9622192382812,148.1812591552734,25,526936.862542875,0.081329345703125,-0.934417724609375,0.073638916015625,526936.8391758751,-0.112860772255923,-0.2787344291709633,0.08801427823381072,526936.8391758751,1.716747591007647,0.2152758114054431,1.377179909231537,-0.09602693468332291,-0.2869238257408142,0.07847268134355545,-0.2230629026889801,-0.02495653927326202,-0.104848325252533,XTrueNorthZVertical,0.3501934173425348,0.5323350935745259,0.6255844888535314,0.4501421956986845,0.04110183566808701,-0.9813148379325867,-0.187967836856842,-10.05699062347412,-43.79651260375977,12.76099300384521,1,526935.530350875,unknown,2,2015-02-16 17:20:35.804,null,0,0,0,0,null,0,-0.6054459,100.6746,192.168.1.3,10.191.100.224,1,0
2015-02-16 17:20:37.326,118,1424136031.959704,37.77915916215708,-122.4387326892296,55.93147,-1,-1,10,65,-9999,1424136037.301392,-12.8409538269043,-42.86360168457031,13.29559326171875,161.2894592285156,147.5084991455078,25,526936.9617898751,-0.063568115234375,-1.020233154296875,-0.19781494140625,526936.939111875,-0.09382183362294652,-0.59287292187344,0.06056134845283791,526936.939111875,1.750552443852429,0.1896482675241767,1.376249692476373,-0.0769883394241333,-0.6010621786117554,0.05101994797587395,-0.04326445609331131,0.08387283980846405,0.06572547554969788,XTrueNorthZVertical,0.3489796666773807,0.5322455541835561,0.6288840653908981,0.446578912442816,0.03644377738237381,-0.9811354279518127,-0.1898557245731354,-10.52996635437012,-43.78107452392578,12.42809963226318,1,526935.530350875,unknown,2,2015-02-16 17:20:35.804,null,0,0,0,0,null,0,-0.6054459,100.6746,192.168.1.3,10.191.100.224,1,0
2015-02-16 17:20:37.423,119,1424136031.959704,37.77915916215708,-122.4387326892296,55.93147,-1,-1,10,65,-9999,1424136037.418551,-12.66709136962891,-42.75950622558594,12.79238891601562,161.4898681640625,147.7089080810547,25,526937.0610158751,0.013336181640625,-0.979583740234375,-0.116729736328125,526937.039056875,-0.07236980472624925,-0.2681912407314486,0.07615841769299597,526937.039056875,1.784385520477694,0.1686010033986818,1.377805044818114,-0.05553664639592171,-0.276380330324173,0.0666172131896019,0.04812305793166161,-0.000620751699898392,-0.1576951891183853,XTrueNorthZVertical,0.3470121556942176,0.5338956218464996,0.6323843141822921,0.4411667920337984,0.03218394890427589,-0.9814349412918091,-0.1890760511159897,-10.76451206207275,-43.71988677978516,12.44255828857422,1,526935.530350875,unknown,2,2015-02-16 17:20:35.804,null,0,0,0,0,null,0,-0.6054459,100.6746,192.168.1.3,10.191.100.224,1,0
2015-02-16 17:20:37.560,120,1424136031.959704,37.77915916215708,-122.4387326892296,55.93147,-1,-1,10,65,-9999,1424136037.537129,-12.63231658935547,-42.72482299804688,12.89312744140625,161.8092041015625,148.0282440185547,25,526937.160277875,0.067291259765625,-0.9674224853515625,-0.174530029296875,526937.1389868751,-0.04912280525483857,-0.07532538090401919,-0.01896170696136418,526937.1389868751,1.806333243472781,0.1292046354692906,1.376485896217606,-0.03228998556733131,-0.08351430296897888,-0.02850272506475449,0.01924963481724262,0.02521791681647301,-0.005525576416403055,XTrueNorthZVertical,0.3532810166204502,0.528632385169266,0.6306526586219596,0.4449916620146236,0.02487878315150738,-0.9811810255050659,-0.1914806514978409,-10.77812576293945,-43.69033050537109,12.53425788879395,1,526935.530350875,unknown,2,2015-02-16 17:20:35.804,null,0,0,0,0,null,0,-0.6054459,100.6746,192.168.1.3,10.191.100.224,1,0
2015-02-16 17:20:37.623,121,1424136031.959704,37.77915916215708,-122.4387326892296,55.93147,-1,-1,10,65,-9999,1424136037.537129,-12.63231658935547,-42.72482299804688,12.89312744140625,161.8092041015625,148.0282440185547,25,526937.25955975,0.080413818359375,-0.954864501953125,-0.22882080078125,526937.23895975,0.008513859688874317,0.1081778697951277,-0.01612117934268566,526937.23895975,1.805147259851708,0.1215802867284655,1.375557233784502,0.02534634433686733,0.09998910874128342,-0.0256620068103075,-0.003509126370772719,0.02213900908827782,0.06451738625764847,XTrueNorthZVertical,0.3557591071628272,0.5264512192657367,0.6292536366372831,0.4475762087362226,0.02352865785360336,-0.9810013175010681,-0.1925691366195679,-10.62893199920654,-43.71180725097656,12.58667469024658,1,526935.530350875,unknown,2,2015-02-16 17:20:35.804,null,0,0,0,0,null,0,-0.6054459,100.6746,192.168.1.3,10.191.100.224,1,0
2015-02-16 17:20:37.722,122,1424136031.959704,37.77915916215708,-122.4387326892296,55.93147,-1,-1,10,65,-9999,1424136037.655008,-12.98004913330078,-42.86357116699219,12.35641479492188,160.8689117431641,147.0879516601562,25,526937.35880275,0.03790283203125,-0.9744110107421875,-0.2097930908203125,526937.33890975,-0.01383725239183371,0.2514404901070682,-0.01406628424558052,526937.23895975,1.805147259851708,0.1215802867284655,1.375557233784502,0.02534634433686733,0.09998910874128342,-0.0256620068103075,-0.003509126370772719,0.02213900908827782,0.06451738625764847,XTrueNorthZVertical,0.3557591071628272,0.5264512192657367,0.6292536366372831,0.4475762087362226,0.02352865785360336,-0.9810013175010681,-0.1925691366195679,-10.62893199920654,-43.71180725097656,12.58667469024658,1,526935.530350875,unknown,2,2015-02-16 17:20:35.804,null,0,0,0,0,null,0,-0.6054459,100.6746,192.168.1.3,10.191.100.224,1,0
2015-02-16 17:20:37.823,123,1424136031.959704,37.77915916215708,-122.4387326892296,55.93147,-1,-1,10,65,-9999,1424136037.773843,-12.42370223999023,-42.30856323242188,12.75897216796875,161.9154968261719,148.1345367431641,25,526937.4580487501,0.116668701171875,-0.8744659423828125,-0.4345855712890625,526937.4388457501,-0.3481028513486932,0.5634194254815996,-0.6134271991666715,526937.4388457501,1.670353337188791,0.2750592853460623,1.35003466038546,-0.3312984704971313,0.5552328824996948,-0.6230013370513916,0.07286554574966431,0.06578832119703293,-0.03207152336835861,XTrueNorthZVertical,0.3360306224454551,0.5307660764122457,0.6308451256080755,0.4554176663778103,0.05947393551468849,-0.9757309556007385,-0.2107415795326233,-9.669302940368652,-44.17898941040039,11.69794654846191,1,526935.530350875,unknown,2,2015-02-16 17:20:35.804,null,0,0,0,0,null,0,-0.7358284,100.6761,192.168.1.3,10.191.100.224,1,0
2015-02-16 17:20:37.920,124,1424136031.959704,37.77915916215708,-122.4387326892296,55.93147,-1,-1,10,65,-9999,1424136037.89158,-9.850547790527344,-43.90422058105469,10.410888671875,163.4143981933594,149.6334381103516,25,526937.5572567501,0.25592041015625,-0.850006103515625,-0.269927978515625,526937.53878175,-0.6940267042934837,1.170554107624632,-1.602069294843479,526937.53878175,1.381536754515457,0.6193316583929727,1.249333564250042,-0.6772226691246033,1.162367701530457,-1.611643195152283,-0.0327589213848114,0.1170176714658737,-0.1451791226863861,XTrueNorthZVertical,0.2718254577107129,0.5454128701512558,0.6295953902916482,0.4819184542854193,0.1834089457988739,-0.9487742781639099,-0.2572714388370514,-7.039823532104492,-45.13740921020508,9.755800247192383,1,526935.530350875,unknown,2,2015-02-16 17:20:35.804,null,0,0,0,0,null,0,-0.7358284,100.6761,192.168.1.3,10.191.100.224,1,0
2015-02-16 17:20:38.021,125,1424136031.959704,37.77915916215708,-122.4387326892296,55.93147,-1,-1,10,65,-9999,1424136038.010683,-1.261795043945312,-46.08956909179688,5.74835205078125,171.6066589355469,157.8256988525391,25,526937.65649975,0.1601409912109375,-0.9193115234375,-0.322052001953125,526937.63871875,-0.9909848784877502,0.03769438206898153,-2.073261321246763,526937.63871875,1.194694641762521,0.8044611575373363,1.051602422345254,-0.9741811752319336,0.02950816787779331,-2.082834959030151,-0.1321807056665421,-0.05484575405716896,0.1180267110466957,XTrueNorthZVertical,0.1914290794744544,0.5397262649017291,0.6101081862868181,0.5475568445159004,0.3574767112731934,-0.8682194352149963,-0.3441009223461151,0.58489990234375,-46.39909362792969,5.3760986328125,1,526935.530350875,unknown,2,2015-02-16 17:20:35.804,null,0,0,0,0,null,0,-0.7358284,100.6761,192.168.1.3,10.191.100.224,1,0
2015-02-16 17:20:38.122,126,1424136031.959704,37.77915916215708,-122.4387326892296,55.93147,-1,-1,10,65,-9999,1424136038.010683,-1.261795043945312,-46.08956909179688,5.74835205078125,171.6066589355469,157.8256988525391,25,526937.75573175,0.5589447021484375,-0.7805938720703125,-0.2648468017578125,526937.73865375,-0.9288035291438171,-0.2177432465181866,-1.928241547247588,526937.73865375,1.098471917989831,0.9443601933851682,0.8296935002560405,-0.9119895100593567,-0.225960910320282,-1.937816500663757,0.09772313386201859,-0.02172070369124413,0.09038148820400238,XTrueNorthZVertical,0.08885774560329164,0.5424124133876753,0.5818358707949354,0.599466533468856,0.5469149351119995,-0.7377244830131531,-0.3957861363887787,10.66123390197754,-45.47455215454102,0.7236442565917969,1,526935.530350875,unknown,2,2015-02-16 17:20:35.804,null,0,0,0,0,null,0,-0.7358284,100.6761,192.168.1.3,10.191.100.224,1,0
2015-02-16 17:20:38.220,127,1424136031.959704,37.77915916215708,-122.4387326892296,55.93147,-1,-1,10,65,-9999,1424136038.129326,11.04756927490234,-44.7020263671875,0.783935546875,183.9279174804688,170.1469573974609,25,526937.8549757501,0.7022247314453125,-0.6301727294921875,-0.6050872802734375,526937.8385997501,-0.7714032518690819,0.772344679314425,-1.783691022232485,526937.8385997501,1.050126146054277,0.9772179040863362,0.6078440979035694,-0.7545896172523499,0.7641271352767944,-1.79326593875885,0.02348406240344048,-0.2367622852325439,-0.0767597109079361,XTrueNorthZVertical,0.00414023044732631,0.5200103361267234,0.5438790461580691,0.6586104481459532,0.6804649233818054,-0.5710990428924561,-0.4591442048549652,19.92752075195312,-42.07472229003906,-3.838296890258789,1,526935.530350875,unknown,2,2015-02-16 17:20:35.804,null,0,0,0,0,null,0,-0.7358284,100.6761,192.168.1.3,10.191.100.224,1,0
2015-02-16 17:20:38.319,128,1424136031.959704,37.77915916215708,-122.4387326892296,55.93147,-1,-1,10,65,-9999,1424136038.248367,21.16627502441406,-41.19854736328125,-3.5430908203125,194.6671295166016,180.8861694335938,25,526937.9542257501,0.82000732421875,-0.4821624755859375,-0.35516357421875,526937.9385247501,-0.9270908502467872,-0.06889278160704179,-1.318753695965361,526937.8385997501,1.050126146054277,0.9772179040863362,0.6078440979035694,-0.7545896172523499,0.7641271352767944,-1.79326593875885,0.02348406240344048,-0.2367622852325439,-0.0767597109079361,XTrueNorthZVertical,0.00414023044732631,0.5200103361267234,0.5438790461580691,0.6586104481459532,0.6804649233818054,-0.5710990428924561,-0.4591442048549652,19.92752075195312,-42.07472229003906,-3.838296890258789,1,526935.530350875,unknown,2,2015-02-16 17:20:35.804,null,0,0,0,0,null,0,-0.7358284,100.6761,192.168.1.3,10.191.100.224,1,0
2015-02-16 17:20:38.423,129,1424136031.959704,37.77915916215708,-122.4387326892296,55.93147,-1,-1,10,65,-9999,1424136038.366854,27.42529296875,-36.82786560058594,-6.226806640625,201.2279815673828,187.447021484375,25,526938.05347275,0.95965576171875,-0.259063720703125,-0.6398162841796875,526938.03846275,-0.1733560743137269,0.1451878194639588,-0.6231237686956501,526937.9385247501,1.041868281001124,1.011551237040941,0.4298164281456148,-0.9102774858474731,-0.07711011916399002,-1.328328371047974,0.02717447280883789,-0.1808454990386963,-0.03087918646633625,XTrueNorthZVertical,-0.07376567916681755,0.5034024733990737,0.5149791726976295,0.6898848139247801,0.7705550193786621,-0.4167039394378662,-0.4822891354560852,27.01581192016602,-37.52323150634766,-6.653847694396973,1,526935.530350875,unknown,2,2015-02-16 17:20:35.804,null,0,0,0,0,null,0,-0.7358284,100.6761,192.168.1.3,10.191.100.224,1,0
2015-02-16 17:20:38.518,130,1424136031.959704,37.77915916215708,-122.4387326892296,55.93147,-1,-1,10,65,-9999,1424136038.484668,31.14591979980469,-34.29563903808594,-7.333740234375,206.059326171875,192.2783660888672,25,526938.1527047501,0.8668060302734375,-0.272857666015625,-0.5026702880859375,526938.1383937501,0.1480326081403815,-0.02170423025192778,0.3214520656880523,526938.03846275,1.024687067943972,1.01098231077451,0.3195738944206381,-0.1565430760383606,0.136970654129982,-0.6326982378959656,0.0314703993499279,0.005217355210334063,0.1806865036487579,XTrueNorthZVertical,-0.1130247999646633,0.4849270464985738,0.4906018222805323,0.7151091081686408,0.8044518232345581,-0.3141620457172394,-0.5041422843933105,31.09161758422852,-33.7165412902832,-8.867170333862305,1,526935.530350875,unknown,2,2015-02-16 17:20:35.804,null,0,0,0,0,null,0,-0.7358284,100.6761,192.168.1.3,10.191.100.224,4,0
2015-02-16 17:20:38.617,131,1424136031.959704,37.77915916215708,-122.4387326892296,55.93147,-1,-1,10,65,-9999,1424136038.603812,30.27661895751953,-35.71784973144531,-6.3609619140625,204.3146667480469,190.5337066650391,25,526938.25193375,0.84783935546875,-0.4068756103515625,-0.4595794677734375,526938.2383347501,0.4966779454031239,0.1992406685287521,1.059856088489962,526938.1383937501,1.011787115521722,1.015101354155514,0.3098659793124595,0.164845272898674,-0.02992124482989311,0.3118777573108673,0.1056441217660904,0.1076348572969437,-0.03947562724351883,XTrueNorthZVertical,-0.1147393656854753,0.4854173504681343,0.4840357974924682,0.7189674895404043,0.8090745210647583,-0.3049310147762299,-0.5024097561836243,31.94331169128418,-32.93161392211914,-8.789420127868652,1,526935.530350875,unknown,2,2015-02-16 17:20:35.804,null,0,0,0,0,null,0,-0.7358284,100.6761,192.168.1.3,10.191.100.224,4,0
2015-02-16 17:20:38.717,132,1424136031.959704,37.77915916215708,-122.4387326892296,55.93147,-1,-1,10,65,-9999,1424136038.603812,30.27661895751953,-35.71784973144531,-6.3609619140625,204.3146667480469,190.5337066650391,25,526938.35116375,0.8885498046875,-0.4979095458984375,-0.3634490966796875,526938.3382797501,0.6932479959907445,0.06867972871983546,1.592301885229505,526938.2383347501,1.01809485464204,1.025764145410707,0.3892107942138491,0.5134902596473694,0.1910238265991211,1.050282001495361,0.08198253810405731,0.05089084804058075,0.0441846176981926,XTrueNorthZVertical,-0.08748796498335483,0.5025043548315661,0.4994836407941231,0.7002509210140605,0.7911558747291565,-0.3794583678245544,-0.4796704649925232,29.99499320983887,-35.02930068969727,-7.441046714782715,1,526935.530350875,unknown,2,2015-02-16 17:20:35.804,null,0,0,0,0,null,0,-0.7358284,100.6761,192.168.1.3,10.191.100.224,4,0
