loggingTime,loggingSample,locationTimestamp_since1970,locationLatitude,locationLongitude,locationAltitude,locationSpeed,locationCourse,locationVerticalAccuracy,locationHorizontalAccuracy,locationFloor,locationHeadingTimestamp_since1970,locationHeadingX,locationHeadingY,locationHeadingZ,locationTrueHeading,locationMagneticHeading,locationHeadingAccuracy,accelerometerTimestamp_sinceReboot,accelerometerAccelerationX,accelerometerAccelerationY,accelerometerAccelerationZ,gyroTimestamp_sinceReboot,gyroRotationX,gyroRotationY,gyroRotationZ,motionTimestamp_sinceReboot,motionYaw,motionRoll,motionPitch,motionRotationRateX,motionRotationRateY,motionRotationRateZ,motionUserAccelerationX,motionUserAccelerationY,motionUserAccelerationZ,motionAttitudeReferenceFrame,motionQuaternionX,motionQuaternionY,motionQuaternionZ,motionQuaternionW,motionGravityX,motionGravityY,motionGravityZ,motionMagneticFieldX,motionMagneticFieldY,motionMagneticFieldZ,motionMagneticFieldCalibrationAccuracy,IP_en0,IP_pdp_ip0,deviceOrientation,state
2015-02-26 19:56:49.323,1,1425009403.054204,37.76008478369354,-122.4614107982464,126.6709,0,-1,10,200,-9999,1425009409.279087,2.293846130371094,-39.83758544921875,-16.88185119628906,156.3883056640625,142.6103363037109,10,120400.5528313333,0.56695556640625,-0.6337432861328125,-0.664031982421875,120400.5424434167,-0.2830993501976032,0.6922839316761358,-0.1001471075279937,120400.4906630833,2.212945260409248,0.6039150279194708,0.76258273799273,-0.3523612916469574,1.068649649620056,-0.1583234071731567,-0.03410502150654793,-0.004033011849969625,0.01729392819106579,XTrueNorthZVertical,0.08770524211299333,-0.4412799864942998,-0.841922099979945,-0.2979043085758843,0.4106003940105438,-0.6907911896705627,-0.5951595306396484,3.597838401794434,-39.54749298095703,-16.68884658813477,2,0.0.0.0,10.83.46.32,1,0
2015-02-26 19:56:49.382,2,1425009403.054204,37.76008478369354,-122.4614107982464,126.6709,0,-1,10,200,-9999,1425009409.333868,2.58367919921875,-39.44676208496094,-17.43105316162109,153.6316375732422,139.8536682128906,10,120400.6019270833,0.45965576171875,-0.6437225341796875,-0.5973052978515625,120400.594223375,-0.07679304898076186,-0.4907872993879776,0.0431075233006766,120400.594223375,2.225619694722845,0.6432655694213966,0.7411546026030545,-0.0836329385638237,-0.4799750149250031,0.07975110411643982,0.03767360001802444,0.01556368358433247,-0.02029404789209366,XTrueNorthZVertical,0.1123788920599493,-0.4384552948755964,-0.8438036110400965,-0.2883113603170195,0.4424747228622437,-0.6751400828361511,-0.5902558565139771,5.043445587158203,-39.04935455322266,-17.46934127807617,2,0.0.0.0,10.83.46.32,1,0
2015-02-26 19:56:49.403,3,1425009403.054204,37.76008478369354,-122.4614107982464,126.6709,0,-1,10,200,-9999,1425009409.333868,2.58367919921875,-39.44676208496094,-17.43105316162109,153.6316375732422,139.8536682128906,10,120400.650979625,0.4072418212890625,-0.661346435546875,-0.577056884765625,120400.6460035833,-0.07633738211824929,-0.175274881879129,-0.0639385030311674,120400.594223375,2.225619694722845,0.6432655694213966,0.7411546026030545,-0.0836329385638237,-0.4799750149250031,0.07975110411643982,0.03767360001802444,0.01556368358433247,-0.02029404789209366,XTrueNorthZVertical,0.1123788920599493,-0.4384552948755964,-0.8438036110400965,-0.2883113603170195,0.4424747228622437,-0.6751400828361511,-0.5902558565139771,5.043445587158203,-39.04935455322266,-17.46934127807617,2,0.0.0.0,10.83.46.32,1,0
2015-02-26 19:56:49.477,4,1425009403.054204,37.76008478369354,-122.4614107982464,126.6709,0,-1,10,200,-9999,1425009409.464567,3.112197875976562,-39.49772644042969,-18.94552612304688,153.5191192626953,139.7411499023438,10,120400.70006125,0.4351959228515625,-0.647064208984375,-0.6020660400390625,120400.6977835833,-0.09092085224752321,0.001499626009823619,-0.04635684614668228,120400.6460035833,2.227751539963675,0.6233952228617867,0.7387537263010827,-0.08317720890045166,-0.1644627153873444,-0.02729528956115246,-0.02401182241737843,0.01702550239861012,0.01850387640297413,XTrueNorthZVertical,0.1050438236565681,-0.4345609171457646,-0.8454092590439508,-0.2922427494413208,0.4316045939922333,-0.6733670830726624,-0.6002452373504639,4.654092788696289,-39.00896072387695,-17.66654586791992,2,0.0.0.0,10.83.46.32,1,0
2015-02-26 19:56:49.502,5,1425009403.054204,37.76008478369354,-122.4614107982464,126.6709,0,-1,10,200,-9999,1425009409.464567,3.112197875976562,-39.49772644042969,-18.94552612304688,153.5191192626953,139.7411499023438,10,120400.7492137917,0.4401702880859375,-0.6309661865234375,-0.6047821044921875,120400.6977835833,-0.09092085224752321,0.001499626009823619,-0.04635684614668228,120400.6977835833,2.229587046966965,0.620857974966435,0.7345899595057358,-0.09776061773300171,0.01231169141829014,-0.009713958948850632,0.002435530535876751,0.01822908595204353,0.009024417959153652,XTrueNorthZVertical,0.1053896648727578,-0.4325346144169365,-0.8461897786358981,-0.2928646784413497,0.4317075312137604,-0.6702829003334045,-0.6036136746406555,4.637308120727539,-38.914306640625,-17.8784294128418,2,0.0.0.0,10.83.46.32,1,0
2015-02-26 19:56:49.571,6,1425009403.054204,37.76008478369354,-122.4614107982464,126.6709,0,-1,10,200,-9999,1425009409.536909,3.061050415039062,-39.03897094726562,-18.82904052734375,153.6981658935547,139.9201965332031,10,120400.7981942917,0.4256134033203125,-0.656158447265625,-0.611572265625,120400.80134375,-0.07838801615761032,-0.04291098201222875,-0.08073133160077103,120400.74956375,2.2335621792303,0.6205853901767896,0.7318053673135014,-0.05730729922652245,0.02498660609126091,0.008311937563121319,0.007543608080595732,0.0372476726770401,0.000465299206553027,XTrueNorthZVertical,0.1068135129615781,-0.4312391118536684,-0.8470376904074179,-0.2918062514117166,0.4326266944408417,-0.6682138442993164,-0.6052473783493042,4.652388572692871,-38.848388671875,-18.01733779907227,2,0.0.0.0,10.83.46.32,1,0
2015-02-26 19:56:49.599,7,1425009403.054204,37.76008478369354,-122.4614107982464,126.6709,0,-1,10,200,-9999,1425009409.590016,2.94171142578125,-39.12394714355469,-18.87896728515625,153.7347259521484,139.9567565917969,10,120400.8473517917,0.4401092529296875,-0.657440185546875,-0.5725250244140625,120400.80134375,-0.07838801615761032,-0.04291098201222875,-0.08073133160077103,120400.80134375,2.235686473784986,0.6184413815488654,0.7279246661192345,-0.08523759990930557,-0.03212843090295792,-0.04401762410998344,-0.007214789278805256,0.009163266979157925,-0.003290422959253192,XTrueNorthZVertical,0.1073081563229468,-0.4293530462226926,-0.8478133928922424,-0.29215305508523,0.4328281879425049,-0.6653217077255249,-0.6082818508148193,4.668059349060059,-38.78997802734375,-18.13871765136719,2,0.0.0.0,10.83.46.32,1,0
2015-02-26 19:56:49.675,8,1425009403.054204,37.76008478369354,-122.4614107982464,126.6709,0,-1,10,200,-9999,1425009409.641428,2.822357177734375,-38.86909484863281,-19.02873992919922,153.7601013183594,139.9821319580078,10,120400.896324875,0.418487548828125,-0.6329498291015625,-0.592376708984375,120400.9049039583,-0.01356054995457447,0.2022449805544705,-0.06257256770806575,120400.853124,2.233176844593385,0.6190617127848843,0.7233161830343457,-0.001999074826017022,0.01730182580649853,0.004726940300315619,0.005129230674356222,0.004433981608599424,0.03797886148095131,XTrueNorthZVertical,0.1081562631807632,-0.4278437563078576,-0.8478250017325254,-0.2940148717966901,0.434980034828186,-0.6618741750717163,-0.6105039119720459,4.819980621337891,-38.69045257568359,-18.31073951721191,2,0.0.0.0,10.83.46.32,1,0
2015-02-26 19:56:49.697,9,1425009403.054204,37.76008478369354,-122.4614107982464,126.6709,0,-1,10,200,-9999,1425009409.641428,2.822357177734375,-38.86909484863281,-19.02873992919922,153.7601013183594,139.9821319580078,10,120400.9453804167,0.4386444091796875,-0.644744873046875,-0.595001220703125,120400.9049039583,-0.01356054995457447,0.2022449805544705,-0.06257256770806575,120400.9049039583,2.237440256183238,0.6227800354230694,0.7230025306382644,-0.02041405811905861,0.2130293697118759,-0.0258651115000248,-0.0188805814832449,0.0286891870200634,0.01667415723204613,XTrueNorthZVertical,0.1107215550046442,-0.4280365681793656,-0.8482734591766863,-0.2914748831241344,0.4373681247234344,-0.6616390347480774,-0.6090508699417114,4.799801826477051,-38.67212295532227,-18.35470199584961,2,0.0.0.0,10.83.46.32,1,0
2015-02-26 19:56:49.779,10,1425009403.054204,37.76008478369354,-122.4614107982464,126.6709,0,-1,10,200,-9999,1425009409.744917,2.941703796386719,-39.0899658203125,-19.14523315429688,153.131103515625,139.3531341552734,10,120400.99445975,0.463104248046875,-0.641632080078125,-0.6036376953125,120400.9566842083,-0.009501626137184705,0.1436604965787984,-0.03785976437267546,120400.9566842083,2.236602269024244,0.6323470778601268,0.7210109441258684,-0.01635453663766384,0.1544488221406937,-0.001156734069809318,-0.006986839231103659,0.006839314941316843,0.01036518253386021,XTrueNorthZVertical,0.1150835462498707,-0.4287254913713719,-0.8477867798388353,-0.2901858746366744,0.4439527690410614,-0.6601443886756897,-0.6059004664421082,4.964913368225098,-38.65071105957031,-18.35588455200195,2,0.0.0.0,10.83.46.32,1,0
2015-02-26 19:56:49.796,11,1425009403.054204,37.76008478369354,-122.4614107982464,126.6709,0,-1,10,200,-9999,1425009409.744917,2.941703796386719,-39.0899658203125,-19.14523315429688,153.131103515625,139.3531341552734,10,120401.0435130833,0.47283935546875,-0.6387481689453125,-0.5960693359375,120401.008464125,-0.008200671944680998,0.13470748162617,-0.008279235196838335,120401.008464125,2.238505758751484,0.6406093780172739,0.7207252179683322,-0.01505421102046967,0.1454958915710449,0.02842258661985397,0.02060910686850548,0.01744314841926098,0.0008614842663519084,XTrueNorthZVertical,0.1190636500467201,-0.4297003289442664,-0.847602893402333,-0.2876644662031758,0.4490564167499542,-0.6599296927452087,-0.6023629307746887,5.206491470336914,-38.61800003051758,-18.3577995300293,2,0.0.0.0,10.83.46.32,1,0
2015-02-26 19:56:49.873,12,1425009403.054204,37.76008478369354,-122.4614107982464,126.6709,0,-1,10,200,-9999,1425009409.849118,3.29974365234375,-38.59719848632812,-19.52801513671875,152.1351165771484,138.3571472167969,10,120401.0926650417,0.4644622802734375,-0.6395263671875,-0.59490966796875,120401.060244375,0.004862133202157665,0.008406001664726107,0.002224804774652196,120401.060244375,2.240125376492418,0.6417917099054241,0.719954136295699,-0.001992834964767098,0.01919602416455746,0.03892309218645096,0.01239059399813414,0.0248592235147953,0.008778941817581654,XTrueNorthZVertical,0.1201005064532498,-0.4294838251421486,-0.847831316365328,-0.2868825661458009,0.4500727951526642,-0.6593502163887024,-0.6022390127182007,5.24864387512207,-38.59483337402344,-18.39448165893555,2,0.0.0.0,10.83.46.32,1,0
2015-02-26 19:56:49.894,13,1425009403.054204,37.76008478369354,-122.4614107982464,126.6709,0,-1,10,200,-9999,1425009409.849118,3.29974365234375,-38.59719848632812,-19.52801513671875,152.1351165771484,138.3571472167969,10,120401.1416562083,0.4393768310546875,-0.627166748046875,-0.5793609619140625,120401.1120243333,0.02370612844334034,-0.05867689566549784,0.01978622163485271,120401.1120243333,2.240274532026643,0.6432734685007541,0.7199740434145752,0.01684830710291862,-0.04787835478782654,0.05647223070263863,0.01481774635612965,0.01359794568270445,0.01930082961916924,XTrueNorthZVertical,0.120755812401445,-0.4296947204529459,-0.8477617610215609,-0.286496968592999,0.450956791639328,-0.659365177154541,-0.6015609502792358,5.262284278869629,-38.59032440185547,-18.40004730224609,2,0.0.0.0,10.83.46.32,1,0
2015-02-26 19:56:49.973,14,1425009403.054204,37.76008478369354,-122.4614107982464,126.6709,0,-1,10,200,-9999,1425009409.952819,2.890556335449219,-38.97102355957031,-19.79428863525391,150.9605560302734,137.1825866699219,10,120401.1907366667,0.474822998046875,-0.6340179443359375,-0.5819244384765625,120401.1638045417,0.0225487186335919,0.1324158315081568,0.04432139212553472,120401.1638045417,2.242748466569125,0.6462886680510442,0.721189257440135,0.01578405313193798,0.1431534141302109,0.08114634454250336,-0.01065055094659328,0.03712460771203041,0.008478676900267601,XTrueNorthZVertical,0.1222702132050406,-0.4304309475603991,-0.8478271734850577,-0.2845493168549404,0.4522856771945953,-0.6602783203125,-0.599558413028717,5.255566596984863,-38.60859680175781,-18.36359024047852,2,0.0.0.0,10.83.46.32,1,0
2015-02-26 19:56:49.992,15,1425009403.054204,37.76008478369354,-122.4614107982464,126.6709,0,-1,10,200,-9999,1425009409.952819,2.890556335449219,-38.97102355957031,-19.79428863525391,150.9605560302734,137.1825866699219,10,120401.2399112083,0.442626953125,-0.6453399658203125,-0.5695953369140625,120401.2155845,0.07505480373726714,-0.01827940509008587,0.04313868228543052,120401.2155845,2.242073813222823,0.6515675101014905,0.7231628862655206,0.06828595697879791,-0.007535005919635296,0.07995209842920303,0.01557691860944033,0.01544271782040596,0.0119882021099329,XTrueNorthZVertical,0.1238813779348479,-0.4319615976885479,-0.8472368516664265,-0.2832884307184224,0.4546531736850739,-0.6617592573165894,-0.5961251854896545,5.328386306762695,-38.62789916992188,-18.30190849304199,2,0.0.0.0,10.83.46.32,1,0
2015-02-26 19:56:50.077,16,1425009410.049803,37.76006487518296,-122.4614114136563,126.7054,0.02051564,-1,10,200,-9999,1425009410.005018,3.043998718261719,-39.32783508300781,-19.37823486328125,151.6617736816406,137.8838043212891,10,120401.2888780417,0.4777679443359375,-0.6383514404296875,-0.598876953125,120401.2673645417,0.0693633621716588,0.107921141066044,0.03507010313081746,120401.2673645417,2.243397046062299,0.6544830387443281,0.7290073044074159,0.06259721517562866,0.1186679229140282,0.0718834325671196,-0.01307860482484102,0.002738461829721928,-0.003893042216077447,XTrueNorthZVertical,0.1239788149899541,-0.4344766833948389,-0.8467381810733654,-0.2808803183024762,0.4540270864963531,-0.6661295890808105,-0.5917185544967651,5.273516654968262,-38.67990112304688,-18.20773506164551,2,0.0.0.0,10.83.46.32,1,0
2015-02-26 19:56:50.090,17,1425009410.049803,37.76006487518296,-122.4614114136563,126.7054,0.02051564,-1,10,200,-9999,1425009410.057502,2.99285888671875,-39.58270263671875,-19.26173400878906,151.6135101318359,137.8355407714844,10,120401.3379774167,0.4379425048828125,-0.67578125,-0.5420989990234375,120401.3191446667,0.1375370902843792,-0.0006649913241927858,-0.03325702306069151,120401.2673645417,2.243397046062299,0.6544830387443281,0.7290073044074159,0.06259721517562866,0.1186679229140282,0.0718834325671196,-0.01307860482484102,0.002738461829721928,-0.003893042216077447,XTrueNorthZVertical,0.1239788149899541,-0.4344766833948389,-0.8467381810733654,-0.2808803183024762,0.4540270864963531,-0.6661295890808105,-0.5917185544967651,5.273516654968262,-38.67990112304688,-18.20773506164551,2,0.0.0.0,10.83.46.32,1,0
2015-02-26 19:56:50.181,18,1425009410.049803,37.76006487518296,-122.4614114136563,126.7054,0.02051564,-1,10,200,-9999,1425009410.113381,2.941703796386719,-39.56571960449219,-18.97881317138672,151.6026916503906,137.8247222900391,10,120401.3870317083,0.4676055908203125,-0.6551361083984375,-0.555755615234375,120401.3709249167,0.1616133981192406,0.2873995564097541,0.05361475906547522,120401.3709249167,2.23798433694968,0.6702686753714421,0.738461659372366,0.1548419296741486,0.298150897026062,0.09041699767112732,-0.0358855240046978,0.01575668901205063,0.02319644019007683,XTrueNorthZVertical,0.1271547070241557,-0.4405375869501009,-0.844172337868617,-0.277725429913145,0.4593779444694519,-0.6731510758399963,-0.5795166492462158,5.320529937744141,-38.8996696472168,-17.71930503845215,2,0.0.0.0,10.83.46.32,1,0
2015-02-26 19:56:50.188,19,1425009410.049803,37.76006487518296,-122.4614114136563,126.7054,0.02051564,-1,10,200,-9999,1425009410.113381,2.941703796386719,-39.56571960449219,-18.97881317138672,151.6026916503906,137.8247222900391,10,120401.43608225,0.48126220703125,-0.67822265625,-0.5723724365234375,120401.4227048333,0.1993357433796679,0.1388785245254521,-0.001417600648249178,120401.4227048333,2.232344921149055,0.6871886319652504,0.7463888789484456,0.1925638020038605,0.1496311128139496,0.03538238257169724,0.01777268387377262,0.0052402731962502,0.002699071541428566,XTrueNorthZVertical,0.131080134759976,-0.4461600548471875,-0.8416206566147073,-0.2746523430934353,0.4657173156738281,-0.6789920926094055,-0.567518413066864,5.40400218963623,-38.99482727050781,-17.48331642150879,2,0.0.0.0,10.83.46.32,1,0
2015-02-26 19:56:50.248,20,1425009410.049803,37.76006487518296,-122.4614114136563,126.7054,0.02051564,-1,10,200,-9999,1425009410.237372,3.402030944824219,-39.58270263671875,-18.72917175292969,149.6985931396484,135.9206237792969,10,120401.4851715833,0.4933013916015625,-0.7034759521484375,-0.5650177001953125,120401.474485125,0.1402950599092653,-0.05239822707952703,-0.05886651273511148,120401.4227048333,2.232344921149055,0.6871886319652504,0.7463888789484456,0.1925638020038605,0.1496311128139496,0.03538238257169724,0.01777268387377262,0.0052402731962502,0.002699071541428566,XTrueNorthZVertical,0.131080134759976,-0.4461600548471875,-0.8416206566147073,-0.2746523430934353,0.4657173156738281,-0.6789920926094055,-0.567518413066864,5.40400218963623,-38.99482727050781,-17.48331642150879,2,0.0.0.0,10.83.46.32,1,0
2015-02-26 19:56:50.286,21,1425009410.049803,37.76006487518296,-122.4614114136563,126.7054,0.02051564,-1,10,200,-9999,1425009410.237372,3.402030944824219,-39.58270263671875,-18.72917175292969,149.6985931396484,135.9206237792969,10,120401.53422375,0.4412384033203125,-0.6865692138671875,-0.5440673828125,120401.526265,0.08805635617903398,-0.1421720558455531,-0.0234797597506836,120401.474485125,2.226165909685905,0.6937350858076902,0.7524697072200803,0.1335225850343704,-0.04164525493979454,-0.02206800878047943,0.03499617800116539,-0.002301502507179976,-0.01463992800563574,XTrueNorthZVertical,0.1309371987665881,-0.4496878654809867,-0.8398252989530186,-0.2744627048143516,0.4667738378047943,-0.6834437251091003,-0.5612725615501404,5.519464492797852,-39.21345520019531,-16.95013236999512,2,0.0.0.0,10.83.46.32,1,0
2015-02-26 19:56:50.377,22,1425009410.049803,37.76006487518296,-122.4614114136563,126.7054,0.02051564,-1,10,200,-9999,1425009410.341273,3.35089111328125,-39.9735107421875,-18.11338806152344,150.8097381591797,137.0317687988281,10,120401.5833222083,0.45654296875,-0.691131591796875,-0.5485382080078125,120401.5780452083,0.07359246198270462,0.01206198920918689,-0.03713298771119283,120401.5780452083,2.218188792202096,0.691218068120393,0.7595133620694623,0.06682173907756805,0.02281726151704788,-0.0003361894632689655,0.005021076649427414,-0.002990206936374307,0.008094063960015774,XTrueNorthZVertical,0.1263207925333285,-0.4524176103291704,-0.8382848814746803,-0.2768390438612294,0.462279349565506,-0.688568651676178,-0.5587227344512939,5.375320434570312,-39.34027099609375,-16.70074844360352,2,0.0.0.0,10.83.46.32,1,0
2015-02-26 19:56:50.385,23,1425009410.049803,37.76006487518296,-122.4614114136563,126.7054,0.02051564,-1,10,200,-9999,1425009410.341273,3.35089111328125,-39.9735107421875,-18.11338806152344,150.8097381591797,137.0317687988281,10,120401.6323794167,0.4829864501953125,-0.6920928955078125,-0.5545806884765625,120401.5780452083,0.07359246198270462,0.01206198920918689,-0.03713298771119283,120401.5780452083,2.218188792202096,0.691218068120393,0.7595133620694623,0.06682173907756805,0.02281726151704788,-0.0003361894632689655,0.005021076649427414,-0.002990206936374307,0.008094063960015774,XTrueNorthZVertical,0.1263207925333285,-0.4524176103291704,-0.8382848814746803,-0.2768390438612294,0.462279349565506,-0.688568651676178,-0.5587227344512939,5.375320434570312,-39.34027099609375,-16.70074844360352,2,0.0.0.0,10.83.46.32,1,0
2015-02-26 19:56:50.478,24,1425009410.049803,37.76006487518296,-122.4614114136563,126.7054,0.02051564,-1,10,200,-9999,1425009410.450178,3.50433349609375,-40.29634094238281,-18.16332244873047,150.6097106933594,136.8317413330078,10,120401.6814838333,0.4715576171875,-0.693328857421875,-0.5555572509765625,120401.6816052083,0.03697692647131419,-0.02730645592101846,-0.05686834296922503,120401.6298251667,2.214731436641694,0.6958504191617977,0.7619383472472646,0.06190401688218117,0.02407512813806534,-0.0003611275751609355,0.01408393774181604,0.006182067561894655,4.002675268566236e-05,XTrueNorthZVertical,0.1268682806677685,-0.4541567883305084,-0.8373050961763195,-0.2767060938398546,0.4637908041477203,-0.690325140953064,-0.5552921295166016,5.435063362121582,-39.42753601074219,-16.47409248352051,2,0.0.0.0,10.83.46.32,1,0
2015-02-26 19:56:50.487,25,1425009410.049803,37.76006487518296,-122.4614114136563,126.7054,0.02051564,-1,10,200,-9999,1425009410.450178,3.50433349609375,-40.29634094238281,-18.16332244873047,150.6097106933594,136.8317413330078,10,120401.7305355417,0.4616546630859375,-0.689300537109375,-0.554840087890625,120401.7333853333,-0.001001881202087809,-0.04166169314487258,-0.04787484796802744,120401.6816052083,2.210984407747449,0.6990666172712345,0.7624262625305025,0.03020899556577206,-0.01654347591102123,-0.02007814310491085,0.006200072355568409,-0.002650799229741096,-0.002017544116824865,XTrueNorthZVertical,0.1272394237663776,-0.4550167860634982,-0.8365400950947542,-0.277435683026046,0.4653575420379639,-0.6906780600547791,-0.5535396933555603,5.505156517028809,-39.45513916015625,-16.38448905944824,2,0.0.0.0,10.83.46.32,1,0
2015-02-26 19:56:50.544,26,1425009410.049803,37.76006487518296,-122.4614114136563,126.7054,0.02051564,-1,10,200,-9999,1425009410.52342,3.129249572753906,-40.05845642089844,-17.93032836914062,150.3323516845703,136.5543823242188,10,120401.7796235,0.45849609375,-0.6752166748046875,-0.5463104248046875,120401.7333853333,-0.001001881202087809,-0.04166169314487258,-0.04787484796802744,120401.7333853333,2.210333122985531,0.6979235550673105,0.7623837067454068,-0.007770488038659096,-0.0308993011713028,-0.01108528953045607,-0.00308873550966382,0.001346745644696057,-0.0007462908979505301,XTrueNorthZVertical,0.1266239183149308,-0.4548840344571624,-0.836525820910084,-0.2779774899780246,0.4647434055805206,-0.690647304058075,-0.5540937781333923,5.517178535461426,-39.46282196044922,-16.3619270324707,2,0.0.0.0,10.83.46.32,1,0
2015-02-26 19:56:50.582,27,1425009410.049803,37.76006487518296,-122.4614114136563,126.7054,0.02051564,-1,10,200,-9999,1425009410.52342,3.129249572753906,-40.05845642089844,-17.93032836914062,150.3323516845703,136.5543823242188,10,120401.8286793333,0.446685791015625,-0.67950439453125,-0.5484771728515625,120401.7851654583,0.01614887621802248,-0.03141065347693957,-0.01513794026822841,120401.7851654583,2.210928344979893,0.6961078089690698,0.7622986202655533,0.009379100054502487,-0.02064941078424454,0.02165116928517818,-0.005278125870972872,0.01536907162517309,0.008671404793858528,XTrueNorthZVertical,0.1260211861026927,-0.454563247210463,-0.8367305013972068,-0.278160059044344,0.4637742340564728,-0.690585732460022,-0.5549818277359009,5.478337287902832,-39.45452117919922,-16.39496231079102,2,0.0.0.0,10.83.46.32,1,0
2015-02-26 19:56:50.680,28,1425009410.049803,37.76006487518296,-122.4614114136563,126.7054,0.02051564,-1,10,200,-9999,1425009410.632561,3.384994506835938,-40.17738342285156,-17.84711456298828,150.3560485839844,136.5780792236328,10,120401.8777677083,0.4368133544921875,-0.6876983642578125,-0.53466796875,120401.8887255417,0.03555639634586592,0.01467614813520867,0.04971669017792624,120401.836945625,2.212548620009249,0.6935055234908506,0.7633038550761703,0.004563429858535528,-0.03430562093853951,0.0452454648911953,-0.01519864704459906,0.01180803962051868,0.007175520993769169,XTrueNorthZVertical,0.1250469037373242,-0.454463337173088,-0.8370330361130347,-0.2778526209410814,0.4618844389915466,-0.6913124322891235,-0.5556526780128479,5.415619850158691,-39.46102142333984,-16.4001579284668,2,0.0.0.0,10.83.46.32,1,0
2015-02-26 19:56:50.685,29,1425009410.049803,37.76006487518296,-122.4614114136563,126.7054,0.02051564,-1,10,200,-9999,1425009410.632561,3.384994506835938,-40.17738342285156,-17.84711456298828,150.3560485839844,136.5780792236328,10,120401.9268250833,0.424530029296875,-0.6820068359375,-0.5257110595703125,120401.8887255417,0.03555639634586592,0.01467614813520867,0.04971669017792624,120401.8887255417,2.214718547819627,0.6915809709133783,0.7677159999302128,0.02879028953611851,0.02543512359261513,0.0865107849240303,-0.02910066395998001,0.008840030059218407,0.02351565100252628,XTrueNorthZVertical,0.1236236380378862,-0.4556580821544937,-0.8370710989201231,-0.2764143974460246,0.4588644504547119,-0.6944937109947205,-0.5541858077049255,5.328086853027344,-39.4821891784668,-16.37786674499512,2,0.0.0.0,10.83.46.32,1,0
2015-02-26 19:56:50.751,30,1425009410.049803,37.76006487518296,-122.4614114136563,126.7054,0.02051564,-1,10,200,-9999,1425009410.73306,2.63482666015625,-40.075439453125,-18.04682922363281,149.3824005126953,135.6044311523438,10,120401.9759161667,0.40936279296875,-0.673614501953125,-0.513916015625,120401.940505875,0.05491038693579877,0.07031011593918197,0.1241166226031429,120401.940505875,2.220824414540755,0.6896404936239032,0.7747213904281793,0.04814963787794113,0.0810672715306282,0.1609175205230713,-0.02661140263080597,0.01650308817625046,0.02887780033051968,XTrueNorthZVertical,0.1224450880516986,-0.4575511886213941,-0.837408587036331,-0.2727654744248295,0.4546814560890198,-0.6995170116424561,-0.5513082146644592,4.98342227935791,-39.59488296508789,-16.21348190307617,2,0.0.0.0,10.83.46.32,1,0
2015-02-26 19:56:50.789,31,1425009410.049803,37.76006487518296,-122.4614114136563,126.7054,0.02051564,-1,10,200,-9999,1425009410.73306,2.63482666015625,-40.075439453125,-18.04682922363281,149.3824005126953,135.6044311523438,10,120402.0249855833,0.4057159423828125,-0.6783447265625,-0.496124267578125,120401.99228575,0.1174219682549017,0.1050574439458818,0.2711356316326402,120401.99228575,2.231310071983657,0.6861849980961779,0.786789704807057,0.1106655597686768,0.1158123537898064,0.3079429268836975,-0.04192031174898148,0.04001450166106224,0.03521152958273888,XTrueNorthZVertical,0.1203889542225944,-0.4608190159709372,-0.8379245031544214,-0.2665237263573526,0.4473921060562134,-0.70809006690979,-0.5463046431541443,4.594391822814941,-39.71163177490234,-16.04195404052734,2,0.0.0.0,10.83.46.32,1,0
2015-02-26 19:56:50.846,32,1425009410.049803,37.76006487518296,-122.4614114136563,126.7054,0.02051564,-1,10,200,-9999,1425009410.808512,2.430229187011719,-40.38127136230469,-17.61412048339844,148.3941345214844,134.6161651611328,10,120402.0740835,0.3997802734375,-0.7142181396484375,-0.479217529296875,120402.0440658333,0.2090096760393808,0.2070823463584904,0.439645285394641,120402.0440658333,2.245963944197387,0.6842523244304143,0.806207336522853,0.2022565007209778,0.217836320400238,0.4764561355113983,-0.02421558648347855,0.03770697489380836,0.04191993176937103,XTrueNorthZVertical,0.1181615326608076,-0.4667248636935663,-0.8380768244625095,-0.2565794722606101,0.4375609159469604,-0.7216669321060181,-0.5364115238189697,4.234611511230469,-39.82034683227539,-15.87054634094238,2,0.0.0.0,10.83.46.32,1,0
2015-02-26 19:56:50.882,33,1425009410.049803,37.76006487518296,-122.4614114136563,126.7054,0.02051564,-1,10,200,-9999,1425009410.8599,1.151542663574219,-40.60214233398438,-17.13147735595703,146.8325805664062,133.0546112060547,10,120402.1231420833,0.3752593994140625,-0.7742767333984375,-0.457611083984375,120402.0958459167,0.307123992707317,0.2512964130920949,0.6597536852769269,120402.0958459167,2.26778381991369,0.6805390065000487,0.8356782077760641,0.3003734350204468,0.2620511949062347,0.6965651512145996,-0.02975423447787762,0.01053510885685682,0.04661589488387108,XTrueNorthZVertical,0.1145176112969865,-0.4756576439599827,-0.8379393712555372,-0.2418536086610479,0.4219966530799866,-0.7417515516281128,-0.5212710499763489,2.90847110748291,-40.23719787597656,-15.09884166717529,2,0.0.0.0,10.83.46.32,1,0
2015-02-26 19:56:50.945,34,1425009410.049803,37.76006487518296,-122.4614114136563,126.7054,0.02051564,-1,10,200,-9999,1425009410.916107,-0.041900634765625,-40.60214233398438,-16.16620635986328,145.5130004882812,131.7350311279297,10,120402.1722321667,0.3948974609375,-0.843994140625,-0.4284515380859375,120402.1476259583,0.3446372798221731,0.3607920149945938,0.8452966510549654,120402.1476259583,2.299919517678128,0.6718821163228217,0.8735640756473781,0.33796426653862,0.3714716732501984,0.8822437524795532,-0.01782943122088909,-0.03920961916446686,0.0423646904528141,XTrueNorthZVertical,0.1094896985362904,-0.4865617953759611,-0.8377947983428657,-0.2221925663513901,0.3996806144714355,-0.7666223049163818,-0.5025392770767212,1.693839073181152,-40.53164672851562,-14.48388671875,2,0.0.0.0,10.83.46.32,1,0
2015-02-26 19:56:50.983,35,1425009410.049803,37.76006487518296,-122.4614114136563,126.7054,0.02051564,-1,10,200,-9999,1425009410.916107,-0.041900634765625,-40.60214233398438,-16.16620635986328,145.5130004882812,131.7350311279297,10,120402.2212709583,0.4521636962890625,-0.9422454833984375,-0.427215576171875,120402.1994060833,0.1961000026552217,0.3666408493806258,1.019111321708404,120402.1994060833,2.349739864517955,0.6526821690970388,0.9141927069752395,0.1894276291131973,0.3773206472396851,1.056058287620544,0.04606766253709793,-0.1083205789327621,0.06175850331783295,XTrueNorthZVertical,0.1041870565090118,-0.4966533486591487,-0.838789147847247,-0.1972645671491918,0.3707261681556702,-0.7920700311660767,-0.4849610030651093,0.7398271560668945,-40.70078277587891,-14.08422660827637,2,0.0.0.0,10.83.46.32,1,0
2015-02-26 19:56:51.060,36,1425009411.035562,37.76005450466869,-122.4614117342286,126.79,0.007996513,-1,10,200,-9999,1425009411.041624,-4.645187377929688,-40.67010498046875,-15.00124359130859,136.6782684326172,122.9002914428711,10,120402.270338625,0.3891448974609375,-0.9470977783203125,-0.3761138916015625,120402.2511863333,0.1476909245725243,0.2799115463727783,1.324743944205277,120402.2511863333,2.423033460139089,0.6094811125559235,0.9564631367299459,0.1410186886787415,0.290591299533844,1.361690521240234,0.08496873825788498,-0.1225240230560303,0.06982618570327759,XTrueNorthZVertical,0.09502076732110806,-0.5046357133678141,-0.8413799711268181,-0.1685040956040131,0.3299635052680969,-0.8171579837799072,-0.4726276993751526,-2.326703071594238,-40.83478164672852,-13.5119743347168,2,0.0.0.0,10.83.46.32,1,0
2015-02-26 19:56:51.097,37,1425009411.035562,37.76005450466869,-122.4614117342286,126.79,0.007996513,-1,10,200,-9999,1425009411.041624,-4.645187377929688,-40.67010498046875,-15.00124359130859,136.6782684326172,122.9002914428711,10,120402.3193874167,0.369293212890625,-0.958404541015625,-0.3604736328125,120402.3029662083,-0.181022516143738,0.2172979659839254,1.402753258855878,120402.3029662083,2.532277767743166,0.5326253656471515,0.9936187710500933,-0.1876945793628693,0.2279776781797409,1.439699411392212,0.1064600646495819,-0.1096867844462395,0.08924541622400284,XTrueNorthZVertical,0.08277490009070272,-0.5080464339784228,-0.8466878497918504,-0.1347473833841007,0.2770848572254181,-0.8380060791969299,-0.4700742661952972,-4.76192569732666,-40.61483383178711,-13.53607749938965,2,0.0.0.0,10.83.46.32,1,0
2015-02-26 19:56:51.132,38,1425009411.035562,37.76005450466869,-122.4614117342286,126.79,0.007996513,-1,10,200,-9999,1425009411.093682,-7.236663818359375,-40.05841064453125,-15.03451538085938,132.5893859863281,118.8114166259766,10,120402.368483125,0.2928314208984375,-1.024856567382812,-0.3573455810546875,120402.3547462917,-0.4298741473551402,-0.06441094780854745,1.34303480088805,120402.3547462917,2.663496034927172,0.4235598902000106,1.011668687300827,-0.4365460574626923,-0.05373123660683632,1.379980564117432,0.1167749762535095,-0.1531515717506409,0.1358853876590729,XTrueNorthZVertical,0.06648368437849063,-0.5037795547143964,-0.8550230988371339,-0.1035452359859997,0.218018114566803,-0.8477181792259216,-0.4835721552371979,-6.445966720581055,-40.28001403808594,-13.83605003356934,2,0.0.0.0,10.83.46.32,1,0
2015-02-26 19:56:51.182,39,1425009411.035562,37.76005450466869,-122.4614117342286,126.79,0.007996513,-1,10,200,-9999,1425009411.14619,-10.01568603515625,-38.68211364746094,-15.58372497558594,127.9500427246094,114.1720657348633,10,120402.4175294583,0.2519989013671875,-0.9761199951171875,-0.4123077392578125,120402.406526375,-0.6608397223694612,0.1231853151699422,1.095294773115647,120402.3547462917,2.663496034927172,0.4235598902000106,1.011668687300827,-0.4365460574626923,-0.05373123660683632,1.379980564117432,0.1167749762535095,-0.1531515717506409,0.1358853876590729,XTrueNorthZVertical,0.06648368437849063,-0.5037795547143964,-0.8550230988371339,-0.1035452359859997,0.218018114566803,-0.8477181792259216,-0.4835721552371979,-6.445966720581055,-40.28001403808594,-13.83605003356934,2,0.0.0.0,10.83.46.32,1,0
2015-02-26 19:56:51.231,40,1425009411.035562,37.76005450466869,-122.4614117342286,126.79,0.007996513,-1,10,200,-9999,1425009411.199206,-12.35142517089844,-37.61164855957031,-16.46577453613281,124.5110702514648,110.7330932617188,10,120402.4666183333,0.261444091796875,-0.8368988037109375,-0.63153076171875,120402.4583065833,-0.8343811526950577,0.7556687635166758,0.8056403182109225,120402.4583065833,2.898628853570636,0.2493941639606387,0.983912493551805,-0.8410529494285583,0.7663482427597046,0.8425853252410889,0.1170893684029579,-0.04727349057793617,-0.03669716790318489,XTrueNorthZVertical,0.05202016717175282,-0.4785139663891811,-0.8752406074859375,-0.04766760601068426,0.1366795599460602,-0.8326703310012817,-0.5366365909576416,-11.87786102294922,-37.85892486572266,-16.76557350158691,2,0.0.0.0,10.83.46.32,1,0
2015-02-26 19:56:51.285,41,1425009411.035562,37.76005450466869,-122.4614117342286,126.79,0.007996513,-1,10,200,-9999,1425009411.249982,-13.9881591796875,-36.42225646972656,-18.29646301269531,121.0109024047852,107.2329254150391,10,120402.5156684167,0.27044677734375,-0.81951904296875,-0.759521484375,120402.5100865417,-0.8063652306596422,0.3574963531456207,0.4450094244622785,120402.4583065833,2.898628853570636,0.2493941639606387,0.983912493551805,-0.8410529494285583,0.7663482427597046,0.8425853252410889,0.1170893684029579,-0.04727349057793617,-0.03669716790318489,XTrueNorthZVertical,0.05202016717175282,-0.4785139663891811,-0.8752406074859375,-0.04766760601068426,0.1366795599460602,-0.8326703310012817,-0.5366365909576416,-11.87786102294922,-37.85892486572266,-16.76557350158691,2,0.0.0.0,10.83.46.32,1,0
2015-02-26 19:56:51.331,42,1425009411.035562,37.76005450466869,-122.4614117342286,126.79,0.007996513,-1,10,200,-9999,1425009411.302338,-14.97700500488281,-34.92701721191406,-20.12715148925781,117.2735366821289,103.4955596923828,10,120402.5648655417,0.155853271484375,-0.808441162109375,-0.6538543701171875,120402.5618665833,-0.894955816953346,-0.8307680420441472,0.305139671379099,120402.5100865417,2.972528256777652,0.224379991478295,0.9512654067850005,-0.8130369782447815,0.3681757152080536,0.4819540679454803,0.1470181047916412,-0.001873861183412373,-0.1978641152381897,XTrueNorthZVertical,0.06075453292007554,-0.4618008763718228,-0.8845882085468004,-0.02350689450072703,0.1291964948177338,-0.8141509294509888,-0.5660976767539978,-12.35590076446533,-37.1276969909668,-18.00922584533691,2,0.0.0.0,10.83.46.32,1,0
2015-02-26 19:56:51.387,43,1425009411.035562,37.76005450466869,-122.4614117342286,126.79,0.007996513,-1,10,200,-9999,1425009411.353013,-16.3409423828125,-33.26188659667969,-21.75812530517578,115.3770904541016,101.5991134643555,10,120402.613802,-0.012481689453125,-0.7596893310546875,-0.5419158935546875,120402.5618665833,-0.894955816953346,-0.8307680420441472,0.305139671379099,120402.5618665833,3.015900323067806,0.172829020385393,0.9132661941339174,-0.9016274809837341,-0.8200887441635132,0.3420839607715607,0.09181288629770279,-0.0236203745007515,-0.07482104748487473,XTrueNorthZVertical,0.04972213328529992,-0.4432812777999478,-0.8948178354496857,-0.01817952287518026,0.1051017865538597,-0.7915041446685791,-0.6020588278770447,-13.4778528213501,-35.49264526367188,-20.34910583496094,2,0.0.0.0,10.83.46.32,1,0
2015-02-26 19:56:51.425,44,1425009411.035562,37.76005450466869,-122.4614117342286,126.79,0.007996513,-1,10,200,-9999,1425009411.406207,-17.87537384033203,-31.90255737304688,-22.49039459228516,114.912727355957,101.1347503662109,10,120402.6629915417,-0.004364013671875,-0.7183990478515625,-0.5347747802734375,120402.6654269583,-1.182148445746401,0.1721595160359543,0.6485226023278448,120402.6136467083,3.056863615663805,0.09252240004907636,0.8673485517164625,-1.0352383852005,-0.8499383330345154,0.4653978049755096,-0.05326259881258011,-0.008837329223752022,0.08520053327083588,XTrueNorthZVertical,0.02414854394121563,-0.4211588145146204,-0.9064668104250325,-0.01897519057224464,0.05976284295320511,-0.7626165151596069,-0.6440842151641846,-14.96971893310547,-34.35894012451172,-21.2329216003418,2,0.0.0.0,10.83.46.32,1,0
2015-02-26 19:56:51.482,45,1425009411.035562,37.76005450466869,-122.4614117342286,126.79,0.007996513,-1,10,200,-9999,1425009411.456867,-19.13700866699219,-29.99954223632812,-23.35580444335938,113.8211822509766,100.0432052612305,10,120402.711932375,0.1236419677734375,-0.54779052734375,-0.6237945556640625,120402.6654269583,-1.182148445746401,0.1721595160359543,0.6485226023278448,120402.6654269583,3.10703388780529,0.03982847209219226,0.8135438404718072,-1.188820004463196,0.1828385889530182,0.6854661107063293,-0.03171604871749878,0.008327045477926731,0.1516078263521194,XTrueNorthZVertical,0.01145051481205384,-0.3958251960307289,-0.9182197580831664,-0.007988193831662903,0.02735203504562378,-0.7267261147499084,-0.6863825917243958,-15.94931697845459,-33.43879699707031,-21.97572326660156,2,0.0.0.0,10.83.46.32,1,0
2015-02-26 19:56:51.523,46,1425009411.035562,37.76005450466869,-122.4614117342286,126.79,0.007996513,-1,10,200,-9999,1425009411.508923,-20.07471466064453,-27.56979370117188,-25.20314025878906,112.0812911987305,98.30331420898438,10,120402.7610165417,0.18865966796875,-0.5169830322265625,-0.6998443603515625,120402.7689870833,-1.517832710615946,0.2421037136413594,0.6999572977249812,120402.7172069167,-3.119809698328992,0.02553536555001173,0.7509590158579659,-1.331592679023743,0.6482408046722412,0.8378832340240479,0.1049767509102821,0.134549617767334,0.1070019602775574,XTrueNorthZVertical,0.01587085869281897,-0.366537660394382,-0.9301499114873961,0.01481340589402905,0.01866521313786507,-0.682340145111084,-0.7307965159416199,-17.16898345947266,-30.39699935913086,-25.23320579528809,2,0.0.0.0,10.83.46.32,1,0
2015-02-26 19:56:51.591,47,1425009411.035562,37.76005450466869,-122.4614117342286,126.79,0.007996513,-1,10,200,-9999,1425009411.562184,-20.87602996826172,-24.56233215332031,-27.11703491210938,109.9110336303711,96.133056640625,10,120402.8100675,0.2689056396484375,-0.4497833251953125,-0.7838287353515625,120402.7689870833,-1.517832710615946,0.2421037136413594,0.6999572977249812,120402.7689870833,-3.065245657319982,0.01492989604502823,0.680080108587524,-1.5245041847229,0.2527825832366943,0.7369000911712646,0.177051767706871,0.1118722781538963,0.07759133726358414,XTrueNorthZVertical,0.01976068647225469,-0.3330040013310614,-0.94193325676238,0.03846590243177368,0.01160789653658867,-0.628855288028717,-0.7774357199668884,-17.5601863861084,-28.0943603515625,-27.52840614318848,2,0.0.0.0,10.83.46.32,1,0
2015-02-26 19:56:51.621,48,1425009411.035562,37.76005450466869,-122.4614117342286,126.79,0.007996513,-1,10,200,-9999,1425009411.616328,-21.88193511962891,-21.45292663574219,-28.73134613037109,107.133430480957,93.35545349121094,10,120402.8591457083,0.2211151123046875,-0.4120025634765625,-0.9199981689453125,120402.8207670417,-1.703513095506232,-0.1168445949305725,0.74115560084018,120402.8207670417,-3.014691628136995,-0.01304973265426627,0.5986917986357813,-1.710184335708618,-0.1061658337712288,0.7780979871749878,0.267814040184021,0.1021059900522232,0.02279584668576717,XTrueNorthZVertical,0.01247619262839268,-0.2946908927699425,-0.9537084910668997,0.05866661640215589,-0.01077973376959562,-0.563562273979187,-0.8260032534599304,-18.03287124633789,-26.37016487121582,-28.89457321166992,2,0.0.0.0,10.83.46.32,1,0
2015-02-26 19:56:51.683,49,1425009411.035562,37.76005450466869,-122.4614117342286,126.79,0.007996513,-1,10,200,-9999,1425009411.616328,-21.88193511962891,-21.45292663574219,-28.73134613037109,107.133430480957,93.35545349121094,10,120402.90818925,0.045989990234375,-0.361419677734375,-0.838836669921875,120402.8725472917,-1.72398801059898,-0.8020112285934716,0.5505435742432846,120402.8725472917,-2.981939175742807,-0.05565725151595198,0.5113750961178359,-1.730659246444702,-0.7913326025009155,0.5874855518341064,0.2139173746109009,0.08128058165311813,-0.05216005817055702,XTrueNorthZVertical,-0.006674914086627122,-0.2541543500614559,-0.9645964745422332,0.07010484037993664,-0.04851209744811058,-0.4893769025802612,-0.8707219958305359,-19.97410774230957,-21.50296211242676,-31.52972984313965,2,0.0.0.0,10.83.46.32,1,0
2015-02-26 19:56:51.718,50,1425009411.035562,37.76005450466869,-122.4614117342286,126.79,0.007996513,-1,10,200,-9999,1425009411.690697,-24.57570648193359,-16.21963500976562,-30.56203460693359,104.8049163818359,91.02693939208984,10,120402.95726475,0.0915985107421875,-0.21600341796875,-0.86895751953125,120402.9243272083,-1.768857214960744,-0.6782472085186552,0.721195208470036,120402.9243272083,-2.951513285907001,-0.1114515810532744,0.4226851177361465,-1.775528430938721,-0.6675686836242676,0.7581369280815125,0.1350781470537186,0.08568680286407471,0.06773997098207474,XTrueNorthZVertical,-0.0343361055511314,-0.2136697923938136,-0.9729355726367966,0.08101023792769221,-0.1014325171709061,-0.4102107286453247,-0.9063324928283691,-21.81739234924316,-18.41867065429688,-32.25244140625,2,0.0.0.0,10.83.46.32,1,0
2015-02-26 19:56:51.787,51,1425009411.035562,37.76005450466869,-122.4614117342286,126.79,0.007996513,-1,10,200,-9999,1425009411.740812,-26.43405914306641,-12.4305419921875,-31.71037292480469,103.5725326538086,89.7945556640625,10,120403.006315375,0.255462646484375,-0.0792388916015625,-0.8951416015625,120402.9761075,-1.812495506266673,-0.4142829370693804,0.2901561944540951,120402.9761075,-2.933260004161864,-0.1418001364678291,0.3288581453511885,-1.819166541099548,-0.4036045074462891,0.3270975053310394,0.2529231607913971,0.1176555678248405,0.06150080263614655,XTrueNorthZVertical,-0.05252905791876338,-0.1696593746638671,-0.9799053694979302,0.09078489394819106,-0.1337520331144333,-0.3229625821113586,-0.9369127750396729,-22.77361679077148,-16.18296241760254,-32.78628540039062,2,0.0.0.0,10.83.46.32,1,0
2015-02-26 19:56:51.818,52,1425009411.035562,37.76005450466869,-122.4614117342286,126.79,0.007996513,-1,10,200,-9999,1425009411.794552,-27.96849060058594,-9.4061279296875,-31.71036529541016,102.6006164550781,88.82263946533203,10,120403.055402125,0.185577392578125,0.06005859375,-0.9577178955078125,120403.0278874583,-1.500383679153747,-0.8567564995416854,0.1282935244568232,120403.0278874583,-2.937328430086553,-0.1708976027283778,0.245290067637573,-1.507054686546326,-0.8460781574249268,0.1652344465255737,0.4305250346660614,0.2327821850776672,0.01851178333163261,XTrueNorthZVertical,-0.07183500058525893,-0.1298922174543352,-0.9847789738575083,0.09043313917525647,-0.1649763137102127,-0.2428377270698547,-0.9559354782104492,-24.38886451721191,-11.301682472229,-33.65889739990234,2,0.0.0.0,10.83.46.32,1,0
2015-02-26 19:56:51.882,53,1425009411.035562,37.76005450466869,-122.4614117342286,126.79,0.007996513,-1,10,200,-9999,1425009411.848105,-29.58816528320312,-6.976348876953125,-31.26100921630859,102.4322052001953,88.65422821044922,10,120403.1044609167,0.043548583984375,0.034698486328125,-0.8531036376953125,120403.0796676667,-1.066093211762928,-2.006361649399536,-0.1370345517866813,120403.0796676667,-2.947342921724744,-0.2423874195645527,0.1821448275660729,-1.072764158248901,-1.995683550834656,-0.1000940129160881,0.3696715831756592,0.2630943059921265,0.01467577368021011,XTrueNorthZVertical,-0.1110741990665814,-0.101529090349265,-0.9849584881219111,0.08491865677455006,-0.2360503822565079,-0.1811393350362778,-0.9547087550163269,-26.37961959838867,-9.169450759887695,-32.79486465454102,2,0.0.0.0,10.83.46.32,1,0
2015-02-26 19:56:51.919,54,1425009411.035562,37.76005450466869,-122.4614117342286,126.79,0.007996513,-1,10,200,-9999,1425009411.898498,-32.41831970214844,-5.277252197265625,-28.49834442138672,104.1811141967773,90.40313720703125,10,120403.1535370417,-0.13092041015625,-0.0009307861328125,-0.7608184814453125,120403.1314475833,-0.9011588517643586,-2.709755490195155,-0.5831696944417363,120403.1314475833,-2.978729653534667,-0.3593709614366598,0.1420270603509729,-0.907829761505127,-2.699077367782593,-0.5462294816970825,0.3338773846626282,0.1694125980138779,0.119517870247364,XTrueNorthZVertical,-0.1720003683151197,-0.08408089172871124,-0.9791994860074222,0.06719136124230676,-0.3481443524360657,-0.1415500491857529,-0.9266925454139709,-28.38655662536621,-8.31977653503418,-31.31215476989746,2,0.0.0.0,10.83.46.32,1,0
2015-02-26 19:56:51.982,55,1425009411.035562,37.76005450466869,-122.4614117342286,126.79,0.007996513,-1,10,200,-9999,1425009411.949696,-35.77701568603516,-4.9884033203125,-24.85362243652344,106.0124893188477,92.23451232910156,10,120403.2025889167,-0.411865234375,-0.2029266357421875,-0.5439605712890625,120403.1832276667,-0.7679454035097231,-3.451119616548689,-1.063762945809109,120403.1314475833,-2.978729653534667,-0.3593709614366598,0.1420270603509729,-0.907829761505127,-2.699077367782593,-0.5462294816970825,0.3338773846626282,0.1694125980138779,0.119517870247364,XTrueNorthZVertical,-0.1720003683151197,-0.08408089172871124,-0.9791994860074222,0.06719136124230676,-0.3481443524360657,-0.1415500491857529,-0.9266925454139709,-28.38655662536621,-8.31977653503418,-31.31215476989746,2,0.0.0.0,10.83.46.32,1,0
2015-02-26 19:56:52.019,56,1425009411.035562,37.76005450466869,-122.4614117342286,126.79,0.007996513,-1,10,200,-9999,1425009412.001683,-38.91407012939453,-5.77001953125,-18.96216583251953,110.0681076049805,96.29013061523438,10,120403.251671625,-0.9608306884765625,-0.354522705078125,-0.374725341796875,120403.2350077917,-0.2728309999825846,-4.454202436920342,-0.8093655479437254,120403.2350077917,-3.092180724831017,-0.7035434744497724,0.1277173050896367,-0.2794564366340637,-4.443611621856689,-0.7723147869110107,-0.01035326439887285,-0.2570900619029999,0.2632560133934021,XTrueNorthZVertical,-0.3422744167497915,-0.06838367799693776,-0.9371075614788086,0.001161860003312334,-0.6416547894477844,-0.1273703724145889,-0.7563437819480896,-37.56732940673828,-9.112934112548828,-19.0030632019043,2,0.0.0.0,10.83.46.32,1,0
2015-02-26 19:56:52.094,57,1425009412.05021,37.7600472721949,-122.4614119577982,126.8251,0.003769238,-1,10,200,-9999,1425009412.053595,-40.94292449951172,-6.568634033203125,-12.82105255126953,113.2461471557617,99.46817016601562,10,120403.3007199167,-1.1285400390625,-0.250823974609375,-0.3841552734375,120403.2867877917,-0.3567916807211858,-1.690073719381257,0.09467990412617006,120403.2867877917,-3.105892726085641,-0.8615011950715045,0.1226719364582737,-0.3634122014045715,-1.679485082626343,0.1317336410284042,-0.4524933993816376,-0.122584842145443,0.3340878188610077,XTrueNorthZVertical,-0.4157072046483161,-0.06312816830065672,-0.9072562905604156,-0.009402823313587718,-0.7531188130378723,-0.1223644986748695,-0.6464046835899353,-39.52323913574219,-9.62211799621582,-14.1702127456665,2,0.0.0.0,10.83.46.32,1,0
2015-02-26 19:56:52.115,58,1425009412.05021,37.7600472721949,-122.4614119577982,126.8251,0.003769238,-1,10,200,-9999,1425009412.104816,-42.39209747314453,-6.24578857421875,-8.843482971191406,113.8452072143555,100.0672302246094,10,120403.3499627083,-0.8975067138671875,-0.3289947509765625,-0.5730743408203125,120403.3385679583,-1.669139941632689,0.4716511553752132,0.5941307328562845,120403.2867877917,-3.105892726085641,-0.8615011950715045,0.1226719364582737,-0.3634122014045715,-1.679485082626343,0.1317336410284042,-0.4524933993816376,-0.122584842145443,0.3340878188610077,XTrueNorthZVertical,-0.4157072046483161,-0.06312816830065672,-0.9072562905604156,-0.009402823313587718,-0.7531188130378723,-0.1223644986748695,-0.6464046835899353,-39.52323913574219,-9.62211799621582,-14.1702127456665,2,0.0.0.0,10.83.46.32,1,0
2015-02-26 19:56:52.183,59,1425009412.05021,37.7600472721949,-122.4614119577982,126.8251,0.003769238,-1,10,200,-9999,1425009412.156954,-43.53440093994141,-4.903472900390625,-8.760276794433594,114.219970703125,100.4419937133789,10,120403.3988343333,-0.7843017578125,0.33056640625,-0.781219482421875,120403.390348,-1.560729045242179,-0.2087252504349603,0.3358898609056989,120403.3385679583,-3.134134967486712,-0.8684589091592902,0.07662767261407243,-1.675760388374329,0.482239693403244,0.6311841011047363,-0.301985502243042,-0.3465124666690826,0.09802646934986115,XTrueNorthZVertical,-0.4202702347931497,-0.03631696816082983,-0.9065825224266709,-0.01273471940151216,-0.761094331741333,-0.07655270397663116,-0.64410799741745,-40.78013610839844,-8.396150588989258,-11.04316520690918,2,0.0.0.0,10.83.46.32,1,0
2015-02-26 19:56:52.217,60,1425009412.05021,37.7600472721949,-122.4614119577982,126.8251,0.003769238,-1,10,200,-9999,1425009412.156954,-43.53440093994141,-4.903472900390625,-8.760276794433594,114.219970703125,100.4419937133789,10,120403.447906125,-0.92962646484375,0.3406219482421875,-0.2423858642578125,120403.442128125,-0.9789513851022271,-2.545982268431861,0.3852867054367066,120403.442128125,3.06284549439469,-0.9325586090486004,-0.0554467438350523,-0.9855717420578003,-2.535393953323364,0.4223392903804779,-0.07662734389305115,0.450395256280899,0.249208077788353,XTrueNorthZVertical,-0.4480701846104072,0.04243110650889898,-0.8927024475867233,-0.02269551527338907,-0.8019126653671265,0.05541833862662315,-0.5948654413223267,-41.01525497436523,-5.493736743927002,-11.95968341827393,2,0.0.0.0,10.83.46.32,1,0
2015-02-26 19:56:52.281,61,1425009412.05021,37.7600472721949,-122.4614119577982,126.8251,0.003769238,-1,10,200,-9999,1425009412.215151,-43.90948486328125,-3.850006103515625,-7.928153991699219,116.3781204223633,102.6001434326172,10,120403.4969497917,-1.65234375,-0.0684051513671875,-0.1167144775390625,120403.442128125,-0.9789513851022271,-2.545982268431861,0.3852867054367066,120403.442128125,3.06284549439469,-0.9325586090486004,-0.0554467438350523,-0.9855717420578003,-2.535393953323364,0.4223392903804779,-0.07662734389305115,0.450395256280899,0.249208077788353,XTrueNorthZVertical,-0.4480701846104072,0.04243110650889898,-0.8927024475867233,-0.02269551527338907,-0.8019126653671265,0.05541833862662315,-0.5948654413223267,-41.01525497436523,-5.493736743927002,-11.95968341827393,2,0.0.0.0,10.83.46.32,1,0
2015-02-26 19:56:52.308,62,1425009412.05021,37.7600472721949,-122.4614119577982,126.8251,0.003769238,-1,10,200,-9999,1425009412.286689,-43.89242553710938,-3.391204833984375,-3.185020446777344,119.0726852416992,105.2947082519531,10,120403.5461421667,-1.489227294921875,0.283843994140625,-0.1039581298828125,120403.5456884167,-0.1793132993561252,0.1374848923270136,-0.639218316427435,120403.4939082083,3.02705352888006,-1.049033267663269,-0.07932668661597141,-0.6587730646133423,-1.836670994758606,-0.4301152229309082,-0.6838801503181458,-0.1686142385005951,0.3531347513198853,XTrueNorthZVertical,-0.4976158752637038,0.06290804830380053,-0.8646040735430162,-0.02967911107483376,-0.8642155528068542,0.07924351841211319,-0.4968420267105103,-42.55350875854492,-4.159255981445312,-5.231228828430176,2,0.0.0.0,10.83.46.32,1,0
2015-02-26 19:56:52.383,63,1425009412.05021,37.7600472721949,-122.4614119577982,126.8251,0.003769238,-1,10,200,-9999,1425009412.338317,-43.77308654785156,-3.985931396484375,-1.337699890136719,120.1501541137695,106.3721771240234,10,120403.595078875,-1.094146728515625,0.0967559814453125,-0.2517547607421875,120403.5974684167,0.1547032940388119,1.811131168840225,0.02494662887909925,120403.5456884167,2.994524561158506,-1.09278361631923,-0.06173978307137591,-0.1859335005283356,0.1480730473995209,-0.602166473865509,-0.6758841276168823,0.2104246765375137,0.3483907878398895,XTrueNorthZVertical,-0.5160192382983846,0.06445618201919262,-0.8528682783006611,-0.04674699617253446,-0.8862191438674927,0.06170056760311127,-0.4591390788555145,-42.64117431640625,-5.218794822692871,-3.156097412109375,2,0.0.0.0,10.83.46.32,1,0
2015-02-26 19:56:52.406,64,1425009412.05021,37.7600472721949,-122.4614119577982,126.8251,0.003769238,-1,10,200,-9999,1425009412.391526,-43.63669586181641,-4.325775146484375,-2.602523803710938,120.4326400756836,106.6546630859375,10,120403.64424825,-0.759063720703125,0.151092529296875,-0.368499755859375,120403.5974684167,0.1547032940388119,1.811131168840225,0.02494662887909925,120403.5974684167,2.991805334239475,-1.034193735864191,-0.05031426405017628,0.1480831652879715,1.821719169616699,0.06199810653924942,-0.2357838898897171,0.04646294191479683,0.2588173449039459,XTrueNorthZVertical,-0.491180790704318,0.05878246085089231,-0.8674775051979007,-0.05262002083091302,-0.8583628535270691,0.05029303953051567,-0.5105721354484558,-42.51014709472656,-5.857743263244629,-3.747079849243164,2,0.0.0.0,10.83.46.32,1,0
2015-02-26 19:56:52.450,65,1425009412.05021,37.7600472721949,-122.4614119577982,126.8251,0.003769238,-1,10,200,-9999,1425009412.442127,-43.53438568115234,-4.257781982421875,-5.698036193847656,119.7390518188477,105.9610748291016,10,120403.693190375,-0.7676849365234375,0.3238372802734375,-0.2934417724609375,120403.649248625,0.07841171829131202,1.639034237089888,0.06857053911514222,120403.649248625,2.998364866305136,-0.9402917763821416,-0.05264163165353733,0.07179166376590729,1.649622201919556,0.1056216433644295,0.04754753410816193,0.09847521036863327,0.2202359437942505,XTrueNorthZVertical,-0.4500198777818524,0.05580553247692624,-0.8897622283279297,-0.05187547266594894,-0.8066112399101257,0.05261732265353203,-0.5887356996536255,-41.67666625976562,-5.785566329956055,-9.222187042236328,2,0.0.0.0,10.83.46.32,1,0
2015-02-26 19:56:52.505,66,1425009412.05021,37.7600472721949,-122.4614119577982,126.8251,0.003769238,-1,10,200,-9999,1425009412.494827,-43.26160430908203,-4.5635986328125,-8.826835632324219,119.6784210205078,105.9004440307617,10,120403.7422796667,-0.795928955078125,0.284393310546875,-0.3182373046875,120403.752808625,0.4971455964905418,1.995477043708273,-0.4867307724155689,120403.7010285833,3.006587422281052,-0.8688031091608016,-0.0507060337453597,0.2503529489040375,1.358138799667358,-0.02923290804028511,-0.005109704565256834,0.2731529772281647,0.3514691889286041,XTrueNorthZVertical,-0.4182230638422384,0.05132241768516742,-0.9054849680064181,-0.05052213876116105,-0.7625752091407776,0.05068430677056313,-0.6449109315872192,-41.00566101074219,-5.673048973083496,-11.90876579284668,2,0.0.0.0,10.83.46.32,1,0
2015-02-26 19:56:52.544,67,1425009412.05021,37.7600472721949,-122.4614119577982,126.8251,0.003769238,-1,10,200,-9999,1425009412.494827,-43.26160430908203,-4.5635986328125,-8.826835632324219,119.6784210205078,105.9004440307617,10,120403.791323875,-0.661224365234375,0.1963043212890625,-0.46392822265625,120403.752808625,0.4971455964905418,1.995477043708273,-0.4867307724155689,120403.752808625,3.011093181501233,-0.7877402061271325,-0.02650804907737978,0.4905256628990173,2.006064891815186,-0.4496803879737854,-0.07902470231056213,0.2294154614210129,0.3719642460346222,XTrueNorthZVertical,-0.3821167435277173,0.03723337767015855,-0.9217164286213219,-0.05513012415935611,-0.7085119485855103,0.02650494500994682,-0.7052009105682373,-40.45279312133789,-5.915511131286621,-13.56629943847656,2,0.0.0.0,10.83.46.32,1,0
2015-02-26 19:56:52.603,68,1425009412.05021,37.7600472721949,-122.4614119577982,126.8251,0.003769238,-1,10,200,-9999,1425009412.598552,-40.29505157470703,-6.398651123046875,-17.24797821044922,120.2622146606445,106.4842376708984,10,120403.8404089167,-0.4481048583984375,0.251861572265625,-0.645050048828125,120403.80458875,0.5962282385308308,3.056844476116856,-0.5308273937451009,120403.80458875,3.010736203828938,-0.6557984386844204,0.009110692891980354,0.589608371257782,3.067432165145874,-0.4937773942947388,-0.01106740441173315,0.2282878160476685,0.2837240993976593,XTrueNorthZVertical,-0.3216444258299685,0.01675283121088294,-0.9445896342855739,-0.06336137827100995,-0.609766960144043,-0.009110567159950733,-0.7925283908843994,-37.38906097412109,-7.81782054901123,-19.90995788574219,2,0.0.0.0,10.83.46.32,1,0
2015-02-26 19:56:52.647,69,1425009412.05021,37.7600472721949,-122.4614119577982,126.8251,0.003769238,-1,10,200,-9999,1425009412.598552,-40.29505157470703,-6.398651123046875,-17.24797821044922,120.2622146606445,106.4842376708984,10,120403.8895244583,-0.3074188232421875,0.088592529296875,-0.754852294921875,120403.856369,0.7248104496498186,3.324883650350061,-0.4607622886262063,120403.856369,3.009083732185829,-0.4919003872026921,0.04992444712113262,0.718190610408783,3.335471153259277,-0.4237126410007477,0.0524018183350563,0.2714918553829193,0.195157989859581,XTrueNorthZVertical,-0.2444708945642823,-0.008040707148980721,-0.9670745889605622,-0.0702574095983501,-0.4717133343219757,-0.04990370944142342,-0.8803386688232422,-33.93205642700195,-9.250232696533203,-24.86996078491211,2,0.0.0.0,10.83.46.32,1,0
2015-02-26 19:56:52.700,70,1425009412.05021,37.7600472721949,-122.4614119577982,126.8251,0.003769238,-1,10,200,-9999,1425009412.649632,-36.61241149902344,-8.0638427734375,-22.83988189697266,121.5156478881836,107.7376708984375,10,120403.9385384583,-0.3830413818359375,-0.0506439208984375,-0.8072662353515625,120403.9081489167,0.7807155272527619,3.03182700715276,-0.3482684999684962,120403.9081489167,3.006534752465559,-0.3303189053177057,0.0933586920950404,0.7740957736968994,3.042414426803589,-0.3112192153930664,0.04606154188513756,0.1750712841749191,0.183442547917366,XTrueNorthZVertical,-0.1669620299063354,-0.03484062559246314,-0.9825542900969781,-0.07414117524785063,-0.3229322731494904,-0.09322313219308853,-0.9418196082115173,-31.18472099304199,-10.25075531005859,-27.8908863067627,2,0.0.0.0,10.83.46.32,1,0
2015-02-26 19:56:52.785,71,1425009412.05021,37.7600472721949,-122.4614119577982,126.8251,0.003769238,-1,10,200,-9999,1425009412.754184,-27.50814056396484,-10.8843994140625,-31.32757568359375,121.8356246948242,108.0576477050781,10,120403.9875813333,-0.2080078125,-0.2564697265625,-0.7673187255859375,120403.959929,0.6937870197953766,2.610824648337001,-0.1111904376202253,120403.959929,3.006857612340169,-0.1979354449738888,0.1311773576348199,0.6871674060821533,2.621411800384521,-0.07414155453443527,-0.189290776848793,0.001773155177943408,0.1933797150850296,XTrueNorthZVertical,-0.1027605989450032,-0.05843600693679622,-0.9902787464582077,-0.07330438041573677,-0.194956049323082,-0.1308014690876007,-0.9720509648323059,-24.36341285705566,-12.57727718353271,-33.22201919555664,2,0.0.0.0,10.83.46.32,1,0
2015-02-26 19:56:52.799,72,1425009412.05021,37.7600472721949,-122.4614119577982,126.8251,0.003769238,-1,10,200,-9999,1425009412.754184,-27.50814056396484,-10.8843994140625,-31.32757568359375,121.8356246948242,108.0576477050781,10,120404.0366730833,0.1797943115234375,-0.3022003173828125,-0.722259521484375,120404.011709125,0.6048190635752084,3.533314887800676,0.2301975193559422,120404.011709125,3.017267395321321,-0.04317857790576726,0.1607628146724375,0.5981994867324829,3.543902158737183,0.2672460377216339,-0.04549568146467209,-0.1470118910074234,0.2232002019882202,XTrueNorthZVertical,-0.0264633113912724,-0.07878436244633114,-0.9945064135099841,-0.06363761740409342,-0.04260856658220291,-0.1600712388753891,-0.9861854314804077,-21.47463226318359,-13.21746158599854,-34.92284393310547,2,0.0.0.0,10.83.46.32,1,0
2015-02-26 19:56:52.850,73,1425009412.05021,37.7600472721949,-122.4614119577982,126.8251,0.003769238,-1,10,200,-9999,1425009412.806429,-22.83665466308594,-11.93783569335938,-34.68936920166016,120.2147674560547,106.4367904663086,10,120404.08572625,0.472900390625,-0.3594970703125,-0.8236846923828125,120404.0634893333,0.4619860111470977,3.852432160161056,0.8291099579494638,120404.0634893333,3.044107090155531,0.1446685485381014,0.1912640536188759,0.455366462469101,3.863018989562988,0.866158127784729,0.2002307921648026,-0.1020142063498497,0.2223481982946396,XTrueNorthZVertical,0.06721528079876542,-0.09862873323764115,-0.9919847858521736,-0.04148131051601908,0.1415355652570724,-0.1901000440120697,-0.9715089797973633,-15.87780857086182,-13.97424411773682,-37.52441787719727,2,0.0.0.0,10.83.46.32,1,0
2015-02-26 19:56:52.898,74,1425009412.05021,37.7600472721949,-122.4614119577982,126.8251,0.003769238,-1,10,200,-9999,1425009412.857432,-17.02288055419922,-12.83837890625,-38.06781768798828,117.3082580566406,103.5302810668945,10,120404.134821,0.663543701171875,-0.265777587890625,-0.935028076171875,120404.1152692917,0.3967223191575068,2.284122426875967,0.8810503876376062,120404.1152692917,3.083240282521492,0.2914818553015404,0.2159202217159631,0.3901054263114929,2.294713735580444,0.9180949330329895,0.4530808925628662,-0.007860560901463032,0.01394733600318432,XTrueNorthZVertical,0.1412086046920638,-0.1107746920726757,-0.9836761382738149,-0.01305327641116279,0.2806990146636963,-0.2142463773488998,-0.9355781674385071,-6.540994644165039,-14.50500202178955,-40.02857208251953,2,0.0.0.0,10.83.46.32,1,0
2015-02-26 19:56:52.983,75,1425009412.05021,37.7600472721949,-122.4614119577982,126.8251,0.003769238,-1,10,200,-9999,1425009412.961835,-8.873367309570312,-14.60546875,-40.29792022705078,113.6376342773438,99.85965728759766,10,120404.183869,0.2712860107421875,-0.38885498046875,-0.9446563720703125,120404.167049375,0.5774753233989289,0.2772225526201254,1.182147913114183,120404.167049375,3.131762919695193,0.3339954726890579,0.2587499586791617,0.5708149671554565,0.2877759635448456,1.219271898269653,0.0599847175180912,-0.150453969836235,-0.03669144213199615,XTrueNorthZVertical,0.1642061791441401,-0.1280281479714959,-0.9779408506573266,0.01663887468318216,0.3169073760509491,-0.2558723092079163,-0.91329026222229,-4.95683479309082,-14.88591957092285,-40.11614608764648,2,0.0.0.0,10.83.46.32,1,0
2015-02-26 19:56:52.999,76,1425009412.05021,37.7600472721949,-122.4614119577982,126.8251,0.003769238,-1,10,200,-9999,1425009412.961835,-8.873367309570312,-14.60546875,-40.29792022705078,113.6376342773438,99.85965728759766,10,120404.2330567083,0.289581298828125,-0.4632415771484375,-0.8078765869140625,120404.2188294583,0.8583938109798662,0.1651700497550414,1.531864107451246,120404.2188294583,-3.09493113330707,0.322634740437877,0.3183901632927006,0.8517335057258606,0.1757233589887619,1.568987727165222,-0.03852712363004684,-0.08652861416339874,0.05755170807242393,XTrueNorthZVertical,0.1621945835655093,-0.1527231159115244,-0.9736767300247035,0.04818949900044653,0.3011308908462524,-0.3130380511283875,-0.9007371068000793,-5.174995422363281,-15.70490074157715,-39.77488708496094,2,0.0.0.0,10.83.46.32,1,0
2015-02-26 19:56:53.056,77,1425009412.05021,37.7600472721949,-122.4614119577982,126.8251,0.003769238,-1,10,200,-9999,1425009413.017363,-9.248451232910156,-15.38705444335938,-39.86521911621094,108.9372787475586,95.1593017578125,10,120404.2819977083,0.1742706298828125,-0.5665130615234375,-0.8466796875,120404.27060975,0.38002163596162,0.4839938417632945,1.710601897695805,120404.2188294583,-3.09493113330707,0.322634740437877,0.3183901632927006,0.8517335057258606,0.1757233589887619,1.568987727165222,-0.03852712363004684,-0.08652861416339874,0.05755170807242393,XTrueNorthZVertical,0.1621945835655093,-0.1527231159115244,-0.9736767300247035,0.04818949900044653,0.3011308908462524,-0.3130380511283875,-0.9007371068000793,-5.174995422363281,-15.70490074157715,-39.77488708496094,2,0.0.0.0,10.83.46.32,1,0
2015-02-26 19:56:53.093,78,1425009413.051618,37.76004222158834,-122.461412113922,126.8443,0.001995207,-1,10,200,-9999,1425009413.017363,-9.248451232910156,-15.38705444335938,-39.86521911621094,108.9372787475586,95.1593017578125,10,120404.3310874583,0.2790679931640625,-0.577178955078125,-0.9356842041015625,120404.3223896667,0.06752897681281222,0.5674189608066806,1.661351527024752,120404.3223896667,-2.935461265194766,0.3133870560941497,0.4074999266385088,0.06086885929107666,0.5779720544815063,1.698474407196045,-0.02495146729052067,-0.2133649587631226,-0.04537985101342201,XTrueNorthZVertical,0.1725768047730382,-0.1830804155554924,-0.9589349898576761,0.1309294794851139,0.2830386161804199,-0.3963152170181274,-0.8733975887298584,-6.659196853637695,-17.0715217590332,-38.98313140869141,2,0.0.0.0,10.83.46.32,5,0
2015-02-26 19:56:53.151,79,1425009413.051618,37.76004222158834,-122.461412113922,126.8443,0.001995207,-1,10,200,-9999,1425009413.142499,-10.64647674560547,-15.31912231445312,-39.93178558349609,97.20094299316406,83.42296600341797,10,120404.3801510417,-0.0096282958984375,-0.5578460693359375,-1.147872924804688,120404.3741696667,0.2038673782905468,-0.01392194091449823,1.877612191764091,120404.3223896667,-2.935461265194766,0.3133870560941497,0.4074999266385088,0.06086885929107666,0.5779720544815063,1.698474407196045,-0.02495146729052067,-0.2133649587631226,-0.04537985101342201,XTrueNorthZVertical,0.1725768047730382,-0.1830804155554924,-0.9589349898576761,0.1309294794851139,0.2830386161804199,-0.3963152170181274,-0.8733975887298584,-6.659196853637695,-17.0715217590332,-38.98313140869141,2,0.0.0.0,10.83.46.32,5,0
2015-02-26 19:56:53.192,80,1425009413.051618,37.76004222158834,-122.461412113922,126.8443,0.001995207,-1,10,200,-9999,1425009413.142499,-10.64647674560547,-15.31912231445312,-39.93178558349609,97.20094299316406,83.42296600341797,10,120404.4292470833,-0.0147247314453125,-0.591705322265625,-1.05316162109375,120404.4259498333,0.7367667113637294,-0.007890147361577759,1.740727309630673,120404.3741696667,-2.838475320323883,0.2860767149455793,0.4394397384357787,0.1972073167562485,-0.003368946490809321,1.914734721183777,-0.2011041790246964,-0.1086403727531433,-0.2568053603172302,XTrueNorthZVertical,0.1700999501436043,-0.192252601308111,-0.9502274192277324,0.1765582948389519,0.2553796768188477,-0.4254325032234192,-0.8682098984718323,-7.016194343566895,-16.65974044799805,-39.09849166870117,2,0.0.0.0,10.83.46.32,5,0
2015-02-26 19:56:53.232,81,1425009413.051618,37.76004222158834,-122.461412113922,126.8443,0.001995207,-1,10,200,-9999,1425009413.19556,-12.04451751708984,-14.87741088867188,-39.93177032470703,92.77955627441406,79.00157928466797,10,120404.47832725,0.0992584228515625,-0.4205780029296875,-0.8173065185546875,120404.4259498333,0.7367667113637294,-0.007890147361577759,1.740727309630673,120404.4259498333,-2.747705120582054,0.2416549999088904,0.4864170105363087,0.7301067113876343,0.002662752056494355,1.777849435806274,-0.2430930584669113,-0.1531287282705307,-0.2559767067432404,XTrueNorthZVertical,0.1615030388557807,-0.2115498198506648,-0.9391892515347391,0.2169954548840682,0.2115531414747238,-0.467461496591568,-0.8583269119262695,-9.321536064147949,-16.4616870880127,-38.69868087768555,2,0.0.0.0,10.83.46.32,5,0
2015-02-26 19:56:53.291,82,1425009413.051618,37.76004222158834,-122.461412113922,126.8443,0.001995207,-1,10,200,-9999,1425009413.248172,-13.23796081542969,-14.84341430664062,-39.63220977783203,86.61582946777344,72.83785247802734,10,120404.527398875,0.30084228515625,-0.3446807861328125,-0.593048095703125,120404.5295099583,1.128652197349434,0.7386343862362019,1.364000802885808,120404.4777300417,-2.65928097670456,0.2135149277940987,0.5421074024613687,0.7042964696884155,0.594835638999939,1.661419868469238,-0.1222807019948959,0.06020813435316086,-0.01997599378228188,XTrueNorthZVertical,0.1632741902955107,-0.2339998454104231,-0.9234682415718203,0.2564996167964413,0.1815153211355209,-0.515942394733429,-0.837171196937561,-10.07792568206787,-16.8092041015625,-38.35820770263672,2,0.0.0.0,10.83.46.32,5,0
2015-02-26 19:56:53.330,83,1425009413.051618,37.76004222158834,-122.461412113922,126.8443,0.001995207,-1,10,200,-9999,1425009413.298597,-13.98813629150391,-15.45510864257812,-39.13294219970703,81.54709625244141,67.76911926269531,10,120404.5764553333,0.413421630859375,-0.3613128662109375,-0.6016693115234375,120404.5295099583,1.128652197349434,0.7386343862362019,1.364000802885808,120404.5295099583,-2.580819921488953,0.2099722293466653,0.6002089145391466,1.121992349624634,0.7491871118545532,1.401122212409973,0.128839910030365,0.2201340943574905,0.2140450477600098,XTrueNorthZVertical,0.1775558569626138,-0.2548084496148398,-0.9043723858724079,0.2926725043659375,0.172002375125885,-0.5648148655891418,-0.8070931434631348,-10.34637451171875,-17.28007316589355,-38.07647323608398,2,0.0.0.0,10.83.46.32,5,0
2015-02-26 19:56:53.387,84,1425009413.051618,37.76004222158834,-122.461412113922,126.8443,0.001995207,-1,10,200,-9999,1425009413.350011,-13.86878967285156,-17.06925964355469,-38.68359375,78.97113800048828,65.19316101074219,10,120404.6255414167,0.049285888671875,-0.7779998779296875,-0.7055511474609375,120404.6330701667,1.462343618775273,0.5128859437973461,0.4993986307727488,120404.5812900417,-2.524956876998185,0.2033199408690824,0.6806269281520791,1.511249423027039,0.3279558420181274,1.077120900154114,0.2564922273159027,0.2679675221443176,0.1595004349946976,XTrueNorthZVertical,0.1919192408981872,-0.2873710721571865,-0.8832831897042828,0.3168528272295325,0.1569294035434723,-0.6292803883552551,-0.7611697316169739,-10.30949974060059,-19.65921592712402,-36.91470718383789,2,0.0.0.0,10.83.46.32,5,0
2015-02-26 19:56:53.433,85,1425009413.051618,37.76004222158834,-122.461412113922,126.8443,0.001995207,-1,10,200,-9999,1425009413.401876,-13.88584136962891,-19.3291015625,-37.73496246337891,75.22032165527344,61.44234466552734,10,120404.6747073333,0.2493438720703125,-1.676223754882812,-1.132827758789062,120404.6330701667,1.462343618775273,0.5128859437973461,0.4993986307727488,120404.6330701667,-2.485429420656265,0.1909525847648856,0.7651940670446191,1.455683827400208,0.5234383940696716,0.5365192890167236,-0.08760283142328262,-0.08532289415597916,0.002587326569482684,XTrueNorthZVertical,0.2034712090016608,-0.3233113515751156,-0.8627490148320996,0.3312603355874999,0.136888712644577,-0.6926769614219666,-0.7081384658813477,-10.68208503723145,-21.03305816650391,-36.04122161865234,2,0.0.0.0,10.83.46.32,5,0
2015-02-26 19:56:53.491,86,1425009413.051618,37.76004222158834,-122.461412113922,126.8443,0.001995207,-1,10,200,-9999,1425009413.453504,-13.10158538818359,-21.30009460449219,-37.00269317626953,73.2362060546875,59.45822906494141,10,120404.723685625,0.738616943359375,-0.4394073486328125,-0.431427001953125,120404.6848501667,-0.3709090976596958,0.8237402262435372,0.2232887468560586,120404.6848501667,-2.492462121654214,0.2359563694613674,0.7981679831952551,-0.3775687515735626,0.8342925906181335,0.260409027338028,0.02352839522063732,-0.7272961139678955,-0.3958912193775177,XTrueNorthZVertical,0.2258464071034223,-0.3311406935079874,-0.8526535513418143,0.3351435488905369,0.1631781458854675,-0.716078519821167,-0.6786785125732422,-10.3322696685791,-23.07870101928711,-34.87239837646484,2,0.0.0.0,10.83.46.32,5,0
2015-02-26 19:56:53.525,87,1425009413.051618,37.76004222158834,-122.461412113922,126.8443,0.001995207,-1,10,200,-9999,1425009413.505723,-12.11272430419922,-22.21763610839844,-36.86955261230469,73.79864501953125,60.02067184448242,10,120404.7728603333,0.275238037109375,-0.8674163818359375,-0.6223297119140625,120404.7366302917,0.1112620766535484,-0.359352043793188,-0.409465811289645,120404.7366302917,-2.492681446591925,0.255897945874363,0.7776735506260706,0.1046024858951569,-0.3487997949123383,-0.3723459243774414,0.630862295627594,0.2446076273918152,0.2962324619293213,XTrueNorthZVertical,0.2317846076875106,-0.3187531472413144,-0.854479009633809,0.3384346086548419,0.180355966091156,-0.7016236186027527,-0.6893446445465088,-8.623069763183594,-22.63994216918945,-35.61660003662109,2,0.0.0.0,10.83.46.32,5,0
2015-02-26 19:56:53.585,88,1425009413.051618,37.76004222158834,-122.461412113922,126.8443,0.001995207,-1,10,200,-9999,1425009413.557527,-12.35140991210938,-21.84382629394531,-37.36882781982422,74.36186218261719,60.58388519287109,10,120404.8218175,-0.0052032470703125,-0.7306976318359375,-0.5924530029296875,120404.7884103333,0.170635388944102,-0.9795391447548076,0.08802865930369716,120404.7884103333,-2.502382063891802,0.2192595491241884,0.7885338209295552,0.163975864648819,-0.968986988067627,0.1251482218503952,-0.01838415674865246,-0.1922755241394043,0.01979734934866428,XTrueNorthZVertical,0.2158670933485853,-0.3307510817352508,-0.8580562658379711,0.3282447258885033,0.1533176302909851,-0.7093205451965332,-0.6880102157592773,-9.191850662231445,-22.95008850097656,-35.27420806884766,2,0.0.0.0,10.83.46.32,5,0
2015-02-26 19:56:53.623,89,1425009413.051618,37.76004222158834,-122.461412113922,126.8443,0.001995207,-1,10,200,-9999,1425009413.614263,-13.01632690429688,-21.89480590820312,-36.91947937011719,74.459228515625,60.68125152587891,10,120404.8709775417,0.052642822265625,-0.7082977294921875,-0.52685546875,120404.8401904583,0.08832959650687611,0.006728742810194204,-0.09206973994178339,120404.8401904583,-2.499725042249992,0.1961837216416722,0.7903091252068188,0.0816701352596283,0.01728079840540886,-0.0549505427479744,-0.08515417575836182,0.01922559924423695,0.1394235342741013,XTrueNorthZVertical,0.2066225095768853,-0.3350267046261143,-0.8597103484668395,0.3255186598948966,0.1371561288833618,-0.7105708122253418,-0.69012850522995,-10.67779350280762,-23.1547966003418,-34.71752166748047,2,0.0.0.0,10.83.46.32,5,0
2015-02-26 19:56:53.690,90,1425009413.051618,37.76004222158834,-122.461412113922,126.8443,0.001995207,-1,10,200,-9999,1425009413.66727,-13.39140319824219,-22.23464965820312,-36.52005004882812,75.22908020019531,61.45110702514648,10,120404.919950375,0.111236572265625,-0.8322296142578125,-0.5770111083984375,120404.8919705833,0.1585185386164595,0.1853512181795528,-0.006187055844472086,120404.8919705833,-2.499485973095355,0.2038337599573318,0.7965944696086401,0.1518591493368149,0.1959031671285629,0.03093172982335091,-0.1121210157871246,-0.05636776611208916,0.08585583418607712,XTrueNorthZVertical,0.2107420098950716,-0.3365292382710091,-0.8576352922584907,0.3267990483524099,0.1415247023105621,-0.7149792909622192,-0.6846717596054077,-10.66148281097412,-23.33872222900391,-34.59917831420898,2,0.0.0.0,10.83.46.32,5,0
2015-02-26 19:56:53.722,91,1425009413.051618,37.76004222158834,-122.461412113922,126.8443,0.001995207,-1,10,200,-9999,1425009413.66727,-13.39140319824219,-22.23464965820312,-36.52005004882812,75.22908020019531,61.45110702514648,10,120404.9690014583,0.04461669921875,-0.7833709716796875,-0.5511474609375,120404.943750625,0.3483566506005778,-0.1373514679564007,-0.08767552414315265,120404.943750625,-2.505998180094054,0.2090025982449873,0.8082693483043645,0.3416973054409027,-0.1267996281385422,-0.05055711418390274,-0.01983059197664261,-0.08514998853206635,0.138411283493042,XTrueNorthZVertical,0.2133077869491012,-0.3415263918719122,-0.8558212294330606,0.3246991998923655,0.1433199793100357,-0.723092794418335,-0.6757190227508545,-10.53126621246338,-23.53536224365234,-34.50572967529297,2,0.0.0.0,10.83.46.32,5,0
2015-02-26 19:56:53.783,92,1425009413.051618,37.76004222158834,-122.461412113922,126.8443,0.001995207,-1,10,200,-9999,1425009413.737799,-12.96518707275391,-22.76136779785156,-36.33696746826172,72.4864501953125,58.70847702026367,10,120405.0180686667,-0.035858154296875,-0.713165283203125,-0.4654541015625,120404.9955306667,0.2471285659861209,-0.2894627073062385,-0.4591793056742632,120404.9955306667,-2.525772471148637,0.2127487000162692,0.8229812105418176,0.2404693067073822,-0.2789109647274017,-0.4220612347126007,-0.1492646485567093,-0.03734664991497993,0.1109650507569313,XTrueNorthZVertical,0.213269021274379,-0.3495183442886765,-0.8556132594215741,0.3166689712453506,0.1435883790254593,-0.7331764101982117,-0.6647065281867981,-10.63435554504395,-24.09534454345703,-34.08505630493164,2,0.0.0.0,10.83.46.32,5,0
2015-02-26 19:56:53.821,93,1425009413.051618,37.76004222158834,-122.461412113922,126.8443,0.001995207,-1,10,200,-9999,1425009413.791136,-12.91403961181641,-23.25410461425781,-36.12062835693359,71.46575164794922,57.68777465820312,10,120405.0671185,-0.0072021484375,-0.67938232421875,-0.4740753173828125,120405.0473109167,0.04739388107515913,-0.19755808335204,-0.8048629414887284,120404.9955306667,-2.525772471148637,0.2127487000162692,0.8229812105418176,0.2404693067073822,-0.2789109647274017,-0.4220612347126007,-0.1492646485567093,-0.03734664991497993,0.1109650507569313,XTrueNorthZVertical,0.213269021274379,-0.3495183442886765,-0.8556132594215741,0.3166689712453506,0.1435883790254593,-0.7331764101982117,-0.6647065281867981,-10.63435554504395,-24.09534454345703,-34.08505630493164,2,0.0.0.0,10.83.46.32,5,0
2015-02-26 19:56:53.884,94,1425009413.051618,37.76004222158834,-122.461412113922,126.8443,0.001995207,-1,10,200,-9999,1425009413.842391,-12.60715484619141,-24.171630859375,-35.68791198730469,73.71867370605469,59.94069671630859,10,120405.1161910833,0.0364227294921875,-0.5632171630859375,-0.3546600341796875,120405.0990908333,0.1222625298522297,-0.2085526775963231,-0.9967634054210042,120405.0990908333,-2.632187582706723,0.2645206229280713,0.8199020379676379,0.1156329289078712,-0.1980019509792328,-0.9596459269523621,-0.1788256466388702,0.07810963690280914,0.2754436135292053,XTrueNorthZVertical,0.2165902062845709,-0.3518636577288413,-0.8665572138462935,0.2799272754117855,0.1783831417560577,-0.7310789823532104,-0.6585612893104553,-10.15822219848633,-25.38501930236816,-33.28479766845703,2,0.0.0.0,10.83.46.32,5,0
2015-02-26 19:56:53.919,95,1425009413.051618,37.76004222158834,-122.461412113922,126.8443,0.001995207,-1,10,200,-9999,1425009413.899917,-11.58419036865234,-24.95323181152344,-35.05548858642578,76.23857879638672,62.46060562133789,10,120405.165227375,0.0260162353515625,-0.62310791015625,-0.4554901123046875,120405.150870875,0.2389481340657245,0.3724769005934255,-1.17677445298273,120405.150870875,-2.713300730458258,0.3296132800085221,0.8119931363278624,0.2323185950517654,0.3830275237560272,-1.139657378196716,-0.1469930857419968,0.2781807482242584,0.2991614937782288,XTrueNorthZVertical,0.2300735671319273,-0.3486534148745409,-0.8717908086271648,0.2559057863236673,0.2227071970701218,-0.7256600260734558,-0.6510139107704163,-9.267772674560547,-25.98846054077148,-33.07831192016602,2,0.0.0.0,10.83.46.32,5,0
2015-02-26 19:56:53.982,96,1425009413.051618,37.76004222158834,-122.461412113922,126.8443,0.001995207,-1,10,200,-9999,1425009413.972491,-8.174346923828125,-26.89027404785156,-35.28849029541016,80.67397308349609,66.89599609375,10,120405.2142993333,0.1226043701171875,-0.858489990234375,-0.5247650146484375,120405.2026509583,-0.1808249095908541,1.130046095863982,-1.191475901148294,120405.2026509583,-2.785399332937805,0.4187435940437942,0.7946428661319087,-0.1874976009130478,1.14056384563446,-1.154285550117493,-0.2986729443073273,-0.2642002701759338,0.0833117663860321,XTrueNorthZVertical,0.2556766963247372,-0.3385597623578294,-0.8734490393484377,0.2389425148591138,0.2848484814167023,-0.7136134505271912,-0.6400134563446045,-5.824995994567871,-26.92081642150879,-33.1180534362793,2,0.0.0.0,10.83.46.32,5,0
2015-02-26 19:56:54.019,97,1425009413.051618,37.76004222158834,-122.461412113922,126.8443,0.001995207,-1,10,200,-9999,1425009413.972491,-8.174346923828125,-26.89027404785156,-35.28849029541016,80.67397308349609,66.89599609375,10,120405.2633395417,0.51934814453125,-0.4649810791015625,-0.47198486328125,120405.2544312083,-0.05534501482569971,2.29085942548554,-1.255255679778493,120405.2026509583,-2.785399332937805,0.4187435940437942,0.7946428661319087,-0.1874976009130478,1.14056384563446,-1.154285550117493,-0.2986729443073273,-0.2642002701759338,0.0833117663860321,XTrueNorthZVertical,0.2556766963247372,-0.3385597623578294,-0.8734490393484377,0.2389425148591138,0.2848484814167023,-0.7136134505271912,-0.6400134563446045,-5.824995994567871,-26.92081642150879,-33.1180534362793,2,0.0.0.0,10.83.46.32,5,0
2015-02-26 19:56:54.096,98,1425009413.051618,37.76004222158834,-122.461412113922,126.8443,0.001995207,-1,10,200,-9999,1425009414.023725,-3.877960205078125,-27.67185974121094,-35.82106781005859,83.82403564453125,70.04605865478516,10,120405.3124189583,0.8153228759765625,-0.676116943359375,-0.4619293212890625,120405.306211125,0.4178395887051812,2.057737222620473,-1.019033024772356,120405.306211125,-2.924653857988688,0.7198240932783444,0.7310589160550355,0.4111670255661011,2.068254709243774,-0.9818434715270996,0.2995825409889221,-0.001561632612720132,0.1006598323583603,XTrueNorthZVertical,0.3632075370601614,-0.296967199718109,-0.8553300053575114,0.2197757600979313,0.4907922148704529,-0.6676583290100098,-0.559781551361084,1.497330665588379,-26.7917366027832,-33.69609832763672,2,0.0.0.0,10.83.46.32,5,0
2015-02-26 19:56:54.115,99,1425009414.049887,37.76003714599577,-122.4614122708182,126.8618,0.001167169,-1,10,200,-9999,1425009414.075525,1.25384521484375,-28.130615234375,-36.37026214599609,84.19603729248047,70.41806030273438,10,120405.3614663333,0.9830322265625,-0.5764923095703125,-0.4004669189453125,120405.306211125,0.4178395887051812,2.057737222620473,-1.019033024772356,120405.306211125,-2.924653857988688,0.7198240932783444,0.7310589160550355,0.4111670255661011,2.068254709243774,-0.9818434715270996,0.2995825409889221,-0.001561632612720132,0.1006598323583603,XTrueNorthZVertical,0.3632075370601614,-0.296967199718109,-0.8553300053575114,0.2197757600979313,0.4907922148704529,-0.6676583290100098,-0.559781551361084,1.497330665588379,-26.7917366027832,-33.69609832763672,2,0.0.0.0,10.83.46.32,5,0
2015-02-26 19:56:54.185,100,1425009414.049887,37.76003714599577,-122.4614122708182,126.8618,0.001167169,-1,10,200,-9999,1425009414.128026,7.238113403320312,-28.99716186523438,-35.98748016357422,83.34282684326172,69.56484985351562,10,120405.41053425,1.003280639648438,-0.3289794921875,-0.3725128173828125,120405.4097712917,0.3202291421154879,1.108208441241441,-1.467046228628135,120405.3579911667,-2.992441196915317,0.8618715816577012,0.7127471984006385,0.3644227385520935,1.868180632591248,-1.103922843933105,0.3704349100589752,0.0185997374355793,0.09625355899333954,XTrueNorthZVertical,0.4140041743652464,-0.2869333711865666,-0.8382629923698958,0.2087701492262662,0.5742825269699097,-0.6539146900177002,-0.4925395548343658,8.622841835021973,-27.42124938964844,-32.08095550537109,2,0.0.0.0,10.83.46.32,5,0
2015-02-26 19:56:54.212,101,1425009414.049887,37.76003714599577,-122.4614122708182,126.8618,0.001167169,-1,10,200,-9999,1425009414.185895,12.77909469604492,-29.18408203125,-34.33987426757812,84.54556274414062,70.76758575439453,10,120405.4595756667,0.87445068359375,-0.412933349609375,-0.417816162109375,120405.4615513333,0.6409134184612704,0.497656923419837,-1.344565852198736,120405.4097712917,-3.055041812567049,0.9782697913958701,0.669089358271621,0.3135567009449005,1.118725776672363,-1.42985737323761,0.3627076745033264,0.2901938259601593,0.0406172052025795,XTrueNorthZVertical,0.4559366138987113,-0.2703664026325789,-0.8263456960771102,0.1902015733009566,0.6506742835044861,-0.6202719211578369,-0.4380476176738739,11.26528835296631,-27.32268905639648,-31.33735847473145,2,0.0.0.0,10.83.46.32,5,0
2015-02-26 19:56:54.285,102,1425009414.049887,37.76003714599577,-122.4614122708182,126.8618,0.001167169,-1,10,200,-9999,1425009414.256094,19.12138748168945,-29.01417541503906,-32.74220275878906,89.50232696533203,75.72434997558594,10,120405.50864225,0.839385986328125,-0.5081024169921875,-0.193603515625,120405.4615513333,0.6409134184612704,0.497656923419837,-1.344565852198736,120405.4615513333,-3.127716511464703,1.059254289776897,0.6214992911467969,0.6342410445213318,0.5081741213798523,-1.307377457618713,0.165516659617424,0.1693214029073715,-0.01983124762773514,XTrueNorthZVertical,0.4828335235269934,-0.260536621523698,-0.8205704685592321,0.1601767742503136,0.7089340090751648,-0.5822547674179077,-0.3979849219322205,14.56304836273193,-26.93038749694824,-30.3007926940918,2,0.0.0.0,10.83.46.32,5,0
2015-02-26 19:56:54.309,103,1425009414.049887,37.76003714599577,-122.4614122708182,126.8618,0.001167169,-1,10,200,-9999,1425009414.256094,19.12138748168945,-29.01417541503906,-32.74220275878906,89.50232696533203,75.72434997558594,10,120405.557683,0.9359893798828125,-0.4587554931640625,-0.3305816650390625,120405.5133314167,0.7425918436160597,0.3382446279415469,-1.357849167083834,120405.5133314167,3.076895355753289,1.11833862884529,0.5822978644716824,0.7359195351600647,0.3487617075443268,-1.320661067962646,0.08822660893201828,0.04184214770793915,0.1715274304151535,XTrueNorthZVertical,0.500020709109559,-0.2596417028244538,-0.816520807642981,0.125933644350009,0.7511593699455261,-0.5499445796012878,-0.3651309609413147,18.18462753295898,-26.81393241882324,-28.38658905029297,2,0.0.0.0,10.83.46.32,5,0
2015-02-26 19:56:54.381,104,1425009414.049887,37.76003714599577,-122.4614122708182,126.8618,0.001167169,-1,10,200,-9999,1425009414.361348,25.20795059204102,-28.69134521484375,-30.52873992919922,99.28029632568359,85.5023193359375,10,120405.6067470417,0.97601318359375,-0.386383056640625,-0.174346923828125,120405.6168915833,0.7853435685951017,-0.2756797834006424,-1.879416749718729,120405.565111625,3.010722083760391,1.180358481579907,0.5285059064564631,0.6331068873405457,0.4673551321029663,-1.565666317939758,0.1374174058437347,0.04548817127943039,-0.001915924018248916,XTrueNorthZVertical,0.5218529447945506,-0.2516677045153223,-0.8097888304006715,0.09260105911265445,0.7985720038414001,-0.5042436718940735,-0.3286657333374023,19.6910343170166,-26.56424713134766,-27.60561943054199,2,0.0.0.0,10.83.46.32,5,0
2015-02-26 19:56:54.408,105,1425009414.049887,37.76003714599577,-122.4614122708182,126.8618,0.001167169,-1,10,200,-9999,1425009414.361348,25.20795059204102,-28.69134521484375,-30.52873992919922,99.28029632568359,85.5023193359375,10,120405.6558792083,0.86920166015625,-0.3697662353515625,-0.0484161376953125,120405.6168915833,0.7853435685951017,-0.2756797834006424,-1.879416749718729,120405.6168915833,2.935932828717639,1.218424205563862,0.4625646710487895,0.7786714434623718,-0.2651628851890564,-1.84222936630249,0.07224571704864502,0.08011008054018021,0.1547730416059494,XTrueNorthZVertical,0.5347461612965341,-0.2441687904402697,-0.8075101179302613,0.04853441738644675,0.839924693107605,-0.4462447166442871,-0.3088562786579132,22.07548522949219,-25.86038970947266,-26.44578170776367,2,0.0.0.0,10.83.46.32,5,0
2015-02-26 19:56:54.486,106,1425009414.049887,37.76003714599577,-122.4614122708182,126.8618,0.001167169,-1,10,200,-9999,1425009414.464636,32.38566207885742,-24.49449157714844,-27.5830078125,110.3209762573242,96.54299926757812,10,120405.70486025,1.479400634765625,-0.3618316650390625,-0.0185394287109375,120405.6686718333,0.5062030073579012,1.358036387308466,-2.129327520095656,120405.6686718333,2.864759717740332,1.266426778327707,0.3764106899850378,0.4995309114456177,1.368553161621094,-2.092140674591064,0.102822482585907,-0.04650819674134254,0.3044519126415253,XTrueNorthZVertical,0.5549195343781099,-0.2295847029206679,-0.7995968089018034,0.0003914354256336601,0.8872440457344055,-0.3675848245620728,-0.2787103354930878,25.8999137878418,-23.79702377319336,-24.86689567565918,2,0.0.0.0,10.83.46.32,4,0
2015-02-26 19:56:54.505,107,1425009414.049887,37.76003714599577,-122.4614122708182,126.8618,0.001167169,-1,10,200,-9999,1425009414.464636,32.38566207885742,-24.49449157714844,-27.5830078125,110.3209762573242,96.54299926757812,10,120405.753909375,1.036392211914062,-0.194854736328125,-0.1634368896484375,120405.7204517083,0.3732233846469747,2.231358281462663,-1.952975655871699,120405.7204517083,2.816865770628649,1.391333044915388,0.2872682943589554,0.3665513694286346,2.241874933242798,-1.915789008140564,0.4651026725769043,-0.04177023842930794,0.05497583374381065,XTrueNorthZVertical,0.6081931874359946,-0.210968388859971,-0.7645597172585973,-0.03227785434250552,0.9436192512512207,-0.2833335101604462,-0.171186774969101,28.64703369140625,-22.49390029907227,-22.99648284912109,2,0.0.0.0,10.83.46.32,4,0
2015-02-26 19:56:54.576,108,1425009414.049887,37.76003714599577,-122.4614122708182,126.8618,0.001167169,-1,10,200,-9999,1425009414.566579,40.85910797119141,-17.30720520019531,-21.94117736816406,115.8398971557617,102.0619201660156,10,120405.8029815833,0.8843994140625,0.0525360107421875,0.197784423828125,120405.7722317917,0.09337921624977535,0.6161255139831399,-1.804054617191667,120405.7722317917,2.794738189627223,1.460476222738338,0.1974624817655174,0.08670724928379059,0.626642107963562,-1.766868352890015,-0.008496389724314213,0.0361628346145153,-0.002455573761835694,XTrueNorthZVertical,0.6411688018730134,-0.1868797889286326,-0.7416119868219931,-0.06316809696262136,0.9746066331863403,-0.1961817592382431,-0.1079570204019547,32.51969909667969,-20.19660568237305,-19.74924087524414,2,0.0.0.0,10.83.46.32,4,0
2015-02-26 19:56:54.604,109,1425009414.049887,37.76003714599577,-122.4614122708182,126.8618,0.001167169,-1,10,200,-9999,1425009414.566579,40.85910797119141,-17.30720520019531,-21.94117736816406,115.8398971557617,102.0619201660156,10,120405.8520177083,1.261383056640625,0.2942352294921875,0.2595062255859375,120405.824011875,-0.01291366812579423,0.4360071410294837,-2.710608234376199,120405.824011875,2.779583972587403,1.477303509938382,0.08628833360707455,-0.01958556100726128,0.4465236067771912,-2.673422336578369,0.09196434170007706,0.2662807703018188,0.395072340965271,XTrueNorthZVertical,0.6559353061707482,-0.1524604982568113,-0.7318489429474569,-0.1044118325377498,0.9919284582138062,-0.08618129789829254,-0.0930093377828598,35.99013137817383,-15.07748317718506,-18.24407386779785,2,0.0.0.0,10.83.46.32,4,0
2015-02-26 19:56:54.679,110,1425009414.049887,37.76003714599577,-122.4614122708182,126.8618,0.001167169,-1,10,200,-9999,1425009414.619556,43.72338104248047,-12.51565551757812,-19.17851257324219,120.3978424072266,106.6198654174805,10,120405.9010872917,1.304931640625,0.25872802734375,0.0406951904296875,120405.8757920833,0.2934515899869592,2.893384708413863,-3.261254872953669,120405.8757920833,2.76775355899914,1.573323085394728,-0.06206088615602465,0.2867797613143921,2.903901100158691,-3.224069356918335,0.289617508649826,0.210912898182869,0.150615319609642,XTrueNorthZVertical,0.6994039713408332,-0.1099774098172522,-0.6894955561277983,-0.1527578729879631,0.9980716705322266,0.06202105432748795,0.002521891612559557,37.72341156005859,-11.96087646484375,-17.01022911071777,2,0.0.0.0,10.83.46.32,4,0
2015-02-26 19:56:54.702,111,1425009414.049887,37.76003714599577,-122.4614122708182,126.8618,0.001167169,-1,10,200,-9999,1425009414.67093,45.71813201904297,-5.600189208984375,-15.30079650878906,131.5808868408203,117.8029174804688,10,120405.950129625,1.3709716796875,0.2221221923828125,0.1009674072265625,120405.927572,0.4971565154510111,1.875833200155919,-3.709314682128525,120405.927572,2.756424078635239,1.703024005436529,-0.2378301485388836,0.490484744310379,1.886349439620972,-3.672129392623901,0.3852649331092834,0.01323066372424364,-0.07567180693149567,XTrueNorthZVertical,0.7481155348866978,-0.06624884965440571,-0.6250180930255179,-0.2128066146731164,0.9633678793907166,0.2355944067239761,0.1281315237283707,40.86569976806641,-6.44184398651123,-11.99847602844238,2,0.0.0.0,10.83.46.32,4,0
2015-02-26 19:56:54.784,112,1425009414.049887,37.76003714599577,-122.4614122708182,126.8618,0.001167169,-1,10,200,-9999,1425009414.722011,46.75813293457031,2.878448486328125,-10.65752410888672,146.1848297119141,132.4068603515625,10,120405.999208125,0.897552490234375,0.3686065673828125,0.0339202880859375,120405.979352125,0.06176589621388075,0.3873088436524038,-3.596340192894055,120405.979352125,2.776163642043097,1.758730356000235,-0.4192180604114409,0.05509419366717339,0.3978250026702881,-3.559155464172363,0.3305501937866211,-0.1421385109424591,-0.1077244132757187,XTrueNorthZVertical,0.765038829755959,-0.006435751157288394,-0.5841776039247921,-0.2709441503752984,0.8973245620727539,0.4070463478565216,0.1706516593694687,42.24042510986328,4.725681304931641,-6.991469383239746,2,0.0.0.0,10.83.46.32,4,0
2015-02-26 19:56:54.800,113,1425009414.049887,37.76003714599577,-122.4614122708182,126.8618,0.001167169,-1,10,200,-9999,1425009414.774229,45.27485656738281,12.10467529296875,-7.844940185546875,153.1400451660156,139.3620758056641,10,120406.0482565417,0.634765625,0.268463134765625,0.2402801513671875,120406.0311321667,-0.05932670697147718,0.09246255620257007,-3.739134363170251,120406.0311321667,2.8138381929138,1.781046878165485,-0.5953929897134659,-0.0659983903169632,0.1029766127467155,-3.701948642730713,-0.1196326389908791,-0.2473576068878174,0.005140031222254038,XTrueNorthZVertical,0.7633495424474062,0.06077688674090078,-0.5560802953216466,-0.3230764409789728,0.8096961379051208,0.5608341693878174,0.1727927029132843,41.53706359863281,9.161972999572754,-6.796831130981445,2,0.0.0.0,10.83.46.32,4,0
2015-02-26 19:56:54.871,114,1425009414.049887,37.76003714599577,-122.4614122708182,126.8618,0.001167169,-1,10,200,-9999,1425009414.825575,42.0355110168457,21.17803955078125,-6.513534545898438,159.4688720703125,145.6909027099609,10,120406.0973305417,0.6539459228515625,0.544036865234375,0.1541748046875,120406.08291225,-1.217524812402577,0.9177356979695568,-3.569515236498123,120406.08291225,2.917542713752515,1.879829652649715,-0.7647008246489265,-1.224196434020996,0.9282496571540833,-3.532329797744751,-0.03983869776129723,-0.2937615811824799,-0.02262435667216778,XTrueNorthZVertical,0.7691043522415352,0.134943927584152,-0.5101523857352236,-0.3605734468553957,0.6874064207077026,0.6923211216926575,0.2194627374410629,39.51216506958008,15.92428970336914,-6.377474308013916,2,0.0.0.0,10.83.46.32,4,0
2015-02-26 19:56:54.897,115,1425009414.049887,37.76003714599577,-122.4614122708182,126.8618,0.001167169,-1,10,200,-9999,1425009414.8801,37.32993316650391,29.7076416015625,-4.483154296875,172.4308319091797,158.6528625488281,10,120406.1463798333,0.4663543701171875,0.6340179443359375,0.3275299072265625,120406.1346922917,-1.978062899656354,0.01099246371541106,-3.128145021665438,120406.08291225,2.917542713752515,1.879829652649715,-0.7647008246489265,-1.224196434020996,0.9282496571540833,-3.532329797744751,-0.03983869776129723,-0.2937615811824799,-0.02262435667216778,XTrueNorthZVertical,0.7691043522415352,0.134943927584152,-0.5101523857352236,-0.3605734468553957,0.6874064207077026,0.6923211216926575,0.2194627374410629,39.51216506958008,15.92428970336914,-6.377474308013916,2,0.0.0.0,10.83.46.32,4,0
2015-02-26 19:56:54.981,116,1425009414.049887,37.76003714599577,-122.4614122708182,126.8618,0.001167169,-1,10,200,-9999,1425009414.955338,29.26567459106445,40.463134765625,0.6261062622070312,177.532470703125,163.7545013427734,10,120406.1954682917,0.236724853515625,0.4655609130859375,0.5842132568359375,120406.186472375,-2.941554101998453,-1.082166187889883,-3.056007178270135,120406.186472375,-2.849451860596726,2.273765372299855,-0.9369798624117356,-2.948266983032227,-1.071680665016174,-3.018754720687866,-0.1801254153251648,-0.3362907469272614,0.1589139997959137,XTrueNorthZVertical,0.7733112758425721,0.3056500554868067,-0.4307614596439164,-0.3507311143858173,0.4518234133720398,0.8057731986045837,0.3828645646572113,31.86930274963379,28.97261619567871,-0.6334943771362305,2,0.0.0.0,10.83.46.32,4,0
2015-02-26 19:56:54.996,117,1425009414.049887,37.76003714599577,-122.4614122708182,126.8618,0.001167169,-1,10,200,-9999,1425009414.955338,29.26567459106445,40.463134765625,0.6261062622070312,177.532470703125,163.7545013427734,10,120406.2445240833,0.0488739013671875,0.6837005615234375,0.7349853515625,120406.2382524583,-2.8472885857379,-0.5149570841771007,-1.864410369608351,120406.186472375,-2.849451860596726,2.273765372299855,-0.9369798624117356,-2.948266983032227,-1.071680665016174,-3.018754720687866,-0.1801254153251648,-0.3362907469272614,0.1589139997959137,XTrueNorthZVertical,0.7733112758425721,0.3056500554868067,-0.4307614596439164,-0.3507311143858173,0.4518234133720398,0.8057731986045837,0.3828645646572113,31.86930274963379,28.97261619567871,-0.6334943771362305,2,0.0.0.0,10.83.46.32,4,0
2015-02-26 19:56:55.085,118,1425009415.051566,37.76003427386461,-122.4614123596013,126.8786,0.0006959856,-1,10,200,-9999,1425009415.064057,20.55352783203125,46.46102905273438,10.19559478759766,171.4639587402344,157.6859893798828,10,120406.2936107917,-0.07769775390625,0.7827606201171875,0.92425537109375,120406.2900325417,-2.515002780735405,-0.5608438823913841,-1.199645147792113,120406.2382524583,-2.52726768047998,2.490366173763797,-0.91455534591315,-2.854001760482788,-0.5044676661491394,-1.827161073684692,-0.265033096075058,-0.1603638678789139,0.2426182925701141,XTrueNorthZVertical,0.767619232182054,0.3916587524520224,-0.4000672189415749,-0.3119461360836874,0.3698457181453705,0.7922913432121277,0.4852717220783234,27.7526798248291,32.87792587280273,2.072981834411621,2,0.0.0.0,10.83.46.32,4,0
2015-02-26 19:56:55.095,119,1425009415.051566,37.76003427386461,-122.4614123596013,126.8786,0.0006959856,-1,10,200,-9999,1425009415.064057,20.55352783203125,46.46102905273438,10.19559478759766,171.4639587402344,157.6859893798828,10,120406.3426591667,-0.0693817138671875,0.701507568359375,0.8460845947265625,120406.2900325417,-2.515002780735405,-0.5608438823913841,-1.199645147792113,120406.2900325417,-2.321730739981698,2.625825739008983,-0.8392591308036511,-2.521722555160522,-0.5503377914428711,-1.16240930557251,-0.4072096645832062,0.06175978854298592,0.3132173120975494,XTrueNorthZVertical,0.7684678423560302,0.4472303255820884,-0.3706179854859066,-0.2684856708578763,0.3294661343097687,0.7441484332084656,0.5811156034469604,23.5020580291748,35.13624954223633,8.280317306518555,2,0.0.0.0,10.83.46.32,4,0
2015-02-26 19:56:55.173,120,1425009415.051566,37.76003427386461,-122.4614123596013,126.8786,0.0006959856,-1,10,200,-9999,1425009415.136105,16.71745681762695,46.2401123046875,17.63482666015625,61.64389801025391,47.86592483520508,10,120406.3917447083,-0.1103363037109375,0.4814300537109375,1.04986572265625,120406.3935927083,-1.549431116949736,1.08927815958094,-0.3060565977424132,120406.341812625,-2.17566893795104,2.726351251837568,-0.7541083730648135,-2.245301008224487,0.280164361000061,-0.7178289890289307,-0.3362753689289093,0.03394310176372528,0.196721538901329,XTrueNorthZVertical,0.7704820004284434,0.4897224480043015,-0.3370454239585488,-0.2300648356491914,0.2940390408039093,0.684639036655426,0.6669411659240723,22.34936141967773,35.23974609375,10.68329334259033,2,0.0.0.0,10.83.46.32,4,0
2015-02-26 19:56:55.192,121,1425009415.051566,37.76003427386461,-122.4614123596013,126.8786,0.0006959856,-1,10,200,-9999,1425009415.188412,14.63744735717773,44.94879150390625,22.09503173828125,41.38491439819336,27.60694122314453,10,120406.4407914167,0.21417236328125,0.521820068359375,0.8405914306640625,120406.3935927083,-1.549431116949736,1.08927815958094,-0.3060565977424132,120406.3935927083,-2.109550472294142,2.805411759216935,-0.6772715868876849,-1.556152105331421,1.099784970283508,-0.2688226699829102,-0.367410272359848,-0.1452390998601913,0.3142035305500031,XTrueNorthZVertical,0.7814072523019026,0.5071822238301976,-0.2988570663123581,-0.2070105970066403,0.2570739686489105,0.62666916847229,0.7356622219085693,21.03935241699219,34.69723129272461,14.45386123657227,2,0.0.0.0,10.83.46.32,4,0
2015-02-26 19:56:55.277,122,1425009415.051566,37.76003427386461,-122.4614123596013,126.8786,0.0006959856,-1,10,200,-9999,1425009415.240467,13.93843078613281,42.75689697265625,26.47201538085938,39.4310302734375,25.65305709838867,10,120406.4898699167,0.0255584716796875,0.5230560302734375,1.132217407226562,120406.4971528333,-1.384219521881689,0.02375965798125093,0.09362475970228065,120406.4453729167,-2.071280809926034,2.86937264234394,-0.5992498622312378,-1.599498391151428,0.390929251909256,0.0647367462515831,-0.007849761284887791,-0.04220313206315041,0.04523985087871552,XTrueNorthZVertical,0.7938393964229428,0.5171989967292244,-0.2606520904796995,-0.185431210088627,0.2220221310853958,0.5640231966972351,0.7953515648841858,19.41000366210938,32.84648895263672,19.99565887451172,2,0.0.0.0,10.83.46.32,4,0
2015-02-26 19:56:55.291,123,1425009415.051566,37.76003427386461,-122.4614123596013,126.8786,0.0006959856,-1,10,200,-9999,1425009415.240467,13.93843078613281,42.75689697265625,26.47201538085938,39.4310302734375,25.65305709838867,10,120406.5389142083,0.115570068359375,0.4759979248046875,1.0333251953125,120406.4971528333,-1.384219521881689,0.02375965798125093,0.09362475970228065,120406.4971528333,-2.057406761027856,2.88132234967575,-0.5260471486218243,-1.390939831733704,0.0342743918299675,0.1308533996343613,-0.1969903558492661,0.02093717828392982,0.2965447306632996,XTrueNorthZVertical,0.802768060833257,0.5228764436592483,-0.2403485175165825,-0.1561931201336302,0.2225488275289536,0.5021188259124756,0.8356726765632629,19.41191482543945,31.77922439575195,21.65005111694336,2,0.0.0.0,10.83.46.32,4,0
2015-02-26 19:56:55.380,124,1425009415.051566,37.76003427386461,-122.4614123596013,126.8786,0.0006959856,-1,10,200,-9999,1425009415.345223,14.48401260375977,38.91693115234375,31.43149566650391,38.18208694458008,24.40411186218262,10,120406.58799925,0.13116455078125,0.3912353515625,0.9925079345703125,120406.548932875,-0.2953325806648822,-0.07300576759456018,0.3387554222386241,120406.548932875,-2.06100278555645,2.879818600971448,-0.4810211337318938,-0.3020528554916382,-0.06249114871025085,0.3759836554527283,-0.1057548522949219,-0.01232151594012976,0.1709461808204651,XTrueNorthZVertical,0.8097581350656863,0.5219697290474257,-0.2301800106108072,-0.1373192005712829,0.2294273376464844,0.4626846611499786,0.8563212752342224,19.63722991943359,30.28669357299805,23.50663185119629,2,0.0.0.0,10.83.46.32,4,0
2015-02-26 19:56:55.390,125,1425009415.051566,37.76003427386461,-122.4614123596013,126.8786,0.0006959856,-1,10,200,-9999,1425009415.345223,14.48401260375977,38.91693115234375,31.43149566650391,38.18208694458008,24.40411186218262,10,120406.6371419167,0.111297607421875,0.412139892578125,0.9531402587890625,120406.600713,0.3250526594818394,-0.1368129767839867,-0.03137949449218565,120406.600713,-2.06562814167294,2.884161280861469,-0.472072154040622,0.3183151483535767,-0.1262469738721848,0.005811608396470547,-0.08847643435001373,-0.05792796984314919,0.1303589344024658,XTrueNorthZVertical,0.8126457056020531,0.519852463453596,-0.2260072765691387,-0.1352076914335809,0.2267515808343887,0.4547327756881714,0.8612792491912842,19.98545837402344,29.29239654541016,24.45410537719727,2,0.0.0.0,10.83.46.32,4,0
2015-02-26 19:56:55.480,126,1425009415.051566,37.76003427386461,-122.4614123596013,126.8786,0.0006959856,-1,10,200,-9999,1425009415.452697,14.17712783813477,39.32470703125,30.89893341064453,38.43161773681641,24.65364265441895,10,120406.686117625,0.0752716064453125,0.375701904296875,0.9083709716796875,120406.6524931667,0.4997789301764121,-0.01033093450063538,-0.2354926825513467,120406.6524931667,-2.05901917452438,2.89392508089092,-0.4897800804190412,0.4930292665958405,0.0002639695012476295,-0.1983236819505692,-0.1252132058143616,-0.06457856297492981,0.08932898938655853,XTrueNorthZVertical,0.8096787015693779,0.521704555493637,-0.2266647983337598,-0.144457127465756,0.2163234353065491,0.4704318344593048,0.8555104732513428,19.95416450500488,29.62982559204102,24.07012748718262,2,0.0.0.0,10.83.46.32,6,0
2015-02-26 19:56:55.487,127,1425009415.051566,37.76003427386461,-122.4614123596013,126.8786,0.0006959856,-1,10,200,-9999,1425009415.452697,14.17712783813477,39.32470703125,30.89893341064453,38.43161773681641,24.65364265441895,10,120406.7351627917,0.093902587890625,0.4084930419921875,0.889373779296875,120406.704273125,0.2616395981337447,-0.01337546025881397,-0.06373929858162947,120406.704273125,-2.05196097418535,2.9086990257524,-0.5007247744579512,0.2548694312572479,-0.002739211078733206,-0.02660335041582584,-0.1235115751624107,-0.1017808243632317,0.04992099851369858,XTrueNorthZVertical,0.8080297923005014,0.5233199839027278,-0.2237973021917571,-0.1521146022306146,0.2024605572223663,0.4800614714622498,0.8535519242286682,19.03878593444824,30.03256607055664,24.31122779846191,2,0.0.0.0,10.83.46.32,6,0
2015-02-26 19:56:55.577,128,1425009415.051566,37.76003427386461,-122.4614123596013,126.8786,0.0006959856,-1,10,200,-9999,1425009415.52785,14.02367782592773,40.08935546875,29.98360061645508,38.53138732910156,24.75341415405273,10,120406.784244375,0.0831451416015625,0.4082183837890625,0.907684326171875,120406.7560533333,-0.01243935913565111,0.02033776229660812,-0.05431250727107598,120406.7560533333,-2.041097140419064,2.932904710356383,-0.4920826490763579,-0.01923933252692223,0.03104032017290592,-0.01722656935453415,-0.09848873317241669,-0.06546477228403091,0.03886381164193153,XTrueNorthZVertical,0.8089627964054268,0.5260166846727045,-0.212775067684045,-0.1536634228667605,0.1825951784849167,0.4724624454975128,0.8622286915779114,18.32413864135742,30.17996025085449,24.67513275146484,2,0.0.0.0,10.83.46.32,6,0
2015-02-26 19:56:55.585,129,1425009415.051566,37.76003427386461,-122.4614123596013,126.8786,0.0006959856,-1,10,200,-9999,1425009415.57803,14.21122360229492,40.17428588867188,29.90038681030273,38.63216018676758,24.85418701171875,10,120406.8332995417,0.089691162109375,0.427093505859375,0.9329986572265625,120406.80783325,-0.1757702298418838,0.02438523452131055,0.009485114538426214,120406.80783325,-2.02950710509919,2.959038147185366,-0.4726762644389687,-0.1826042532920837,0.0351543202996254,0.04651884734630585,-0.07731661945581436,-0.03901096805930138,0.05052816122770309,XTrueNorthZVertical,0.8110375870439083,0.5291475831029336,-0.1983403245803942,-0.1512680363490306,0.1616366803646088,0.4552707374095917,0.8755582571029663,18.03514671325684,30.02793121337891,25.07036590576172,2,0.0.0.0,10.83.46.32,6,0
2015-02-26 19:56:55.674,130,1425009415.051566,37.76003427386461,-122.4614123596013,126.8786,0.0006959856,-1,10,200,-9999,1425009415.629767,14.14302444458008,39.69851684570312,30.46623611450195,38.63857269287109,24.86059761047363,10,120406.8823518333,0.1002349853515625,0.415435791015625,0.949371337890625,120406.8596134167,-0.1756485233800671,0.003889813088169735,0.002663161090079238,120406.8596134167,-2.023789866807535,2.975294667301928,-0.4553455514599591,-0.1825043559074402,0.01469669956713915,0.03966540470719337,-0.05477897450327873,-0.02252109535038471,0.0530930832028389,XTrueNorthZVertical,0.8131653562276587,0.5306804021713061,-0.187869454844557,-0.1478022922558488,0.1486663073301315,0.4397726953029633,0.8857191801071167,17.61338996887207,29.64200210571289,25.81834030151367,2,0.0.0.0,10.83.46.32,6,0
2015-02-26 19:56:55.683,131,1425009415.051566,37.76003427386461,-122.4614123596013,126.8786,0.0006959856,-1,10,200,-9999,1425009415.629767,14.14302444458008,39.69851684570312,30.46623611450195,38.63857269287109,24.86059761047363,10,120406.931394,0.0909271240234375,0.4041748046875,0.9516448974609375,120406.9113934167,-0.09475101052727516,0.02674293103435769,-0.03108574782394991,120406.8596134167,-2.023789866807535,2.975294667301928,-0.4553455514599591,-0.1825043559074402,0.01469669956713915,0.03966540470719337,-0.05477897450327873,-0.02252109535038471,0.0530930832028389,XTrueNorthZVertical,0.8131653562276587,0.5306804021713061,-0.187869454844557,-0.1478022922558488,0.1486663073301315,0.4397726953029633,0.8857191801071167,17.61338996887207,29.64200210571289,25.81834030151367,2,0.0.0.0,10.83.46.32,6,0
2015-02-26 19:56:55.782,132,1425009415.051566,37.76003427386461,-122.4614123596013,126.8786,0.0006959856,-1,10,200,-9999,1425009415.735118,13.75089645385742,39.10385131835938,30.88229370117188,38.01944351196289,24.24147033691406,10,120406.980478875,0.08636474609375,0.399749755859375,0.944549560546875,120406.9631735833,-0.002568086239163409,0.01296080607708863,-0.05292100560150959,120406.9631735833,-2.013092232061174,3.000885388515404,-0.4308457836886929,-0.009458611719310284,0.02383788116276264,-0.01596729457378387,-0.04443443194031715,-0.01473111659288406,0.04468753561377525,XTrueNorthZVertical,0.815380908082744,0.5338263265627974,-0.1720587275012772,-0.1434547230679393,0.1274269819259644,0.417639434337616,0.8996331691741943,16.70957946777344,28.83990669250488,27.28582000732422,2,0.0.0.0,10.83.46.32,6,0
2015-02-26 19:56:55.785,133,1425009415.051566,37.76003427386461,-122.4614123596013,126.8786,0.0006959856,-1,10,200,-9999,1425009415.735118,13.75089645385742,39.10385131835938,30.88229370117188,38.01944351196289,24.24147033691406,10,120407.0295263333,0.084228515625,0.3917083740234375,0.93389892578125,120407.0149535417,0.05392821312577755,0.01355602258072134,-0.04447479020432328,120407.0149535417,-2.008787255723544,3.010482330438323,-0.426546070827187,0.04702340066432953,0.02446055226027966,-0.007539832033216953,-0.03404499590396881,-0.01513873133808374,0.04005562141537666,XTrueNorthZVertical,0.8155065832244645,0.5350161760245975,-0.1673585719896061,-0.1438674666782058,0.1190211921930313,0.4137288331985474,0.9025865793228149,16.32059478759766,28.68845558166504,27.67809867858887,2,0.0.0.0,10.83.46.32,6,0
2015-02-26 19:56:55.876,134,1425009415.051566,37.76003427386461,-122.4614123596013,126.8786,0.0006959856,-1,10,200,-9999,1425009415.837335,13.92139053344727,39.44369506835938,31.21514892578125,38.08941650390625,24.31144332885742,10,120407.0786004583,0.0806121826171875,0.396087646484375,0.9257049560546875,120407.0667337083,-0.0331289250122587,-0.007784952498519629,-0.02665478040227607,120407.0667337083,-2.005764236835461,3.018102121502929,-0.4225700089428214,-0.04004539176821709,0.003140915418043733,0.01026523299515247,-0.03542246669530869,-0.01584915816783905,0.0229316558688879,XTrueNorthZVertical,0.8157464360164872,0.5358209307768952,-0.163449190140954,-0.1440072219969347,0.1123420223593712,0.4101057648658752,0.9050926566123962,15.89988327026367,28.57705688476562,28.03590393066406,2,0.0.0.0,10.83.46.32,6,0
2015-02-26 19:56:55.883,135,1425009415.051566,37.76003427386461,-122.4614123596013,126.8786,0.0006959856,-1,10,200,-9999,1425009415.837335,13.92139053344727,39.44369506835938,31.21514892578125,38.08941650390625,24.31144332885742,10,120407.12765025,0.0815277099609375,0.377716064453125,0.920623779296875,120407.1185136667,-0.1962608575850624,-0.03955646430316494,0.002573412561343568,120407.0667337083,-2.005764236835461,3.018102121502929,-0.4225700089428214,-0.04004539176821709,0.003140915418043733,0.01026523299515247,-0.03542246669530869,-0.01584915816783905,0.0229316558688879,XTrueNorthZVertical,0.8157464360164872,0.5358209307768952,-0.163449190140954,-0.1440072219969347,0.1123420223593712,0.4101057648658752,0.9050926566123962,15.89988327026367,28.57705688476562,28.03590393066406,2,0.0.0.0,10.83.46.32,6,0
2015-02-26 19:56:55.983,136,1425009415.051566,37.76003427386461,-122.4614123596013,126.8786,0.0006959856,-1,10,200,-9999,1425009415.940792,14.33057022094727,38.89999389648438,31.41485595703125,38.30276489257812,24.52478981018066,10,120407.1767297917,0.0891571044921875,0.3701629638671875,0.947174072265625,120407.170293875,-0.3732422930907142,-0.01658137357905135,0.02555196539487426,120407.170293875,-2.003461188398457,3.025150236908015,-0.3940251109055938,-0.38017737865448,-0.005623122677206993,0.06245022639632225,-0.02309404313564301,-0.01032725442200899,0.02440982684493065,XTrueNorthZVertical,0.818571971785543,0.5371211912025455,-0.1533650583302686,-0.1338654075139158,0.1072767823934555,0.3839081823825836,0.9171184897422791,15.76395606994629,28.1068229675293,28.58269500732422,2,0.0.0.0,10.83.46.32,6,0
2015-02-26 19:56:55.986,137,1425009415.051566,37.76003427386461,-122.4614123596013,126.8786,0.0006959856,-1,10,200,-9999,1425009415.940792,14.33057022094727,38.89999389648438,31.41485595703125,38.30276489257812,24.52478981018066,10,120407.2257733333,0.095703125,0.3599853515625,0.9752960205078125,120407.170293875,-0.3732422930907142,-0.01658137357905135,0.02555196539487426,120407.170293875,-2.003461188398457,3.025150236908015,-0.3940251109055938,-0.38017737865448,-0.005623122677206993,0.06245022639632225,-0.02309404313564301,-0.01032725442200899,0.02440982684493065,XTrueNorthZVertical,0.818571971785543,0.5371211912025455,-0.1533650583302686,-0.1338654075139158,0.1072767823934555,0.3839081823825836,0.9171184897422791,15.76395606994629,28.1068229675293,28.58269500732422,2,0.0.0.0,10.83.46.32,6,0
2015-02-26 19:56:56.043,138,1425009415.051566,37.76003427386461,-122.4614123596013,126.8786,0.0006959856,-1,10,200,-9999,1425009415.993759,14.36466979980469,38.01644897460938,32.08056259155273,38.36708068847656,24.58910751342773,10,120407.2748444583,0.087066650390625,0.35968017578125,0.977874755859375,120407.273854,-0.173492960793757,0.05241899973602965,-0.002235457419012512,120407.2220737917,-2.003964069258576,3.028209967631962,-0.371448442001417,-0.4025606215000153,0.03545999899506569,0.07987848669290543,-0.0112010445445776,-0.0003250933950766921,0.04386116564273834,XTrueNorthZVertical,0.8210849178546303,0.5373354327125902,-0.1462215458300132,-0.1253374861545291,0.1054240688681602,0.36296546459198,0.9258196353912354,15.74618148803711,27.09768867492676,29.55062484741211,2,0.0.0.0,10.83.46.32,6,0
2015-02-26 19:56:56.082,139,1425009416.052134,37.76003265062999,-122.4614124097785,126.8957,0.0004185463,-1,10,200,-9999,1425009416.046897,14.44991302490234,37.523681640625,33.36203384399414,38.30380630493164,24.52583312988281,10,120407.3238937083,0.0889434814453125,0.3394012451171875,0.98101806640625,120407.3256339583,-0.004994758624443612,0.00813249502077497,-0.05279477176583983,120407.273854,-2.004888135928876,3.031739174113207,-0.3562423002743291,-0.1804648786783218,0.06333988159894943,0.03473897650837898,-0.01282922737300396,0.01776117831468582,0.05317654833197594,XTrueNorthZVertical,0.8229682458982915,0.5371271704599311,-0.1407590148700149,-0.1200191826619661,0.1027492731809616,0.3487549424171448,0.9315646886825562,15.73015403747559,26.7297191619873,29.89231872558594,2,0.0.0.0,10.83.46.32,6,0
2015-02-26 19:56:56.147,140,1425009416.052134,37.76003265062999,-122.4614124097785,126.8957,0.0004185463,-1,10,200,-9999,1425009416.122179,14.10892486572266,37.45571899414062,33.56174468994141,37.64537048339844,23.86739540100098,10,120407.3729718333,0.07733154296875,0.337005615234375,0.975341796875,120407.3256339583,-0.004994758624443612,0.00813249502077497,-0.05279477176583983,120407.3256339583,-2.00390483418324,3.033891882097489,-0.3507639231830836,-0.01196963619440794,0.01905798725783825,-0.01582315005362034,-0.01200402993708849,-0.004214070737361908,0.04734882712364197,XTrueNorthZVertical,0.8233385446886915,0.5375390789190793,-0.1385038517500327,-0.1182459216732958,0.1009475141763687,0.34361532330513,0.9336692690849304,14.95798301696777,37.59569931030273,33.69811248779297,2,0.0.0.0,10.83.46.32,6,0
2015-02-26 19:56:56.189,141,1425009416.052134,37.76003265062999,-122.4614124097785,126.8957,0.0004185463,-1,10,200,-9999,1425009416.122179,14.10892486572266,37.45571899414062,33.56174468994141,37.64537048339844,23.86739540100098,10,120407.422017375,0.0838165283203125,0.339752197265625,0.9516143798828125,120407.3774140417,0.1364694290033664,-0.02831020133586933,-0.04723595562251743,120407.3774140417,-2.001965853657254,3.037507060551778,-0.3527775192891159,0.1294884383678436,-0.0173751600086689,-0.01026975363492966,-0.02016784995794296,-0.008499992080032825,0.04200376570224762,XTrueNorthZVertical,0.8228902876490971,0.538071175741266,-0.1376572064266587,-0.1199229474505745,0.09749939292669296,0.3455055952072144,0.9333380460739136,14.75517463684082,37.59522247314453,33.78793334960938,2,0.0.0.0,10.83.46.32,6,0
2015-02-26 19:56:56.247,142,1425009416.052134,37.76003265062999,-122.4614124097785,126.8957,0.0004185463,-1,10,200,-9999,1425009416.22892,14.50106430053711,37.8804931640625,32.44669342041016,38.41504669189453,24.63707160949707,10,120407.471092625,0.084564208984375,0.35760498046875,0.9533843994140625,120407.4809742917,0.09832870113568762,-0.01605087188990757,-0.03524480649832665,120407.429194125,-2.00248515259333,3.03842608348111,-0.3598074288642898,0.1625478118658066,-0.0008306060917675495,-0.0009647256811149418,-0.01257254555821419,-0.01234180293977261,0.02062614262104034,XTrueNorthZVertical,0.8224730935323482,0.5376170842234888,-0.1390837933920993,-0.123132510163862,0.09638907015323639,0.3520939946174622,0.9309882521629333,14.70366287231445,37.71751022338867,33.67390823364258,2,0.0.0.0,10.83.46.32,6,0
2015-02-26 19:56:56.285,143,1425009416.052134,37.76003265062999,-122.4614124097785,126.8957,0.0004185463,-1,10,200,-9999,1425009416.22892,14.50106430053711,37.8804931640625,32.44669342041016,38.41504669189453,24.63707160949707,10,120407.5201346667,0.0808868408203125,0.354827880859375,0.9458465576171875,120407.4809742917,0.09832870113568762,-0.01605087188990757,-0.03524480649832665,120407.4809742917,-2.002745360131296,3.039674753623741,-0.364937568322614,0.09133882075548172,-0.005102262832224369,0.001713680918328464,-0.00940915010869503,0.00381153984926641,0.02317016571760178,XTrueNorthZVertical,0.8221716282513897,0.5372924411136077,-0.1398929184544328,-0.1256210701441723,0.09504147619009018,0.3568909764289856,0.9292986989021301,14.66909027099609,37.93074798583984,33.4487190246582,2,0.0.0.0,10.83.46.32,6,0
2015-02-26 19:56:56.332,144,1425009416.052134,37.76003265062999,-122.4614124097785,126.8957,0.0004185463,-1,10,200,-9999,1425009416.304526,14.48401260375977,38.33926391601562,32.33019638061523,38.31711959838867,24.53914451599121,10,120407.5692124583,0.087066650390625,0.3604278564453125,0.955535888671875,120407.53275425,0.007401989933766235,-0.009172992058668929,-0.03770157260392475,120407.53275425,-2.002450893091775,3.040975666557452,-0.3662619927268268,0.0004097342898603529,0.001779535436071455,-0.0007458558538928628,-0.006840316113084555,-0.002933775540441275,0.01901706680655479,XTrueNorthZVertical,0.8220644382635058,0.5372944167949287,-0.1397222670820339,-0.1265009588192413,0.09378489851951599,0.3581278622150421,0.9289504885673523,14.58411407470703,38.07427215576172,33.32257843017578,2,0.0.0.0,10.83.46.32,6,0
2015-02-26 19:56:56.385,145,1425009416.052134,37.76003265062999,-122.4614124097785,126.8957,0.0004185463,-1,10,200,-9999,1425009416.355462,14.31352233886719,38.0673828125,32.59648132324219,38.28607177734375,24.50809860229492,10,120407.6182468333,0.081024169921875,0.3583831787109375,0.9618682861328125,120407.5845342917,-0.02236442788615842,0.03728052683558322,-0.04738322843079881,120407.5845342917,-2.001771673367931,3.043392162517251,-0.3641306878528602,-0.02935968339443207,0.0482371523976326,-0.01042960584163666,-0.008850773796439171,-0.001355010084807873,0.0300290659070015,XTrueNorthZVertical,0.8222406690596326,0.5374813652318956,-0.1382153378123554,-0.1262165600999675,0.09161444753408432,0.3561371266841888,0.9299318790435791,14.55223274230957,38.04065704345703,33.37486267089844,2,0.0.0.0,10.83.46.32,6,0
2015-02-26 19:56:56.432,146,1425009416.052134,37.76003265062999,-122.4614124097785,126.8957,0.0004185463,-1,10,200,-9999,1425009416.408056,14.00663757324219,37.82949829101562,32.79619598388672,38.06961441040039,24.29163932800293,10,120407.66733675,0.0811614990234375,0.3621826171875,0.9635467529296875,120407.6363144167,0.04300738844368962,-0.00815166978062354,-0.04513019414859178,120407.6363144167,-2.000597540476225,3.046018422619631,-0.3632340395439821,0.03600886464118958,0.002809733152389526,-0.008179245516657829,-0.0102228345349431,1.704899295873474e-05,0.0343875028192997,XTrueNorthZVertical,0.8221854060975313,0.5378238941324296,-0.1369754036078913,-0.1264689336720625,0.08920232951641083,0.3552991151809692,0.9304867386817932,14.43214225769043,37.98029327392578,33.49554061889648,2,0.0.0.0,10.83.46.32,6,0
