loggingTime,loggingSample,locationTimestamp_since1970,locationLatitude,locationLongitude,locationAltitude,locationSpeed,locationCourse,locationVerticalAccuracy,locationHorizontalAccuracy,locationFloor,locationHeadingTimestamp_since1970,locationHeadingX,locationHeadingY,locationHeadingZ,locationTrueHeading,locationMagneticHeading,locationHeadingAccuracy,accelerometerTimestamp_sinceReboot,accelerometerAccelerationX,accelerometerAccelerationY,accelerometerAccelerationZ,gyroTimestamp_sinceReboot,gyroRotationX,gyroRotationY,gyroRotationZ,motionTimestamp_sinceReboot,motionYaw,motionRoll,motionPitch,motionRotationRateX,motionRotationRateY,motionRotationRateZ,motionUserAccelerationX,motionUserAccelerationY,motionUserAccelerationZ,motionAttitudeReferenceFrame,motionQuaternionX,motionQuaternionY,motionQuaternionZ,motionQuaternionW,motionGravityX,motionGravityY,motionGravityZ,motionMagneticFieldX,motionMagneticFieldY,motionMagneticFieldZ,motionMagneticFieldCalibrationAccuracy,IP_en0,IP_pdp_ip0,deviceOrientation,state
2015-02-27 17:02:15.830,1,1425085335.134261,37.78768313531023,-122.3967154204565,12.53685,-1,-1,10,65,-9999,1425085335.770306,6.883373260498047,-37.22846984863281,5.563766479492188,227.8410949707031,214.0678405761719,25,136980.0071342083,-0.106414794921875,-0.97705078125,-0.20257568359375,136979.970275375,-0.06053631473859116,0.05546858550027938,-0.02697941973915673,136979.970275375,0.09813897838667772,-0.4988840248052903,1.332831910267211,-0.06409294903278351,0.06596620380878448,0.006962534505873919,0.006778804585337639,-0.01165490597486496,-0.01207637321203947,XTrueNorthZVertical,0.6078373205288912,-0.1644285894531541,-0.1150585205401313,0.7682828724234638,-0.1127816140651703,-0.9718198180198669,-0.2069940567016602,6.86674165725708,-17.66070365905762,-7.240240097045898,1,10.3.35.51,10.83.46.32,1,0
2015-02-27 17:02:15.933,2,1425085335.134261,37.78768313531023,-122.3967154204565,12.53685,-1,-1,10,65,-9999,1425085335.878994,6.491222381591797,-36.93960571289062,4.81494140625,227.8885192871094,214.1152648925781,25,136980.0561825,-0.0750274658203125,-0.968536376953125,-0.2391357421875,136980.0220588333,0.0005512743456464023,0.1144578699616435,0.04236769714985258,136980.0220588333,0.1061453428238251,-0.5031592773045405,1.330609078213414,-0.003007614286616445,0.1249548345804214,0.07631024718284607,-0.001443017856217921,-0.008671761490404606,0.009076394140720367,XTrueNorthZVertical,0.6074136900314085,-0.1638524688927579,-0.1130299628171921,0.7690417476126685,-0.1147068813443184,-0.9712934494018555,-0.2084019482135773,6.873052597045898,-17.65195846557617,-7.25556755065918,1,10.3.35.51,10.83.46.32,1,0
2015-02-27 17:02:15.935,3,1425085335.134261,37.78768313531023,-122.3967154204565,12.53685,-1,-1,10,65,-9999,1425085335.878994,6.491222381591797,-36.93960571289062,4.81494140625,227.8885192871094,214.1152648925781,25,136980.1052590417,-0.1156768798828125,-0.980682373046875,-0.20709228515625,136980.0738423333,0.0633001433178754,0.09473343366408064,0.02929796778417972,136980.0738423333,0.1005329367869606,-0.4880057792063113,1.330260010262847,0.05973296612501144,0.1052348613739014,0.06321317702531815,0.02887007035315037,-0.003368506208062172,-0.02901002950966358,XTrueNorthZVertical,0.6076750366208188,-0.1597599294782169,-0.1105472351822005,0.7700565745839721,-0.1116947755217552,-0.9712103605270386,-0.2104156315326691,6.856137275695801,-17.66827011108398,-7.231826782226562,1,10.3.35.51,10.83.46.32,1,0
2015-02-27 17:02:15.937,4,1425085335.134261,37.78768313531023,-122.3967154204565,12.53685,-1,-1,10,65,-9999,1425085335.878994,6.491222381591797,-36.93960571289062,4.81494140625,227.8885192871094,214.1152648925781,25,136980.1543089583,-0.0914459228515625,-0.976837158203125,-0.219451904296875,136980.125626875,0.03290761632567311,0.03885232451094799,-0.02305791503401505,136980.125626875,0.1101351977758905,-0.4955512838562418,1.331091652581211,0.02933410741388798,0.04935542866587639,0.01084467768669128,0.01005092356353998,-0.007839914411306381,-0.004309040028601885,XTrueNorthZVertical,0.6083408086225472,-0.1596663365080159,-0.1092373455543001,0.7697371813497463,-0.1128951609134674,-0.9714081287384033,-0.2088562399148941,6.925128936767578,-17.66937255859375,-7.163068771362305,1,10.3.35.51,10.83.46.32,1,0
2015-02-27 17:02:16.010,5,1425085335.134261,37.78768313531023,-122.3967154204565,12.53685,-1,-1,10,65,-9999,1425085335.951408,6.116115570068359,-36.73568725585938,4.648544311523438,227.6158599853516,213.8426055908203,25,136980.2033778333,-0.1016845703125,-0.978302001953125,-0.2119903564453125,136980.1774102917,0.03797720977674796,0.01335095917678524,-0.02242328374624917,136980.1774102917,0.0990412686314476,-0.4812517366891503,1.332941381030293,0.03440041840076447,0.02385776862502098,0.01146088633686304,-0.001591492560692132,-0.01274299807846546,0.0001005835947580636,XTrueNorthZVertical,0.6089404522041657,-0.1573641868062503,-0.1093599455886469,0.7697197185641464,-0.1090652421116829,-0.9718456268310547,-0.208856076002121,6.949393272399902,-17.6693229675293,-7.13965892791748,1,10.3.35.51,10.83.46.32,1,0
2015-02-27 17:02:16.023,6,1425085335.134261,37.78768313531023,-122.3967154204565,12.53685,-1,-1,10,65,-9999,1425085336.00333,6.218421936035156,-36.87161254882812,4.748382568359375,227.5315704345703,213.7583160400391,25,136980.2524242083,-0.1119232177734375,-0.971710205078125,-0.196197509765625,136980.2291937917,0.04384149049710243,0.05607205780329134,-0.04552993462821267,136980.2291937917,0.1033748738332897,-0.4838161413538793,1.33447054133597,0.04026300460100174,0.06657974421977997,-0.01165121980011463,0.004416883923113346,0.003714186372235417,-0.003952240105718374,XTrueNorthZVertical,0.6097180764763959,-0.1568882028139282,-0.1086404412930792,0.7693030729282262,-0.1089090704917908,-0.9722048044204712,-0.2072599232196808,6.999475479125977,-17.66146850585938,-7.110104560852051,1,10.3.35.51,10.83.46.32,1,0
2015-02-27 17:02:16.108,7,1425085335.134261,37.78768313531023,-122.3967154204565,12.53685,-1,-1,10,65,-9999,1425085336.054697,6.354824066162109,-37.14346313476562,5.114471435546875,227.5624694824219,213.7892150878906,25,136980.3014864583,-0.073883056640625,-0.987884521484375,-0.22210693359375,136980.2809785834,0.03632924569420692,0.08129032911357867,-0.0265818097884079,136980.2809785834,0.1064994906458329,-0.4819574648084943,1.336852583613378,0.03275743126869202,0.09179796278476715,0.007300563156604767,0.0025152328889817,-0.006686670240014791,0.00330670434050262,XTrueNorthZVertical,0.6109594960585653,-0.1549961659520716,-0.107132496108696,0.7689130740590702,-0.1074499264359474,-0.9727597236633301,-0.205409362912178,7.042943954467773,-17.68131637573242,-7.017242431640625,1,10.3.35.51,10.83.46.32,1,0
2015-02-27 17:02:16.122,8,1425085335.134261,37.78768313531023,-122.3967154204565,12.53685,-1,-1,10,65,-9999,1425085336.108636,6.303665161132812,-37.39839172363281,5.164398193359375,227.5305938720703,213.7573394775391,25,136980.350526625,-0.0994415283203125,-0.9852752685546875,-0.20355224609375,136980.332761875,0.03665255345054254,0.0259599616738744,-0.05331968081669444,136980.332761875,0.09713614977177951,-0.4701157728788233,1.339875439925077,0.03307830169796944,0.03647285327315331,-0.01946132443845272,0.009561344049870968,-0.01976905763149261,0.003254463663324714,XTrueNorthZVertical,0.6120129813332634,-0.1530283508534973,-0.1074361602807352,0.7684269063770405,-0.1036775559186935,-0.9734560251235962,-0.2040448635816574,7.074486255645752,-17.68102264404297,-6.986186027526855,1,10.3.35.51,10.83.46.32,1,0
2015-02-27 17:02:16.205,9,1425085335.134261,37.78768313531023,-122.3967154204565,12.53685,-1,-1,10,65,-9999,1425085336.159083,6.525325775146484,-37.21145629882812,5.247596740722656,227.5135040283203,213.7402496337891,25,136980.399597875,-0.071380615234375,-0.995574951171875,-0.2019500732421875,136980.3845454583,0.03405250927829818,0.05115506348267804,-0.03560246903272429,136980.3845454583,0.0981457399202532,-0.4678770416483036,1.34128606069574,0.0304805189371109,0.06166914105415344,-0.001748418784700334,0.007813501171767712,-0.01992019265890121,-0.001264523481950164,XTrueNorthZVertical,0.6127416194971326,-0.1517312646654231,-0.1065119058763885,0.7682320934659452,-0.10260109603405,-0.9737779498100281,-0.2030506581068039,7.137031555175781,-17.67561531066895,-6.936069488525391,1,10.3.35.51,10.83.46.32,1,0
2015-02-27 17:02:16.219,10,1425085335.134261,37.78768313531023,-122.3967154204565,12.53685,-1,-1,10,65,-9999,1425085336.209428,6.712882995605469,-36.88859558105469,5.197677612304688,227.527587890625,213.7543334960938,25,136980.4487464167,-0.100830078125,-0.9757232666015625,-0.2051544189453125,136980.4363299167,-0.009042763481364053,0.06857187069568725,-0.04085795112788666,136980.3845454583,0.0981457399202532,-0.4678770416483036,1.34128606069574,0.0304805189371109,0.06166914105415344,-0.001748418784700334,0.007813501171767712,-0.01992019265890121,-0.001264523481950164,XTrueNorthZVertical,0.6127416194971326,-0.1517312646654231,-0.1065119058763885,0.7682320934659452,-0.10260109603405,-0.9737779498100281,-0.2030506581068039,7.137031555175781,-17.67561531066895,-6.936069488525391,1,10.3.35.51,10.83.46.32,1,0
2015-02-27 17:02:16.303,11,1425085335.134261,37.78768313531023,-122.3967154204565,12.53685,-1,-1,10,65,-9999,1425085336.262104,6.832229614257812,-37.07551574707031,5.414009094238281,227.5303344726562,213.757080078125,25,136980.4977154583,-0.0901947021484375,-0.9699554443359375,-0.212127685546875,136980.4881135417,-0.01763252326130563,0.06533133628127884,-0.06155550648776449,136980.4881135417,0.07992544847488336,-0.4427249267759193,1.342901927193463,-0.02120134048163891,0.0758502334356308,-0.02772220782935619,0.01100290194153786,-0.005897237919270992,0.003690029727295041,XTrueNorthZVertical,0.6133254070873311,-0.1475112678759595,-0.1059675481807596,0.76866329043917,-0.09678781032562256,-0.9741442799568176,-0.2041447460651398,7.250761032104492,-17.65289306640625,-6.875720977783203,1,10.3.35.51,10.83.46.32,1,0
2015-02-27 17:02:16.316,12,1425085335.134261,37.78768313531023,-122.3967154204565,12.53685,-1,-1,10,65,-9999,1425085336.262104,6.832229614257812,-37.07551574707031,5.414009094238281,227.5303344726562,213.757080078125,25,136980.5467665833,-0.0651397705078125,-1.002609252929688,-0.19329833984375,136980.5398968333,0.03154327889922552,0.06072300233100572,-0.0260539712603542,136980.4881135417,0.07992544847488336,-0.4427249267759193,1.342901927193463,-0.02120134048163891,0.0758502334356308,-0.02772220782935619,0.01100290194153786,-0.005897237919270992,0.003690029727295041,XTrueNorthZVertical,0.6133254070873311,-0.1475112678759595,-0.1059675481807596,0.76866329043917,-0.09678781032562256,-0.9741442799568176,-0.2041447460651398,7.250761032104492,-17.65289306640625,-6.875720977783203,1,10.3.35.51,10.83.46.32,1,0
2015-02-27 17:02:16.400,13,1425085335.134261,37.78768313531023,-122.3967154204565,12.53685,-1,-1,10,65,-9999,1425085336.365404,7.019775390625,-37.46632385253906,5.863296508789062,227.495849609375,213.7225952148438,25,136980.5958360833,-0.0561370849609375,-0.9667510986328125,-0.234375,136980.5916814167,-0.02399401615717791,-0.099350023413733,-0.0659489233380682,136980.5398968333,0.07543520055152413,-0.434246992836278,1.342853214354833,0.0279721487313509,0.07124143093824387,0.007778915576636791,-0.0003853889647871256,-0.01123356260359287,0.008254178799688816,XTrueNorthZVertical,0.6134251937033668,-0.1456332010756757,-0.1050889455643186,0.7690622994660744,-0.09507359564304352,-0.9741332530975342,-0.2050010114908218,7.304641246795654,-17.6387767791748,-6.854887008666992,1,10.3.35.51,10.83.46.32,1,0
2015-02-27 17:02:16.415,14,1425085335.134261,37.78768313531023,-122.3967154204565,12.53685,-1,-1,10,65,-9999,1425085336.365404,7.019775390625,-37.46632385253906,5.863296508789062,227.495849609375,213.7225952148438,25,136980.6448759167,-0.0847930908203125,-0.97222900390625,-0.1895751953125,136980.6434648334,0.08660679759770384,-0.1110743237966978,-0.07441378086288507,136980.5916814167,0.0536283549438645,-0.4122316162852028,1.343190705083841,-0.02756252512335777,-0.0888267457485199,-0.03213728219270706,0.04929884523153305,-0.005435307510197163,-0.03616165742278099,XTrueNorthZVertical,0.6131414798732061,-0.143826360857214,-0.1067564752462946,0.7693988322319446,-0.09040602296590805,-0.9742094874382019,-0.2067430019378662,7.414467811584473,-17.59955978393555,-6.837757110595703,1,10.3.35.51,10.83.46.32,1,0
2015-02-27 17:02:16.501,15,1425085335.134261,37.78768313531023,-122.3967154204565,12.53685,-1,-1,10,65,-9999,1425085336.468205,6.866313934326172,-37.4493408203125,6.512260437011719,225.5251007080078,211.7518463134766,25,136980.6939565417,-0.0414581298828125,-0.97637939453125,-0.1970367431640625,136980.6952485,0.1089933297209099,-0.1540944954136198,-0.04768043720845166,136980.6434648334,0.05761221369344895,-0.4234128543847464,1.346714773547171,0.08303637802600861,-0.1005504950881004,-0.04060680419206619,-0.008339106105268002,-0.00290666613727808,0.02024544961750507,XTrueNorthZVertical,0.6141693363197919,-0.1466357276061439,-0.1089718795166202,0.7677363633787092,-0.09130078554153442,-0.9749985933303833,-0.2025879770517349,7.416704654693604,-17.58812141418457,-6.864704132080078,1,10.3.35.51,10.83.46.32,1,0
2015-02-27 17:02:16.513,16,1425085335.134261,37.78768313531023,-122.3967154204565,12.53685,-1,-1,10,65,-9999,1425085336.468205,6.866313934326172,-37.4493408203125,6.512260437011719,225.5251007080078,211.7518463134766,25,136980.743009375,-0.1373291015625,-0.963592529296875,-0.21875,136980.6952485,0.1089933297209099,-0.1540944954136198,-0.04768043720845166,136980.6952485,0.05304482432998827,-0.4240767260346677,1.352357621599246,0.1054238528013229,-0.1435689032077789,-0.01388175692409277,0.0477118194103241,-0.0001424140064045787,0.0004729653301183134,XTrueNorthZVertical,0.6159392541442349,-0.1478647387016394,-0.1114378007993598,0.7657261098273774,-0.0891699492931366,-0.9762369990348816,-0.1975097060203552,7.387548446655273,-17.61171722412109,-6.835585594177246,1,10.3.35.51,10.83.46.32,1,0
2015-02-27 17:02:16.601,17,1425085335.134261,37.78768313531023,-122.3967154204565,12.53685,-1,-1,10,65,-9999,1425085336.574515,7.292575836181641,-36.51475524902344,6.795150756835938,227.1643676757812,213.39111328125,25,136980.792090125,-0.111968994140625,-0.9898529052734375,-0.169525146484375,136980.798816375,0.130470392331854,0.1507775282759261,-0.02728142220677172,136980.7470331667,0.07764146409138735,-0.4532404871864922,1.359755055403808,0.290039986371994,-0.2038319557905197,0.01911360956728458,-0.04560254886746407,0.01422079186886549,-0.03042221069335938,XTrueNorthZVertical,0.6189425651437046,-0.1508184566046129,-0.1117431738089119,0.7626777574921609,-0.09172654896974564,-0.9778133034706116,-0.1883277893066406,7.360356330871582,-17.66438102722168,-6.72819185256958,1,10.3.35.51,10.83.46.32,1,0
2015-02-27 17:02:16.611,18,1425085335.134261,37.78768313531023,-122.3967154204565,12.53685,-1,-1,10,65,-9999,1425085336.574515,7.292575836181641,-36.51475524902344,6.795150756835938,227.1643676757812,213.39111328125,25,136980.8411487083,-0.05584716796875,-1.000656127929688,-0.181732177734375,136980.798816375,0.130470392331854,0.1507775282759261,-0.02728142220677172,136980.798816375,0.1025032956732218,-0.4746819693010258,1.37093981484974,0.1269120126962662,0.16130331158638,0.006520847789943218,-0.02123033069074154,-0.009757830761373043,0.007053865119814873,XTrueNorthZVertical,0.623807002565506,-0.1502508490380004,-0.1100976351097205,0.7590573240027871,-0.09073866158723831,-0.9800950884819031,-0.176579013466835,7.329736709594727,-17.72188186645508,-6.609349727630615,1,10.3.35.51,10.83.46.32,1,0
2015-02-27 17:02:16.671,19,1425085335.134261,37.78768313531023,-122.3967154204565,12.53685,-1,-1,10,65,-9999,1425085336.625443,7.497188568115234,-36.65072631835938,7.127960205078125,227.4799346923828,213.7066802978516,25,136980.89024,-0.0799560546875,-0.99951171875,-0.165557861328125,136980.850599875,0.09803388920301584,0.03446796240835054,-0.01083214141778829,136980.850599875,0.1124692487809631,-0.4781956206681871,1.37514040743687,0.09453720599412918,0.04488639906048775,0.02321342192590237,0.03361602872610092,-0.01973576471209526,-0.009129787795245647,XTrueNorthZVertical,0.6259182713528512,-0.1480713433672678,-0.1078677847944582,0.7580671080643415,-0.08946319669485092,-0.9809203743934631,-0.1726023852825165,7.37541389465332,-17.77503967285156,-6.412869930267334,1,10.3.35.51,10.83.46.32,1,0
2015-02-27 17:02:16.710,20,1425085335.134261,37.78768313531023,-122.3967154204565,12.53685,-1,-1,10,65,-9999,1425085336.676703,7.190288543701172,-36.75267028808594,7.360923767089844,226.4927062988281,212.7194519042969,25,136980.9392884167,-0.088409423828125,-0.9969635009765625,-0.165069580078125,136980.9023845417,0.06767518435665756,-0.02217268028767271,-0.01424072129698071,136980.9023845417,0.1222232577840276,-0.4876642759223257,1.378073934912434,0.06417881697416306,-0.01175383105874062,0.01980189979076385,0.005775648169219494,-0.01654516719281673,0.01283264439553022,XTrueNorthZVertical,0.6272162951872062,-0.1483150757676767,-0.1074631259208544,0.7570033278555708,-0.08974476158618927,-0.981486439704895,-0.1692047119140625,7.413763046264648,-17.81082916259766,-6.267711162567139,1,10.3.35.51,10.83.46.32,1,0
2015-02-27 17:02:16.773,21,1425085335.134261,37.78768313531023,-122.3967154204565,12.53685,-1,-1,10,65,-9999,1425085336.729733,7.343738555908203,-36.70170593261719,7.477409362792969,226.8892211914062,213.115966796875,25,136980.9883772917,-0.08685302734375,-0.9946441650390625,-0.154937744140625,136980.954168125,0.07475892654015934,0.02493091622866778,-0.008103466564893106,136980.954168125,0.1361129253674198,-0.5003850857987564,1.380772613557988,0.07126496732234955,0.03535011038184166,0.02593749575316906,0.00657336600124836,-0.01194250397384167,-0.005906017031520605,XTrueNorthZVertical,0.6285601471069016,-0.1484914823751862,-0.1065107207246862,0.7559880236929051,-0.09061877429485321,-0.9819997549057007,-0.1657248437404633,7.402591228485107,-17.82707405090332,-6.234646320343018,1,10.3.35.51,10.83.46.32,1,0
2015-02-27 17:02:16.809,22,1425085335.134261,37.78768313531023,-122.3967154204565,12.53685,-1,-1,10,65,-9999,1425085336.780178,7.070930480957031,-36.73568725585938,7.477409362792969,226.4868316650391,212.7135772705078,25,136981.0374280417,-0.105712890625,-0.99737548828125,-0.1545257568359375,136981.0059514584,0.06510603285305813,-0.004988899670045437,-0.02690165543532642,136981.0059514584,0.1517745400285667,-0.5151268156893806,1.383999039700821,0.06161615625023842,0.005431066732853651,0.007135980296880007,-0.002473064698278904,-0.007828680798411369,0.004554246086627245,XTrueNorthZVertical,0.6301237938504762,-0.1487868392445161,-0.1056172988933018,0.7547525896153118,-0.09149055927991867,-0.9826040863990784,-0.1616129577159882,7.39268684387207,-17.85481262207031,-6.166647911071777,1,10.3.35.51,10.83.46.32,1,0
2015-02-27 17:02:16.870,23,1425085335.134261,37.78768313531023,-122.3967154204565,12.53685,-1,-1,10,65,-9999,1425085336.83279,7.070930480957031,-37.04154968261719,7.543968200683594,226.8263702392578,213.0531158447266,25,136981.0865017917,-0.093048095703125,-0.999755859375,-0.1585235595703125,136981.05773625,0.05621933061157272,0.04547054613590391,0.006090116780793202,136981.05773625,0.1733422754035985,-0.5349431220918396,1.385670471646346,0.05273399129509926,0.0558890625834465,0.04013638943433762,-0.01144807878881693,-0.01353161036968231,0.006194563116878271,XTrueNorthZVertical,0.6313007088794038,-0.1492709316475546,-0.1039400848319424,0.7539058742071112,-0.09383756667375565,-0.982913076877594,-0.1583552062511444,7.356216430664062,-17.9092960357666,-6.051190376281738,1,10.3.35.51,10.83.46.32,1,0
2015-02-27 17:02:16.906,24,1425085335.134261,37.78768313531023,-122.3967154204565,12.53685,-1,-1,10,65,-9999,1425085336.884028,7.019783020019531,-36.78665161132812,7.760292053222656,226.8026123046875,213.0293579101562,25,136981.1356603334,-0.085601806640625,-0.99774169921875,-0.1631927490234375,136981.1095195833,0.04990817146030294,0.072327726781026,-0.003139067976876398,136981.1095195833,0.1886078655967828,-0.5458471890917374,1.387453898181666,0.04642371460795403,0.0827464759349823,0.03090504743158817,0.009214525111019611,-0.02142938412725925,-0.0001359569287160411,XTrueNorthZVertical,0.6325200500861018,-0.1483452837181859,-0.1018649380331682,0.7533495881080519,-0.09464848786592484,-0.9832398295402527,-0.1558241248130798,7.336449146270752,-17.93339729309082,-6.003621101379395,1,10.3.35.51,10.83.46.32,1,0
2015-02-27 17:02:16.973,25,1425085335.134261,37.78768313531023,-122.3967154204565,12.53685,-1,-1,10,65,-9999,1425085336.936653,6.849285125732422,-36.61671447753906,7.993247985839844,226.7599182128906,212.9866638183594,25,136981.1846407917,-0.080841064453125,-1.002120971679688,-0.162750244140625,136981.1613031667,0.03158455789612175,0.05666780693914206,0.0009587379924285257,136981.1613031667,0.1952997281994715,-0.548298953960126,1.38837314205876,0.02809653244912624,0.06708786636590958,0.03499333560466766,0.01002540066838264,-0.01030639559030533,-0.01211096160113811,XTrueNorthZVertical,0.6332213495261177,-0.147039542717456,-0.1002424293573047,0.7532340640224232,-0.09455908834934235,-0.9834069609642029,-0.1548201888799667,7.344438552856445,-17.95494651794434,-5.928981781005859,1,10.3.35.51,10.83.46.32,1,0
2015-02-27 17:02:17.010,26,1425085335.134261,37.78768313531023,-122.3967154204565,12.53685,-1,-1,10,65,-9999,1425085336.988004,6.917488098144531,-36.20892333984375,7.92669677734375,226.7294616699219,212.9562072753906,25,136981.2336885417,-0.09381103515625,-0.9964141845703125,-0.163909912109375,136981.2130876667,0.007266701350390209,0.01476935877336144,-0.01873427300427141,136981.1613031667,0.1952997281994715,-0.548298953960126,1.38837314205876,0.02809653244912624,0.06708786636590958,0.03499333560466766,0.01002540066838264,-0.01030639559030533,-0.01211096160113811,XTrueNorthZVertical,0.6332213495261177,-0.147039542717456,-0.1002424293573047,0.7532340640224232,-0.09455908834934235,-0.9834069609642029,-0.1548201888799667,7.344438552856445,-17.95494651794434,-5.928981781005859,1,10.3.35.51,10.83.46.32,1,0
2015-02-27 17:02:17.073,27,1425085335.134261,37.78768313531023,-122.3967154204565,12.53685,-1,-1,10,65,-9999,1425085337.041632,7.105045318603516,-36.19192504882812,7.876777648925781,226.7189025878906,212.9456481933594,25,136981.2827803333,-0.09039306640625,-0.993133544921875,-0.1518707275390625,136981.2648712917,0.002277535364235765,0.02697276183643153,-0.02147972577203409,136981.2648712917,0.197150481993883,-0.5461738320227079,1.388640110431993,-0.001217068755067885,0.03739501163363457,0.01253876090049744,0.003379994304850698,-0.01468304824084044,-0.009113471023738384,XTrueNorthZVertical,0.6335585995937912,-0.1456203292984649,-0.09890795208879856,0.7534025763526342,-0.09409349411725998,-0.9834553599357605,-0.1547964364290237,7.374503135681152,-17.96701431274414,-5.85463809967041,1,10.3.35.51,10.83.46.32,1,0
2015-02-27 17:02:17.105,28,1425085335.134261,37.78768313531023,-122.3967154204565,12.53685,-1,-1,10,65,-9999,1425085337.091761,6.798141479492188,-36.22590637207031,8.009902954101562,226.6751098632812,212.90185546875,25,136981.3318345833,-0.079254150390625,-0.999053955078125,-0.17401123046875,136981.316654625,-0.02111247585771217,0.03569701125142211,-0.02410453734241619,136981.316654625,0.1959397534799033,-0.5428877035381294,1.388076475545053,-0.02460745349526405,0.04612009227275848,0.009908341802656651,0.008986011147499084,-0.01440383773297071,-0.009032421745359898,XTrueNorthZVertical,0.633429797316946,-0.1448343692199289,-0.09824826479863302,0.7537486187670009,-0.09387065470218658,-0.9833531379699707,-0.1555793881416321,7.155363082885742,-16.19379425048828,-3.757343292236328,1,10.3.35.51,10.83.46.32,1,0
2015-02-27 17:02:17.200,29,1425085335.134261,37.78768313531023,-122.3967154204565,12.53685,-1,-1,10,65,-9999,1425085337.145254,6.746990203857422,-36.24290466308594,8.093101501464844,226.6337738037109,212.8605194091797,25,136981.380918125,-0.0925445556640625,-0.9916534423828125,-0.1596527099609375,136981.368439375,-0.01092215626263297,-0.02273087885215332,-0.01286200280064669,136981.368439375,0.1885115327580882,-0.534586011847346,1.386632039116223,-0.01442590076476336,-0.012306516058743,0.02114103920757771,0.007728144526481628,-0.0153692290186882,-0.005861525889486074,XTrueNorthZVertical,0.6327797381322033,-0.1442294044831146,-0.09823126942100006,0.7544125556120806,-0.09329943358898163,-0.9830896258354187,-0.1575753688812256,7.172169208526611,-16.1826229095459,-3.773402214050293,1,10.3.35.51,10.83.46.32,1,0
2015-02-27 17:02:17.203,30,1425085335.134261,37.78768313531023,-122.3967154204565,12.53685,-1,-1,10,65,-9999,1425085337.196506,6.661739349365234,-35.92005920410156,7.776947021484375,226.5825958251953,212.8093414306641,25,136981.429969125,-0.0970916748046875,-0.9963531494140625,-0.1584930419921875,136981.42022275,-0.02828889604714869,0.00321709859681572,-0.03550393207239137,136981.368439375,0.1885115327580882,-0.534586011847346,1.386632039116223,-0.01442590076476336,-0.012306516058743,0.02114103920757771,0.007728144526481628,-0.0153692290186882,-0.005861525889486074,XTrueNorthZVertical,0.6327797381322033,-0.1442294044831146,-0.09823126942100006,0.7544125556120806,-0.09329943358898163,-0.9830896258354187,-0.1575753688812256,7.172169208526611,-16.1826229095459,-3.773402214050293,1,10.3.35.51,10.83.46.32,1,0
2015-02-27 17:02:17.272,31,1425085335.134261,37.78768313531023,-122.3967154204565,12.53685,-1,-1,10,65,-9999,1425085337.248597,6.508285522460938,-36.61676025390625,7.993255615234375,226.5216369628906,212.7483825683594,25,136981.4790523333,-0.0866546630859375,-0.9924774169921875,-0.1676177978515625,136981.4720063334,-0.01977796583547346,0.01867541714418066,-0.02123072021011169,136981.4720063334,0.1814504988081782,-0.5263658121389511,1.383506339912145,-0.02328717708587646,0.02909964695572853,0.0127701461315155,0.005409555975347757,-0.007325207814574242,-0.0061364253051579,XTrueNorthZVertical,0.6315428317459275,-0.1437258014974634,-0.09789566824320969,0.7555878428474674,-0.09354431927204132,-0.9825124144554138,-0.1609930843114853,7.167961120605469,-16.1759147644043,-3.809983730316162,1,10.3.35.51,10.83.46.32,1,0
2015-02-27 17:02:17.306,32,1425085335.134261,37.78768313531023,-122.3967154204565,12.53685,-1,-1,10,65,-9999,1425085337.248597,6.508285522460938,-36.61676025390625,7.993255615234375,226.5216369628906,212.7483825683594,25,136981.5281098333,-0.0877685546875,-0.985076904296875,-0.1699371337890625,136981.4720063334,-0.01977796583547346,0.01867541714418066,-0.02123072021011169,136981.4720063334,0.1814504988081782,-0.5263658121389511,1.383506339912145,-0.02328717708587646,0.02909964695572853,0.0127701461315155,0.005409555975347757,-0.007325207814574242,-0.0061364253051579,XTrueNorthZVertical,0.6315428317459275,-0.1437258014974634,-0.09789566824320969,0.7555878428474674,-0.09354431927204132,-0.9825124144554138,-0.1609930843114853,7.167961120605469,-16.1759147644043,-3.809983730316162,1,10.3.35.51,10.83.46.32,1,0
2015-02-27 17:02:17.358,33,1425085335.134261,37.78768313531023,-122.3967154204565,12.53685,-1,-1,10,65,-9999,1425085337.352445,6.218425750732422,-36.46382141113281,7.843505859375,226.3602752685547,212.5870208740234,25,136981.57721125,-0.081878662109375,-0.9870758056640625,-0.17437744140625,136981.5755745,-0.02691976493073896,-0.0187675625178974,-0.02516554072070376,136981.523790875,0.1752052240435163,-0.5193364839419474,1.381895233149085,-0.03051410615444183,0.006016030441969633,0.02069795317947865,0.006464885082095861,-0.007397584151476622,-0.008579669520258904,XTrueNorthZVertical,0.6308534684234501,-0.1432255745953495,-0.09783376684464606,0.7562664177988795,-0.093195840716362,-0.982211172580719,-0.1630206704139709,7.172367095947266,-16.16748428344727,-3.837373733520508,1,10.3.35.51,10.83.46.32,1,0
2015-02-27 17:02:17.402,34,1425085335.134261,37.78768313531023,-122.3967154204565,12.53685,-1,-1,10,65,-9999,1425085337.352445,6.218425750732422,-36.46382141113281,7.843505859375,226.3602752685547,212.5870208740234,25,136981.62624225,-0.095916748046875,-0.986572265625,-0.1690216064453125,136981.6273578333,-0.0121128555860074,-0.0308838802133219,-0.03344877065917722,136981.5755745,0.1702995485156474,-0.5144652872407529,1.380550836449548,-0.03043470717966557,-0.008341176435351372,0.008822224102914333,0.009584742598235607,-0.006750653497874737,-0.00298042269423604,XTrueNorthZVertical,0.6302511533144073,-0.1430818839358931,-0.09798596422909121,0.7567759334933536,-0.09305031597614288,-0.9819578528404236,-0.1646221131086349,7.17482852935791,-16.16149520874023,-3.857949733734131,1,10.3.35.51,10.83.46.32,1,0
2015-02-27 17:02:17.456,35,1425085335.134261,37.78768313531023,-122.3967154204565,12.53685,-1,-1,10,65,-9999,1425085337.40428,6.116119384765625,-36.36184692382812,7.677101135253906,226.2688293457031,212.4955749511719,25,136981.6753311667,-0.0933990478515625,-0.9844818115234375,-0.171356201171875,136981.6791424583,-0.02574584352223203,-0.01129499881524407,-0.03881184446237879,136981.6273578333,0.1656109241380802,-0.5105223099962063,1.379055851194254,-0.01563428714871407,-0.02045710198581219,0.0005350764258764684,-0.00279903644695878,-0.004898222163319588,-0.002753234934061766,XTrueNorthZVertical,0.6295634256266103,-0.1432330527023849,-0.09833459806769661,0.7572743868738298,-0.09311771392822266,-0.9816740155220032,-0.16626837849617,7.179386615753174,-16.15354919433594,-3.882670879364014,1,10.3.35.51,10.83.46.32,1,0
2015-02-27 17:02:17.505,36,1425085335.134261,37.78768313531023,-122.3967154204565,12.53685,-1,-1,10,65,-9999,1425085337.455568,6.661731719970703,-36.05599975585938,7.444129943847656,226.2405700683594,212.4673156738281,25,136981.7243852083,-0.0850982666015625,-0.988922119140625,-0.1683197021484375,136981.6791424583,-0.02574584352223203,-0.01129499881524407,-0.03881184446237879,136981.6791424583,0.1623324660651793,-0.50786941311093,1.378143722378355,-0.02926702052354813,-0.0008682403713464737,-0.004828694742172956,-0.000287340662907809,-0.00298199849203229,-0.004059056285768747,XTrueNorthZVertical,0.6291256911473221,-0.1433607071417074,-0.09863006903658383,0.7575755317679544,-0.09311170876026154,-0.9814997911453247,-0.1672971397638321,7.174591064453125,-16.14617538452148,-3.922006607055664,1,10.3.35.51,10.83.46.32,1,0
2015-02-27 17:02:17.553,37,1425085335.134261,37.78768313531023,-122.3967154204565,12.53685,-1,-1,10,65,-9999,1425085337.507926,6.712882995605469,-36.48080444335938,7.194526672363281,226.2298736572266,212.4566192626953,25,136981.7734470417,-0.08367919921875,-0.990142822265625,-0.1720733642578125,136981.782709625,-0.01703943728654498,-0.03053793558772061,-0.05302007519406053,136981.730926,0.157731530368395,-0.503098852702006,1.377588020431484,-0.01089583802968264,0.007460375782102346,-0.005073132459074259,0.007477239705622196,-0.007528854068368673,-0.0001024540615617298,XTrueNorthZVertical,0.6288282372831593,-0.143060909934016,-0.09880575297225931,0.7578562209873434,-0.09257550537586212,-0.9813932776451111,-0.1682172417640686,7.177387237548828,-16.14132881164551,-3.936808347702026,1,10.3.35.51,10.83.46.32,1,0
2015-02-27 17:02:17.604,38,1425085335.134261,37.78768313531023,-122.3967154204565,12.53685,-1,-1,10,65,-9999,1425085337.559862,6.712882995605469,-36.95661926269531,7.261085510253906,226.2196044921875,212.4463500976562,25,136981.8224847083,-0.0863800048828125,-0.9846038818359375,-0.1734619140625,136981.782709625,-0.01703943728654498,-0.03053793558772061,-0.05302007519406053,136981.782709625,0.1478743597933037,-0.4935035150145105,1.377585535357823,-0.0205608643591404,-0.02010969445109367,-0.01904584839940071,0.007279124110937119,-0.008750034496188164,-0.002973432652652264,XTrueNorthZVertical,0.6285993222073254,-0.1425234236773089,-0.09952474778761367,0.7580532928937301,-0.09095831960439682,-0.9813928008079529,-0.1690999269485474,7.188438892364502,-16.13474082946777,-3.943646430969238,1,10.3.35.51,10.83.46.32,1,0
2015-02-27 17:02:17.652,39,1425085335.134261,37.78768313531023,-122.3967154204565,12.53685,-1,-1,10,65,-9999,1425085337.612758,6.951580047607422,-36.78669738769531,7.327644348144531,226.2139282226562,212.440673828125,25,136981.8716929167,-0.091339111328125,-0.991912841796875,-0.170928955078125,136981.8344942917,-0.001113467651762129,-0.02243500165504552,-0.03735136692057933,136981.8344942917,0.1415864654184667,-0.488063705489336,1.377224961655976,-0.004576238803565502,-0.01211092062294483,-0.003132680198177695,0.004372349008917809,-0.006637325510382652,-0.002626367611810565,XTrueNorthZVertical,0.6282902114867951,-0.1424746645544954,-0.1001572415997547,0.75823539321936,-0.09020303934812546,-0.9813234806060791,-0.1699047535657883,7.219229221343994,-16.11373519897461,-3.973173141479492,1,10.3.35.51,10.83.46.32,1,0
2015-02-27 17:02:17.700,40,1425085335.134261,37.78768313531023,-122.3967154204565,12.53685,-1,-1,10,65,-9999,1425085337.662895,6.968631744384766,-36.76971435546875,7.244438171386719,226.2189178466797,212.4456634521484,25,136981.920630875,-0.098175048828125,-0.9898681640625,-0.1803131103515625,136981.8862777917,-0.004811000509228144,-0.02107732213132312,-0.04471820312795652,136981.8862777917,0.1370862619570804,-0.4839639836532988,1.377245508728465,-0.008274371735751629,-0.01075306255370378,-0.01050131767988205,-0.004070557188242674,-0.005290599539875984,0.0002876395592465997,XTrueNorthZVertical,0.6281831005711167,-0.1423318189647944,-0.1005779635999515,0.7582952743954989,-0.08949633687734604,-0.9813274145126343,-0.1702552884817123,7.226536750793457,-16.10870552062988,-3.980274200439453,1,10.3.35.51,10.83.46.32,1,0
2015-02-27 17:02:17.751,41,1425085335.134261,37.78768313531023,-122.3967154204565,12.53685,-1,-1,10,65,-9999,1425085337.715658,6.832229614257812,-36.9736328125,7.344284057617188,226.2124176025391,212.4391632080078,25,136981.969734125,-0.11981201171875,-0.9932403564453125,-0.189788818359375,136981.938061125,0.01847541374631571,-0.009704825328357753,-0.00957433043494387,136981.938061125,0.1377000574168986,-0.4843581002090996,1.376776836804217,0.0150104183703661,0.0006185001693665981,0.0246465876698494,-0.008733163587749004,-0.00409911572933197,-0.004955880809575319,XTrueNorthZVertical,0.6280341662292529,-0.1423361642872897,-0.100415797643669,0.7584393017465019,-0.08977758139371872,-0.9812371730804443,-0.1706269979476929,7.234953880310059,-16.10327339172363,-3.98696231842041,1,10.3.35.51,10.83.46.32,1,0
2015-02-27 17:02:17.807,42,1425085335.134261,37.78768313531023,-122.3967154204565,12.53685,-1,-1,10,65,-9999,1425085337.766952,6.371879577636719,-36.48085021972656,7.494049072265625,226.1779632568359,212.4047088623047,25,136982.0187854583,-0.16644287109375,-0.9595184326171875,-0.1832733154296875,136981.98984575,0.05763426809873182,0.02666383514998234,0.1239903887674731,136981.98984575,0.1678779743876286,-0.5127233481602833,1.374340565696665,0.05416148528456688,0.03698328137397766,0.1582303643226624,-0.04526862502098083,-0.005441502202302217,-0.002054851735010743,XTrueNorthZVertical,0.6278944732864934,-0.1438788627119697,-0.09758758431409188,0.7586330279747604,-0.09575310349464417,-0.9807645678520203,-0.1700948029756546,7.181221961975098,-16.1294994354248,-3.97808313369751,1,10.3.35.51,10.83.46.32,1,0
2015-02-27 17:02:17.848,43,1425085335.134261,37.78768313531023,-122.3967154204565,12.53685,-1,-1,10,65,-9999,1425085337.81909,5.587562561035156,-36.48085021972656,7.593894958496094,223.6233673095703,209.8501129150391,25,136982.0678727917,-0.478271484375,-0.9174652099609375,-0.151824951171875,136982.0416292917,0.1603942029722023,0.1867139577093464,1.076315489291088,136982.0416292917,0.3023401418277678,-0.642790541635229,1.361514225626502,0.1569277197122574,0.1970308125019073,1.110565066337585,-0.1615200042724609,0.007614519912749529,-0.02363142371177673,XTrueNorthZVertical,0.6273118963834927,-0.1527495438585456,-0.08551386774707291,0.7588377589413399,-0.124536506831646,-0.9781802892684937,-0.1662947237491608,7.063467502593994,-16.1872444152832,-3.954288959503174,1,10.3.35.51,10.83.46.32,1,0
2015-02-27 17:02:17.904,44,1425085335.134261,37.78768313531023,-122.3967154204565,12.53685,-1,-1,10,65,-9999,1425085337.870712,3.933689117431641,-36.56581115722656,7.876777648925781,220.649169921875,206.8759155273438,25,136982.11692975,-0.311737060546875,-0.9727935791015625,-0.14251708984375,136982.09341275,0.1379621307943558,1.326955166858369,1.951522635180952,136982.09341275,0.5946016080684742,-0.8878898061084638,1.307259204484652,0.1344956755638123,1.337271928787231,1.985771894454956,-0.2684872150421143,0.04562902823090553,0.07933436334133148,XTrueNorthZVertical,0.6249239781272539,-0.1651562713351462,-0.03969593284711355,0.7619827196079338,-0.202078565955162,-0.9654746055603027,-0.1643868535757065,6.448749542236328,-16.46795654296875,-3.843941688537598,1,10.3.35.51,10.83.46.32,1,0
2015-02-27 17:02:17.946,45,1425085335.134261,37.78768313531023,-122.3967154204565,12.53685,-1,-1,10,65,-9999,1425085337.922655,0.4554290771484375,-36.49784851074219,7.810218811035156,214.2440795898438,200.4708251953125,25,136982.1661309167,0.012237548828125,-1.078445434570312,-0.3138275146484375,136982.1451975833,-0.108725415715248,1.994000320883824,0.8807193567141094,136982.1451975833,0.7523587595439993,-0.9518874355283051,1.245449975505608,-0.112191841006279,2.004317045211792,0.9149683117866516,0.04638941213488579,-0.07853719592094421,0.05657590180635452,XTrueNorthZVertical,0.6189030412534756,-0.1556946920051613,0.01670011138775209,0.7697007854703536,-0.2603481411933899,-0.9475401043891907,-0.1854363828897476,4.525182723999023,-17.22622871398926,-3.214898586273193,1,10.3.35.51,10.83.46.32,1,0
2015-02-27 17:02:18.002,46,1425085335.134261,37.78768313531023,-122.3967154204565,12.53685,-1,-1,10,65,-9999,1425085337.974087,-2.272621154785156,-36.25996398925781,7.677101135253906,206.1827697753906,192.4095153808594,25,136982.21508075,0.13818359375,-0.8238525390625,-0.31195068359375,136982.1969809167,-0.3177289664841215,1.076891797350981,-0.6577922671340836,136982.1969809167,0.7234837874404295,-0.8388654362587459,1.235043928050772,-0.3211953639984131,1.087208390235901,-0.6235437393188477,0.3950279653072357,0.02202827669680119,-0.1373655647039413,XTrueNorthZVertical,0.6121098241268722,-0.1233885803564224,0.04299301195357616,0.7799028316614716,-0.2450950890779495,-0.9441626667976379,-0.2201936393976212,4.271623611450195,-17.32752227783203,-3.010992050170898,1,10.3.35.51,10.83.46.32,1,0
2015-02-27 17:02:18.044,47,1425085335.134261,37.78768313531023,-122.3967154204565,12.53685,-1,-1,10,65,-9999,1425085338.026394,-2.767082214355469,-36.65081787109375,7.394218444824219,201.7107086181641,187.9374542236328,25,136982.2641643333,-0.0647125244140625,-0.9398651123046875,-0.2718048095703125,136982.2487644167,-0.1762618493791124,0.1630035682082619,-1.426392275639748,136982.2487644167,0.582876673264201,-0.6894842519681947,1.263303950081808,-0.1797281950712204,0.173320010304451,-1.392144083976746,0.1909226030111313,0.1013346835970879,-0.01799382455646992,XTrueNorthZVertical,0.6106704482723915,-0.1015656271738158,0.02710715080535116,0.7848765723502185,-0.1925400346517563,-0.953095555305481,-0.2335320562124252,4.707564353942871,-17.21966552734375,-2.979557514190674,1,10.3.35.51,10.83.46.32,1,0
2015-02-27 17:02:18.113,48,1425085335.134261,37.78768313531023,-122.3967154204565,12.53685,-1,-1,10,65,-9999,1425085338.077654,-0.4652938842773438,-36.90571594238281,6.512283325195312,204.3263397216797,190.5530853271484,25,136982.31321575,-0.0615997314453125,-1.028427124023438,-0.3422698974609375,136982.3005490833,-0.7526303630290043,0.5595823429830135,-2.065322438037236,136982.2487644167,0.582876673264201,-0.6894842519681947,1.263303950081808,-0.1797281950712204,0.173320010304451,-1.392144083976746,0.1909226030111313,0.1013346835970879,-0.01799382455646992,XTrueNorthZVertical,0.6106704482723915,-0.1015656271738158,0.02710715080535116,0.7848765723502185,-0.1925400346517563,-0.953095555305481,-0.2335320562124252,4.707564353942871,-17.21966552734375,-2.979557514190674,1,10.3.35.51,10.83.46.32,1,0
2015-02-27 17:02:18.143,49,1425085335.134261,37.78768313531023,-122.3967154204565,12.53685,-1,-1,10,65,-9999,1425085338.130499,3.251670837402344,-37.27955627441406,5.081222534179688,210.8650970458984,197.0918426513672,25,136982.3623028334,0.1392669677734375,-0.9863433837890625,-0.28070068359375,136982.35233275,-0.6273632548349473,0.1650888233417939,-2.013999062773665,136982.35233275,-0.1027501823078487,0.007767552206643067,1.266592395542839,-0.6308295726776123,0.1754050701856613,-1.979751467704773,0.08583866059780121,-0.07406675815582275,-0.03963237628340721,XTrueNorthZVertical,0.591180441746831,-0.02726393112151545,-0.03909856728741859,0.8051295981749278,0.002326620742678642,-0.9540857076644897,-0.29952472448349,7.559922695159912,-16.06827354431152,-3.494853019714355,1,10.3.35.51,10.83.46.32,1,0
2015-02-27 17:02:18.204,50,1425085335.134261,37.78768313531023,-122.3967154204565,12.53685,-1,-1,10,65,-9999,1425085338.181536,7.343738555908203,-37.04165649414062,3.583587646484375,216.1853637695312,202.412109375,25,136982.4113541667,0.1397247314453125,-1.019607543945312,-0.17633056640625,136982.4041160833,-0.1594727492350348,-0.6081669233815471,-1.795935171660233,136982.35233275,-0.1027501823078487,0.007767552206643067,1.266592395542839,-0.6308295726776123,0.1754050701856613,-1.979751467704773,0.08583866059780121,-0.07406675815582275,-0.03963237628340721,XTrueNorthZVertical,0.591180441746831,-0.02726393112151545,-0.03909856728741859,0.8051295981749278,0.002326620742678642,-0.9540857076644897,-0.29952472448349,7.559922695159912,-16.06827354431152,-3.494853019714355,1,10.3.35.51,10.83.46.32,1,0
2015-02-27 17:02:18.244,51,1425085335.134261,37.78768313531023,-122.3967154204565,12.53685,-1,-1,10,65,-9999,1425085338.234133,11.1800537109375,-36.44692993164062,3.267425537109375,223.0308074951172,209.2575531005859,25,136982.4605447917,0.1399383544921875,-0.9097747802734375,-0.201629638671875,136982.4559009583,0.2591351614446342,-0.1494696498645882,-1.522034912499982,136982.4041160833,-0.390512412180637,0.2689177288493231,1.236669798992829,-0.1629389971494675,-0.5978507995605469,-1.761687994003296,0.05146468803286552,-0.08583571761846542,0.1326705664396286,XTrueNorthZVertical,0.5847245504061839,-0.004295366049315624,-0.08043576222965589,0.8072229200182247,0.08713089674711227,-0.9446971416473389,-0.3161574900150299,9.045764923095703,-15.18361663818359,-3.897148609161377,1,10.3.35.51,10.83.46.32,1,0
2015-02-27 17:02:18.302,52,1425085335.134261,37.78768313531023,-122.3967154204565,12.53685,-1,-1,10,65,-9999,1425085338.285761,14.45370483398438,-35.32542419433594,3.633522033691406,229.576416015625,215.8031616210938,25,136982.5094960417,0.4440155029296875,-0.88018798828125,-0.26031494140625,136982.5076843333,0.4677307159345076,-0.6985460886633481,-1.316503591160354,136982.4559009583,-0.6151314345622759,0.4591064788620959,1.213816097524965,0.2556689381599426,-0.1391535997390747,-1.487787961959839,-0.06638578325510025,0.009313520044088364,0.1248148083686829,XTrueNorthZVertical,0.5858920544301871,0.01000369377232698,-0.1184671349902832,0.8016208387131067,0.1548562496900558,-0.9369563460350037,-0.3132608532905579,10.81009006500244,-13.8471794128418,-4.353551864624023,1,10.3.35.51,10.83.46.32,1,0
2015-02-27 17:02:18.339,53,1425085335.134261,37.78768313531023,-122.3967154204565,12.53685,-1,-1,10,65,-9999,1425085338.285761,14.45370483398438,-35.32542419433594,3.633522033691406,229.576416015625,215.8031616210938,25,136982.5585931667,0.3318328857421875,-0.9012603759765625,-0.1986083984375,136982.5594679583,0.9014877521589834,-1.702300025629701,-0.9849171322601137,136982.5076843333,-0.8065583482609989,0.6222088552226831,1.193192844202354,0.4642645120620728,-0.6882301568984985,-1.282256960868835,0.2014649361371994,0.0629889965057373,0.04778226837515831,XTrueNorthZVertical,0.5913299962681186,0.02301747031308559,-0.1508745904130104,0.7918559805968926,0.2148863822221756,-0.9295508861541748,-0.2995980679988861,11.39380550384521,-13.38872528076172,-4.298727512359619,1,10.3.35.51,10.83.46.32,1,0
2015-02-27 17:02:18.402,54,1425085335.134261,37.78768313531023,-122.3967154204565,12.53685,-1,-1,10,65,-9999,1425085338.389161,19.63699340820312,-32.810546875,3.500396728515625,243.8656463623047,230.0923919677734,25,136982.60764075,0.255279541015625,-0.9345855712890625,-0.1898345947265625,136982.5594679583,0.9014877521589834,-1.702300025629701,-0.9849171322601137,136982.5594679583,-0.9800724663318499,0.7168119500184711,1.187250257127497,0.8980216383934021,-1.691984295845032,-0.9506709575653076,0.08598188310861588,0.02608311362564564,0.08351098001003265,XTrueNorthZVertical,0.5990326805386879,0.01000792530350292,-0.192221374829971,0.7772455446007108,0.245850995182991,-0.927343487739563,-0.2821193635463715,12.08083343505859,-12.76487922668457,-4.320555686950684,1,10.3.35.51,10.83.46.32,1,0
2015-02-27 17:02:18.437,55,1425085335.134261,37.78768313531023,-122.3967154204565,12.53685,-1,-1,10,65,-9999,1425085338.389161,19.63699340820312,-32.810546875,3.500396728515625,243.8656463623047,230.0923919677734,25,136982.6568330417,0.27947998046875,-0.98883056640625,-0.2289886474609375,136982.6630362083,1.096557644104562,-1.215445682539553,-0.4495597015007879,136982.6112525417,-1.153542801740524,0.7989645815516366,1.194231477573514,1.02768874168396,-1.38622772693634,-0.7347755432128906,-0.008247103542089462,-0.004652249626815319,0.06663709878921509,XTrueNorthZVertical,0.6095889578163235,-0.01286288889816226,-0.2321425575976898,0.7578559797316582,0.2635266482830048,-0.9299333095550537,-0.2564716935157776,12.4500207901001,-12.17244529724121,-4.93805980682373,1,10.3.35.51,10.83.46.32,1,0
2015-02-27 17:02:18.503,56,1425085335.134261,37.78768313531023,-122.3967154204565,12.53685,-1,-1,10,65,-9999,1425085338.493109,21.85254287719727,-31.62818908691406,4.40673828125,253.755126953125,239.9818725585938,25,136982.7057840833,0.2490234375,-1.015182495117188,-0.2125396728515625,136982.6630362083,1.096557644104562,-1.215445682539553,-0.4495597015007879,136982.6630362083,-1.315748821455286,0.8877426716418444,1.20810040258925,1.093091487884521,-1.205129981040955,-0.4153141677379608,0.004282773472368717,-0.05388684570789337,-0.005053955595940351,XTrueNorthZVertical,0.6219967727952714,-0.03395097512441657,-0.2614651414859731,0.7372946020238552,0.2751972079277039,-0.9349437355995178,-0.2239346951246262,12.50557708740234,-12.05680179595947,-5.079361915588379,1,10.3.35.51,10.83.46.32,1,0
2015-02-27 17:02:18.535,57,1425085335.134261,37.78768313531023,-122.3967154204565,12.53685,-1,-1,10,65,-9999,1425085338.493109,21.85254287719727,-31.62818908691406,4.40673828125,253.755126953125,239.9818725585938,25,136982.7549982917,0.206573486328125,-0.989410400390625,-0.1969146728515625,136982.7148195833,0.948932765927072,-1.134548169686761,-0.03666879873319202,136982.7148195833,-1.451243418535621,0.956149591213907,1.231841156328234,0.9454666972160339,-1.124232649803162,-0.002423631958663464,-0.02262304164469242,-0.07207990437746048,-0.02079581655561924,XTrueNorthZVertical,0.632924016687948,-0.05945806305429329,-0.2820970001262124,0.7185354652504246,0.2716464698314667,-0.9431025981903076,-0.1917438507080078,12.48827171325684,-12.03053760528564,-5.18315315246582,1,10.3.35.51,10.83.46.32,1,0
2015-02-27 17:02:18.602,58,1425085335.134261,37.78768313531023,-122.3967154204565,12.53685,-1,-1,10,65,-9999,1425085338.59686,22.26173782348633,-31.798095703125,4.240333557128906,259.6557006835938,245.8824615478516,25,136982.8039309584,0.1751861572265625,-0.920013427734375,-0.1600189208984375,136982.7666044583,0.6402497587176227,-0.8246307873120596,0.387854259043652,136982.7666044583,-1.533550460006262,0.984795712845298,1.263266632301815,0.6367835402488708,-0.8143154382705688,0.4220993518829346,-0.05986453592777252,-0.02772019244730473,-0.02194026857614517,XTrueNorthZVertical,0.6394207546345473,-0.08624427956288175,-0.2924126256853279,0.7058313421707096,0.2522015869617462,-0.9530842304229736,-0.1674060523509979,12.17631912231445,-12.28713512420654,-5.321594715118408,1,10.3.35.51,10.83.46.32,1,0
2015-02-27 17:02:18.633,59,1425085335.134261,37.78768313531023,-122.3967154204565,12.53685,-1,-1,10,65,-9999,1425085338.59686,22.26173782348633,-31.798095703125,4.240333557128906,259.6557006835938,245.8824615478516,25,136982.85313225,0.141143798828125,-0.9442138671875,-0.1137237548828125,136982.8183877917,0.3537543454979504,-0.5407535277600443,0.6821117215764692,136982.8183877917,-1.541838511347903,0.9618155402486921,1.300866595248602,0.3502879440784454,-0.5304383635520935,0.7163569927215576,-0.02895241975784302,0.03967159613966942,-0.003725135698914528,XTrueNorthZVertical,0.6415801953514352,-0.1100217768629716,-0.2907135927009266,0.7012529308552482,0.2187259793281555,-0.9637896418571472,-0.1525401175022125,11.75956439971924,-12.65043258666992,-5.406942844390869,1,10.3.35.51,10.83.46.32,1,0
2015-02-27 17:02:18.673,60,1425085335.134261,37.78768313531023,-122.3967154204565,12.53685,-1,-1,10,65,-9999,1425085338.64899,21.13645553588867,-32.74964904785156,4.972518920898438,257.7851867675781,244.0119476318359,25,136982.9020765834,0.184906005859375,-0.82861328125,-0.0996246337890625,136982.8701714583,0.2531915185237953,-0.3380217213583073,0.9487266372586999,136982.8701714583,-1.479660099018519,0.8816893816651536,1.344457526764903,0.2499133795499802,-0.3278666734695435,0.9832319617271423,-0.03354007378220558,0.04363211244344711,0.031424380838871,XTrueNorthZVertical,0.6410461737383053,-0.1330942067801804,-0.2807987827269362,0.7017818630753653,0.1732037663459778,-0.9744945168495178,-0.1426914632320404,11.03662967681885,-13.25771713256836,-5.475544929504395,1,10.3.35.51,10.83.46.32,1,0
2015-02-27 17:02:18.731,61,1425085335.134261,37.78768313531023,-122.3967154204565,12.53685,-1,-1,10,65,-9999,1425085338.700036,19.80657196044922,-33.49732971191406,5.00579833984375,256.4427185058594,242.6694641113281,25,136982.951173,0.0138092041015625,-0.7309112548828125,-0.0338592529296875,136982.921956,0.3672264785043343,-0.2929189577689433,1.102730851511366,136982.921956,-1.353305458726846,0.7426899283657892,1.393574612005836,0.3639483749866486,-0.2827639877796173,1.137235760688782,0.004372492432594299,0.2361378222703934,0.07421965152025223,XTrueNorthZVertical,0.6405159980633253,-0.1574961182169786,-0.2659298939028104,0.7030046407853884,0.1192236989736557,-0.9843372702598572,-0.1298684626817703,10.3593921661377,-13.79360961914062,-5.474961280822754,1,10.3.35.51,10.83.46.32,1,0
2015-02-27 17:02:18.801,62,1425085338.72534,37.78768364779677,-122.3967157605134,12.52686,-1,-1,10,65,-9999,1425085338.752697,18.01634979248047,-34.80575561523438,5.754615783691406,253.18603515625,239.4127807617188,25,136983.000224625,0.074005126953125,-0.698974609375,-0.0189361572265625,136982.9737397083,0.5287368122893887,0.0397029381631193,1.443882319782734,136982.9737397083,-1.054473775840077,0.4400472979876556,1.45028720452343,0.5254587531089783,0.04985778406262398,1.478386878967285,-0.02553005889058113,0.2625687122344971,0.07725533097982407,XTrueNorthZVertical,0.6415417156366251,-0.184504369889453,-0.2423826871206,0.7040120752084692,0.05121060088276863,-0.9927475452423096,-0.1087647303938866,9.573572158813477,-14.38622093200684,-5.379518032073975,1,10.3.35.51,10.83.46.32,1,0
2015-02-27 17:02:18.830,63,1425085338.72534,37.78768364779677,-122.3967157605134,12.52686,-1,-1,10,65,-9999,1425085338.803959,15.39069747924805,-36.06318664550781,6.52008056640625,249.4132843017578,235.6400299072266,25,136983.0494210417,0.0424652099609375,-0.67681884765625,-0.0997161865234375,136983.0255230833,0.6729712200830992,0.7595577776565184,1.517191421425455,136983.0255230833,-0.2942508740660392,-0.2964176199247677,1.488624801656284,0.6696931123733521,0.7697125673294067,1.551695704460144,0.01756628975272179,0.3505076467990875,-0.01332780998200178,XTrueNorthZVertical,0.6468777898713809,-0.205668018012049,-0.205605087347496,0.7049654912549744,-0.02397498115897179,-0.9966258406639099,-0.07849958539009094,8.283463478088379,-15.32774925231934,-4.898997783660889,1,10.3.35.51,10.83.46.32,1,0
2015-02-27 17:02:18.872,64,1425085338.72534,37.78768364779677,-122.3967157605134,12.52686,-1,-1,10,65,-9999,1425085338.855335,12.16829299926758,-37.06571960449219,7.501869201660156,243.7568664550781,229.9836120605469,25,136983.098370125,0.2252044677734375,-0.4203338623046875,-0.1524810791015625,136983.07730775,0.388694486367572,0.8665065986085746,1.65444781453094,136983.0255230833,-0.2942508740660392,-0.2964176199247677,1.488624801656284,0.6696931123733521,0.7697125673294067,1.551695704460144,0.01756628975272179,0.3505076467990875,-0.01332780998200178,XTrueNorthZVertical,0.6468777898713809,-0.205668018012049,-0.205605087347496,0.7049654912549744,-0.02397498115897179,-0.9966258406639099,-0.07849958539009094,8.283463478088379,-15.32774925231934,-4.898997783660889,1,10.3.35.51,10.83.46.32,1,0
2015-02-27 17:02:18.928,65,1425085338.72534,37.78768364779677,-122.3967157605134,12.52686,-1,-1,10,65,-9999,1425085338.911953,8.707199096679688,-37.79638671875,8.450370788574219,237.2506561279297,223.4774017333984,25,136983.1475640833,0.3066558837890625,-0.2507171630859375,-0.101959228515625,136983.129091375,0.3465350484149636,-0.06552068703478346,1.687838261962244,136983.129091375,0.8456642482054144,-1.357538047216475,1.374895962500441,0.3432570695877075,-0.0553661435842514,1.722341775894165,0.4014219343662262,0.7665783762931824,-0.1112080365419388,XTrueNorthZVertical,0.6495272021137135,-0.2398250200393234,-0.1164697805827363,0.712062615332321,-0.190240278840065,-0.9808728098869324,-0.04119674861431122,6.283140182495117,-16.58062934875488,-3.627769708633423,1,10.3.35.51,10.83.46.32,1,0
2015-02-27 17:02:19.001,66,1425085338.72534,37.78768364779677,-122.3967157605134,12.52686,-1,-1,10,65,-9999,1425085338.984966,3.933273315429688,-39.01983642578125,9.315689086914062,230.1931762695312,216.419921875,25,136983.1965167917,-0.02734375,-0.5265960693359375,0.029144287109375,136983.1808750417,-0.3977273961529028,-1.349900163862165,0.8421096461784676,136983.1808750417,0.8876392619751727,-1.435646180324399,1.314406981914088,-0.401005357503891,-1.3397456407547,0.8766128420829773,0.3618423342704773,0.6010094285011292,-0.09203701466321945,XTrueNorthZVertical,0.6391787478724712,-0.2727018744611284,-0.1068268657948654,0.7111063500935985,-0.2512771487236023,-0.9673119187355042,-0.03416843339800835,4.54883337020874,-17.20477294921875,-3.295416116714478,1,10.3.35.51,10.83.46.32,1,0
2015-02-27 17:02:19.026,67,1425085338.72534,37.78768364779677,-122.3967157605134,12.52686,-1,-1,10,65,-9999,1425085338.984966,3.933273315429688,-39.01983642578125,9.315689086914062,230.1931762695312,216.419921875,25,136983.2456101667,-0.105865478515625,-0.9253387451171875,-0.05926513671875,136983.2326597917,-0.5872901372803069,-2.336823455371436,0.2777775553912978,136983.2326597917,0.8137962536499654,-1.4716094266924,1.290269214612727,-0.5905680060386658,-2.326669216156006,0.3122804462909698,0.2410165667533875,0.0925014317035675,0.1870993226766586,XTrueNorthZVertical,0.6215920052575569,-0.3160938616533111,-0.1362228466050825,0.7036699440456601,-0.2755014300346375,-0.9609096050262451,-0.02741609886288643,3.445818424224854,-17.30012893676758,-4.04818058013916,1,10.3.35.51,10.83.46.32,1,0
2015-02-27 17:02:19.073,68,1425085338.72534,37.78768364779677,-122.3967157605134,12.52686,-1,-1,10,65,-9999,1425085339.0374,2.620437622070312,-39.64857482910156,8.699989318847656,231.3918304443359,217.6185760498047,25,136983.294650875,-0.1669464111328125,-1.228958129882812,0.0375823974609375,136983.2844433333,-0.6318509475878398,-3.6972279255212,0.1177098559687393,136983.2326597917,0.8137962536499654,-1.4716094266924,1.290269214612727,-0.5905680060386658,-2.326669216156006,0.3122804462909698,0.2410165667533875,0.0925014317035675,0.1870993226766586,XTrueNorthZVertical,0.6215920052575569,-0.3160938616533111,-0.1362228466050825,0.7036699440456601,-0.2755014300346375,-0.9609096050262451,-0.02741609886288643,3.445818424224854,-17.30012893676758,-4.04818058013916,1,10.3.35.51,10.83.46.32,1,0
2015-02-27 17:02:19.124,69,1425085338.72534,37.78768364779677,-122.3967157605134,12.52686,-1,-1,10,65,-9999,1425085339.08854,2.842079162597656,-40.10737609863281,7.45196533203125,237.8529968261719,224.0797424316406,25,136983.3438404583,-0.60101318359375,-1.03424072265625,0.1884307861328125,136983.3362267083,-0.5040322647533777,-2.714961171177933,0.07922824348153032,136983.3362267083,0.600986360172244,-1.591015998427186,1.265115443439304,-0.5073104500770569,-2.704806804656982,0.1137294247746468,-0.2403939664363861,-0.2232223600149155,0.1936224848031998,XTrueNorthZVertical,0.5657585214533378,-0.4277377329144109,-0.2362453104768484,0.6641881397520569,-0.3008810579776764,-0.9536422491073608,0.006084545515477657,1.851376533508301,-17.15471267700195,-5.462975025177002,1,10.3.35.51,10.83.46.32,1,0
2015-02-27 17:02:19.172,70,1425085338.72534,37.78768364779677,-122.3967157605134,12.52686,-1,-1,10,65,-9999,1425085339.140822,3.455867767333984,-40.48123168945312,5.954322814941406,246.1915893554688,232.4183349609375,25,136983.3927609583,-0.4746856689453125,-1.0272216796875,0.1040802001953125,136983.3362267083,-0.5040322647533777,-2.714961171177933,0.07922824348153032,136983.3362267083,0.600986360172244,-1.591015998427186,1.265115443439304,-0.5073104500770569,-2.704806804656982,0.1137294247746468,-0.2403939664363861,-0.2232223600149155,0.1936224848031998,XTrueNorthZVertical,0.5657585214533378,-0.4277377329144109,-0.2362453104768484,0.6641881397520569,-0.3008810579776764,-0.9536422491073608,0.006084545515477657,1.851376533508301,-17.15471267700195,-5.462975025177002,1,10.3.35.51,10.83.46.32,1,0
2015-02-27 17:02:19.222,71,1425085338.72534,37.78768364779677,-122.3967157605134,12.52686,-1,-1,10,65,-9999,1425085339.193129,4.2572021484375,-40.906005859375,4.9725341796875,251.39892578125,237.6256713867188,25,136983.4418347917,-0.603271484375,-1.075088500976562,0.1246337890625,136983.4397951667,-0.3048696268445649,-1.1608825718099,-0.06678036223039095,136983.388011625,0.5417995139096584,-1.607766157673293,1.265785793687533,-0.3205258548259735,-0.5642701387405396,-0.3345166146755219,-0.1879543364048004,-0.03214864060282707,0.09562034159898758,XTrueNorthZVertical,0.5508352902885284,-0.4495890328935386,-0.2606401078915112,0.6530826311412157,-0.3000980317592621,-0.9538437724113464,0.01109963096678257,0.6778483390808105,-16.92561340332031,-6.373382091522217,1,10.3.35.51,10.83.46.32,1,0
2015-02-27 17:02:19.271,72,1425085338.72534,37.78768364779677,-122.3967157605134,12.52686,-1,-1,10,65,-9999,1425085339.243972,4.768699645996094,-40.70211791992188,3.741134643554688,255.3315582275391,241.5583038330078,25,136983.490880625,-0.4549407958984375,-1.1387939453125,0.088470458984375,136983.4915785417,-0.552844012792895,-1.162592853861949,0.102510130363221,136983.4397951667,0.4905604037144244,-1.602760809191986,1.273729512973146,-0.3081477284431458,-1.150728464126587,-0.03227983042597771,-0.352055549621582,-0.08774612098932266,0.05431998148560524,XTrueNorthZVertical,0.5415771415867484,-0.459751751708894,-0.2785606002006334,0.6463176641502382,-0.292567253112793,-0.9561991691589355,0.009354947134852409,0.6985249519348145,-16.85681915283203,-6.550995349884033,1,10.3.35.51,10.83.46.32,1,0
2015-02-27 17:02:19.321,73,1425085338.72534,37.78768364779677,-122.3967157605134,12.52686,-1,-1,10,65,-9999,1425085339.295785,5.229042053222656,-40.41323852539062,2.892471313476562,258.3796081542969,244.6063537597656,25,136983.5400121667,-0.4308013916015625,-1.198699951171875,0.017578125,136983.5433634167,-0.4477093371754009,-0.5034415756235981,-0.107585316452585,136983.4915785417,0.4173750094636973,-1.594746658308751,1.265022514812845,-0.5561220645904541,-1.152438879013062,0.1370102763175964,-0.1539959311485291,-0.1851796507835388,0.08126135170459747,XTrueNorthZVertical,0.5235875446726979,-0.4790204974034709,-0.2970880723321231,0.638853760945615,-0.3009448647499084,-0.9536142945289612,0.007209107745438814,0.2359781265258789,-16.72095108032227,-6.921703338623047,1,10.3.35.51,10.83.46.32,1,0
2015-02-27 17:02:19.360,74,1425085338.72534,37.78768364779677,-122.3967157605134,12.52686,-1,-1,10,65,-9999,1425085339.347778,5.94512939453125,-40.41323852539062,2.459823608398438,259.5946044921875,245.8213500976562,25,136983.58900775,-0.5074462890625,-1.181396484375,0.0876007080078125,136983.5433634167,-0.4477093371754009,-0.5034415756235981,-0.107585316452585,136983.5433634167,0.3277415403975327,-1.543217115402564,1.26668626131164,-0.4509873688220978,-0.4932876527309418,-0.07308551669120789,-0.1314710527658463,-0.2445861399173737,0.02583551406860352,XTrueNorthZVertical,0.5102359731872024,-0.4853149055198275,-0.3129002901371511,0.6373555577881956,-0.2993303239345551,-0.9541138410568237,-0.008257388137280941,-0.2559542655944824,-16.49282455444336,-7.448294639587402,1,10.3.35.51,10.83.46.32,1,0
2015-02-27 17:02:19.419,75,1425085338.72534,37.78768364779677,-122.3967157605134,12.52686,-1,-1,10,65,-9999,1425085339.399214,6.610069274902344,-40.49819946289062,1.810836791992188,261.3372497558594,247.5640106201172,25,136983.6381676667,-0.3976287841796875,-1.257675170898438,0.0169525146484375,136983.646930375,0.05481451313655592,-0.5997569269751858,-0.7384551554948395,136983.5951468333,0.2592895818233666,-1.505844804080203,1.278418936337459,-0.222284659743309,-0.3668656349182129,-0.3812668323516846,-0.2198245078325272,-0.2238351404666901,0.1063084974884987,XTrueNorthZVertical,0.5026004776404343,-0.4878922687584971,-0.3287786525811984,0.6334496791645028,-0.287621796131134,-0.9575613737106323,-0.01870778761804104,-0.3266482353210449,-16.38565254211426,-7.678509712219238,1,10.3.35.51,10.83.46.32,1,0
2015-02-27 17:02:19.458,76,1425085338.72534,37.78768364779677,-122.3967157605134,12.52686,-1,-1,10,65,-9999,1425085339.451601,7.394363403320312,-40.49819946289062,2.376617431640625,261.7736511230469,248.0004119873047,25,136983.687257375,-1.36260986328125,-1.233123779296875,0.2443084716796875,136983.646930375,0.05481451313655592,-0.5997569269751858,-0.7384551554948395,136983.646930375,0.2443281930741536,-1.501563879314123,1.308536659545628,0.05153652280569077,-0.5896031856536865,-0.7039560079574585,-0.1389862447977066,-0.2918685674667358,0.03488763421773911,XTrueNorthZVertical,0.5076163082923028,-0.4830715511278916,-0.3413853069866061,0.6264372567828908,-0.2586425244808197,-0.9658066034317017,-0.01793511956930161,-0.2391467094421387,-16.28063583374023,-7.901869773864746,1,10.3.35.51,10.83.46.32,1,0
2015-02-27 17:02:19.518,77,1425085338.72534,37.78768364779677,-122.3967157605134,12.52686,-1,-1,10,65,-9999,1425085339.502825,8.536697387695312,-40.24331665039062,3.025596618652344,264.6630249023438,250.8897705078125,25,136983.7363902917,-1.006454467773438,-2.209548950195312,-0.49237060546875,136983.6987151667,0.3542821840260041,0.8976301633200036,-0.09791244905730823,136983.6987151667,0.3789438483474447,-1.652320559111653,1.332834850733605,0.3510042130947113,0.9077837467193604,-0.06341367959976196,-0.8992618918418884,-0.4754298329353333,-0.2758180797100067,XTrueNorthZVertical,0.5203029989087488,-0.4887562576400833,-0.3461001463622927,0.6087830509283652,-0.2349391579627991,-0.9718205332756042,0.01919578015804291,0.2750577926635742,-16.45192718505859,-7.537525653839111,1,10.3.35.51,10.83.46.32,1,0
2015-02-27 17:02:19.556,78,1425085338.72534,37.78768364779677,-122.3967157605134,12.52686,-1,-1,10,65,-9999,1425085339.502825,8.536697387695312,-40.24331665039062,3.025596618652344,264.6630249023438,250.8897705078125,25,136983.78534175,0.4264984130859375,-0.900115966796875,0.08154296875,136983.750498875,0.4557286478498475,0.3989077091480259,0.1236644178500474,136983.750498875,0.4463745946362806,-1.682999007167734,1.350624215945792,0.4524507224559784,0.4090611934661865,0.1581628322601318,-1.0421462059021,-1.635178327560425,-0.7186825275421143,XTrueNorthZVertical,0.5350434831434632,-0.4753474277715047,-0.3394542336470435,0.6103639256879861,-0.2170242965221405,-0.9758598804473877,0.02445341274142265,0.6422274112701416,-16.55204963684082,-7.291983127593994,1,10.3.35.51,10.83.46.32,1,0
2015-02-27 17:02:19.614,79,1425085338.72534,37.78768364779677,-122.3967157605134,12.52686,-1,-1,10,65,-9999,1425085339.611034,10.19052124023438,-39.68252563476562,4.406753540039062,262.6552429199219,248.8819885253906,25,136983.8343730833,-0.300994873046875,-0.9061431884765625,0.2564544677734375,136983.80228225,0.1359386609981136,-0.01969460889335398,-0.8364227319867125,136983.80228225,0.4080205203844158,-1.625286665743797,1.361111593781034,0.132660761475563,-0.009541189298033714,-0.8019246459007263,0.6460750699043274,-0.1552194505929947,0.25822514295578,XTrueNorthZVertical,0.5380070259539443,-0.4649911384133578,-0.3391407369968265,0.6158857411857475,-0.207842618227005,-0.978096604347229,0.01133663766086102,0.8841829299926758,-16.61542320251465,-7.120516300201416,1,10.3.35.51,10.83.46.32,1,0
2015-02-27 17:02:19.654,80,1425085338.72534,37.78768364779677,-122.3967157605134,12.52686,-1,-1,10,65,-9999,1425085339.611034,10.19052124023438,-39.68252563476562,4.406753540039062,262.6552429199219,248.8819885253906,25,136983.8835185833,-0.16497802734375,-0.93316650390625,0.185272216796875,136983.8540671667,-0.06552574704085462,0.02578925304800032,-0.4543446030313333,136983.8540671667,0.4585109225999693,-1.677995234316548,1.385916878469226,-0.06864293664693832,0.0358029417693615,-0.4196124970912933,0.009722907096147537,0.01989994756877422,0.0280763041228056,XTrueNorthZVertical,0.5457696339022713,-0.4604017050205724,-0.3459986141122148,0.6086466464396101,-0.1827728301286697,-0.9829584360122681,0.0196684468537569,1.527683258056641,-16.56684112548828,-7.124728679656982,1,10.3.35.51,10.83.46.32,1,0
2015-02-27 17:02:19.712,81,1425085338.72534,37.78768364779677,-122.3967157605134,12.52686,-1,-1,10,65,-9999,1425085339.684158,11.70795059204102,-39.18975830078125,4.656356811523438,265.4012756347656,251.6280364990234,25,136983.9324870417,-0.0813751220703125,-1.048873901367188,-0.1076202392578125,136983.9058505833,-0.2667488726850617,0.2020191444940318,-0.3764775011829425,136983.9058505833,0.389440144284052,-1.595636731157487,1.40682050966221,-0.269866019487381,0.2120327353477478,-0.3417457342147827,-0.01884571462869644,0.045774906873703,0.1084942445158958,XTrueNorthZVertical,0.5487531176032192,-0.4482156914456873,-0.3512273542769202,0.6120556019968065,-0.163191631436348,-0.9865860342979431,0.004054580349475145,1.768235445022583,-16.52346420288086,-7.169681549072266,1,10.3.35.51,10.83.46.32,1,0
2015-02-27 17:02:19.752,82,1425085338.72534,37.78768364779677,-122.3967157605134,12.52686,-1,-1,10,65,-9999,1425085339.736304,12.67978668212891,-38.69697570800781,4.672996520996094,265.8634643554688,252.0902099609375,25,136983.981644125,-0.1372222900390625,-1.022659301757812,-0.04852294921875,136983.9576342917,-0.09266389118098006,0.25792022735534,-0.3268260584517232,136983.9576342917,0.3508752258431252,-1.546554583631384,1.420526689772196,-0.09578102082014084,0.26793372631073,-0.2920946180820465,0.1531397849321365,-0.1368490904569626,-0.2162961810827255,XTrueNorthZVertical,0.5518823965417156,-0.4400130064687239,-0.3537428830442841,0.6137429035733708,-0.1496607810258865,-0.9887307286262512,-0.00362874916754663,2.138437509536743,-16.40169334411621,-7.346248626708984,1,10.3.35.51,10.83.46.32,1,0
2015-02-27 17:02:19.811,83,1425085338.72534,37.78768364779677,-122.3967157605134,12.52686,-1,-1,10,65,-9999,1425085339.787881,12.86733627319336,-38.57803344726562,4.5565185546875,265.7864074707031,252.0131530761719,25,136984.0306271667,-0.09442138671875,-0.98333740234375,-0.1139678955078125,136984.0094189167,-0.01439758148518638,0.326552285491663,-0.1855837121427168,136984.0094189167,0.2971830278176384,-1.476225993641189,1.434733957939783,-0.01751467771828175,0.3365656733512878,-0.1508526057004929,0.1906398832798004,0.01764377392828465,-0.09000503271818161,XTrueNorthZVertical,0.5560147242428858,-0.4294686044641199,-0.3549635002534923,0.616770023718699,-0.1350368559360504,-0.9907577633857727,-0.01280868798494339,2.533708333969116,-16.30664825439453,-7.431647777557373,1,10.3.35.51,10.83.46.32,1,0
2015-02-27 17:02:19.850,84,1425085338.72534,37.78768364779677,-122.3967157605134,12.52686,-1,-1,10,65,-9999,1425085339.840548,13.61751937866211,-38.20419311523438,4.722923278808594,265.54736328125,251.7741088867188,25,136984.0796713333,-0.0926971435546875,-1.05035400390625,0.075714111328125,136984.061202625,0.03987577731786544,0.1115449043613148,0.05215641205254783,136984.061202625,0.3140220122034154,-1.484756645552521,1.43599765651528,0.03675871342420578,0.1215581968426704,0.08688713610172272,-0.03586031496524811,-0.04773736372590065,-0.07287819683551788,XTrueNorthZVertical,0.5584164639828824,-0.4270792791306819,-0.3525075341037529,0.6176672121422582,-0.1338937133550644,-0.9909284114837646,-0.01154868397861719,2.799742698669434,-16.25883483886719,-7.440937995910645,1,10.3.35.51,10.83.46.32,1,0
2015-02-27 17:02:19.910,85,1425085338.72534,37.78768364779677,-122.3967157605134,12.52686,-1,-1,10,65,-9999,1425085339.891656,13.90736770629883,-37.94932556152344,5.138931274414062,264.0550231933594,250.2817840576172,25,136984.1287547083,-0.1769561767578125,-1.0537109375,0.04473876953125,136984.1129860833,-0.07075646173787925,-0.06762671482481812,0.1021367551783919,136984.1129860833,0.3016638617040798,-1.461202457631398,1.429612814126954,-0.07387349009513855,-0.05761352553963661,0.1368671208620071,0.1412593275308609,-0.05183522403240204,-0.06944821774959564,XTrueNorthZVertical,0.5583620329507881,-0.4248958892240715,-0.3479244919672629,0.6218069441830772,-0.1398707777261734,-0.9900501370429993,-0.01539064664393663,2.834344148635864,-16.27588653564453,-7.390387535095215,1,10.3.35.51,10.83.46.32,1,0
2015-02-27 17:02:19.948,86,1425085338.72534,37.78768364779677,-122.3967157605134,12.52686,-1,-1,10,65,-9999,1425085339.943885,13.80507278442383,-38.25518798828125,5.205497741699219,263.381103515625,249.6078491210938,25,136984.177797125,0.079620361328125,-1.060073852539062,-0.0652923583984375,136984.1647709583,-0.2872152656623206,-0.1880732351297228,0.4089219937950508,136984.1129860833,0.3016638617040798,-1.461202457631398,1.429612814126954,-0.07387349009513855,-0.05761352553963661,0.1368671208620071,0.1412593275308609,-0.05183522403240204,-0.06944821774959564,XTrueNorthZVertical,0.5583620329507881,-0.4248958892240715,-0.3479244919672629,0.6218069441830772,-0.1398707777261734,-0.9900501370429993,-0.01539064664393663,2.834344148635864,-16.27588653564453,-7.390387535095215,1,10.3.35.51,10.83.46.32,1,0
2015-02-27 17:02:20.008,87,1425085338.72534,37.78768364779677,-122.3967157605134,12.52686,-1,-1,10,65,-9999,1425085339.998329,13.15718460083008,-38.42509460449219,4.306915283203125,264.0889892578125,250.3157348632812,25,136984.2269702917,-0.17449951171875,-0.9623565673828125,-0.2491455078125,136984.2165544167,-0.1787894555697066,-0.6541306869513336,0.317743347554008,136984.2165544167,0.1964366463968078,-1.406915563293074,1.398691490666909,-0.1819064170122147,-0.6441177129745483,0.3524730503559113,0.03387586399912834,0.00663456367328763,0.1184400618076324,XTrueNorthZVertical,0.5370808540885847,-0.4444930399117871,-0.3571591940186456,0.6216167695894567,-0.1689619272947311,-0.9852265119552612,-0.02794018760323524,2.360360622406006,-16.22801208496094,-7.657424926757812,1,10.3.35.51,10.83.46.32,1,0
2015-02-27 17:02:20.046,88,1425085338.72534,37.78768364779677,-122.3967157605134,12.52686,-1,-1,10,65,-9999,1425085339.998329,13.15718460083008,-38.42509460449219,4.306915283203125,264.0889892578125,250.3157348632812,25,136984.2760074583,-0.4111785888671875,-0.8198089599609375,0.129241943359375,136984.268338125,-0.1375117902540234,0.0241785732207204,0.3140008072741196,136984.2165544167,0.1964366463968078,-1.406915563293074,1.398691490666909,-0.1819064170122147,-0.6441177129745483,0.3524730503559113,0.03387586399912834,0.00663456367328763,0.1184400618076324,XTrueNorthZVertical,0.5370808540885847,-0.4444930399117871,-0.3571591940186456,0.6216167695894567,-0.1689619272947311,-0.9852265119552612,-0.02794018760323524,2.360360622406006,-16.22801208496094,-7.657424926757812,1,10.3.35.51,10.83.46.32,1,0
2015-02-27 17:02:20.105,89,1425085338.72534,37.78768364779677,-122.3967157605134,12.52686,-1,-1,10,65,-9999,1425085340.077676,11.99780654907227,-39.54661560058594,2.809272766113281,266.0541076660156,252.2808685302734,25,136984.3250925,-0.174560546875,-1.036605834960938,0.0415802001953125,136984.3201227917,0.5031725963535001,1.293338883366626,0.3236236072409029,136984.268338125,0.17829562196904,-1.405809284951105,1.382982236917984,-0.1406287252902985,0.03419146314263344,0.3487301468849182,-0.06181050091981888,0.07312821596860886,0.2549849450588226,XTrueNorthZVertical,0.5289343317335227,-0.4526540996857846,-0.3582631175440823,0.622077392150112,-0.1841764450073242,-0.982414722442627,-0.03066547773778439,1.733621597290039,-16.18310356140137,-7.915652275085449,1,10.3.35.51,10.83.46.32,1,0
2015-02-27 17:02:20.144,90,1425085338.72534,37.78768364779677,-122.3967157605134,12.52686,-1,-1,10,65,-9999,1425085340.077676,11.99780654907227,-39.54661560058594,2.809272766113281,266.0541076660156,252.2808685302734,25,136984.3740262917,-0.2696990966796875,-0.6722412109375,-0.0151519775390625,136984.3719065,0.4362596087008232,1.653532752380388,0.9666217482034873,136984.3201227917,0.2647863172503978,-1.450754187464961,1.360362389969435,0.5000556707382202,1.303351640701294,0.3583525717258453,0.002211409853771329,-0.01771088130772114,0.314840167760849,XTrueNorthZVertical,0.5345674721775066,-0.4491439052664828,-0.3368017794747407,0.6317214068399117,-0.207381084561348,-0.9779403805732727,-0.02501473948359489,1.487493753433228,-16.18592643737793,-7.959837913513184,1,10.3.35.51,10.83.46.32,1,0
2015-02-27 17:02:20.205,91,1425085338.72534,37.78768364779677,-122.3967157605134,12.52686,-1,-1,10,65,-9999,1425085340.151689,10.19053268432617,-40.4981689453125,4.406745910644531,260.5922241210938,246.8189849853516,25,136984.423214,0.10760498046875,-1.072280883789062,-0.21392822265625,136984.4236899583,0.3685149158397146,1.470971195442693,0.8208973017798775,136984.3719065,0.4144561005871598,-1.51368075814137,1.336743602580655,0.4331427216529846,1.663545489311218,1.001350402832031,-0.1021204590797424,0.2706623375415802,-0.1023919656872749,XTrueNorthZVertical,0.5517698827472602,-0.4346612797766432,-0.29900992602459,0.6459199926927487,-0.2315434813499451,-0.9727344512939453,-0.01323913689702749,1.599790811538696,-16.39775848388672,-7.490662097930908,1,10.3.35.51,10.83.46.32,1,0
2015-02-27 17:02:20.243,92,1425085338.72534,37.78768364779677,-122.3967157605134,12.52686,-1,-1,10,65,-9999,1425085340.205354,7.701263427734375,-40.46418762207031,6.037513732910156,253.7931671142578,240.0199127197266,25,136984.4721543333,-0.3163909912109375,-0.665740966796875,0.0593109130859375,136984.4236899583,0.3685149158397146,1.470971195442693,0.8208973017798775,136984.4236899583,0.5042545841105999,-1.510180423635675,1.280255124168939,0.3653980791568756,1.480983853340149,0.8556255698204041,0.3935496509075165,-0.1141919046640396,-0.1965741664171219,XTrueNorthZVertical,0.5583289517866258,-0.4237826734422297,-0.2507213490452311,0.6676944187915371,-0.2859446704387665,-0.9580889940261841,-0.01735405437648296,1.458666324615479,-16.70246696472168,-6.815840721130371,1,10.3.35.51,10.83.46.32,1,0
2015-02-27 17:02:20.306,93,1425085338.72534,37.78768364779677,-122.3967157605134,12.52686,-1,-1,10,65,-9999,1425085340.255356,4.44476318359375,-40.9229736328125,7.218986511230469,244.8506011962891,231.0773468017578,25,136984.521225625,-0.0538177490234375,-0.6305694580078125,-0.0210113525390625,136984.5272582917,-0.5692464219466931,1.322352425546385,2.248925024645043,136984.475474875,0.5233881709706378,-1.483161686342498,1.196045304148012,-0.0509469173848629,0.9962039589881897,2.026990413665771,0.04824519529938698,0.2648578286170959,0.09134773164987564,XTrueNorthZVertical,0.5454527118368474,-0.4318135376740855,-0.2096705329982071,0.687063810638352,-0.3646361827850342,-0.9305987954139709,-0.03203681483864784,1.064037799835205,-16.84980773925781,-6.519791126251221,1,10.3.35.51,10.83.46.32,1,0
2015-02-27 17:02:20.342,94,1425085338.72534,37.78768364779677,-122.3967157605134,12.52686,-1,-1,10,65,-9999,1425085340.312469,0.0800323486328125,-41.16084289550781,7.418670654296875,237.2321319580078,223.4588775634766,25,136984.570380625,-0.2102203369140625,-1.050155639648438,0.001678466796875,136984.5272582917,-0.5692464219466931,1.322352425546385,2.248925024645043,136984.5272582917,0.5261253937218158,-1.440234141074582,1.096428231911072,-0.5723631978034973,1.332364797592163,2.283652544021606,0.3990709781646729,0.2590120732784271,0.03845708444714546,XTrueNorthZVertical,0.5246541458234716,-0.4415923563996211,-0.1650369484043302,0.7088702477650515,-0.4528887271881104,-0.889581561088562,-0.05946843698620796,-0.1878471374511719,-16.86796760559082,-6.55684757232666,1,10.3.35.51,10.83.46.32,1,0
2015-02-27 17:02:20.404,95,1425085338.72534,37.78768364779677,-122.3967157605134,12.52686,-1,-1,10,65,-9999,1425085340.363387,-5.222442626953125,-40.80400085449219,6.569992065429688,227.3846588134766,213.6114044189453,25,136984.6193500417,-0.5021209716796875,-0.8088531494140625,-0.1719818115234375,136984.579042,-0.6152301592246552,1.227916999608285,2.425087271799387,136984.579042,0.496149663820135,-1.359846938521222,0.9676441017687225,-0.6183468699455261,1.237929224967957,2.459814548492432,0.3444466888904572,-0.2266039997339249,0.1204521805047989,XTrueNorthZVertical,0.4873083848170862,-0.4507146329893734,-0.1144914553910371,0.7391066017862951,-0.554667055606842,-0.8235516548156738,-0.1187737137079239,-2.028256416320801,-16.52370452880859,-7.099942207336426,1,10.3.35.51,10.83.46.32,1,0
2015-02-27 17:02:20.439,96,1425085338.72534,37.78768364779677,-122.3967157605134,12.52686,-1,-1,10,65,-9999,1425085340.363387,-5.222442626953125,-40.80400085449219,6.569992065429688,227.3846588134766,213.6114044189453,25,136984.6684059167,-0.8772430419921875,-0.4844818115234375,-0.203216552734375,136984.6308266667,-0.8669220517386269,-0.16135853360292,2.678342439873235,136984.6308266667,0.5049381850592938,-1.345225864589892,0.8291977692605305,-0.8700387477874756,-0.151346355676651,2.713069200515747,0.1236572116613388,0.04668538272380829,0.06945743411779404,XTrueNorthZVertical,0.4475431402575975,-0.4734625529507865,-0.06417993833479772,0.7559228059414926,-0.658355712890625,-0.7373897433280945,-0.1510767042636871,-3.529654502868652,-16.01290893554688,-7.660557746887207,1,10.3.35.51,10.83.46.32,1,0
2015-02-27 17:02:20.505,97,1425085338.72534,37.78768364779677,-122.3967157605134,12.52686,-1,-1,10,65,-9999,1425085340.487735,-19.37372589111328,-36.89573669433594,2.376602172851562,205.8392181396484,192.0659637451172,25,136984.7174970833,-0.95196533203125,-0.409271240234375,-0.17364501953125,136984.682610375,-0.5060014060633823,0.06141409263388128,2.647606365100412,136984.682610375,0.5088846432768831,-1.351453664982757,0.6916347758190245,-0.5091180801391602,0.07142618298530579,2.682332992553711,-0.06979763507843018,0.1688487827777863,0.02830507047474384,XTrueNorthZVertical,0.4040764871283782,-0.502920017875908,-0.02041789857841671,0.7637910460674133,-0.7517508268356323,-0.6377971172332764,-0.1675872951745987,-5.457293033599854,-15.23293685913086,-8.107492446899414,1,10.3.35.51,10.83.46.32,1,0
2015-02-27 17:02:20.537,98,1425085338.72534,37.78768364779677,-122.3967157605134,12.52686,-1,-1,10,65,-9999,1425085340.487735,-19.37372589111328,-36.89573669433594,2.376602172851562,205.8392181396484,192.0659637451172,25,136984.7665467083,-0.9805450439453125,-0.5500640869140625,-0.2739410400390625,136984.7343938334,-0.3124061064133802,0.3212904118098845,2.504922449693346,136984.7343938334,0.5191427757144039,-1.345250419129649,0.5635768767392121,-0.3155227899551392,0.3313021659851074,2.539650201797485,-0.03918982669711113,0.1329682022333145,0.04690184444189072,XTrueNorthZVertical,0.3638266288446824,-0.5225933632686784,0.02539567413968739,0.7706370254610544,-0.8239388465881348,-0.5342133045196533,-0.1890527158975601,-7.751660823822021,-13.95077133178711,-8.534843444824219,1,10.3.35.51,10.83.46.32,1,0
2015-02-27 17:02:20.612,99,1425085338.72534,37.78768364779677,-122.3967157605134,12.52686,-1,-1,10,65,-9999,1425085340.591479,-29.41178894042969,-30.57490539550781,-0.0012359619140625,193.7910919189453,180.0178375244141,25,136984.8156232083,-0.9692840576171875,-0.2783050537109375,-0.2636871337890625,136984.7861785833,-0.1716812123041761,0.181896032981284,2.273332629719511,136984.7861785833,0.5392674475712556,-1.345308848023573,0.444027503422684,-0.1747978180646896,0.1919076889753342,2.308059930801392,-0.05565263703465462,-0.04783710092306137,0.0005150737124495208,XTrueNorthZVertical,0.3279039767092438,-0.539933973905504,0.0710013076927563,0.7719514911263653,-0.8801689147949219,-0.429579883813858,-0.2019005715847015,-9.14936637878418,-12.87662029266357,-8.833889007568359,1,10.3.35.51,10.83.46.32,1,0
2015-02-27 17:02:20.634,100,1425085338.72534,37.78768364779677,-122.3967157605134,12.52686,-1,-1,10,65,-9999,1425085340.591479,-29.41178894042969,-30.57490539550781,-0.0012359619140625,193.7910919189453,180.0178375244141,25,136984.8646657917,-0.9372406005859375,-0.0916290283203125,-0.320098876953125,136984.8379622083,-0.04313149175048731,0.03604774956698555,2.152016321002586,136984.8379622083,0.5592195591462683,-1.343494941603755,0.3313079744280646,-0.04624867811799049,0.04605929553508759,2.186744213104248,-0.1724706739187241,-0.06452087312936783,-0.03777560964226723,XTrueNorthZVertical,0.293464911257156,-0.5543746706704491,0.1144235456395826,0.7703598685345399,-0.9212945699691772,-0.3252801597118378,-0.2130941450595856,-10.39896011352539,-11.77053833007812,-8.992878913879395,1,10.3.35.51,10.83.46.32,3,0
2015-02-27 17:02:20.719,101,1425085338.72534,37.78768364779677,-122.3967157605134,12.52686,-1,-1,10,65,-9999,1425085340.694384,-37.32273864746094,-22.4866943359375,-1.166069030761719,179.9920959472656,166.2188415527344,25,136984.913743875,-1.02838134765625,-0.2420501708984375,-0.1868896484375,136984.8897458334,-0.2916241288469468,-0.1342749842651411,1.786129146210452,136984.8897458334,0.56743454394326,-1.34109666628549,0.2308713596390434,-0.2947253584861755,-0.1243277192115784,1.821037292480469,-0.04718758538365364,0.004887862130999565,-0.07272855937480927,XTrueNorthZVertical,0.2594261022377802,-0.5673412528091893,0.1491443763229284,0.7671883470278228,-0.9478991031646729,-0.2288258522748947,-0.2216439992189407,-11.76370048522949,-10.2193717956543,-9.205194473266602,1,10.3.35.51,10.83.46.32,3,0
2015-02-27 17:02:20.733,102,1425085338.72534,37.78768364779677,-122.3967157605134,12.52686,-1,-1,10,65,-9999,1425085340.694384,-37.32273864746094,-22.4866943359375,-1.166069030761719,179.9920959472656,166.2188415527344,25,136984.962785,-1.349456787109375,0.0400543212890625,-0.1922454833984375,136984.941530625,-0.2798223304762607,-0.06928746208059154,1.652361227816862,136984.8897458334,0.56743454394326,-1.34109666628549,0.2308713596390434,-0.2947253584861755,-0.1243277192115784,1.821037292480469,-0.04718758538365364,0.004887862130999565,-0.07272855937480927,XTrueNorthZVertical,0.2594261022377802,-0.5673412528091893,0.1491443763229284,0.7671883470278228,-0.9478991031646729,-0.2288258522748947,-0.2216439992189407,-11.76370048522949,-10.2193717956543,-9.205194473266602,1,10.3.35.51,10.83.46.32,3,0
2015-02-27 17:02:20.802,103,1425085338.72534,37.78768364779677,-122.3967157605134,12.52686,-1,-1,10,65,-9999,1425085340.74915,-40.06770324707031,-18.76544189453125,-1.548797607421875,174.4829711914062,160.709716796875,25,136985.0118563334,-1.051193237304688,0.0007171630859375,-0.24908447265625,136984.9933143333,-0.5184064104209714,0.1312275290297635,1.122970076847641,136984.9933143333,0.5677743571257875,-1.347000470699367,0.07639781943908742,-0.5215075612068176,0.1411745846271515,1.157877564430237,0.2577098608016968,0.02860929071903229,0.06837672740221024,XTrueNorthZVertical,0.2032273473332212,-0.5899628102261588,0.1959038106757444,0.756481479795839,-0.9722179174423218,-0.07632352411746979,-0.2212850600481033,-13.19370555877686,-7.983804225921631,-9.473164558410645,1,10.3.35.51,10.83.46.32,3,0
2015-02-27 17:02:20.831,104,1425085338.72534,37.78768364779677,-122.3967157605134,12.52686,-1,-1,10,65,-9999,1425085340.799171,-41.98422241210938,-16.60789489746094,-1.814704895019531,172.2810821533203,158.5078277587891,15,136985.0610120417,-1.360244750976562,0.2574615478515625,-0.189697265625,136985.045098,0.009907225571203774,0.07244677008175254,0.8703013368458284,136985.045098,0.5753696928668162,-1.351397533958065,0.01676343002378968,0.006806079763919115,0.08239373564720154,0.90520840883255,-0.4014432430267334,0.1573266088962555,0.05214598029851913,XTrueNorthZVertical,0.1837236410661625,-0.5978624252296925,0.2163538009488076,0.7496647127164858,-0.9758913516998291,-0.01676264405250549,-0.2176122814416885,-13.80424213409424,-6.811994552612305,-9.518165588378906,1,10.3.35.51,10.83.46.32,3,0
2015-02-27 17:02:20.904,105,1425085338.72534,37.78768364779677,-122.3967157605134,12.52686,-1,-1,10,65,-9999,1425085340.851062,-43.50163269042969,-14.31402587890625,-1.764785766601562,169.1245727539062,155.351318359375,15,136985.10999375,-1.203262329101562,0.2171630859375,-0.3914031982421875,136985.0968825417,0.3069365061665754,-0.1979112185125845,-0.1447864810876839,136985.0968825417,0.5934542948525061,-1.350579765071984,0.001879907881370967,0.303835391998291,-0.1879643499851227,-0.1098797023296356,-0.3468749523162842,0.3264648616313934,-0.1112865954637527,XTrueNorthZVertical,0.1834826266820011,-0.5975900252871746,0.2276574457538094,0.7465871544846082,-0.9758484363555908,-0.001879906747490168,-0.2184405773878098,-14.04630947113037,-6.27881908416748,-9.530658721923828,1,10.3.35.51,10.83.46.32,3,0
2015-02-27 17:02:20.930,106,1425085338.72534,37.78768364779677,-122.3967157605134,12.52686,-1,-1,10,65,-9999,1425085340.902469,-44.06426239013672,-13.5833740234375,-1.615028381347656,167.1996917724609,153.4264373779297,15,136985.15915125,-1.392776489257812,0.1716766357421875,-0.22119140625,136985.1486663333,0.1030395667879288,-0.3016482671900051,-1.234128290218677,136985.0968825417,0.5934542948525061,-1.350579765071984,0.001879907881370967,0.303835391998291,-0.1879643499851227,-0.1098797023296356,-0.3468749523162842,0.3264648616313934,-0.1112865954637527,XTrueNorthZVertical,0.1834826266820011,-0.5975900252871746,0.2276574457538094,0.7465871544846082,-0.9758484363555908,-0.001879906747490168,-0.2184405773878098,-14.04630947113037,-6.27881908416748,-9.530658721923828,1,10.3.35.51,10.83.46.32,3,0
2015-02-27 17:02:21.003,107,1425085338.72534,37.78768364779677,-122.3967157605134,12.52686,-1,-1,10,65,-9999,1425085340.954947,-43.36522674560547,-15.2655029296875,-1.36541748046875,169.5664978027344,155.7932434082031,15,136985.2081300417,-1.339431762695312,-0.0099945068359375,-0.1208953857421875,136985.20044975,0.3818445697277792,1.036134247396191,-1.854317788025277,136985.20044975,0.5892032875506021,-1.349197694200396,0.1276430106606909,0.3787435293197632,1.046080946922302,-1.819411754608154,-0.4601691961288452,0.07616448402404785,0.2076254189014435,XTrueNorthZVertical,0.228646413034358,-0.5819966692666831,0.1881774794796676,0.7573572046604651,-0.9676109552383423,-0.1272966861724854,-0.2180013954639435,-13.71263694763184,-7.509746551513672,-9.117189407348633,1,10.3.35.51,10.83.46.32,3,0
2015-02-27 17:02:21.028,108,1425085338.72534,37.78768364779677,-122.3967157605134,12.52686,-1,-1,10,65,-9999,1425085341.008021,-41.71142578125,-18.10310363769531,-1.881271362304688,174.0710144042969,160.2977600097656,15,136985.2571874583,-0.73895263671875,-0.29962158203125,-0.3840179443359375,136985.20044975,0.3818445697277792,1.036134247396191,-1.854317788025277,136985.20044975,0.5892032875506021,-1.349197694200396,0.1276430106606909,0.3787435293197632,1.046080946922302,-1.819411754608154,-0.4601691961288452,0.07616448402404785,0.2076254189014435,XTrueNorthZVertical,0.228646413034358,-0.5819966692666831,0.1881774794796676,0.7573572046604651,-0.9676109552383423,-0.1272966861724854,-0.2180013954639435,-13.71263694763184,-7.509746551513672,-9.117189407348633,1,10.3.35.51,10.83.46.32,3,0
2015-02-27 17:02:21.109,109,1425085338.72534,37.78768364779677,-122.3967157605134,12.52686,-1,-1,10,65,-9999,1425085341.058798,-38.75901794433594,-22.84600830078125,-1.920326232910156,176.5782928466797,162.8050384521484,15,136985.3062430417,-0.9995269775390625,-0.352294921875,-0.2567596435546875,136985.3040182083,0.5134169781187079,-0.8331023027396016,-2.275855175904034,136985.25223475,0.5808853993465443,-1.295811835079619,0.2256960010491453,0.3612100780010223,0.476833313703537,-2.063107490539551,0.1316548734903336,0.01989682577550411,-0.2123594284057617,XTrueNorthZVertical,0.2577618371954689,-0.5488497487080921,0.1617747305571472,0.7785574671450201,-0.9380208253860474,-0.2237847596406937,-0.2646455764770508,-12.64608383178711,-8.765765190124512,-9.52857494354248,1,10.3.35.51,10.83.46.32,3,0
2015-02-27 17:02:21.126,110,1425085338.72534,37.78768364779677,-122.3967157605134,12.52686,-1,-1,10,65,-9999,1425085341.112245,-35.41731262207031,-27.22967529296875,-1.454383850097656,182.5630493164062,168.789794921875,15,136985.3552847917,-0.950775146484375,-0.419525146484375,-0.1678314208984375,136985.3558019167,0.2390123162479954,0.04541754923021133,-2.356254677632981,136985.3040182083,0.5741576775863865,-1.31111814331246,0.335625813965815,0.5103159546852112,-0.8231558203697205,-2.240949630737305,-0.02008472755551338,-0.02436911687254906,-0.06828705966472626,XTrueNorthZVertical,0.2971697524866078,-0.5389514605630236,0.1236506915402225,0.7784163232558029,-0.9125477075576782,-0.3293601274490356,-0.2424429208040237,-11.49960899353027,-10.01456451416016,-9.747989654541016,1,10.3.35.51,10.83.46.32,3,0
2015-02-27 17:02:21.205,111,1425085338.72534,37.78768364779677,-122.3967157605134,12.52686,-1,-1,10,65,-9999,1425085341.162792,-31.32543182373047,-31.34152221679688,-0.123138427734375,189.8722686767578,176.0990142822266,15,136985.4043465417,-0.803070068359375,-0.58514404296875,-0.23931884765625,136985.407586625,0.3799931401379561,-0.1205977878548212,-2.434271715450743,136985.3558019167,0.5601744574689852,-1.324682731838019,0.4519432051526173,0.2359116971492767,0.05536371469497681,-2.321349143981934,-0.07828296720981598,0.01718931831419468,0.05134402960538864,XTrueNorthZVertical,0.3354719933802265,-0.5271345328394881,0.08003003409740667,0.7766485202801753,-0.8724921941757202,-0.4367144703865051,-0.2191754579544067,-10.37780952453613,-11.73682594299316,-9.061116218566895,1,10.3.35.51,10.83.46.32,3,0
2015-02-27 17:02:21.224,112,1425085338.72534,37.78768364779677,-122.3967157605134,12.52686,-1,-1,10,65,-9999,1425085341.216267,-27.16535186767578,-35.11354064941406,0.8752899169921875,195.9419555664062,182.168701171875,15,136985.4534990833,-0.694580078125,-0.763214111328125,-0.233123779296875,136985.407586625,0.3799931401379561,-0.1205977878548212,-2.434271715450743,136985.407586625,0.5456567927818445,-1.314069097750973,0.5684129099494731,0.3768923580646515,-0.1106516048312187,-2.399367094039917,0.01206593867391348,-0.0468488447368145,-0.02532918006181717,XTrueNorthZVertical,0.3717815965428297,-0.504760943722958,0.03987501581112489,0.7780776450608651,-0.8151360154151917,-0.5382952094078064,-0.2139896750450134,-9.102378845214844,-12.85907459259033,-8.907678604125977,1,10.3.35.51,10.83.46.32,3,0
2015-02-27 17:02:21.311,113,1425085338.72534,37.78768364779677,-122.3967157605134,12.52686,-1,-1,10,65,-9999,1425085341.266865,-22.61314392089844,-38.32484436035156,1.657394409179688,202.9065704345703,189.1333160400391,15,136985.502468875,-0.75738525390625,-0.8719940185546875,0.0511016845703125,136985.5111538333,0.6196792361417416,0.4051589471747689,-2.868758724130009,136985.4593704167,0.5401803952657546,-1.325909505695298,0.6947184114792487,0.6493583917617798,-0.4906965792179108,-2.50158166885376,0.05073348432779312,-0.1230449751019478,-0.04686811566352844,XTrueNorthZVertical,0.4129863573838859,-0.4861218334344514,-0.004173130986897896,0.7701366249674846,-0.7453135848045349,-0.6401691436767578,-0.1862556636333466,-7.690759181976318,-13.90484714508057,-8.663908004760742,1,10.3.35.51,10.83.46.32,3,0
2015-02-27 17:02:21.322,114,1425085338.72534,37.78768364779677,-122.3967157605134,12.52686,-1,-1,10,65,-9999,1425085341.266865,-22.61314392089844,-38.32484436035156,1.657394409179688,202.9065704345703,189.1333160400391,15,136985.55150275,-0.3118133544921875,-0.5087738037109375,-0.176239013671875,136985.5111538333,0.6196792361417416,0.4051589471747689,-2.868758724130009,136985.5111538333,0.5396806004281326,-1.336943453106456,0.8323772900862703,0.6165807843208313,0.4151053726673126,-2.833861827850342,-0.1025874465703964,-0.132460355758667,0.2070818245410919,XTrueNorthZVertical,0.456901469859524,-0.4617910530136871,-0.05015515466820688,0.7586003790681557,-0.6547977924346924,-0.7395336627960205,-0.1559801399707794,-5.682051181793213,-15.22544097900391,-7.96593189239502,1,10.3.35.51,10.83.46.32,3,0
2015-02-27 17:02:21.402,115,1425085338.72534,37.78768364779677,-122.3967157605134,12.52686,-1,-1,10,65,-9999,1425085341.369856,-11.29228210449219,-43.04833984375,3.754096984863281,213.4951019287109,199.7218475341797,15,136985.6005803334,0.3173828125,-0.018890380859375,-0.296295166015625,136985.5629387917,0.7753090439237921,2.537089440919868,-2.120432295738682,136985.5629387917,0.5364849705809467,-1.247516011700318,0.9669746180707514,0.7722116112709045,2.547035455703735,-2.085536241531372,0.3404429852962494,0.6141720414161682,-0.2708420753479004,XTrueNorthZVertical,0.5008971576543028,-0.3986405052122887,-0.07134556576792975,0.7649167273426632,-0.5383800268173218,-0.8231716752052307,-0.1803755760192871,-3.552531242370605,-16.03572082519531,-7.602042198181152,1,10.3.35.51,10.83.46.32,3,0
2015-02-27 17:02:21.420,116,1425085338.72534,37.78768364779677,-122.3967157605134,12.52686,-1,-1,10,65,-9999,1425085341.369856,-11.29228210449219,-43.04833984375,3.754096984863281,213.4951019287109,199.7218475341797,15,136985.6497427917,-0.395416259765625,-0.2861785888671875,-0.162994384765625,136985.61472225,-0.06105003851286745,-0.6901371575214229,-0.3164045764740251,136985.61472225,0.5269504245804503,-1.208646315603143,1.030374908575896,-0.06414743512868881,-0.6801912188529968,-0.2815088629722595,0.8069618940353394,0.6184934973716736,-0.04085024818778038,XTrueNorthZVertical,0.5202173479503951,-0.371798867681525,-0.08379948499523625,0.7642755809668076,-0.4811257123947144,-0.8574919104576111,-0.1822790205478668,-1.187855243682861,-16.51594352722168,-7.305368900299072,1,10.3.35.51,10.83.46.32,3,0
2015-02-27 17:02:21.503,117,1425085338.72534,37.78768364779677,-122.3967157605134,12.52686,-1,-1,10,65,-9999,1425085341.475589,-8.581405639648438,-43.16729736328125,4.170112609863281,217.4206237792969,203.6473693847656,15,136985.698725125,-0.283203125,-0.5156402587890625,-0.0800933837890625,136985.666506,-0.4075217036938872,-0.9139074039025679,1.254351536588411,136985.666506,0.5341921992784843,-1.26621989276028,0.9964904087600582,-0.4106190502643585,-0.9039615988731384,1.289246916770935,0.04215902835130692,0.5441288948059082,0.0351993665099144,XTrueNorthZVertical,0.5087769244044522,-0.3996102179664127,-0.08580697700882137,0.7576904922542019,-0.5182484984397888,-0.8395695686340332,-0.1629154235124588,-0.9272918701171875,-16.57624053955078,-7.205844879150391,1,10.3.35.51,10.83.46.32,3,0
2015-02-27 17:02:21.519,118,1425085338.72534,37.78768364779677,-122.3967157605134,12.52686,-1,-1,10,65,-9999,1425085341.475589,-8.581405639648438,-43.16729736328125,4.170112609863281,217.4206237792969,203.6473693847656,15,136985.7478502083,-0.3184051513671875,-0.5002593994140625,-0.041473388671875,136985.7182907083,-0.5706448478350936,-0.2087675946962926,2.680230621086101,136985.7182907083,0.5179534784511345,-1.273534125363002,0.8901667868589683,-0.5737422108650208,-0.1988218724727631,2.715125560760498,0.4025408923625946,0.333542674779892,0.1056295037269592,XTrueNorthZVertical,0.4720514452341437,-0.4301254414443223,-0.06161476393670121,0.7670483446335913,-0.6016833186149597,-0.7771767377853394,-0.1843190789222717,-2.168526649475098,-16.3336181640625,-7.487739562988281,1,10.3.35.51,10.83.46.32,3,0
2015-02-27 17:02:21.601,119,1425085338.72534,37.78768364779677,-122.3967157605134,12.52686,-1,-1,10,65,-9999,1425085341.577168,-17.92453765869141,-40.48271179199219,1.740592956542969,207.0841979980469,193.3109436035156,15,136985.7968654583,-0.509765625,-0.6600799560546875,-0.3453521728515625,136985.7700744583,-0.5563324875047898,-0.497824436252403,3.104616792382915,136985.7700744583,0.5442767434290127,-1.290836719911983,0.7322970663654161,-0.5594297647476196,-0.4878783226013184,3.139508962631226,0.1311920434236526,-0.1467432826757431,-0.03064934909343719,XTrueNorthZVertical,0.4264489901874591,-0.4641131898038378,-0.006945793855771212,0.7763323812848082,-0.7146881222724915,-0.6685795783996582,-0.2054804116487503,-4.036460399627686,-15.70449638366699,-8.03937816619873,1,10.3.35.51,10.83.46.32,3,0
2015-02-27 17:02:21.616,120,1425085338.72534,37.78768364779677,-122.3967157605134,12.52686,-1,-1,10,65,-9999,1425085341.577168,-17.92453765869141,-40.48271179199219,1.740592956542969,207.0841979980469,193.3109436035156,15,136985.8459114583,-1.089157104492188,-0.6501617431640625,-0.2854461669921875,136985.8218579583,-0.4961900542914214,-0.6702063262393789,3.325368878300673,136985.8218579583,0.5663859585741258,-1.3146420590647,0.5643082536926873,-0.4992887079715729,-0.660258412361145,3.360254049301147,-0.05744312331080437,-0.1558576375246048,-0.04141256585717201,XTrueNorthZVertical,0.3756069473685165,-0.501875603445458,0.04911208885839204,0.7775784892524685,-0.8173890113830566,-0.5348314642906189,-0.2140806019306183,-6.910460472106934,-14.38897037506104,-8.529884338378906,1,10.3.35.51,10.83.46.32,3,0
2015-02-27 17:02:21.704,121,1425085338.72534,37.78768364779677,-122.3967157605134,12.52686,-1,-1,10,65,-9999,1425085341.680662,-30.79689788818359,-31.56240844726562,0.8253555297851562,190.6320343017578,176.8587799072266,15,136985.8949932917,-0.942047119140625,-0.400970458984375,-0.2885284423828125,136985.8736429167,-0.3765006706844262,-0.2332697419894576,2.589983282278259,136985.8736429167,0.5839301686874261,-1.347262971198202,0.412634238740287,-0.379469633102417,-0.2234365493059158,2.625066995620728,-0.2668343782424927,-0.1071090772747993,-0.03164007887244225,XTrueNorthZVertical,0.329083543835118,-0.5386731054681351,0.09780251649276242,0.7693958531571008,-0.8932760953903198,-0.4010238647460938,-0.2030706107616425,-9.138400077819824,-12.99712657928467,-8.667190551757812,1,10.3.35.51,10.83.46.32,3,0
2015-02-27 17:02:21.714,122,1425085338.72534,37.78768364779677,-122.3967157605134,12.52686,-1,-1,10,65,-9999,1425085341.680662,-30.79689788818359,-31.56240844726562,0.8253555297851562,190.6320343017578,176.8587799072266,15,136985.9440430833,-1.3065185546875,-0.395263671875,-0.2886810302734375,136985.925426375,-0.5253551303372062,-0.01832361356418119,2.330396715028856,136985.925426375,0.5887682253707728,-1.356969646214174,0.2809434010832091,-0.5283240675926208,-0.008490529842674732,2.365480184555054,-0.3994351625442505,-0.05016091093420982,0.02634547837078571,XTrueNorthZVertical,0.2846211055318849,-0.5630720042866559,0.1395721124980833,0.7631909159264557,-0.9389132261276245,-0.2772621810436249,-0.2038814872503281,-10.81357002258301,-11.58431148529053,-8.742213249206543,1,10.3.35.51,10.83.46.32,3,0
2015-02-27 17:02:21.803,123,1425085338.72534,37.78768364779677,-122.3967157605134,12.52686,-1,-1,10,65,-9999,1425085341.784151,-38.28163146972656,-23.62757873535156,-0.1231460571289062,178.3323364257812,164.55908203125,15,136985.9931195,-1.361404418945312,-0.0058441162109375,-0.229034423828125,136985.977210125,-0.1213179066135786,0.2943914195356482,1.399476771766753,136985.977210125,0.5894900916774745,-1.355284212682883,0.1933859131530317,-0.1242868229746819,0.3042244017124176,1.434559941291809,-0.5322178602218628,-0.08122419565916061,0.08415951579809189,XTrueNorthZVertical,0.2532461571162615,-0.5752700875332706,0.1673368337456794,0.7595584894086197,-0.9586573839187622,-0.192182794213295,-0.2098614275455475,-12.34981155395508,-9.699677467346191,-8.997459411621094,1,10.3.35.51,10.83.46.32,3,0
2015-02-27 17:02:21.812,124,1425085338.72534,37.78768364779677,-122.3967157605134,12.52686,-1,-1,10,65,-9999,1425085341.784151,-38.28163146972656,-23.62757873535156,-0.1231460571289062,178.3323364257812,164.55908203125,15,136986.0421655833,-1.302734375,0.0272979736328125,-0.3941802978515625,136986.0289947917,0.01401222207545191,0.3604375482535043,0.426338002059733,136985.977210125,0.5894900916774745,-1.355284212682883,0.1933859131530317,-0.1242868229746819,0.3042244017124176,1.434559941291809,-0.5322178602218628,-0.08122419565916061,0.08415951579809189,XTrueNorthZVertical,0.2532461571162615,-0.5752700875332706,0.1673368337456794,0.7595584894086197,-0.9586573839187622,-0.192182794213295,-0.2098614275455475,-12.34981155395508,-9.699677467346191,-8.997459411621094,1,10.3.35.51,10.83.46.32,3,0
2015-02-27 17:02:21.902,125,1425085338.72534,37.78768364779677,-122.3967157605134,12.52686,-1,-1,10,65,-9999,1425085341.887922,-40.20822906494141,-21.36776733398438,-1.404472351074219,174.8334350585938,161.0601806640625,15,136986.09125,-1.304656982421875,-0.190582275390625,-0.21429443359375,136986.0807785833,0.2230397412941362,0.01325029168758024,-0.6649380609709842,136986.0807785833,0.5987231244093761,-1.329380880703229,0.1515447672731174,0.2200708836317062,0.02308308891952038,-0.6298555731773376,-0.4261601567268372,0.0733134001493454,-0.09036871790885925,XTrueNorthZVertical,0.2383172247706572,-0.5701195435349337,0.1868438715104008,0.763713282980963,-0.9598719477653503,-0.1509653776884079,-0.2363372147083282,-12.87151145935059,-8.450040817260742,-9.511931419372559,1,10.3.35.51,10.83.46.32,3,0
2015-02-27 17:02:21.911,126,1425085338.72534,37.78768364779677,-122.3967157605134,12.52686,-1,-1,10,65,-9999,1425085341.887922,-40.20822906494141,-21.36776733398438,-1.404472351074219,174.8334350585938,161.0601806640625,15,136986.1403104583,-1.15643310546875,-0.14129638671875,-0.3276824951171875,136986.1325620417,0.1324802800065367,0.4998662818601667,-1.283772276098844,136986.0807785833,0.5987231244093761,-1.329380880703229,0.1515447672731174,0.2200708836317062,0.02308308891952038,-0.6298555731773376,-0.4261601567268372,0.0733134001493454,-0.09036871790885925,XTrueNorthZVertical,0.2383172247706572,-0.5701195435349337,0.1868438715104008,0.763713282980963,-0.9598719477653503,-0.1509653776884079,-0.2363372147083282,-12.87151145935059,-8.450040817260742,-9.511931419372559,1,10.3.35.51,10.83.46.32,3,0
2015-02-27 17:02:22.002,127,1425085338.72534,37.78768364779677,-122.3967157605134,12.52686,-1,-1,10,65,-9999,1425085341.991617,-36.74717712402344,-25.02081298828125,-0.8220596313476562,177.7319183349609,163.9586639404297,15,136986.189392125,-1.093658447265625,-0.21612548828125,-0.2973175048828125,136986.184347,0.3084523774590485,0.1987762132346423,-1.735190597724398,136986.1325620417,0.5945530271620869,-1.308296014152732,0.200023036444434,0.1295114457607269,0.5096989870071411,-1.248690128326416,-0.2137433737516403,0.07831531763076782,-0.002681591780856252,XTrueNorthZVertical,0.2531028455446802,-0.5556778324057974,0.1731986830166274,0.7727634287521055,-0.946489155292511,-0.1986919045448303,-0.2543222010135651,-12.56820964813232,-8.92221736907959,-9.486305236816406,1,10.3.35.51,10.83.46.32,3,0
2015-02-27 17:02:22.009,128,1425085338.72534,37.78768364779677,-122.3967157605134,12.52686,-1,-1,10,65,-9999,1425085341.991617,-36.74717712402344,-25.02081298828125,-0.8220596313476562,177.7319183349609,163.9586639404297,15,136986.2384415,-0.9140777587890625,-0.3579254150390625,-0.2771148681640625,136986.236130625,0.4807647589415734,-0.2923490412956664,-2.042359597854137,136986.184347,0.5846768796531281,-1.290172355759428,0.276093744749325,0.3054835796356201,0.2086088061332703,-1.700108885765076,-0.1771926730871201,0.05845757573843002,0.01286523696035147,XTrueNorthZVertical,0.2769229922315951,-0.5385912186705133,0.1488594309033498,0.7817122423507684,-0.9244918823242188,-0.2725994288921356,-0.2664663195610046,-11.84839630126953,-9.664871215820312,-9.683058738708496,1,10.3.35.51,10.83.46.32,3,0
2015-02-27 17:02:22.073,129,1425085338.72534,37.78768364779677,-122.3967157605134,12.52686,-1,-1,10,65,-9999,1425085342.044164,-33.72941589355469,-28.91175842285156,-0.3394851684570312,182.7607727050781,168.9875183105469,15,136986.2875314167,-0.953704833984375,-0.4830780029296875,-0.1678619384765625,136986.2879142083,0.4691102333791686,-0.2046016118030816,-2.146080134932799,136986.236130625,0.5769237544842758,-1.289178271660302,0.3707618257701184,0.4777957797050476,-0.2825165092945099,-2.007277727127075,-0.08168496191501617,0.03830521181225777,-0.07343173027038574,XTrueNorthZVertical,0.3092543121988029,-0.524259849027943,0.1173234544571719,0.7846964971142055,-0.89533531665802,-0.3623256087303162,-0.2590267658233643,-11.00170993804932,-10.64751815795898,-9.651351928710938,1,10.3.35.51,10.83.46.32,3,0
2015-02-27 17:02:22.108,130,1425085338.72534,37.78768364779677,-122.3967157605134,12.52686,-1,-1,10,65,-9999,1425085342.09599,-30.04673004150391,-32.37789916992188,0.326141357421875,189.5344848632812,175.76123046875,15,136986.3366864167,-0.82513427734375,-0.6402587890625,-0.2077789306640625,136986.2879142083,0.4691102333791686,-0.2046016118030816,-2.146080134932799,136986.2879142083,0.5704947067368095,-1.301414417257625,0.4766799006958732,0.4661424458026886,-0.1947699040174484,-2.110998392105103,-0.09722572565078735,-0.02424627915024757,0.06860578805208206,XTrueNorthZVertical,0.345891878370464,-0.5119813897505076,0.08033172525282123,0.7821641026087943,-0.8564791083335876,-0.4588317275047302,-0.2364677339792252,-9.773336410522461,-12.11295795440674,-9.236557006835938,1,10.3.35.51,10.83.46.32,3,0
2015-02-27 17:02:22.202,131,1425085338.72534,37.78768364779677,-122.3967157605134,12.52686,-1,-1,10,65,-9999,1425085342.147333,-25.63090515136719,-35.79310607910156,1.141525268554688,196.4867248535156,182.7134704589844,15,136986.3856606667,-0.667938232421875,-0.83355712890625,-0.17950439453125,136986.3914826667,0.5457621348221563,-0.3294801647940961,-2.574858125183263,136986.339698875,0.563295482675425,-1.3044303776974,0.5905769970761572,0.498985767364502,-0.1660046577453613,-2.342970609664917,-0.02380750700831413,-0.08341840654611588,0.01086279656738043,XTrueNorthZVertical,0.3835626453991898,-0.4935168014618672,0.04165686005222329,0.7794777573511875,-0.8013267517089844,-0.5568403601646423,-0.2186417281627655,-8.648201942443848,-13.18776512145996,-8.879600524902344,1,10.3.35.51,10.83.46.32,3,0
2015-02-27 17:02:22.205,132,1425085338.72534,37.78768364779677,-122.3967157605134,12.52686,-1,-1,10,65,-9999,1425085342.199216,-20.82295227050781,-39.12335205078125,2.173233032226562,203.0469055175781,189.2736511230469,15,136986.4347112917,-0.7029266357421875,-0.9741363525390625,0.150360107421875,136986.3914826667,0.5457621348221563,-0.3294801647940961,-2.574858125183263,136986.3914826667,0.5549019733953655,-1.310270578529189,0.7169269775456347,0.5427944660186768,-0.3196484744548798,-2.539778232574463,0.06045207381248474,-0.1764858812093735,0.01467322558164597,XTrueNorthZVertical,0.423835076938093,-0.4725198596089464,-0.002186402486218297,0.7727121287656967,-0.7283902764320374,-0.6570712327957153,-0.1941776126623154,-7.266330718994141,-14.21332550048828,-8.528636932373047,1,10.3.35.51,10.83.46.32,3,0
2015-02-27 17:02:22.271,133,1425085338.72534,37.78768364779677,-122.3967157605134,12.52686,-1,-1,10,65,-9999,1425085342.250553,-14.85562896728516,-41.5020751953125,3.903846740722656,209.5660858154297,195.7928314208984,15,136986.4838007083,-0.2841796875,-0.5217742919921875,-0.1182098388671875,136986.4432661667,0.5770129986336912,0.3429067577458397,-2.972306688370034,136986.4432661667,0.5444197066268284,-1.308664650973385,0.857241905086961,0.5740454196929932,0.3527383506298065,-2.937227010726929,-0.07076017558574677,-0.2180961519479752,0.3199737668037415,XTrueNorthZVertical,0.4664644575971382,-0.4445268067732915,-0.04961178643287067,0.7631156550424789,-0.6321664452552795,-0.7560402154922485,-0.1696136593818665,-5.110429286956787,-15.43846321105957,-7.943121910095215,1,10.3.35.51,10.83.46.32,3,0
2015-02-27 17:02:22.304,134,1425085338.72534,37.78768364779677,-122.3967157605134,12.52686,-1,-1,10,65,-9999,1425085342.250553,-14.85562896728516,-41.5020751953125,3.903846740722656,209.5660858154297,195.7928314208984,15,136986.5328540833,0.329071044921875,-0.1370697021484375,-0.591949462890625,136986.4950509583,1.007920718807891,1.832427136497044,-2.366051115702837,136986.4950509583,0.5428360632752627,-1.239977691432627,0.999673807402884,1.00495457649231,1.842257976531982,-2.330972194671631,0.4001046717166901,0.5271162390708923,-0.1563509702682495,XTrueNorthZVertical,0.5125153508937744,-0.3866958104665992,-0.07677479426890212,0.7628237022380752,-0.5112649202346802,-0.8412947058677673,-0.1755887269973755,-2.924297332763672,-16.18283843994141,-7.557780265808105,1,10.3.35.51,10.83.46.32,3,0
2015-02-27 17:02:22.370,135,1425085338.72534,37.78768364779677,-122.3967157605134,12.52686,-1,-1,10,65,-9999,1425085342.355213,-4.762321472167969,-43.47305297851562,5.434776306152344,219.0968627929688,205.3236083984375,15,136986.5819591667,-0.4542999267578125,-0.2091522216796875,-0.1383209228515625,136986.54683475,-0.05655648680557675,-1.078742960624695,-0.8900737100430127,136986.54683475,0.5631113418363222,-1.2439560005084,1.093622904905179,-0.05952265113592148,-1.068912267684937,-0.8549951910972595,0.69736248254776,0.5356202125549316,-0.3453481495380402,XTrueNorthZVertical,0.5442335793152293,-0.3606729168209447,-0.09813647150468977,0.7510619785634469,-0.4349571168422699,-0.8882966041564941,-0.147449716925621,-0.582390308380127,-16.69372940063477,-6.966780662536621,1,10.3.35.51,10.83.46.32,3,0
2015-02-27 17:02:22.403,136,1425085338.72534,37.78768364779677,-122.3967157605134,12.52686,-1,-1,10,65,-9999,1425085342.355213,-4.762321472167969,-43.47305297851562,5.434776306152344,219.0968627929688,205.3236083984375,15,136986.6310204167,-0.3647003173828125,-0.5341644287109375,0.124359130859375,136986.5986181667,-0.7065688614472119,-1.19351188780166,1.477231221901034,136986.5986181667,0.512543397850091,-1.25488528846099,1.056955092767764,-0.7095350027084351,-1.18368124961853,1.512309432029724,0.02251537889242172,0.7247141599655151,0.144163653254509,XTrueNorthZVertical,0.52335921971615,-0.386963617246079,-0.1091450100881989,0.7512933230797433,-0.4672022759914398,-0.8708628416061401,-0.152708575129509,0.09803295135498047,-16.76069450378418,-6.828274726867676,1,10.3.35.51,10.83.46.32,3,0
2015-02-27 17:02:22.470,137,1425085338.72534,37.78768364779677,-122.3967157605134,12.52686,-1,-1,10,65,-9999,1425085342.411936,-4.8134765625,-43.59197998046875,4.918914794921875,221.5024108886719,207.7291564941406,15,136986.68012625,-0.54052734375,-0.8069915771484375,-0.1318511962890625,136986.6504032083,-0.3255381537485609,0.2920877851927296,2.832280075098649,136986.6504032083,0.554009304238743,-1.322219668615975,0.9429094986763817,-0.3285042643547058,0.3019182980060577,2.867357969284058,0.2213883250951767,0.2665002942085266,0.3998032510280609,XTrueNorthZVertical,0.4944199716290615,-0.4281203567504087,-0.07592527040519231,0.7526600889973794,-0.5693802833557129,-0.8092706799507141,-0.1445237100124359,-1.325840950012207,-16.53496551513672,-7.238292694091797,1,10.3.35.51,10.83.46.32,3,0
2015-02-27 17:02:22.505,138,1425085338.72534,37.78768364779677,-122.3967157605134,12.52686,-1,-1,10,65,-9999,1425085342.484473,-12.07655334472656,-42.57249450683594,4.020332336425781,214.4665832519531,200.6933288574219,15,136986.7291845834,-0.4624786376953125,-0.861114501953125,-0.2943115234375,136986.702186625,-0.7624710095729561,0.6490704145640741,2.871757443517438,136986.702186625,0.5724325450376021,-1.303053079413079,0.7899139461954795,-0.7654362916946411,0.6589007973670959,2.906832695007324,0.3127834498882294,-0.1206246539950371,-0.01154665555804968,XTrueNorthZVertical,0.4515272050965392,-0.4505684500221411,-0.01662227593850245,0.7699577646276456,-0.6788265109062195,-0.7102926969528198,-0.1862225085496902,-3.383625507354736,-16.18396949768066,-7.361117362976074,1,10.3.35.51,10.83.46.32,3,0
2015-02-27 17:02:22.558,139,1425085338.72534,37.78768364779677,-122.3967157605134,12.52686,-1,-1,10,65,-9999,1425085342.536798,-18.89633941650391,-39.92190551757812,2.922050476074219,203.5199737548828,189.7467193603516,15,136986.778291625,-0.9082183837890625,-0.5813140869140625,-0.36572265625,136986.7539704167,-0.8707088004926106,-0.3087823431181093,3.044141197717178,136986.7539704167,0.5652952749973996,-1.289288084784832,0.6294230369853492,-0.8736746311187744,-0.2989499568939209,3.079208374023438,0.2307868599891663,-0.2637080252170563,0.09380052238702774,XTrueNorthZVertical,0.3969668626384465,-0.4797219377975662,0.03335153751124251,0.7817748088636499,-0.7765479683876038,-0.5886784791946411,-0.2245683521032333,-5.961082935333252,-14.95290374755859,-8.272363662719727,1,10.3.35.51,10.83.46.32,3,0
2015-02-27 17:02:22.605,140,1425085338.72534,37.78768364779677,-122.3967157605134,12.52686,-1,-1,10,65,-9999,1425085342.588284,-25.46040344238281,-36.33680725097656,1.740577697753906,195.3251342773438,181.5518798828125,15,136986.82735625,-1.235244750976562,-0.49310302734375,-0.26458740234375,136986.805755125,-0.4316352957840096,-0.6294663531477828,2.850841775264283,136986.7539704167,0.5652952749973996,-1.289288084784832,0.6294230369853492,-0.8736746311187744,-0.2989499568939209,3.079208374023438,0.2307868599891663,-0.2637080252170563,0.09380052238702774,XTrueNorthZVertical,0.3969668626384465,-0.4797219377975662,0.03335153751124251,0.7817748088636499,-0.7765479683876038,-0.5886784791946411,-0.2245683521032333,-5.961082935333252,-14.95290374755859,-8.272363662719727,1,10.3.35.51,10.83.46.32,3,0
2015-02-27 17:02:22.658,141,1425085338.72534,37.78768364779677,-122.3967157605134,12.52686,-1,-1,10,65,-9999,1425085342.641268,-30.93328857421875,-31.59626770019531,0.9251937866210938,189.3149719238281,175.5417175292969,15,136986.8765895833,-1.058700561523438,-0.5098724365234375,-0.18914794921875,136986.8575388333,-0.8426651815818582,0.4577454597433645,2.360536774349719,136986.8575388333,0.5838263431183545,-1.337216808746887,0.3358262276958254,-0.845630943775177,0.4675776660442352,2.395603179931641,-0.08014253526926041,-0.03409810364246368,0.06888855993747711,XTrueNorthZVertical,0.301480075706919,-0.547580143018331,0.1234273629421567,0.7707343520736197,-0.9184994101524353,-0.3295493423938751,-0.2185315042734146,-10.01252841949463,-12.28399658203125,-8.74119758605957,1,10.3.35.51,10.83.46.32,3,0
2015-02-27 17:02:22.710,142,1425085338.72534,37.78768364779677,-122.3967157605134,12.52686,-1,-1,10,65,-9999,1425085342.69166,-35.41731262207031,-27.12767028808594,-0.5891036987304688,182.4475250244141,168.6742706298828,15,136986.9255385,-1.231781005859375,-0.0989227294921875,-0.3131561279296875,136986.9093223333,-0.5609946173090825,0.5530685172727887,1.996778264216886,136986.9093223333,0.5762189389837993,-1.310453296446319,0.2166221053238674,-0.563957691192627,0.5628507137298584,2.031999349594116,-0.3857799470424652,-0.0206180214881897,-0.007942307740449905,XTrueNorthZVertical,0.2543033062417014,-0.5564456780942182,0.1608230447816201,0.7744895018639034,-0.9437183141708374,-0.2149319052696228,-0.2513960599899292,-11.65350341796875,-10.23480796813965,-9.327402114868164,1,10.3.35.51,10.83.46.32,3,0
2015-02-27 17:02:22.755,143,1425085338.72534,37.78768364779677,-122.3967157605134,12.52686,-1,-1,10,65,-9999,1425085342.744017,-38.57146453857422,-23.47459411621094,-1.936988830566406,177.4449768066406,163.6717224121094,15,136986.9746404583,-1.2486572265625,0.0625,-0.396636962890625,136986.9611072917,-0.2198005384602728,0.104426008451424,1.123110691753197,136986.9611072917,0.577734552913774,-1.29337555962928,0.1391796524057946,-0.2227635681629181,0.1142081022262573,1.158331394195557,-0.319309413433075,0.1334054321050644,-0.1729710102081299,XTrueNorthZVertical,0.2244243168796492,-0.5603748065591917,0.1866358668936409,0.7751005482007695,-0.9524648785591125,-0.1387307494878769,-0.2712275981903076,-12.27530670166016,-8.914939880371094,-9.868968963623047,1,10.3.35.51,10.83.46.32,3,0
2015-02-27 17:02:22.812,144,1425085338.72534,37.78768364779677,-122.3967157605134,12.52686,-1,-1,10,65,-9999,1425085342.800765,-40.37870025634766,-20.68807983398438,-2.8355712890625,174.4334869384766,160.6602325439453,15,136987.023707625,-1.335174560546875,0.071868896484375,-0.3048095703125,136987.0128907917,0.006592122646273138,-0.2791418928177454,-0.05412608599477044,136986.9611072917,0.577734552913774,-1.29337555962928,0.1391796524057946,-0.2227635681629181,0.1142081022262573,1.158331394195557,-0.319309413433075,0.1334054321050644,-0.1729710102081299,XTrueNorthZVertical,0.2244243168796492,-0.5603748065591917,0.1866358668936409,0.7751005482007695,-0.9524648785591125,-0.1387307494878769,-0.2712275981903076,-12.27530670166016,-8.914939880371094,-9.868968963623047,1,10.3.35.51,10.83.46.32,3,0
2015-02-27 17:02:22.853,145,1425085338.72534,37.78768364779677,-122.3967157605134,12.52686,-1,-1,10,65,-9999,1425085342.800765,-40.37870025634766,-20.68807983398438,-2.8355712890625,174.4334869384766,160.6602325439453,15,136987.0729162917,-1.330215454101562,-0.0387725830078125,-0.27105712890625,136987.0646745834,0.211873106843434,0.4095209387242096,-0.8938761714474279,136987.0646745834,0.5787557447262647,-1.303184894091445,0.1431730254583978,0.2089101225137711,0.4193028211593628,-0.8586561679840088,-0.3761202692985535,0.05163519456982613,0.07327703386545181,XTrueNorthZVertical,0.2271184674541062,-0.5635207747484635,0.1847376188470967,0.7724853104210572,-0.9545376896858215,-0.1426843851804733,-0.2617230713367462,-12.81497287750244,-8.071556091308594,-9.908698081970215,1,10.3.35.51,10.83.46.32,3,0
2015-02-27 17:02:22.903,146,1425085338.72534,37.78768364779677,-122.3967157605134,12.52686,-1,-1,10,65,-9999,1425085342.87675,-40.51509857177734,-20.82398986816406,-2.669174194335938,174.916015625,161.1427612304688,15,136987.1218657084,-1.01806640625,-0.186614990234375,-0.4441375732421875,136987.0646745834,0.211873106843434,0.4095209387242096,-0.8938761714474279,136987.0646745834,0.5787557447262647,-1.303184894091445,0.1431730254583978,0.2089101225137711,0.4193028211593628,-0.8586561679840088,-0.3761202692985535,0.05163519456982613,0.07327703386545181,XTrueNorthZVertical,0.2271184674541062,-0.5635207747484635,0.1847376188470967,0.7724853104210572,-0.9545376896858215,-0.1426843851804733,-0.2617230713367462,-12.81497287750244,-8.071556091308594,-9.908698081970215,1,10.3.35.51,10.83.46.32,3,0
2015-02-27 17:02:22.952,147,1425085338.72534,37.78768364779677,-122.3967157605134,12.52686,-1,-1,10,65,-9999,1425085342.87675,-40.51509857177734,-20.82398986816406,-2.669174194335938,174.916015625,161.1427612304688,15,136987.1710611667,-0.948089599609375,-0.2716217041015625,-0.37762451171875,136987.168243,0.5253021334315136,0.07393627607943386,-1.853526030233197,136987.11645925,0.5730940339840206,-1.265981270739803,0.2026822236138616,0.3063813149929047,0.6903038620948792,-1.430795907974243,-0.1657366454601288,0.05456885322928429,-0.1417718082666397,XTrueNorthZVertical,0.2445831415127394,-0.5414724128759989,0.169307662024936,0.7863343010622613,-0.9343762397766113,-0.2012973725795746,-0.2939734160900116,-12.33102321624756,-8.661464691162109,-10.02400970458984,1,10.3.35.51,10.83.46.32,3,0
