loggingTime,loggingSample,locationTimestamp_since1970,locationLatitude,locationLongitude,locationAltitude,locationSpeed,locationCourse,locationVerticalAccuracy,locationHorizontalAccuracy,locationFloor,locationHeadingTimestamp_since1970,locationHeadingX,locationHeadingY,locationHeadingZ,locationTrueHeading,locationMagneticHeading,locationHeadingAccuracy,accelerometerTimestamp_sinceReboot,accelerometerAccelerationX,accelerometerAccelerationY,accelerometerAccelerationZ,gyroTimestamp_sinceReboot,gyroRotationX,gyroRotationY,gyroRotationZ,motionTimestamp_sinceReboot,motionYaw,motionRoll,motionPitch,motionRotationRateX,motionRotationRateY,motionRotationRateZ,motionUserAccelerationX,motionUserAccelerationY,motionUserAccelerationZ,motionAttitudeReferenceFrame,motionQuaternionX,motionQuaternionY,motionQuaternionZ,motionQuaternionW,motionGravityX,motionGravityY,motionGravityZ,motionMagneticFieldX,motionMagneticFieldY,motionMagneticFieldZ,motionMagneticFieldCalibrationAccuracy,IP_en0,IP_pdp_ip0,deviceOrientation,state
2015-02-27 20:26:10.310,1,1425097570.073702,37.7874965157336,-122.3969322009846,17.17057,0.2697802,-1,10,200,-9999,1425097570.265945,8.936050415039062,-31.93075561523438,2.777290344238281,227.8122711181641,214.0389709472656,10,139597.5454198333,-0.263824462890625,-0.8472747802734375,-0.42901611328125,139597.5302294584,-0.05991766241736576,-0.04515496154672952,-0.02444009563976618,139597.5302294584,-2.686253010391472,-0.5813948062917658,1.03386573620525,-0.06396085023880005,-0.03781644627451897,-0.001561534008942544,0.0005462400149554014,0.0008995536481961608,-0.007781707216054201,XTrueNorthZVertical,0.1358720493339773,0.5175024543048339,0.8433452697458598,-0.04998732822741201,-0.2809112370014191,-0.8592827320098877,-0.4274599850177765,9.82185173034668,-35.55105972290039,3.205977439880371,2,10.3.35.51,10.83.46.32,1,0
2015-02-27 20:26:10.312,2,1425097570.073702,37.7874965157336,-122.3969322009846,17.17057,0.2697802,-1,10,200,-9999,1425097570.265945,8.936050415039062,-31.93075561523438,2.777290344238281,227.8122711181641,214.0389709472656,10,139597.594419625,-0.2817230224609375,-0.850738525390625,-0.4396514892578125,139597.5820126667,-0.02438789768240062,-0.03721714360163934,-0.08708829712279018,139597.5302294584,-2.686253010391472,-0.5813948062917658,1.03386573620525,-0.06396085023880005,-0.03781644627451897,-0.001561534008942544,0.0005462400149554014,0.0008995536481961608,-0.007781707216054201,XTrueNorthZVertical,0.1358720493339773,0.5175024543048339,0.8433452697458598,-0.04998732822741201,-0.2809112370014191,-0.8592827320098877,-0.4274599850177765,9.82185173034668,-35.55105972290039,3.205977439880371,2,10.3.35.51,10.83.46.32,1,0
2015-02-27 20:26:10.361,3,1425097570.073702,37.7874965157336,-122.3969322009846,17.17057,0.2697802,-1,10,200,-9999,1425097570.318562,8.578105926513672,-31.91377258300781,2.560920715332031,227.8235778808594,214.0502777099609,10,139597.6434302917,-0.27825927734375,-0.8486480712890625,-0.4372711181640625,139597.633796125,-0.04262549114337225,-0.06630738482079288,-0.0765355213033512,139597.633796125,-2.699401286831146,-0.572794812000089,1.032014637619739,-0.0466773584485054,-0.05896542221307755,-0.05365874990820885,-0.002049762522801757,0.00973212718963623,-0.01452849619090557,XTrueNorthZVertical,0.1359375089106994,0.5156772230113752,0.8446246307482929,-0.04698094783540804,-0.2780863344669342,-0.8583344221115112,-0.431196004152298,9.973899841308594,-35.52595138549805,3.008792877197266,2,10.3.35.51,10.83.46.32,1,0
2015-02-27 20:26:10.393,4,1425097570.073702,37.7874965157336,-122.3969322009846,17.17057,0.2697802,-1,10,200,-9999,1425097570.370404,8.680377960205078,-32.25361633300781,2.760650634765625,227.7974548339844,214.0241546630859,10,139597.692435,-0.297882080078125,-0.8592529296875,-0.44091796875,139597.6855804583,-0.03547943099036264,-0.02895894737741263,-0.06648208818830208,139597.633796125,-2.699401286831146,-0.572794812000089,1.032014637619739,-0.0466773584485054,-0.05896542221307755,-0.05365874990820885,-0.002049762522801757,0.00973212718963623,-0.01452849619090557,XTrueNorthZVertical,0.1359375089106994,0.5156772230113752,0.8446246307482929,-0.04698094783540804,-0.2780863344669342,-0.8583344221115112,-0.431196004152298,9.973899841308594,-35.52595138549805,3.008792877197266,2,10.3.35.51,10.83.46.32,1,0
2015-02-27 20:26:10.460,5,1425097570.073702,37.7874965157336,-122.3969322009846,17.17057,0.2697802,-1,10,200,-9999,1425097570.422568,8.680377960205078,-32.38954162597656,3.126815795898438,227.7494506835938,213.9761505126953,10,139597.7414579583,-0.277313232421875,-0.8496551513671875,-0.431396484375,139597.7373639584,-0.04870495527980514,-0.075991437492648,-0.0738334780613568,139597.6855804583,-2.705458788813602,-0.5702501036261309,1.030270731858707,-0.03953174129128456,-0.02161969430744648,-0.04360098391771317,-0.03151509165763855,-0.002775897737592459,-0.002843052381649613,XTrueNorthZVertical,0.1366993430599315,0.5145216190635464,0.8452939242816067,-0.04537571689334288,-0.277795821428299,-0.857438325881958,-0.433161586523056,10.07592964172363,-35.51155853271484,2.833639144897461,2,10.3.35.51,10.83.46.32,1,0
2015-02-27 20:26:10.492,6,1425097570.073702,37.7874965157336,-122.3969322009846,17.17057,0.2697802,-1,10,200,-9999,1425097570.473334,9.10650634765625,-32.54248046875,2.744010925292969,227.7419891357422,213.9686889648438,10,139597.7904702917,-0.2655029296875,-0.8548583984375,-0.4307098388671875,139597.789147125,-0.05003999793426187,-0.058951201257776,-0.0779307513984437,139597.7373639584,-2.711474096910942,-0.5690625118569349,1.028743962450768,-0.05275895446538925,-0.06865350157022476,-0.05094950273633003,0.0004746924387291074,0.00582160335034132,0.002952861366793513,XTrueNorthZVertical,0.1379833564236531,0.5134820835415842,0.8458211215294944,-0.04339763350942424,-0.2779862880706787,-0.8566516637802124,-0.4345934987068176,10.09833717346191,-35.51434326171875,2.716564178466797,2,10.3.35.51,10.83.46.32,1,0
2015-02-27 20:26:10.562,7,1425097570.073702,37.7874965157336,-122.3969322009846,17.17057,0.2697802,-1,10,200,-9999,1425097570.525421,9.430362701416016,-32.38954162597656,2.7939453125,227.7565765380859,213.9832763671875,10,139597.8395922917,-0.270751953125,-0.8602447509765625,-0.429351806640625,139597.8409317083,-0.03166578430936916,-0.05069833135572945,-0.07327927423851131,139597.789147125,-2.718891669827578,-0.5651482980728739,1.027857145066732,-0.05409301817417145,-0.0516134575009346,-0.05504737421870232,0.004106802865862846,0.004310905002057552,0.008661568164825439,XTrueNorthZVertical,0.1383680958431302,0.5125372625300525,0.8464305847690655,-0.04141341239523488,-0.2766897976398468,-0.8561938405036926,-0.4363196492195129,10.1983814239502,-35.49503707885742,2.592342376708984,2,10.3.35.51,10.83.46.32,1,0
2015-02-27 20:26:10.594,8,1425097570.073702,37.7874965157336,-122.3969322009846,17.17057,0.2697802,-1,10,200,-9999,1425097570.577714,9.276962280273438,-32.20260620117188,2.710716247558594,227.7655792236328,213.9922790527344,10,139597.8884915417,-0.272430419921875,-0.8587799072265625,-0.4295806884765625,139597.8409317083,-0.03166578430936916,-0.05069833135572945,-0.07327927423851131,139597.8409317083,-2.725065311609089,-0.5624926294881961,1.028242484180428,-0.03571493178606033,-0.04336096346378326,-0.05039799585938454,0.004602194298058748,-0.003851887537166476,0.007421974092721939,XTrueNorthZVertical,0.1387662867687649,0.512207992196225,0.8466600548804164,-0.03941602268601722,-0.2753541469573975,-0.8563928604125977,-0.4367737770080566,10.32621192932129,-35.46662902832031,2.472319602966309,2,10.3.35.51,10.83.46.32,1,0
2015-02-27 20:26:10.647,9,1425097570.073702,37.7874965157336,-122.3969322009846,17.17057,0.2697802,-1,10,200,-9999,1425097570.628604,9.294002532958984,-32.04965209960938,2.228050231933594,227.8015441894531,214.0282440185547,10,139597.9375075417,-0.2739105224609375,-0.8556671142578125,-0.42486572265625,139597.9444984167,-0.01541783849879573,-0.09580535600283754,-0.06483066199634394,139597.8927149167,-2.731150854901859,-0.5605571641701669,1.028801216791463,-0.03423258289694786,-0.08351065218448639,-0.04082760214805603,0.001823413535021245,-0.002098690019920468,0.007319878786802292,XTrueNorthZVertical,0.139419807590371,0.5119685865990936,0.8467958957278071,-0.03724212069021303,-0.2742538452148438,-0.856681227684021,-0.4369005560874939,10.43477058410645,-35.43912124633789,2.410173416137695,2,10.3.35.51,10.83.46.32,1,0
2015-02-27 20:26:10.692,10,1425097570.073702,37.7874965157336,-122.3969322009846,17.17057,0.2697802,-1,10,200,-9999,1425097570.68032,9.481498718261719,-31.69282531738281,1.745384216308594,227.8893432617188,214.1160430908203,10,139597.9865101667,-0.27911376953125,-0.87225341796875,-0.41864013671875,139597.9444984167,-0.01541783849879573,-0.09580535600283754,-0.06483066199634394,139597.9444984167,-2.735445605844793,-0.5617343769236105,1.029320471823383,-0.01946253329515457,-0.0884680449962616,-0.04195258021354675,0.0006204646779224277,0.001281843171454966,0.01133514847606421,XTrueNorthZVertical,0.1409388404331721,0.5118943324583124,0.8466834536990598,-0.03503635075769893,-0.2745309770107269,-0.8569489717483521,-0.4362008571624756,10.51578426361084,-35.42021942138672,2.334757804870605,2,10.3.35.51,10.83.46.32,1,0
2015-02-27 20:26:10.745,11,1425097570.073702,37.7874965157336,-122.3969322009846,17.17057,0.2697802,-1,10,200,-9999,1425097570.731871,9.634910583496094,-31.40394592285156,1.861885070800781,227.9897766113281,214.2164764404297,10,139598.0355408333,-0.261505126953125,-0.88616943359375,-0.4034271240234375,139597.9962828333,-0.01049791470098335,-0.09810126717859485,-0.07579036883034702,139597.9962828333,-2.739003061040134,-0.5636807613552566,1.030861887756802,-0.01453789509832859,-0.090765580534935,-0.05291251838207245,-0.004440381657332182,-0.01451103109866381,0.01590848714113235,XTrueNorthZVertical,0.1424408504639454,0.5122853621328579,0.8462859943119245,-0.03277664843702648,-0.2746734023094177,-0.8577423691749573,-0.4345486164093018,10.62271881103516,-35.39234924316406,2.272461891174316,2,10.3.35.51,10.83.46.32,1,0
2015-02-27 20:26:10.808,12,1425097570.073702,37.7874965157336,-122.3969322009846,17.17057,0.2697802,-1,10,200,-9999,1425097570.785466,9.549690246582031,-31.93075561523438,2.011672973632812,228.0771636962891,214.3038635253906,10,139598.0845549583,-0.2284698486328125,-0.891387939453125,-0.3622589111328125,139598.0480660417,-0.012603676174909,-0.1592445163296151,-0.1170552509727978,139598.0480660417,-2.74456006257503,-0.56503134169521,1.035352338935577,-0.01662928983569145,-0.1519114077091217,-0.09418227523565292,0.01410068664699793,-0.03976861014962196,0.03162790462374687,XTrueNorthZVertical,0.1437623873043454,0.5136851443154626,0.845339775759805,-0.02933586563052845,-0.2731949388980865,-0.8600421547889709,-0.430919885635376,10.75068759918213,-35.35384750366211,2.270044326782227,2,10.3.35.51,10.83.46.32,1,0
2015-02-27 20:26:10.843,13,1425097570.073702,37.7874965157336,-122.3969322009846,17.17057,0.2697802,-1,10,200,-9999,1425097570.835834,10.02694702148438,-32.37255859375,1.612220764160156,230.5304260253906,216.7571258544922,10,139598.1335813333,-0.20123291015625,-0.8588714599609375,-0.304840087890625,139598.099849375,-0.04030747573056728,-0.2527667443299277,-0.1660195981427766,139598.099849375,-2.755058655450982,-0.5659738274237062,1.039185398337772,-0.04432521387934685,-0.245434507727623,-0.1431505084037781,0.05054821819067001,-0.01691467687487602,0.07487969845533371,XTrueNorthZVertical,0.1462879838466578,0.51445268481943,0.8446070335056565,-0.02402500374001363,-0.2718311846256256,-0.8619915843009949,-0.4278765320777893,10.96700477600098,-35.28737258911133,2.269566535949707,2,10.3.35.51,10.83.46.32,1,0
2015-02-27 20:26:10.895,14,1425097570.073702,37.7874965157336,-122.3969322009846,17.17057,0.2697802,-1,10,200,-9999,1425097570.887415,10.31671142578125,-31.94772338867188,1.429145812988281,232.62939453125,218.8560943603516,10,139598.1825893333,-0.1888427734375,-0.8694000244140625,-0.2818603515625,139598.1516337917,-0.08745900914652921,-0.3893626734850729,-0.3178341613471797,139598.1516337917,-2.777248376231996,-0.5627852490083707,1.045192960424474,-0.09146396070718765,-0.3820314407348633,-0.2949720919132233,0.06455741822719574,0.007355353329330683,0.1263189166784286,XTrueNorthZVertical,0.1497777830341893,0.5151599979162946,0.843781108856439,-0.01449874411864201,-0.267697662115097,-0.8650213479995728,-0.4243535697460175,11.38882255554199,-35.16843414306641,2.024980545043945,2,10.3.35.51,10.83.46.32,1,0
2015-02-27 20:26:10.941,15,1425097570.073702,37.7874965157336,-122.3969322009846,17.17057,0.2697802,-1,10,200,-9999,1425097570.887415,10.31671142578125,-31.94772338867188,1.429145812988281,232.62939453125,218.8560943603516,10,139598.2316047917,-0.20025634765625,-0.8322601318359375,-0.2851409912109375,139598.20341725,-0.07293226434847398,-0.5753546482228988,-0.5223337740805112,139598.20341725,-2.816242942934205,-0.5527802692302245,1.052544445364449,-0.07693453133106232,-0.5680237412452698,-0.4994731247425079,0.06023306027054787,0.0009496422135271132,0.1277180016040802,XTrueNorthZVertical,0.1545779250079199,0.5150846115154987,0.8430855246072113,0.0005359717622637229,-0.2600926756858826,-0.8686864376068115,-0.4215870201587677,11.98614883422852,-34.98523712158203,1.72923755645752,2,10.3.35.51,10.83.46.32,1,0
2015-02-27 20:26:10.990,16,1425097570.073702,37.7874965157336,-122.3969322009846,17.17057,0.2697802,-1,10,200,-9999,1425097570.939616,10.87919998168945,-31.42094421386719,1.146202087402344,234.6840972900391,220.9107971191406,10,139598.2806104167,-0.1668548583984375,-0.8507232666015625,-0.28662109375,139598.255200625,-0.002717223260207847,-0.6328853193552265,-0.7583103530019253,139598.255200625,-2.87414270931879,-0.5327844691693222,1.067610274949602,-0.006719227880239487,-0.6255545616149902,-0.7354499697685242,0.06506479531526566,0.04148642718791962,0.1354286372661591,XTrueNorthZVertical,0.1591594049341033,0.5166986169969687,0.8409553358542142,0.02202106038639534,-0.2449353933334351,-0.8760506510734558,-0.4153816401958466,12.85659408569336,-34.69328689575195,1.307147026062012,2,10.3.35.51,10.83.46.32,1,0
2015-02-27 20:26:11.040,17,1425097570.073702,37.7874965157336,-122.3969322009846,17.17057,0.2697802,-1,10,200,-9999,1425097570.991279,11.61213684082031,-31.0640869140625,0.596954345703125,237.2756958007812,223.5023956298828,10,139598.3296345834,-0.1588592529296875,-0.8115081787109375,-0.336395263671875,139598.306984875,0.1458173907456536,-0.6418199584963333,-0.96752029875528,139598.306984875,-2.950348301787032,-0.4971757573136077,1.09152098175082,0.1418154090642929,-0.6344892382621765,-0.9446601867675781,0.05453141778707504,0.06422445923089981,0.09186186641454697,XTrueNorthZVertical,0.1612984811475634,0.5208923522728307,0.8368675550019503,0.0480274264977629,-0.2199366986751556,-0.8873293399810791,-0.4053079187870026,14.49747467041016,-34.05548858642578,0.8195838928222656,2,10.3.35.51,10.83.46.32,1,0
2015-02-27 20:26:11.115,18,1425097571.080883,37.78750701105712,-122.3969221434144,17.15863,3.922354e-07,-1,10,200,-9999,1425097571.094729,14.50979232788086,-30.28239440917969,0.5636672973632812,243.9631500244141,230.1898498535156,10,139598.3786341667,-0.1212310791015625,-0.7821807861328125,-0.3589019775390625,139598.3587682083,0.3283291465709639,-0.5822120217137438,-1.161396561900286,139598.3587682083,-3.043482477582096,-0.4450848525782331,1.126711206717336,0.3243272304534912,-0.574881374835968,-1.13853657245636,0.04611635953187943,0.105152539908886,0.04727475717663765,XTrueNorthZVertical,0.160838366071841,0.5293804894693731,0.829405757503489,0.07728769485723799,-0.1849713325500488,-0.9030041098594666,-0.387774646282196,16.017822265625,-33.37088012695312,0.6623449325561523,2,10.3.35.51,10.83.46.32,1,0
2015-02-27 20:26:11.140,19,1425097571.080883,37.78750701105712,-122.3969221434144,17.15863,3.922354e-07,-1,10,200,-9999,1425097571.094729,14.50979232788086,-30.28239440917969,0.5636672973632812,243.9631500244141,230.1898498535156,10,139598.4276549167,-0.1330108642578125,-0.826507568359375,-0.3630218505859375,139598.4105515833,0.5410446112671899,-0.4279697208596246,-1.223162724430275,139598.4105515833,3.130378696114236,-0.3696792399762322,1.170209859571307,0.5371065735816956,-0.4205344319343567,-1.200135588645935,0.01569999195635319,0.1091869473457336,0.0002565645554568619,XTrueNorthZVertical,0.1562578574663635,0.5420114645781001,0.8188714260055566,0.1060972332595208,-0.1408983618021011,-0.9208324551582336,-0.3636141121387482,17.72159385681152,-32.49620819091797,0.7526454925537109,2,10.3.35.51,10.83.46.32,1,0
2015-02-27 20:26:11.196,20,1425097571.080883,37.78750701105712,-122.3969221434144,17.15863,3.922354e-07,-1,10,200,-9999,1425097571.147024,16.14612197875977,-29.56871032714844,0.5303726196289062,247.8823089599609,234.1090087890625,10,139598.4766657084,-0.1248321533203125,-0.8757171630859375,-0.3732452392578125,139598.462336,0.6540180352372232,-0.2368445031206709,-1.341949030111625,139598.4105515833,3.130378696114236,-0.3696792399762322,1.170209859571307,0.5371065735816956,-0.4205344319343567,-1.200135588645935,0.01569999195635319,0.1091869473457336,0.0002565645554568619,XTrueNorthZVertical,0.1562578574663635,0.5420114645781001,0.8188714260055566,0.1060972332595208,-0.1408983618021011,-0.9208324551582336,-0.3636141121387482,17.72159385681152,-32.49620819091797,0.7526454925537109,2,10.3.35.51,10.83.46.32,1,0
2015-02-27 20:26:11.241,21,1425097571.080883,37.78750701105712,-122.3969221434144,17.15863,3.922354e-07,-1,10,200,-9999,1425097571.198889,17.96994018554688,-28.36216735839844,0.51373291015625,253.4735870361328,239.7002868652344,10,139598.5257846667,-0.0571136474609375,-0.875152587890625,-0.3277435302734375,139598.5141194584,0.7669499138942514,-0.02907239803985,-1.362075071101571,139598.5141194584,2.803282944035454,-0.08532169020890801,1.264892206199265,0.7630118131637573,-0.02163723483681679,-1.339048266410828,-0.07913344353437424,0.08055870234966278,-0.04961051791906357,XTrueNorthZVertical,0.1333321811199732,0.5763615043707778,0.7901044348687928,0.1605145125703096,-0.02566392347216606,-0.953575074672699,-0.3000598847866058,21.92747116088867,-29.75864601135254,2.057637214660645,2,10.3.35.51,10.83.46.32,1,0
2015-02-27 20:26:11.291,22,1425097571.080883,37.78750701105712,-122.3969221434144,17.15863,3.922354e-07,-1,10,200,-9999,1425097571.249854,19.69149398803711,-27.32557678222656,1.2626953125,258.1117858886719,244.3385009765625,10,139598.5746775417,0.0381011962890625,-0.8705902099609375,-0.276519775390625,139598.5659025833,0.7386852526130224,0.1756820792098021,-1.343952259883582,139598.5141194584,2.803282944035454,-0.08532169020890801,1.264892206199265,0.7630118131637573,-0.02163723483681679,-1.339048266410828,-0.07913344353437424,0.08055870234966278,-0.04961051791906357,XTrueNorthZVertical,0.1333321811199732,0.5763615043707778,0.7901044348687928,0.1605145125703096,-0.02566392347216606,-0.953575074672699,-0.3000598847866058,21.92747116088867,-29.75864601135254,2.057637214660645,2,10.3.35.51,10.83.46.32,1,0
2015-02-27 20:26:11.334,23,1425097571.080883,37.78750701105712,-122.3969221434144,17.15863,3.922354e-07,-1,10,200,-9999,1425097571.302854,21.87326812744141,-25.83018493652344,2.427749633789062,261.2752685546875,247.5019683837891,10,139598.6237002917,0.1385955810546875,-0.9018402099609375,-0.2325897216796875,139598.6176872083,0.7299671284685391,0.4171415741834714,-1.124962121343021,139598.5659025833,2.566417664925607,0.1472027518144458,1.300517703087324,0.7347471117973328,0.1831171661615372,-1.32092559337616,-0.02555049397051334,0.09098535776138306,-0.01997577585279942,XTrueNorthZVertical,0.1151236458123411,0.5955588690431963,0.7737996880224773,0.1824560316431175,0.03916133195161819,-0.9636965394020081,-0.2641123533248901,23.67607498168945,-28.29746246337891,3.053162574768066,2,10.3.35.51,10.83.46.32,1,0
2015-02-27 20:26:11.395,24,1425097571.080883,37.78750701105712,-122.3969221434144,17.15863,3.922354e-07,-1,10,200,-9999,1425097571.357582,23.44141387939453,-24.23281860351562,3.559524536132812,264.1994018554688,250.4261169433594,10,139598.6727085,0.1707611083984375,-0.869873046875,-0.194915771484375,139598.6694704167,0.6391237742087371,0.4410160144077048,-0.8171528972872261,139598.6176872083,2.297448816007575,0.423760682780337,1.318635702327491,0.7260289788246155,0.4245765805244446,-1.101935625076294,0.01546632219105959,0.07672827690839767,-0.02629460021853447,XTrueNorthZVertical,0.09369672038227406,0.6144156997143468,0.7576939878260182,0.1990328473750374,0.1025909259915352,-0.9683756232261658,-0.2274285405874252,25.7304801940918,-26.21615028381348,4.613095760345459,2,10.3.35.51,10.83.46.32,1,0
2015-02-27 20:26:11.433,25,1425097571.080883,37.78750701105712,-122.3969221434144,17.15863,3.922354e-07,-1,10,200,-9999,1425097571.357582,23.44141387939453,-24.23281860351562,3.559524536132812,264.1994018554688,250.4261169433594,10,139598.7218365417,0.1700286865234375,-0.85089111328125,-0.1395416259765625,139598.721253875,0.6575619036997917,0.8624724421893225,-0.5770673271199287,139598.6694704167,2.069056483959181,0.6673763213879684,1.324126010321627,0.635185718536377,0.4484509527683258,-0.7941266894340515,0.02041187882423401,0.07722899317741394,-0.001891919528134167,XTrueNorthZVertical,0.07470050601016424,0.6312890696008361,0.7434820242397397,0.2076737961912602,0.151127427816391,-0.9697308540344238,-0.1917878836393356,26.79535675048828,-24.84586143493652,5.942794799804688,2,10.3.35.51,10.83.46.32,1,0
2015-02-27 20:26:11.494,26,1425097571.080883,37.78750701105712,-122.3969221434144,17.15863,3.922354e-07,-1,10,200,-9999,1425097571.48352,26.76519775390625,-21.49687194824219,7.271087646484375,268.7177124023438,254.9444274902344,10,139598.7707277084,0.2161102294921875,-0.766845703125,-0.05914306640625,139598.721253875,0.6575619036997917,0.8624724421893225,-0.5770673271199287,139598.721253875,1.878629119993226,0.8842851255832008,1.323367275153564,0.6536238789558411,0.8699072599411011,-0.55404132604599,-0.02104944735765457,0.1101245060563087,0.004585667047649622,XTrueNorthZVertical,0.05537466530690045,0.6475459833985636,0.7307784120548247,0.2087600040451683,0.1894301772117615,-0.969545304775238,-0.155235692858696,27.49754524230957,-23.70866966247559,7.239385604858398,2,10.3.35.51,10.83.46.32,1,0
2015-02-27 20:26:11.557,27,1425097571.080883,37.78750701105712,-122.3969221434144,17.15863,3.922354e-07,-1,10,200,-9999,1425097571.535731,26.4583854675293,-20.40931701660156,9.468055725097656,266.9907531738281,253.2174682617188,10,139598.8198404167,0.2864532470703125,-0.7682952880859375,0.0140838623046875,139598.824821625,0.4043930220452621,1.741299622948931,-0.06425595183310484,139598.7730381667,1.718274510331095,1.097596170926692,1.324950583418443,0.6382957696914673,1.391948580741882,-0.2956404089927673,-0.0005228409427218139,0.2030861377716064,0.05177270993590355,XTrueNorthZVertical,0.03122740101384454,0.6660082292845459,0.7189619167896522,0.1963456929629694,0.216633066534996,-0.9699318408966064,-0.1109157726168633,27.7249641418457,-22.52145385742188,9.733207702636719,2,10.3.35.51,10.83.46.32,1,0
2015-02-27 20:26:11.590,28,1425097571.080883,37.78750701105712,-122.3969221434144,17.15863,3.922354e-07,-1,10,200,-9999,1425097571.535731,26.4583854675293,-20.40931701660156,9.468055725097656,266.9907531738281,253.2174682617188,10,139598.86883,0.23114013671875,-0.615264892578125,-0.00018310546875,139598.824821625,0.4043930220452621,1.741299622948931,-0.06425595183310484,139598.824821625,1.609626649220333,1.285327122235938,1.326606321378198,0.4004550576210022,1.748734354972839,-0.0412304550409317,0.05446741729974747,0.2020381838083267,0.08216825872659683,XTrueNorthZVertical,0.001341446052882341,0.6826096999129315,0.7104160974571311,0.1713217661852104,0.2319858223199844,-0.970333456993103,-0.06808439642190933,27.23567008972168,-21.92181205749512,12.17691421508789,2,10.3.35.51,10.83.46.32,1,0
2015-02-27 20:26:11.631,29,1425097571.080883,37.78750701105712,-122.3969221434144,17.15863,3.922354e-07,-1,10,200,-9999,1425097571.58979,25.86181259155273,-19.84852600097656,11.54851531982422,264.1552124023438,250.3819274902344,10,139598.9177365,0.178955078125,-0.757598876953125,-0.0417327880859375,139598.8766049584,0.5269319880186421,1.791542553758257,-0.01192350483250277,139598.8766049584,1.521613184301464,1.458530200651711,1.331581295797805,0.5229941010475159,1.798977136611938,0.01110178604722023,-0.004308277275413275,0.3562593758106232,0.02636138908565044,XTrueNorthZVertical,-0.02772024289718854,0.6971078401564382,0.7024295053526551,0.1409433159959928,0.23544842004776,-0.9715242385864258,-0.02654449455440044,26.21355438232422,-21.63957786560059,14.66980075836182,2,10.3.35.51,10.83.46.32,1,0
2015-02-27 20:26:11.699,30,1425097571.080883,37.78750701105712,-122.3969221434144,17.15863,3.922354e-07,-1,10,200,-9999,1425097571.665309,24.63456344604492,-19.27078247070312,15.24341583251953,258.3349609375,244.5616760253906,10,139598.9667410833,0.08563232421875,-0.8372650146484375,0.10394287109375,139598.92838925,0.4587340251400019,1.690222590086192,-0.08263549178017769,139598.92838925,1.40986705319392,1.65669556463459,1.330862942034442,0.4547961354255676,1.697657227516174,-0.05961045250296593,-0.08637102693319321,0.1954443901777267,-0.04492394626140594,XTrueNorthZVertical,-0.05765201827237061,0.711948138788956,0.6911130374308332,0.1103124786457425,0.2367616444826126,-0.9713538289070129,0.02038781531155109,24.44258880615234,-21.12938499450684,18.07578086853027,2,10.3.35.51,10.83.46.32,1,0
2015-02-27 20:26:11.726,31,1425097571.080883,37.78750701105712,-122.3969221434144,17.15863,3.922354e-07,-1,10,200,-9999,1425097571.71754,23.85049438476562,-18.79495239257812,17.57353973388672,254.3463439941406,240.5730438232422,10,139599.015756375,0.1417083740234375,-0.9946136474609375,0.14190673828125,139598.9801725833,0.2209813840876139,1.998984693180017,-0.1695120675963066,139598.9801725833,1.3594896222264,1.79464794315636,1.323068081561023,0.217043548822403,2.00641918182373,-0.1464872509241104,-0.1261692047119141,0.1150255501270294,0.05343275517225266,XTrueNorthZVertical,-0.08970295737478561,0.7205339634795106,0.682817188567212,0.08090027747584869,0.2390842437744141,-0.9694719910621643,0.05443162471055984,23.04515838623047,-20.73048210144043,20.24333381652832,2,10.3.35.51,10.83.46.32,1,0
2015-02-27 20:26:11.792,32,1425097571.080883,37.78750701105712,-122.3969221434144,17.15863,3.922354e-07,-1,10,200,-9999,1425097571.769792,22.69142532348633,-18.69302368164062,19.83708190917969,249.6902923583984,235.9169921875,10,139599.064759375,0.2287445068359375,-1.056228637695312,0.09930419921875,139599.031956,0.2483645390480267,2.160333905719122,0.03798067188616506,139599.031956,1.305585506230132,1.955479123097419,1.317785664332863,0.2444267272949219,2.167768239974976,0.06100527197122574,-0.08992072194814682,-0.06267482787370682,0.04864182323217392,XTrueNorthZVertical,-0.1264228691402637,0.7286874558560068,0.6717226003537959,0.0426682434388209,0.2320258170366287,-0.9681631922721863,0.09393630176782608,21.88819694519043,-20.50211334228516,21.70702743530273,2,10.3.35.51,10.83.46.32,1,0
2015-02-27 20:26:11.826,33,1425097571.080883,37.78750701105712,-122.3969221434144,17.15863,3.922354e-07,-1,10,200,-9999,1425097571.82336,20.98691558837891,-18.69302368164062,22.23377990722656,243.1803741455078,229.4070739746094,10,139599.1138941667,0.2316436767578125,-0.9707183837890625,0.06561279296875,139599.0837403333,0.04664127175110274,1.650353204354943,0.4499834104302196,139599.0837403333,1.245072645621602,2.111330542295983,1.326528514259875,0.04270350188016891,1.657787561416626,0.4730077981948853,0.0234986487776041,-0.07691129297018051,-0.01568780280649662,XTrueNorthZVertical,-0.1534285084288761,0.7339522591282518,0.6616381334163135,0.002955591138594747,0.2073668241500854,-0.9703146815299988,0.1244524493813515,21.66102409362793,-19.20765113830566,20.86490249633789,2,10.3.35.51,10.83.46.32,1,0
2015-02-27 20:26:11.900,34,1425097571.080883,37.78750701105712,-122.3969221434144,17.15863,3.922354e-07,-1,10,200,-9999,1425097571.82336,20.98691558837891,-18.69302368164062,22.23377990722656,243.1803741455078,229.4070739746094,10,139599.1627655833,0.11859130859375,-1.10052490234375,0.058807373046875,139599.1355237917,-0.02076253649047576,0.8414694222524126,0.6050776565170551,139599.1355237917,1.175194914225527,2.237906842584178,1.347305963470189,-0.02470026537775993,0.8489036560058594,0.6281017661094666,0.02343671768903732,-0.03762654215097427,-0.03944256529211998,XTrueNorthZVertical,-0.163081002896987,0.7361856101988368,0.6562771553884236,-0.02712213364273484,0.1741188317537308,-0.9751297831535339,0.1371293365955353,19.82159614562988,-19.60342025756836,22.27752685546875,2,10.3.35.51,10.83.46.32,1,0
2015-02-27 20:26:11.924,35,1425097571.080883,37.78750701105712,-122.3969221434144,17.15863,3.922354e-07,-1,10,200,-9999,1425097571.898165,19.00968170166016,-19.61065673828125,24.36417770385742,239.6220703125,225.8487701416016,10,139599.2117829583,0.150299072265625,-1.118331909179688,0.1034088134765625,139599.1873069583,-0.2660993276951913,0.2064783414232604,0.7414227158975149,139599.1873069583,1.083896341967254,2.350665324745512,1.381363641737317,-0.2700370252132416,0.2139125317335129,0.7644466161727905,-0.01837450265884399,-0.1274621486663818,-0.04429162666201591,XTrueNorthZVertical,-0.1566503271073207,0.7359797834871576,0.656817016777383,-0.04884486436465168,0.133883535861969,-0.9821112155914307,0.1324111372232437,18.44993782043457,-20.22605514526367,22.89070701599121,2,10.3.35.51,10.83.46.32,1,0
2015-02-27 20:26:12.006,36,1425097571.080883,37.78750701105712,-122.3969221434144,17.15863,3.922354e-07,-1,10,200,-9999,1425097571.949605,18.05515670776367,-20.90214538574219,24.4973258972168,236.6709289550781,222.8976287841797,10,139599.2607757083,0.076995849609375,-1.315505981445312,0.0533905029296875,139599.2390915,-0.3428066228888527,-0.115550564956903,0.607797276622244,139599.2390915,1.00844036611241,2.42348220530983,1.416773762211948,-0.3467442691326141,-0.1081164330244064,0.6308209300041199,-0.004352700430899858,-0.2096377313137054,-0.02949953824281693,XTrueNorthZVertical,-0.1433275805603096,0.7329539549965046,0.6622374585671921,-0.06064020088977547,0.1009408384561539,-0.9881619811058044,0.1155285909771919,17.35267448425293,-21.4012393951416,22.67928123474121,2,10.3.35.51,10.83.46.32,1,0
2015-02-27 20:26:12.029,37,1425097571.080883,37.78750701105712,-122.3969221434144,17.15863,3.922354e-07,-1,10,200,-9999,1425097572.001763,17.25404357910156,-22.34657287597656,24.28095626831055,234.3161468505859,220.5428466796875,10,139599.309802625,0.0783538818359375,-1.325592041015625,0.09326171875,139599.2908747083,-0.1204427918793786,-0.1543040861914091,0.3270383123906025,139599.2908747083,0.9191662382681123,2.510237890279502,1.439271058379173,-0.1243804022669792,-0.1468700468540192,0.3500617444515228,0.0501406118273735,-0.3667760193347931,-0.0578913576900959,XTrueNorthZVertical,-0.133709552061776,0.731474025576469,0.6650960452824013,-0.06866394346292501,0.077407605946064,-0.991362988948822,0.1058649867773056,16.83783721923828,-22.12332344055176,22.37238883972168,2,10.3.35.51,10.83.46.32,1,0
2015-02-27 20:26:12.105,38,1425097572.05697,37.78751830261811,-122.396910954523,17.07256,0.1460356,-1,10,200,-9999,1425097572.054633,17.44154357910156,-23.38313293457031,23.8648681640625,234.2857971191406,220.5124969482422,10,139599.3587985,0.0258636474609375,-1.27008056640625,0.1058197021484375,139599.342658,0.03076430428037734,-0.2088879695775641,0.01255707085583262,139599.342658,0.8745031093235817,2.540538085521697,1.445524283215121,0.02682673372328281,-0.2014539986848831,0.03558026626706123,-0.05004304647445679,-0.3128747344017029,0.03258870169520378,XTrueNorthZVertical,-0.1259610220414996,0.7318860282397505,0.6663823832925255,-0.06641658542000389,0.07065767049789429,-0.9921637177467346,0.103046678006649,16.7382698059082,-22.45991706848145,22.11018753051758,2,10.3.35.51,10.83.46.32,1,0
2015-02-27 20:26:12.122,39,1425097572.05697,37.78751830261811,-122.396910954523,17.07256,0.1460356,-1,10,200,-9999,1425097572.110598,17.66312789916992,-24.07986450195312,23.64849853515625,234.9713287353516,221.1980285644531,10,139599.4078110417,-0.0561065673828125,-1.174453735351562,0.116943359375,139599.3944424167,0.1224502827090803,-0.1582580814618497,-0.1772597358395651,139599.3944424167,0.891171695774446,2.513879919147271,1.442358326260756,0.1184989660978317,-0.1506936401128769,-0.1540694683790207,-0.1053597927093506,-0.212704598903656,-0.00711091561242938,XTrueNorthZVertical,-0.1239300949831315,0.7324449453086418,0.6666262374102232,-0.06144244651180824,0.07522368431091309,-0.991763174533844,0.1036685332655907,17.01403045654297,-22.45959854125977,21.89902114868164,2,10.3.35.51,10.83.46.32,1,0
2015-02-27 20:26:12.162,40,1425097572.05697,37.78751830261811,-122.396910954523,17.07256,0.1460356,-1,10,200,-9999,1425097572.110598,17.66312789916992,-24.07986450195312,23.64849853515625,234.9713287353516,221.1980285644531,10,139599.4568151667,0.035369873046875,-1.295455932617188,0.0736541748046875,139599.4462259167,0.1137654480782229,0.2478920942706467,-0.2633365643803431,139599.3944424167,0.891171695774446,2.513879919147271,1.442358326260756,0.1184989660978317,-0.1506936401128769,-0.1540694683790207,-0.1053597927093506,-0.212704598903656,-0.00711091561242938,XTrueNorthZVertical,-0.1239300949831315,0.7324449453086418,0.6666262374102232,-0.06144244651180824,0.07522368431091309,-0.991763174533844,0.1036685332655907,17.01403045654297,-22.45959854125977,21.89902114868164,2,10.3.35.51,10.83.46.32,1,0
2015-02-27 20:26:12.216,41,1425097572.05697,37.78751830261811,-122.396910954523,17.07256,0.1460356,-1,10,200,-9999,1425097572.183048,17.86766815185547,-24.58967590332031,24.18110275268555,235.5203704833984,221.7470703125,10,139599.505960125,-0.1045684814453125,-1.339874267578125,0.4825897216796875,139599.4980090834,-0.4336150897383745,0.1996497300721883,-0.1314762682755769,139599.4980090834,0.9969087156696453,2.420358938509295,1.428488278254348,-0.437566339969635,0.2072139978408813,-0.1082864999771118,-0.2493819296360016,-0.3076550960540771,0.2841438353061676,XTrueNorthZVertical,-0.1349787456695778,0.7314619493399844,0.6657938402927875,-0.05884469475811725,0.09365072101354599,-0.9898912906646729,0.106511689722538,17.27930068969727,-21.93618202209473,22.21953201293945,2,10.3.35.51,10.83.46.32,1,0
2015-02-27 20:26:12.262,42,1425097572.05697,37.78751830261811,-122.396910954523,17.07256,0.1460356,-1,10,200,-9999,1425097572.238275,17.69721603393555,-25.031494140625,24.28096771240234,235.169189453125,221.3958892822266,10,139599.5548605833,0.71173095703125,-1.831314086914062,-0.0653533935546875,139599.4980090834,-0.4336150897383745,0.1996497300721883,-0.1314762682755769,139599.4980090834,0.9969087156696453,2.420358938509295,1.428488278254348,-0.437566339969635,0.2072139978408813,-0.1082864999771118,-0.2493819296360016,-0.3076550960540771,0.2841438353061676,XTrueNorthZVertical,-0.1349787456695778,0.7314619493399844,0.6657938402927875,-0.05884469475811725,0.09365072101354599,-0.9898912906646729,0.106511689722538,17.27930068969727,-21.93618202209473,22.21953201293945,2,10.3.35.51,10.83.46.32,1,0
2015-02-27 20:26:12.314,43,1425097572.05697,37.78751830261811,-122.396910954523,17.07256,0.1460356,-1,10,200,-9999,1425097572.288487,18.78810501098633,-25.6092529296875,23.18247985839844,236.9087066650391,223.1354064941406,10,139599.60386975,-0.294677734375,-0.8376617431640625,0.241455078125,139599.6015769167,-0.8867178607534039,-0.807166309515538,-0.04897846192375628,139599.5497934583,1.03236773060833,2.374269136669098,1.442472335453622,-0.4818314909934998,-1.351342558860779,0.240610271692276,0.5624971389770508,-0.859296441078186,-0.02089775539934635,XTrueNorthZVertical,-0.1287513500734565,0.7276526310181517,0.6712763044122977,-0.0577307764452222,0.08883956074714661,-0.991777777671814,0.0921105220913887,17.16102981567383,-22.23976516723633,22.00840759277344,2,10.3.35.51,10.83.46.32,1,0
2015-02-27 20:26:12.394,44,1425097572.05697,37.78751830261811,-122.396910954523,17.07256,0.1460356,-1,10,200,-9999,1425097572.33853,19.69149398803711,-26.54385375976562,21.70119476318359,239.6755828857422,225.9022827148438,10,139599.6528734167,0.4619140625,-0.807373046875,0.3813323974609375,139599.6533601667,-0.3325856769412376,0.5917511984222986,0.3147012186408105,139599.6015769167,1.277060024924865,2.040396165895305,1.468700107015025,-0.890669047832489,-0.7996021509170532,-0.02578913606703281,-0.1800888627767563,0.05051780492067337,0.09219968318939209,XTrueNorthZVertical,-0.09550080568433603,0.716896237301811,0.6900183334962902,-0.028531762702768,0.09088598936796188,-0.9947926998138428,0.04612123966217041,18.60530853271484,-22.92238616943359,20.04706382751465,2,10.3.35.51,10.83.46.32,1,0
2015-02-27 20:26:12.411,45,1425097572.05697,37.78751830261811,-122.396910954523,17.07256,0.1460356,-1,10,200,-9999,1425097572.390185,20.08353424072266,-27.13864135742188,20.28646850585938,240.2926177978516,226.5193176269531,10,139599.7018782917,0.081756591796875,-1.164932250976562,-0.2003173828125,139599.7051445833,-0.1763912790080902,-0.6696167023740354,0.06492573684725976,139599.6533601667,1.546287595856737,1.811198277011535,1.482660782996003,-0.3365367949008942,0.5993152856826782,0.3378902971744537,0.3764240741729736,0.188745528459549,0.3603751361370087,XTrueNorthZVertical,-0.1069854180462599,0.7064224977032855,0.6981945169636087,-0.04523021704399748,0.08548998087644577,-0.9961186051368713,0.02095725014805794,19.19354248046875,-23.41870880126953,18.88518142700195,2,10.3.35.51,10.83.46.32,1,0
2015-02-27 20:26:12.454,46,1425097572.05697,37.78751830261811,-122.396910954523,17.07256,0.1460356,-1,10,200,-9999,1425097572.442677,19.60627746582031,-27.68243408203125,20.25318908691406,239.4415435791016,225.6682434082031,10,139599.7508749167,0.0858306884765625,-0.9217376708984375,-0.281982421875,139599.7051445833,-0.1763912790080902,-0.6696167023740354,0.06492573684725976,139599.7051445833,1.629638355337432,1.691606059025758,1.498169209709876,-0.180342361330986,-0.6620526909828186,0.08811457455158234,0.009722454473376274,-0.1675684452056885,-0.209062397480011,XTrueNorthZVertical,-0.08904897959528021,0.7045869602869003,0.7029963906191253,-0.03772996675009404,0.07203413546085358,-0.997363805770874,0.008745010942220688,18.4817066192627,-24.24378395080566,18.55110549926758,2,10.3.35.51,10.83.46.32,1,0
2015-02-27 20:26:12.514,47,1425097572.05697,37.78751830261811,-122.396910954523,17.07256,0.1460356,-1,10,200,-9999,1425097572.493889,19.84490203857422,-27.68243408203125,19.95359802246094,239.2921295166016,225.5188293457031,10,139599.799883625,0.1273956298828125,-1.073089599609375,-0.08343505859375,139599.8087112083,-0.08877940441499049,-0.9422165399740012,0.01293603867895089,139599.7569278333,1.686698741244481,1.636167529126316,1.491697972478801,0.05502972006797791,-0.0155318221077323,-0.1610389947891235,0.006983803119510412,0.07513568550348282,-0.2871440947055817,XTrueNorthZVertical,-0.09190150200201087,0.7029473302710288,0.7043599374602917,-0.03600311491130899,0.07884688675403595,-0.9968733787536621,0.005161670502275229,18.75068473815918,-24.35001373291016,18.13743782043457,2,10.3.35.51,10.83.46.32,1,0
2015-02-27 20:26:12.555,48,1425097572.05697,37.78751830261811,-122.396910954523,17.07256,0.1460356,-1,10,200,-9999,1425097572.545815,20.78238296508789,-27.32559204101562,19.90366363525391,240.5114898681641,226.7381896972656,10,139599.8488774583,-0.03070068359375,-0.967559814453125,0.1537628173828125,139599.8087112083,-0.08877940441499049,-0.9422165399740012,0.01293603867895089,139599.8087112083,1.674606943387339,1.619763132082452,1.492500809296692,-0.09273041039705276,-0.9346526861190796,0.03612443804740906,0.04927407950162888,-0.07615312933921814,-0.08726347982883453,XTrueNorthZVertical,-0.08158537022286716,0.7037457203828261,0.7052633046392641,-0.02625719949908391,0.07812155038118362,-0.9969365000724792,0.003828423097729683,18.86635971069336,-24.23775672912598,18.16781997680664,2,10.3.35.51,10.83.46.32,1,0
2015-02-27 20:26:12.607,49,1425097572.05697,37.78751830261811,-122.396910954523,17.07256,0.1460356,-1,10,200,-9999,1425097572.597555,21.12328720092773,-27.15567016601562,19.2379150390625,242.0243682861328,228.2510681152344,10,139599.8978817083,0.21868896484375,-0.9971923828125,0.0980682373046875,139599.8604955833,0.02600177330298864,-0.4393848282400312,-0.04644579572709092,139599.8604955833,1.717496431572712,1.543202181697465,1.491737226130642,0.02205081284046173,-0.4318210780620575,-0.02325765043497086,-0.08450066298246384,0.02313683182001114,0.15289007127285,XTrueNorthZVertical,-0.06989092438255722,0.7028696551093027,0.7077340143639514,-0.01421451777386211,0.07894646376371384,-0.9968764781951904,-0.002179013332352042,19.78259658813477,-24.31488037109375,17.05618095397949,2,10.3.35.51,10.83.46.32,1,0
2015-02-27 20:26:12.646,50,1425097572.05697,37.78751830261811,-122.396910954523,17.07256,0.1460356,-1,10,200,-9999,1425097572.597555,21.12328720092773,-27.15567016601562,19.2379150390625,242.0243682861328,228.2510681152344,10,139599.9468803333,0.205535888671875,-0.9850616455078125,0.1124725341796875,139599.9122789167,-0.04979072605623044,-0.5063164580203386,-0.1424767214742582,139599.9122789167,1.707897130508365,1.533038484858239,1.487520724271507,-0.05374164879322052,-0.4987528026103973,-0.1192888095974922,0.1403756141662598,-0.005235429387539625,0.0640377476811409,XTrueNorthZVertical,-0.06439969212868396,0.7030524304824907,0.7081926277101889,-0.005756968916592203,0.08311986923217773,-0.9965345859527588,-0.003139919368550181,20.13730430603027,-24.25348854064941,16.72528648376465,2,10.3.35.51,10.83.46.32,1,0
2015-02-27 20:26:12.706,51,1425097572.05697,37.78751830261811,-122.396910954523,17.07256,0.1460356,-1,10,200,-9999,1425097572.699676,22.45280838012695,-27.08770751953125,18.03956604003906,246.3634643554688,232.5901641845703,10,139599.9958883333,-0.1009063720703125,-1.017913818359375,0.001861572265625,139599.9640622083,-0.1790419232410461,-0.6809990528730341,-0.3714680951725035,139599.9640622083,1.784594625201846,1.427374039925091,1.475741255049798,-0.1829928159713745,-0.6734354496002197,-0.3482804000377655,0.09698066860437393,0.04446638002991676,0.1617744714021683,XTrueNorthZVertical,-0.05790847834413829,0.6999026252525301,0.7118395036086762,0.008211296512263698,0.09393730014562607,-0.9954856634140015,-0.01356584671884775,20.66434669494629,-24.1840877532959,16.17382621765137,2,10.3.35.51,10.83.46.32,1,0
2015-02-27 20:26:12.745,52,1425097572.05697,37.78751830261811,-122.396910954523,17.07256,0.1460356,-1,10,200,-9999,1425097572.699676,22.45280838012695,-27.08770751953125,18.03956604003906,246.3634643554688,232.5901641845703,10,139600.0448943333,0.0001068115234375,-1.124008178710938,-0.1026153564453125,139600.0158468334,-0.07332215113206159,-0.2923881897636906,-0.3276468446996856,139600.0158468334,1.832308978782889,1.359371588716632,1.45176459048094,-0.07727298885583878,-0.2848246693611145,-0.3044593930244446,-0.2485527545213699,-0.1300159841775894,-0.07322432845830917,XTrueNorthZVertical,-0.05856438527474412,0.6957802171313955,0.7154867132023336,0.02321306624890862,0.1161064654588699,-0.9929240942001343,-0.02492020465433598,21.74845314025879,-23.85653495788574,15.21014595031738,2,10.3.35.51,10.83.46.32,1,0
2015-02-27 20:26:12.808,53,1425097572.05697,37.78751830261811,-122.396910954523,17.07256,0.1460356,-1,10,200,-9999,1425097572.753892,23.69709777832031,-27.00274658203125,17.62347412109375,248.7919616699219,235.0186614990234,10,139600.0938930417,0.166778564453125,-0.915618896484375,0.034637451171875,139600.06763,-0.2613019093075226,-0.09675264240257872,-0.4924887930084292,139600.06763,1.870573578846381,1.311278453141398,1.434942449721117,-0.2652527093887329,-0.08918919414281845,-0.4693015813827515,0.02063404396176338,-0.01855233311653137,0.02097622863948345,XTrueNorthZVertical,-0.06033031371132049,0.6920858297268994,0.7185804845722489,0.0319300128156794,0.1309009939432144,-0.990786075592041,-0.0347549133002758,22.22093772888184,-23.67067909240723,14.81239414215088,2,10.3.35.51,10.83.46.32,1,0
2015-02-27 20:26:12.844,54,1425097572.05697,37.78751830261811,-122.396910954523,17.07256,0.1460356,-1,10,200,-9999,1425097572.806218,24.48116683959961,-26.69686889648438,17.22402954101562,250.4446411132812,236.6713409423828,10,139600.1429932083,-0.0150146484375,-1.0201416015625,-0.0898895263671875,139600.1194135,0.0320535405640847,0.5299805085184558,-0.5137298995467923,139600.1194135,1.868772814202347,1.322836205433968,1.410523548477178,0.02810277417302132,0.5375438332557678,-0.490542858839035,-0.03715270385146141,-0.008406422100961208,0.02045977301895618,XTrueNorthZVertical,-0.07213348256845838,0.6893571179813524,0.719877147038657,0.03688358361450868,0.1547064185142517,-0.9871838092803955,-0.03916705027222633,22.58083724975586,-23.48252868652344,14.56552982330322,2,10.3.35.51,10.83.46.32,1,0
2015-02-27 20:26:12.907,55,1425097572.05697,37.78751830261811,-122.396910954523,17.07256,0.1460356,-1,10,200,-9999,1425097572.882183,25.31638336181641,-25.898193359375,17.97299957275391,251.1735992431641,237.4002990722656,10,139600.1919958333,0.3587493896484375,-1.015594482421875,-0.0501251220703125,139600.17119775,0.1029916298883074,1.158946453697413,-0.7119937205877033,139600.17119775,1.820424744014346,1.417478099931093,1.380161578134915,0.09904089570045471,1.166509747505188,-0.6888068914413452,-0.03758595511317253,-0.02836974710226059,0.01137450989335775,XTrueNorthZVertical,-0.09981947338379664,0.6896139387746251,0.7165481627269458,0.03205307569552295,0.1872594207525253,-0.9818841814994812,-0.02893737703561783,22.89822578430176,-22.61393165588379,15.4194507598877,2,10.3.35.51,10.83.46.32,1,0
2015-02-27 20:26:12.940,56,1425097572.05697,37.78751830261811,-122.396910954523,17.07256,0.1460356,-1,10,200,-9999,1425097572.882183,25.31638336181641,-25.898193359375,17.97299957275391,251.1735992431641,237.4002990722656,10,139600.2408924583,0.377349853515625,-1.148849487304688,-0.0313262939453125,139600.2229810417,0.188178163676672,1.078324578017444,-0.7957357558008089,139600.2229810417,1.755366913163339,1.540500124333517,1.34501460199718,0.1842274814844131,1.085887789726257,-0.7725492715835571,0.1185654327273369,-0.116155132651329,-0.04699065163731575,XTrueNorthZVertical,-0.1333405282769519,0.6919751756037382,0.7090577888032614,0.02505380195107268,0.22376549243927,-0.9746193885803223,-0.006781319621950388,22.7299919128418,-21.78094100952148,16.80524444580078,2,10.3.35.51,10.83.46.32,1,0
2015-02-27 20:26:12.999,57,1425097572.05697,37.78751830261811,-122.396910954523,17.07256,0.1460356,-1,10,200,-9999,1425097572.987818,24.46412658691406,-24.06294250488281,20.26982116699219,249.7172698974609,235.9439697265625,10,139600.28990375,0.56884765625,-0.969940185546875,0.0756378173828125,139600.274764375,-0.1876279545954616,2.386510051829044,-1.723475618405248,139600.274764375,1.790468958449557,1.591827421593494,1.283253393568409,-0.191578596830368,2.394073247909546,-1.700289249420166,0.2444505095481873,-0.03167225793004036,0.07203901559114456,XTrueNorthZVertical,-0.1848330641770416,0.6847033623664915,0.7047950406059954,0.01679213136901865,0.2835341095924377,-0.9589436054229736,0.005963912233710289,22.65041160583496,-21.15686225891113,17.68683242797852,2,10.3.35.51,10.83.46.32,1,0
2015-02-27 20:26:13.039,58,1425097572.05697,37.78751830261811,-122.396910954523,17.07256,0.1460356,-1,10,200,-9999,1425097572.987818,24.46412658691406,-24.06294250488281,20.26982116699219,249.7172698974609,235.9439697265625,10,139600.3389065417,0.404327392578125,-1.06182861328125,-0.12420654296875,139600.3265489167,-0.7559071164342378,2.497990507691979,-2.033519500931728,139600.274764375,1.790468958449557,1.591827421593494,1.283253393568409,-0.191578596830368,2.394073247909546,-1.700289249420166,0.2444505095481873,-0.03167225793004036,0.07203901559114456,XTrueNorthZVertical,-0.1848330641770416,0.6847033623664915,0.7047950406059954,0.01679213136901865,0.2835341095924377,-0.9589436054229736,0.005963912233710289,22.65041160583496,-21.15686225891113,17.68683242797852,2,10.3.35.51,10.83.46.32,1,0
2015-02-27 20:26:13.099,59,1425097572.05697,37.78751830261811,-122.396910954523,17.07256,0.1460356,-1,10,200,-9999,1425097573.063372,22.99824905395508,-21.95578002929688,22.89954376220703,246.9875946044922,233.2142944335938,10,139600.3879147083,-0.055755615234375,-0.602447509765625,0.147735595703125,139600.378332125,-0.9467023685141307,2.046204403519885,-1.238917452806966,139600.378332125,2.006274530921794,1.636613848883003,1.107496894569469,-0.9506529569625854,2.053767442703247,-1.215731620788574,-0.4713403582572937,0.2151394933462143,0.1048693284392357,XTrueNorthZVertical,-0.3302751236012034,0.6368788906240215,0.6965485139032257,-0.01112520447928659,0.4459344744682312,-0.8945828676223755,0.02939275652170181,21.03606414794922,-17.89516448974609,22.59922790527344,2,10.3.35.51,10.83.46.32,1,0
2015-02-27 20:26:13.137,60,1425097572.05697,37.78751830261811,-122.396910954523,17.07256,0.1460356,-1,10,200,-9999,1425097573.11502,21.51532745361328,-20.98715209960938,24.2476806640625,243.7144775390625,229.9411773681641,10,139600.4369120417,0.300018310546875,-0.604766845703125,0.076904296875,139600.4301155834,-1.227360931572676,0.4815067156212695,0.1050281491738909,139600.378332125,2.006274530921794,1.636613848883003,1.107496894569469,-0.9506529569625854,2.053767442703247,-1.215731620788574,-0.4713403582572937,0.2151394933462143,0.1048693284392357,XTrueNorthZVertical,-0.3302751236012034,0.6368788906240215,0.6965485139032257,-0.01112520447928659,0.4459344744682312,-0.8945828676223755,0.02939275652170181,21.03606414794922,-17.89516448974609,22.59922790527344,2,10.3.35.51,10.83.46.32,1,0
2015-02-27 20:26:13.195,61,1425097572.05697,37.78751830261811,-122.396910954523,17.07256,0.1460356,-1,10,200,-9999,1425097573.167117,20.33921813964844,-21.98976135253906,24.83020782470703,240.070068359375,226.2967681884766,10,139600.485909125,-0.2100982666015625,-0.721954345703125,0.3311004638671875,139600.481899875,-1.696177950915827,-0.7883068679400328,1.994758789162279,139600.4301155834,2.120165918571468,1.609787067651854,1.081122372813043,-1.231322407722473,0.4891887009143829,0.1283991783857346,-0.168878972530365,0.3398226797580719,0.08934708684682846,XTrueNorthZVertical,-0.3647654106846077,0.6132807581233775,0.6998140104391588,-0.0330641598190301,0.4699806571006775,-0.8824862837791443,0.01833418570458889,20.28616714477539,-17.79404830932617,23.35211372375488,2,10.3.35.51,10.83.46.32,1,0
2015-02-27 20:26:13.236,62,1425097572.05697,37.78751830261811,-122.396910954523,17.07256,0.1460356,-1,10,200,-9999,1425097573.220088,19.70854568481445,-23.97793579101562,24.18110275268555,235.70263671875,221.9293365478516,10,139600.5350209583,-0.2836761474609375,-1.729354858398438,-0.7284393310546875,139600.5336832917,-1.460356101653747,0.8952125456824297,-1.202822831604795,139600.481899875,2.297112966349099,1.432422872390037,1.13643153290405,-1.700139284133911,-0.7806249260902405,2.018129587173462,-0.6885860562324524,0.3175837099552155,0.2035697102546692,XTrueNorthZVertical,-0.3384218911752707,0.5970320824489774,0.7247157437617739,-0.06172833896664685,0.4168117344379425,-0.9071375131607056,-0.05804663151502609,18.89658546447754,-20.18556976318359,22.55969619750977,2,10.3.35.51,10.83.46.32,1,0
2015-02-27 20:26:13.293,63,1425097572.05697,37.78751830261811,-122.396910954523,17.07256,0.1460356,-1,10,200,-9999,1425097573.270962,19.67445755004883,-25.50732421875,23.21576690673828,235.0290374755859,221.2557373046875,10,139600.58392675,1.052719116210938,-0.943023681640625,0.0106964111328125,139600.5854665,-0.004388356844232569,0.9317545779477339,0.1660829813767205,139600.5336832917,2.321345326857414,1.387172833239246,1.155328275763989,-1.464317440986633,0.9028943777084351,-1.179452180862427,1.440020322799683,-1.841832160949707,-0.2591877579689026,XTrueNorthZVertical,-0.3237277709982304,0.5986245364688795,0.7299604526352226,-0.06329860344659362,0.3968327343463898,-0.9149274826049805,-0.07369799166917801,18.31156921386719,-22.28288841247559,21.01516914367676,2,10.3.35.51,10.83.46.32,1,0
2015-02-27 20:26:13.333,64,1425097572.05697,37.78751830261811,-122.396910954523,17.07256,0.1460356,-1,10,200,-9999,1425097573.323281,19.65741348266602,-25.79621887207031,22.76638793945312,234.7044372558594,220.9311370849609,10,139600.6330572084,0.5088653564453125,-0.7833404541015625,-0.0504913330078125,139600.5854665,-0.004388356844232569,0.9317545779477339,0.1660829813767205,139600.5854665,2.37789284627585,1.320703005966387,1.177174216029633,-0.008349629119038582,0.9394363760948181,0.1894533187150955,0.6811152100563049,-0.01949777081608772,0.105619415640831,XTrueNorthZVertical,-0.3100399320958629,0.5970039695301073,0.7364684921050774,-0.07124354002667556,0.371603935956955,-0.9235259294509888,-0.09492300450801849,18.82968139648438,-21.94041442871094,20.91744232177734,2,10.3.35.51,10.83.46.32,1,0
2015-02-27 20:26:13.395,65,1425097572.05697,37.78751830261811,-122.396910954523,17.07256,0.1460356,-1,10,200,-9999,1425097573.374444,19.67445755004883,-25.7452392578125,23.01604461669922,233.8552398681641,220.0819396972656,10,139600.68196125,0.4146881103515625,-0.7867584228515625,-0.2537994384765625,139600.6890342083,0.1575366311225473,0.3097261674084334,-0.3677255548926151,139600.6372510417,2.404580611097148,1.344221138587095,1.163744773247537,-0.09265381842851639,0.4696639776229858,0.2100259959697723,0.1230805963277817,0.1349516659975052,0.03844504430890083,XTrueNorthZVertical,-0.330336654006561,0.5885656346298866,0.7331145824290776,-0.08373278193204708,0.385784775018692,-0.9182921051979065,-0.08893638104200363,17.85583305358887,-22.63493728637695,21.03109169006348,2,10.3.35.51,10.83.46.32,1,0
2015-02-27 20:26:13.431,66,1425097572.05697,37.78751830261811,-122.396910954523,17.07256,0.1460356,-1,10,200,-9999,1425097573.426883,19.14605712890625,-26.06809997558594,23.59857940673828,232.7935180664062,219.0202178955078,10,139600.7309712083,0.5182647705078125,-0.8262786865234375,-0.3016204833984375,139600.6890342083,0.1575366311225473,0.3097261674084334,-0.3677255548926151,139600.6890342083,2.395658185999217,1.368475562209009,1.155146400791681,0.1535754352807999,0.3174077868461609,-0.3443556725978851,0.01913959532976151,0.1280956566333771,-0.1726616322994232,XTrueNorthZVertical,-0.3389802477977693,0.5869612347750637,0.7303238907919672,-0.08482862724663909,0.3955485224723816,-0.914854109287262,-0.08113779872655869,17.47930526733398,-22.68530654907227,21.29151916503906,2,10.3.35.51,10.83.46.32,1,0
2015-02-27 20:26:13.493,67,1425097572.05697,37.78751830261811,-122.396910954523,17.07256,0.1460356,-1,10,200,-9999,1425097573.478308,19.2142333984375,-25.55830383300781,23.86487579345703,233.1317291259766,219.3584289550781,10,139600.7799948333,0.5821533203125,-0.721649169921875,-0.0169830322265625,139600.7408175417,-0.04939498031824467,-0.02510269011897789,-0.6977303624214569,139600.7408175417,2.396968252301915,1.379762185632143,1.122681714281884,-0.05335613340139389,-0.01742115430533886,-0.6743607521057129,-0.004013751167804003,0.06839509308338165,-0.1619964092969894,XTrueNorthZVertical,-0.3525046527481412,0.5784525282104822,0.7314644850944884,-0.07805658480256385,0.4253852069377899,-0.901265561580658,-0.08226628601551056,17.52461242675781,-22.4204216003418,21.53347778320312,2,10.3.35.51,10.83.46.32,1,0
2015-02-27 20:26:13.530,68,1425097572.05697,37.78751830261811,-122.396910954523,17.07256,0.1460356,-1,10,200,-9999,1425097573.478308,19.2142333984375,-25.55830383300781,23.86487579345703,233.1317291259766,219.3584289550781,10,139600.829096125,0.473236083984375,-0.8504180908203125,0.0222930908203125,139600.7926020834,0.1445393397385245,-0.425024264693997,-0.8812501247193623,139600.7926020834,2.37002116477424,1.390992123043568,1.086862288851319,0.1405782252550125,-0.4173428118228912,-0.8578807711601257,0.1756584942340851,0.1190886422991753,0.1348423212766647,XTrueNorthZVertical,-0.3587696934494236,0.5741785618145037,0.733511394468904,-0.05970177038321466,0.4577643573284149,-0.8851714134216309,-0.08320657163858414,18.64126205444336,-21.57394981384277,21.46033668518066,2,10.3.35.51,10.83.46.32,1,0
2015-02-27 20:26:13.596,69,1425097572.05697,37.78751830261811,-122.396910954523,17.07256,0.1460356,-1,10,200,-9999,1425097573.581981,21.56646347045898,-24.09690856933594,23.49871063232422,238.6781311035156,224.9048309326172,10,139600.8780045,0.5057220458984375,-0.710662841796875,-0.038909912109375,139600.8443854167,0.444151620275164,-0.8018450473414507,-0.7377217209306317,139600.8443854167,2.326163470217206,1.3912931049914,1.054482027480748,0.4401905238628387,-0.7941636443138123,-0.714352548122406,-0.03017963655292988,0.07554673403501511,0.09928061813116074,XTrueNorthZVertical,-0.3553015340108018,0.5741863534933925,0.7368736971411254,-0.03298464553201193,0.4857460558414459,-0.8696446418762207,-0.08814170211553574,19.94773483276367,-20.71338081359863,21.13105964660645,2,10.3.35.51,10.83.46.32,1,0
2015-02-27 20:26:13.627,70,1425097572.05697,37.78751830261811,-122.396910954523,17.07256,0.1460356,-1,10,200,-9999,1425097573.581981,21.56646347045898,-24.09690856933594,23.49871063232422,238.6781311035156,224.9048309326172,10,139600.927109125,0.4829559326171875,-0.959014892578125,-0.118377685546875,139600.8961685833,0.4084892301179129,-0.4267840815423213,-1.070053864936094,139600.8961685833,2.267173445686454,1.413838995674936,1.014229675355661,0.4045282006263733,-0.4191027581691742,-1.046684861183167,0.009057722985744476,0.136381596326828,-0.03717451170086861,XTrueNorthZVertical,-0.3579933953299191,0.5749369499018125,0.7357101794809915,-0.004329588153104636,0.5217803120613098,-0.8490738868713379,-0.08257646858692169,20.87593269348145,-20.01359367370605,20.90764236450195,2,10.3.35.51,10.83.46.32,1,0
2015-02-27 20:26:13.696,71,1425097572.05697,37.78751830261811,-122.396910954523,17.07256,0.1460356,-1,10,200,-9999,1425097573.688391,25.82772827148438,-20.90219116210938,23.33226013183594,248.5321655273438,234.7588653564453,10,139600.9760150833,0.54925537109375,-0.3806610107421875,-0.0347442626953125,139600.9479531667,0.4182686239567929,-1.017395979650284,-1.045375949010984,139600.9479531667,2.22350711791608,1.409708520412148,0.9620703568653425,0.4143076241016388,-1.009714722633362,-1.02200722694397,-0.01246336754411459,-0.08228698372840881,-0.02116871997714043,XTrueNorthZVertical,-0.3587689153483716,0.5704620622477099,0.7381943449934376,0.03044652563633314,0.5644195675849915,-0.8203772306442261,-0.09171580523252487,23.28377914428711,-17.72126007080078,20.42793464660645,2,10.3.35.51,10.83.46.32,1,0
2015-02-27 20:26:13.726,72,1425097572.05697,37.78751830261811,-122.396910954523,17.07256,0.1460356,-1,10,200,-9999,1425097573.688391,25.82772827148438,-20.90219116210938,23.33226013183594,248.5321655273438,234.7588653564453,10,139601.0251665833,0.3972930908203125,-0.681182861328125,-0.0659332275390625,139600.9997364167,0.1502638045016499,-0.4284171319227579,-1.602868243170503,139600.9997364167,2.181626527518755,1.413274692545584,0.8966711928802438,0.1463028490543365,-0.4207359552383423,-1.5794997215271,0.1241606548428535,0.1579318195581436,0.001073551829904318,XTrueNorthZVertical,-0.3667645844313061,0.5626039429256973,0.73789701782553,0.06684695268559809,0.6164857149124146,-0.7812533378601074,-0.09792108833789825,24.91065216064453,-16.12338829040527,19.82356452941895,2,10.3.35.51,10.83.46.32,1,0
2015-02-27 20:26:13.797,73,1425097572.05697,37.78751830261811,-122.396910954523,17.07256,0.1460356,-1,10,200,-9999,1425097573.762672,28.84470367431641,-17.92837524414062,22.71644592285156,256.7889099121094,243.0156097412109,10,139601.0740305,0.7866058349609375,-0.5650787353515625,0.0306243896484375,139601.05151975,0.3683372829950063,-0.5709713513847373,-1.907909910221487,139601.05151975,2.135731844091772,1.427326596431986,0.8224332582150463,0.3643763661384583,-0.5632902979850769,-1.884541630744934,-0.2165552377700806,0.2762454450130463,0.05781351029872894,XTrueNorthZVertical,-0.3800870336912918,0.5539763962276663,0.7332629195548758,0.1047352425690252,0.6734491586685181,-0.7328037023544312,-0.09728799760341644,25.8818531036377,-14.82685852050781,19.59009742736816,2,10.3.35.51,10.83.46.32,1,0
2015-02-27 20:26:13.823,74,1425097572.05697,37.78751830261811,-122.396910954523,17.07256,0.1460356,-1,10,200,-9999,1425097573.815147,30.787841796875,-14.9376220703125,22.35028076171875,262.8852844238281,249.1119995117188,10,139601.1231428334,0.6819305419921875,-0.4310150146484375,0.111328125,139601.1033039583,0.6351953452847613,-0.6204616728700069,-1.833746999133287,139601.05151975,2.135731844091772,1.427326596431986,0.8224332582150463,0.3643763661384583,-0.5632902979850769,-1.884541630744934,-0.2165552377700806,0.2762454450130463,0.05781351029872894,XTrueNorthZVertical,-0.3800870336912918,0.5539763962276663,0.7332629195548758,0.1047352425690252,0.6734491586685181,-0.7328037023544312,-0.09728799760341644,25.8818531036377,-14.82685852050781,19.59009742736816,2,10.3.35.51,10.83.46.32,1,0
2015-02-27 20:26:13.896,75,1425097572.05697,37.78751830261811,-122.396910954523,17.07256,0.1460356,-1,10,200,-9999,1425097573.866911,32.3218994140625,-11.16510009765625,22.21712493896484,270.6928100585938,256.9195251464844,10,139601.1720482083,0.7395477294921875,-0.617645263671875,-0.050018310546875,139601.1550872917,0.9722780360427066,0.04813290827765612,-2.234095212114937,139601.1550872917,2.021516520232961,1.449815029561571,0.6246565573090405,0.9683171510696411,0.05581383034586906,-2.210727214813232,-0.05944636836647987,0.01624572090804577,0.1215933561325073,XTrueNorthZVertical,-0.4124069521837477,0.5300681829194137,0.7117567469698117,0.2057924716255305,0.805234968662262,-0.5848187208175659,-0.09789645671844482,29.66304779052734,-7.487770080566406,18.37157821655273,2,10.3.35.51,10.83.46.32,1,0
2015-02-27 20:26:13.921,76,1425097572.05697,37.78751830261811,-122.396910954523,17.07256,0.1460356,-1,10,200,-9999,1425097573.866911,32.3218994140625,-11.16510009765625,22.21712493896484,270.6928100585938,256.9195251464844,10,139601.2210542917,0.9085235595703125,-0.488037109375,-0.1298370361328125,139601.20687075,0.6831572786204343,0.1483593780061342,-2.051401562387174,139601.20687075,1.961282490992175,1.499756739822538,0.5280241207316985,0.6791964769363403,0.156040221452713,-2.028033971786499,0.1494981497526169,-0.05285884812474251,-0.07331559807062149,XTrueNorthZVertical,-0.4403805381786439,0.5247938965106617,0.6859033100388201,0.2453425728327759,0.8616254925727844,-0.5038275718688965,-0.06131269410252571,30.09428977966309,-4.994126319885254,18.51675987243652,2,10.3.35.51,10.83.46.32,1,0
2015-02-27 20:26:13.991,77,1425097572.05697,37.78751830261811,-122.396910954523,17.07256,0.1460356,-1,10,200,-9999,1425097573.921447,33.51506042480469,-6.54296875,22.54999542236328,279.5195007324219,265.7462158203125,10,139601.2700659583,0.894012451171875,-0.5106048583984375,-0.006622314453125,139601.2586550417,0.102677643195787,0.07701249345458439,-2.052228473905644,139601.20687075,1.961282490992175,1.499756739822538,0.5280241207316985,0.6791964769363403,0.156040221452713,-2.028033971786499,0.1494981497526169,-0.05285884812474251,-0.07331559807062149,XTrueNorthZVertical,-0.4403805381786439,0.5247938965106617,0.6859033100388201,0.2453425728327759,0.8616254925727844,-0.5038275718688965,-0.06131269410252571,30.09428977966309,-4.994126319885254,18.51675987243652,2,10.3.35.51,10.83.46.32,1,0
2015-02-27 20:26:14.020,78,1425097572.05697,37.78751830261811,-122.396910954523,17.07256,0.1460356,-1,10,200,-9999,1425097573.996956,34.52071762084961,0.27130126953125,22.89951324462891,290.1785278320312,276.4052429199219,10,139601.3190715417,1.0489501953125,-0.237579345703125,0.0581817626953125,139601.31043825,-0.156721171196765,0.3181454848786099,-2.063966356410168,139601.2586550417,1.936277879798306,1.51508222020228,0.4262323377356882,0.09871688485145569,0.08469326794147491,-2.028861045837402,0.01547396648675203,-0.2107633650302887,-0.02112000063061714,XTrueNorthZVertical,-0.4661761321248402,0.5072753236846828,0.667376272207868,0.2827727923606236,0.9091171026229858,-0.4134431779384613,-0.05070311948657036,30.12062835693359,0.4458980560302734,19.13183212280273,2,10.3.35.51,10.83.46.32,1,0
2015-02-27 20:26:14.098,79,1425097572.05697,37.78751830261811,-122.396910954523,17.07256,0.1460356,-1,10,200,-9999,1425097574.048851,34.07754516601562,3.87384033203125,23.56526947021484,296.2438354492188,282.4705505371094,10,139601.3680787917,0.972930908203125,-0.26898193359375,0.2125091552734375,139601.3622215833,-0.1299864959617865,0.3912673662966976,-1.793084790345521,139601.3622215833,1.934690845750036,1.538137230280195,0.2259676866988702,-0.1339471787214279,0.3989479839801788,-1.769717931747437,0.1073170900344849,-0.00500012980774045,0.2126245647668839,XTrueNorthZVertical,-0.5230097012334938,0.458856477791257,0.6323724855722751,0.3406121044290212,0.9740580320358276,-0.2240495532751083,-0.03182316944003105,29.44439888000488,5.076893329620361,19.51232147216797,2,10.3.35.51,10.83.46.32,1,0
2015-02-27 20:26:14.117,80,1425097572.05697,37.78751830261811,-122.396910954523,17.07256,0.1460356,-1,10,200,-9999,1425097574.100345,33.31051635742188,7.119537353515625,24.44738388061523,300.8454895019531,287.0722045898438,10,139601.4171809167,1.301040649414062,0.0471649169921875,0.13153076171875,139601.3622215833,-0.1299864959617865,0.3912673662966976,-1.793084790345521,139601.3622215833,1.934690845750036,1.538137230280195,0.2259676866988702,-0.1339471787214279,0.3989479839801788,-1.769717931747437,0.1073170900344849,-0.00500012980774045,0.2126245647668839,XTrueNorthZVertical,-0.5230097012334938,0.458856477791257,0.6323724855722751,0.3406121044290212,0.9740580320358276,-0.2240495532751083,-0.03182316944003105,29.44439888000488,5.076893329620361,19.51232147216797,2,10.3.35.51,10.83.46.32,1,0
2015-02-27 20:26:14.193,81,1425097572.05697,37.78751830261811,-122.396910954523,17.07256,0.1460356,-1,10,200,-9999,1425097574.153936,32.52643966674805,9.804473876953125,24.8801155090332,305.5382995605469,291.7650146484375,10,139601.4660952083,1.23382568359375,-0.0646820068359375,0.1261138916015625,139601.4657893333,-0.1654576711527699,-0.1550795987008401,-1.003713456917784,139601.4140061667,1.943822444610872,1.555200133557185,0.1444642529735375,-0.1713940501213074,0.3287492692470551,-1.434961199760437,0.2836847901344299,0.1566728502511978,0.1207645237445831,XTrueNorthZVertical,-0.5489710082577431,0.4369373866659624,0.6155893527217994,0.3588401900976562,0.9894627928733826,-0.1439622789621353,-0.01543310470879078,28.01928520202637,8.683344841003418,20.32233428955078,2,10.3.35.51,10.83.46.32,1,0
2015-02-27 20:26:14.216,82,1425097572.05697,37.78751830261811,-122.396910954523,17.07256,0.1460356,-1,10,200,-9999,1425097574.204587,31.87872695922852,11.6397705078125,25.21299743652344,308.4866943359375,294.7134094238281,10,139601.5150953333,1.334793090820312,-0.0334014892578125,0.0679779052734375,139601.5175725833,0.1624712023063551,-0.03735083428836131,0.2085966197543095,139601.4657893333,1.951222073893997,1.562101888479492,0.08515850282955054,-0.1694264709949493,-0.1472905725240707,-0.9801454544067383,0.1353143006563187,0.02305915206670761,0.1223713159561157,XTrueNorthZVertical,-0.5654881469894028,0.4193944975073577,0.6043246401439841,0.3729921197259485,0.9963385462760925,-0.08505561202764511,-0.008662821725010872,27.17898750305176,10.1908655166626,20.7587776184082,2,10.3.35.51,10.83.46.32,1,0
2015-02-27 20:26:14.292,83,1425097572.05697,37.78751830261811,-122.396910954523,17.07256,0.1460356,-1,10,200,-9999,1425097574.255663,31.84463500976562,11.91168212890625,25.54586791992188,309.2246704101562,295.4513854980469,10,139601.5640986667,1.203643798828125,-0.115753173828125,-0.07012939453125,139601.5175725833,0.1624712023063551,-0.03735083428836131,0.2085966197543095,139601.5175725833,1.947847937672983,1.560451705354895,0.06812925304394744,0.1585024446249008,-0.02956188656389713,0.2321643978357315,0.3371663987636566,0.03467507287859917,0.07829834520816803,XTrueNorthZVertical,-0.5678702594612456,0.4151664113043967,0.6009880951716658,0.3794384137033948,0.9976267218589783,-0.06807655841112137,-0.01032043900340796,26.89423370361328,10.90574741363525,20.76638984680176,2,10.3.35.51,10.83.46.32,1,0
2015-02-27 20:26:14.313,84,1425097572.05697,37.78751830261811,-122.396910954523,17.07256,0.1460356,-1,10,200,-9999,1425097574.307768,31.99803924560547,11.21493530273438,24.86347198486328,307.9546813964844,294.181396484375,10,139601.6131025417,0.976898193359375,-0.0960693359375,-0.015655517578125,139601.5693570417,-0.1458964866300289,-0.3468991025359774,0.9606759747537764,139601.5693570417,1.953193829016503,1.54771319444843,0.1021841932944725,-0.1498651951551437,-0.3391102254390717,0.9842435121536255,0.2091251015663147,-0.0137467160820961,-0.04716870933771133,XTrueNorthZVertical,-0.5579006580600813,0.4210302996286907,0.6118386843237402,0.3703157407989406,0.9945186972618103,-0.1020064577460289,-0.02296068519353867,27.18466567993164,10.6319522857666,20.52884674072266,2,10.3.35.51,10.83.46.32,1,0
2015-02-27 20:26:14.398,85,1425097572.05697,37.78751830261811,-122.396910954523,17.07256,0.1460356,-1,10,200,-9999,1425097574.361018,32.52643966674805,9.634552001953125,24.8801155090332,304.469970703125,290.6966857910156,10,139601.6621185,1.062942504882812,-0.1702728271484375,0.1160736083984375,139601.672923625,-0.1966478148914509,0.1292325550571851,1.073514376456543,139601.6211404583,1.968879264163417,1.539084335277684,0.1566330812287746,-0.3941500186920166,0.05480397865176201,1.11418342590332,-0.01036325842142105,0.05992405861616135,0.01566300913691521,XTrueNorthZVertical,-0.5467113754077408,0.4306360516869897,0.6265459414174545,0.3508552796642838,0.9872614741325378,-0.1559934020042419,-0.03131852671504021,27.87986946105957,9.165988922119141,20.3021068572998,2,10.3.35.51,10.83.46.32,1,0
2015-02-27 20:26:14.413,86,1425097572.05697,37.78751830261811,-122.396910954523,17.07256,0.1460356,-1,10,200,-9999,1425097574.361018,32.52643966674805,9.634552001953125,24.8801155090332,304.469970703125,290.6966857910156,10,139601.7111665834,1.062286376953125,-0.2800750732421875,0.1183319091796875,139601.672923625,-0.1966478148914509,0.1292325550571851,1.073514376456543,139601.672923625,1.984535898385843,1.539922637100457,0.2109635446302777,-0.2006164491176605,0.1370212733745575,1.097081422805786,0.1035690233111382,-0.009820843115448952,0.1546198427677155,XTrueNorthZVertical,-0.5382578058079115,0.4417989687938138,0.637840076855118,0.329017055796205,0.9773635864257812,-0.2094021737575531,-0.03018441051244736,28.15160179138184,7.999887466430664,20.41977119445801,2,10.3.35.51,10.83.46.32,1,0
2015-02-27 20:26:14.491,87,1425097572.05697,37.78751830261811,-122.396910954523,17.07256,0.1460356,-1,10,200,-9999,1425097574.413421,32.86734390258789,7.629364013671875,25.47929000854492,300.8261108398438,287.0528259277344,10,139601.7601284584,1.152740478515625,-0.3021392822265625,0.204132080078125,139601.7247082083,-0.3253714398643219,0.5071931706511927,1.230560719622406,139601.7247082083,1.999495870722233,1.559190966750989,0.2694589444600892,-0.3293400406837463,0.5149818062782288,1.254127502441406,0.1397570371627808,-0.002771989442408085,0.1529404819011688,XTrueNorthZVertical,-0.5344563468899057,0.4569061700241857,0.6439724799769776,0.3014839814699913,0.9638501405715942,-0.2662099301815033,-0.01118633057922125,28.34249877929688,5.242397308349609,21.04039001464844,2,10.3.35.51,10.83.46.32,1,0
2015-02-27 20:26:14.509,88,1425097572.05697,37.78751830261811,-122.396910954523,17.07256,0.1460356,-1,10,200,-9999,1425097574.489454,32.44121932983398,3.601959228515625,26.79413986206055,293.3279113769531,279.5546264648438,10,139601.8091306667,0.9511871337890625,-0.40374755859375,0.1324920654296875,139601.7764913334,-0.1447004609844743,0.1050593081586449,1.431209135103374,139601.7764913334,2.016306584461041,1.567793357243059,0.3366661058278539,-0.1486690193414688,0.1128478720784187,1.45477569103241,0.21010422706604,0.005787756759673357,0.2119713425636292,XTrueNorthZVertical,-0.5254765248021025,0.471653719128074,0.6536344519739945,0.2723585418065433,0.943856954574585,-0.3303422033786774,-0.002834382234141231,28.18597412109375,3.273901462554932,21.64048194885254,2,10.3.35.51,10.83.46.32,1,0
2015-02-27 20:26:14.592,89,1425097572.05697,37.78751830261811,-122.396910954523,17.07256,0.1460356,-1,10,200,-9999,1425097574.541189,31.96395111083984,0.849090576171875,27.49317169189453,287.7517395019531,273.9784545898438,10,139601.8581529167,1.104949951171875,-0.54901123046875,0.0931396484375,139601.82827475,-0.1967106654931768,0.6080718485306312,1.76477245848078,139601.82827475,2.019769918217398,1.587896330188734,0.4203876678822501,-0.2006791830062866,0.6158603429794312,1.788338780403137,0.004393248818814754,3.334297798573971e-05,0.09632811695337296,XTrueNorthZVertical,-0.5127543036939298,0.4948618022433791,0.6597027750471709,0.2387196060373336,0.9127973318099976,-0.4081144034862518,0.01561035867780447,28.19786834716797,1.94255542755127,21.78496360778809,2,10.3.35.51,10.83.46.32,1,0
2015-02-27 20:26:14.607,90,1425097572.05697,37.78751830261811,-122.396910954523,17.07256,0.1460356,-1,10,200,-9999,1425097574.592568,31.36737442016602,-1.7169189453125,27.64295959472656,282.9399719238281,269.1666870117188,10,139601.907165625,0.868194580078125,-0.588409423828125,0.10980224609375,139601.8800590417,-0.4787644586468149,0.1516566377517613,1.893005795496967,139601.8800590417,2.037117340533701,1.599638713191311,0.5133380834806824,-0.4827329218387604,0.15944504737854,1.916571855545044,0.1325023770332336,-0.1231089606881142,0.03278569504618645,XTrueNorthZVertical,-0.497812703782456,0.5145320365125247,0.6693350624387016,0.1985695105826277,0.8707477450370789,-0.4910878241062164,0.02512140944600105,27.39264869689941,-2.056255340576172,22.77921676635742,2,10.3.35.51,10.83.46.32,1,0
2015-02-27 20:26:14.699,91,1425097572.05697,37.78751830261811,-122.396910954523,17.07256,0.1460356,-1,10,200,-9999,1425097574.644926,30.68556976318359,-5.387420654296875,27.77611541748047,276.4922180175781,262.7189331054688,10,139601.9561953333,0.8970794677734375,-0.6507720947265625,0.0583953857421875,139601.9318424583,-0.5856682721764487,-0.02643240645125446,2.027353484059868,139601.9318424583,2.067225521395279,1.583983086887455,0.6132251645701243,-0.5896366834640503,-0.01864408329129219,2.050919532775879,0.0625545009970665,0.009269572794437408,0.1119121536612511,XTrueNorthZVertical,-0.4744938622504298,0.529384037526029,0.6852803436189712,0.1581105535267801,0.8177250623703003,-0.5755079984664917,0.01078376919031143,26.99650955200195,-4.955779075622559,22.80584907531738,2,10.3.35.51,10.83.46.32,1,0
2015-02-27 20:26:14.705,92,1425097572.05697,37.78751830261811,-122.396910954523,17.07256,0.1460356,-1,10,200,-9999,1425097574.697616,29.57763671875,-9.176910400390625,27.75947952270508,268.5003662109375,254.7270812988281,10,139602.005195375,0.6551055908203125,-0.832916259765625,0.0401458740234375,139601.983625625,-0.4743143164652925,0.05926492163418733,2.221926696462147,139601.983625625,2.097883044971455,1.565522117362041,0.7215023716786871,-0.4782827198505402,0.0670531764626503,2.245492458343506,0.02837103232741356,-0.09208057820796967,0.02306393720209599,XTrueNorthZVertical,-0.4472699940286364,0.5458659046997942,0.6991322707388855,0.1148652059030834,0.7508037686347961,-0.6605134010314941,-0.003959932830184698,26.64435195922852,-6.990863800048828,22.6866569519043,2,10.3.35.51,10.83.46.32,1,0
2015-02-27 20:26:14.794,93,1425097572.05697,37.78751830261811,-122.396910954523,17.07256,0.1460356,-1,10,200,-9999,1425097574.748453,28.28221130371094,-13.05133056640625,26.82743072509766,261.8903198242188,248.1170349121094,10,139602.0542040417,0.6283721923828125,-0.81585693359375,-0.0523834228515625,139602.03541,-0.6817098505679762,-0.1438232157214022,2.461059121275305,139602.03541,2.144867807818519,1.531570592701344,0.8371578283499505,-0.6856781840324402,-0.1360350549221039,2.484624624252319,0.05858442932367325,-0.08193344622850418,0.008084677159786224,XTrueNorthZVertical,-0.4161921609881899,0.560049227864563,0.7131568083964362,0.06735202391811558,0.6690614223480225,-0.7427430748939514,-0.02625789493322372,25.00150299072266,-12.21376705169678,22.34338188171387,2,10.3.35.51,10.83.46.32,1,0
2015-02-27 20:26:14.804,94,1425097572.05697,37.78751830261811,-122.396910954523,17.07256,0.1460356,-1,10,200,-9999,1425097574.799516,26.54361343383789,-17.40158081054688,25.59579467773438,253.2984619140625,239.5251617431641,10,139602.1032135,0.3240966796875,-0.7111358642578125,0.032196044921875,139602.0871933333,-0.5597128378764273,-0.7924733834654618,2.649687891808418,139602.03541,2.144867807818519,1.531570592701344,0.8371578283499505,-0.6856781840324402,-0.1360350549221039,2.484624624252319,0.05858442932367325,-0.08193344622850418,0.008084677159786224,XTrueNorthZVertical,-0.4161921609881899,0.560049227864563,0.7131568083964362,0.06735202391811558,0.6690614223480225,-0.7427430748939514,-0.02625789493322372,25.00150299072266,-12.21376705169678,22.34338188171387,2,10.3.35.51,10.83.46.32,1,0
2015-02-27 20:26:14.897,95,1425097572.05697,37.78751830261811,-122.396910954523,17.07256,0.1460356,-1,10,200,-9999,1425097574.853225,24.43002700805664,-21.7518310546875,24.33087158203125,245.1319732666016,231.3586730957031,10,139602.1522234167,0.32025146484375,-0.4388885498046875,-0.10284423828125,139602.13897675,-0.1816225263373329,-0.551498850126296,2.764023522676027,139602.13897675,2.301906236980662,1.34859570010052,1.095369204096993,-0.1855908036231995,-0.5437108278274536,2.787588596343994,-0.178597092628479,0.3437634408473969,0.02157049067318439,XTrueNorthZVertical,-0.3209360913048704,0.588697559301698,0.7414906579721187,-0.02503585624701802,0.4464651346206665,-0.889097273349762,-0.1008704155683517,22.76741027832031,-17.8979377746582,20.85154342651367,2,10.3.35.51,10.83.46.32,1,0
2015-02-27 20:26:14.902,96,1425097572.05697,37.78751830261811,-122.396910954523,17.07256,0.1460356,-1,10,200,-9999,1425097574.853225,24.43002700805664,-21.7518310546875,24.33087158203125,245.1319732666016,231.3586730957031,10,139602.2013430417,0.457489013671875,-0.410980224609375,-0.1125030517578125,139602.1907610417,0.3597453926861927,-0.5814306502499146,2.050676383622346,139602.13897675,2.301906236980662,1.34859570010052,1.095369204096993,-0.1855908036231995,-0.5437108278274536,2.787588596343994,-0.178597092628479,0.3437634408473969,0.02157049067318439,XTrueNorthZVertical,-0.3209360913048704,0.588697559301698,0.7414906579721187,-0.02503585624701802,0.4464651346206665,-0.889097273349762,-0.1008704155683517,22.76741027832031,-17.8979377746582,20.85154342651367,2,10.3.35.51,10.83.46.32,1,0
2015-02-27 20:26:14.995,97,1425097572.05697,37.78751830261811,-122.396910954523,17.07256,0.1460356,-1,10,200,-9999,1425097574.981585,19.09491729736328,-27.37655639648438,22.28369140625,233.4665679931641,219.6932678222656,10,139602.2502408334,0.552001953125,-0.78240966796875,-0.2739715576171875,139602.2425445417,-0.1089981234108721,-0.414340727665035,0.3666091577636539,139602.2425445417,2.435380129829816,1.176346039997039,1.270668823870422,-0.1129663214087486,-0.4065528810024261,0.3901736438274384,0.2536875903606415,0.2764810621738434,-0.1415420472621918,XTrueNorthZVertical,-0.2482892228252682,0.6176930869149893,0.7421713978340817,-0.07739062883212416,0.272938996553421,-0.9552987813949585,-0.1136154234409332,18.11291694641113,-23.84182739257812,19.41565132141113,2,10.3.35.51,10.83.46.32,1,0
2015-02-27 20:26:15.000,98,1425097572.05697,37.78751830261811,-122.396910954523,17.07256,0.1460356,-1,10,200,-9999,1425097574.981585,19.09491729736328,-27.37655639648438,22.28369140625,233.4665679931641,219.6932678222656,10,139602.29934925,0.29644775390625,-0.786865234375,-0.2763519287109375,139602.2943276667,-0.4587215082828786,0.1940672117951642,-1.08539367281495,139602.2425445417,2.435380129829816,1.176346039997039,1.270668823870422,-0.1129663214087486,-0.4065528810024261,0.3901736438274384,0.2536875903606415,0.2764810621738434,-0.1415420472621918,XTrueNorthZVertical,-0.2482892228252682,0.6176930869149893,0.7421713978340817,-0.07739062883212416,0.272938996553421,-0.9552987813949585,-0.1136154234409332,18.11291694641113,-23.84182739257812,19.41565132141113,2,10.3.35.51,10.83.46.32,1,0
2015-02-27 20:26:15.093,99,1425097572.05697,37.78751830261811,-122.396910954523,17.07256,0.1460356,-1,10,200,-9999,1425097575.087299,20.95283126831055,-26.54391479492188,21.76774597167969,237.2845001220703,223.5111999511719,10,139602.348240125,0.5116729736328125,-0.6309356689453125,-0.2378997802734375,139602.3461121667,0.2133476991390108,0.3139877577847782,-1.454143745778919,139602.2943276667,2.413274181652675,1.185287723232034,1.258059084631254,-0.4626896679401398,0.2018549889326096,-1.061829447746277,0.1799887418746948,0.2193782776594162,-0.2006388455629349,XTrueNorthZVertical,-0.2482133126641773,0.6168829672567315,0.743770278306447,-0.06820051481129429,0.2850838899612427,-0.9514949917793274,-0.1156911104917526,17.98612213134766,-24.16820526123047,19.12786293029785,2,10.3.35.51,10.83.46.32,1,0
2015-02-27 20:26:15.099,100,1425097572.05697,37.78751830261811,-122.396910954523,17.07256,0.1460356,-1,10,200,-9999,1425097575.087299,20.95283126831055,-26.54391479492188,21.76774597167969,237.2845001220703,223.5111999511719,10,139602.3972345417,0.52105712890625,-0.7091522216796875,0.035858154296875,139602.3461121667,0.2133476991390108,0.3139877577847782,-1.454143745778919,139602.3461121667,2.372651718038705,1.236800096462038,1.188428042084337,0.209379568696022,0.3217754662036896,-1.430579781532288,0.153740718960762,0.1984592527151108,-0.02133007347583771,XTrueNorthZVertical,-0.2741948918403061,0.6030415228037301,0.747587839002533,-0.04764962776909195,0.3525001108646393,-0.9277836084365845,-0.1223161667585373,19.51275253295898,-23.18641662597656,18.84464263916016,2,10.3.35.51,10.83.46.32,1,0
2015-02-27 20:26:15.163,101,1425097572.05697,37.78751830261811,-122.396910954523,17.07256,0.1460356,-1,10,200,-9999,1425097575.139548,23.52663421630859,-25.06550598144531,21.65123748779297,242.3318634033203,228.5585632324219,10,139602.4462374584,0.39898681640625,-0.6342620849609375,-0.0858001708984375,139602.44967875,0.0006980145217097683,-0.5767165888043653,-2.661825514792564,139602.3978954583,2.288973919523303,1.302189936875878,1.107080185504439,0.1207669228315353,-0.5152508020401001,-2.105296611785889,0.08982080221176147,0.1852443218231201,0.1545595526695251,XTrueNorthZVertical,-0.2964989830478693,0.5939172086659574,0.7478267107168544,-0.01029048240829541,0.4312363266944885,-0.8943965435028076,-0.1187014058232307,20.99269866943359,-21.60945129394531,19.12632369995117,2,10.3.35.51,10.83.46.32,1,0
2015-02-27 20:26:15.197,102,1425097572.05697,37.78751830261811,-122.396910954523,17.07256,0.1460356,-1,10,200,-9999,1425097575.139548,23.52663421630859,-25.06550598144531,21.65123748779297,242.3318634033203,228.5585632324219,10,139602.4952377084,0.5396881103515625,-0.4690704345703125,-0.0361328125,139602.44967875,0.0006980145217097683,-0.5767165888043653,-2.661825514792564,139602.44967875,2.223399511242152,1.33968370406622,0.9924085029621263,-0.003275894792750478,-0.5688298940658569,-2.638046503067017,-0.1331529468297958,0.2030829936265945,0.03942151367664337,XTrueNorthZVertical,-0.3240618703819856,0.5765180494977422,0.7489791911988578,0.04050919533539019,0.532139778137207,-0.8373450636863708,-0.1252216845750809,22.54437255859375,-20.20948600769043,18.88930511474609,2,10.3.35.51,10.83.46.32,1,0
2015-02-27 20:26:15.272,103,1425097572.05697,37.78751830261811,-122.396910954523,17.07256,0.1460356,-1,10,200,-9999,1425097575.266401,30.2764892578125,-15.95721435546875,21.68451690673828,261.763671875,247.9903717041016,10,139602.5442481667,0.7985076904296875,-0.9889373779296875,-0.17254638671875,139602.5532464584,0.6364065509485293,0.531602373622314,-2.358232873690691,139602.5014630417,2.147659426037198,1.373047409249936,0.8728229809417105,0.3017655313014984,-0.2629866600036621,-2.837136030197144,-0.09045343846082687,0.2970757782459259,0.09012708812952042,XTrueNorthZVertical,-0.3490869442404899,0.561256052371487,0.7439035822725022,0.09867821597048716,0.63014155626297,-0.7661462426185608,-0.1262598931789398,26.52167129516602,-15.44990539550781,18.20382499694824,2,10.3.35.51,10.83.46.32,1,0
2015-02-27 20:26:15.329,104,1425097572.05697,37.78751830261811,-122.396910954523,17.07256,0.1460356,-1,10,200,-9999,1425097575.266401,30.2764892578125,-15.95721435546875,21.68451690673828,261.763671875,247.9903717041016,10,139602.5932343334,0.5601348876953125,-0.4922637939453125,-0.08587646484375,139602.5532464584,0.6364065509485293,0.531602373622314,-2.358232873690691,139602.5532464584,2.083808434130376,1.425577232346154,0.7403279641155344,0.6324326992034912,0.5394889712333679,-2.334454298019409,0.06803096085786819,-0.3144073188304901,-0.06571518629789352,XTrueNorthZVertical,-0.3882549769971033,0.5439140308175426,0.7283030850345974,0.1516251866730856,0.7304767370223999,-0.6745300889015198,-0.1068312004208565,28.42301940917969,-11.61959457397461,18.18227005004883,2,10.3.35.51,10.83.46.32,1,0
2015-02-27 20:26:15.361,105,1425097572.05697,37.78751830261811,-122.396910954523,17.07256,0.1460356,-1,10,200,-9999,1425097575.32163,31.84463500976562,-11.43701171875,22.38355255126953,270.4728088378906,256.6995239257812,10,139602.6422392083,1.16729736328125,-0.5821533203125,-0.0350799560546875,139602.6050295834,-0.01856995596501352,0.5352426485163433,-2.933280992072122,139602.6050295834,2.051550849170488,1.473269769797398,0.6058462844394991,-0.02254374511539936,0.5431290864944458,-2.909502744674683,0.03758338093757629,-0.1353760361671448,0.002313526347279549,XTrueNorthZVertical,-0.4337517167640696,0.5213813856730172,0.7084704832296169,0.195167759268964,0.8181142210960388,-0.5694579482078552,-0.0800417959690094,28.91910743713379,-9.18194580078125,18.78443717956543,2,10.3.35.51,10.83.46.32,1,0
2015-02-27 20:26:15.395,106,1425097572.05697,37.78751830261811,-122.396910954523,17.07256,0.1460356,-1,10,200,-9999,1425097575.32163,31.84463500976562,-11.43701171875,22.38355255126953,270.4728088378906,256.6995239257812,10,139602.69125025,1.01544189453125,-0.450347900390625,0.071380615234375,139602.656814,0.2531433153080649,0.1289113778297216,-2.512512458800072,139602.656814,2.022274408509353,1.501440347384265,0.4816792311123143,0.2491695582866669,0.136797770857811,-2.488734483718872,-0.002770467661321163,0.003612231463193893,0.08521898090839386,XTrueNorthZVertical,-0.4688162978552007,0.4995033983939327,0.6881409779524148,0.2391016714887571,0.8840876221656799,-0.463267982006073,-0.06141526624560356,29.52807998657227,-3.017032623291016,19.81080436706543,2,10.3.35.51,10.83.46.32,1,0
2015-02-27 20:26:15.464,107,1425097572.05697,37.78751830261811,-122.396910954523,17.07256,0.1460356,-1,10,200,-9999,1425097575.45004,32.76506423950195,0.05035400390625,24.8801155090332,289.1510925292969,275.3778076171875,10,139602.7403400417,0.9758148193359375,-0.2904052734375,0.159454345703125,139602.70859725,0.3302029467139437,0.392862599789655,-2.384761153941189,139602.70859725,2.003095536012276,1.523923373587134,0.3561244719642973,0.3262292146682739,0.4007489085197449,-2.360983371734619,0.3524706959724426,-0.172870397567749,0.1336069852113724,XTrueNorthZVertical,-0.5032152371915208,0.4741481965290211,0.6656653950073131,0.2807979267446314,0.9362255930900574,-0.348644495010376,-0.04391582682728767,29.49169158935547,0.537592887878418,20.08554840087891,2,10.3.35.51,10.83.46.32,1,0
2015-02-27 20:26:15.497,108,1425097572.05697,37.78751830261811,-122.396910954523,17.07256,0.1460356,-1,10,200,-9999,1425097575.45004,32.76506423950195,0.05035400390625,24.8801155090332,289.1510925292969,275.3778076171875,10,139602.7892715,1.339309692382812,-0.276123046875,0.2093658447265625,139602.7603805417,0.02268693669416701,0.4936800249640217,-2.151898076650186,139602.7603805417,1.995151581886009,1.548208579872178,0.2462823545905695,0.01871326565742493,0.5015662908554077,-2.12812066078186,-0.03046063892543316,0.04221632331609726,0.1751330643892288,XTrueNorthZVertical,-0.5352537537954282,0.4500569567640578,0.6427737868289464,0.3127203138101548,0.9695780873298645,-0.2438001781702042,-0.02190431021153927,29.13162994384766,2.837577819824219,20.4150505065918,2,10.3.35.51,10.83.46.32,1,0
2015-02-27 20:26:15.564,109,1425097572.05697,37.78751830261811,-122.396910954523,17.07256,0.1460356,-1,10,200,-9999,1425097575.555176,31.02646255493164,8.275054931640625,26.54448699951172,302.2493286132812,288.4760437011719,10,139602.8382832917,1.191116333007812,0.0764617919921875,0.2469482421875,139602.8121650833,-0.3295043995600159,0.4898970046355641,-1.713261064044249,139602.8121650833,1.998663602281153,1.582030701759392,0.1497333556546457,-0.3334780335426331,0.4977831840515137,-1.689483761787415,0.3076077401638031,-0.009349082596600056,0.1238250359892845,XTrueNorthZVertical,-0.5679657071247468,0.4277489622859905,0.6185137307215497,0.3344944344682319,0.9887484908103943,-0.1491744816303253,0.01110843848437071,27.42737770080566,7.346199512481689,21.61597061157227,2,10.3.35.51,10.83.46.32,1,0
2015-02-27 20:26:15.599,110,1425097572.05697,37.78751830261811,-122.396910954523,17.07256,0.1460356,-1,10,200,-9999,1425097575.555176,31.02646255493164,8.275054931640625,26.54448699951172,302.2493286132812,288.4760437011719,10,139602.8872956667,1.342208862304688,0.0156707763671875,0.13958740234375,139602.8639482083,0.4346979310376007,0.08412286724898695,-1.288497522820971,139602.8639482083,1.993814369981283,1.58617584563724,0.07642308428625121,0.4307243227958679,0.09200895577669144,-1.264720559120178,0.1140139326453209,0.1266722083091736,0.4205180406570435,XTrueNorthZVertical,-0.5833851131324512,0.4090584576167378,0.6035891498205709,0.3577891938478578,0.9969632625579834,-0.07634871453046799,0.01533402409404516,26.54476547241211,9.158705711364746,22.02207183837891,2,10.3.35.51,10.83.46.32,1,0
2015-02-27 20:26:15.646,111,1425097572.05697,37.78751830261811,-122.396910954523,17.07256,0.1460356,-1,10,200,-9999,1425097575.629708,29.32194900512695,12.0135498046875,27.14366149902344,309.1880493164062,295.4147644042969,10,139602.9364776667,1.190475463867188,-0.0347747802734375,-0.0596923828125,139602.9157315417,0.5020194476014957,0.001762746325523448,-0.4694354053482673,139602.9157315417,1.973736191410028,1.59220392156633,0.03228766120129341,0.4980459213256836,0.009648760780692101,-0.4456586241722107,0.2546259760856628,0.04220026358962059,-0.03550918400287628,XTrueNorthZVertical,-0.5899192414475225,0.4033518188812667,0.5898773775981729,0.3759617788563397,0.9992497563362122,-0.03228205069899559,0.02139480225741863,26.11585807800293,10.4325008392334,21.96822547912598,2,10.3.35.51,10.83.46.32,1,0
2015-02-27 20:26:15.695,112,1425097572.05697,37.78751830261811,-122.396910954523,17.07256,0.1460356,-1,10,200,-9999,1425097575.682066,29.16854476928711,12.84619140625,26.99387359619141,311.1469116210938,297.3736267089844,10,139602.9853142083,1.217239379882812,0.0440521240234375,0.0901947021484375,139602.967515875,-0.2531334616120316,-0.1595462524811211,0.1916322836105047,139602.9157315417,1.973736191410028,1.59220392156633,0.03228766120129341,0.4980459213256836,0.009648760780692101,-0.4456586241722107,0.2546259760856628,0.04220026358962059,-0.03550918400287628,XTrueNorthZVertical,-0.5899192414475225,0.4033518188812667,0.5898773775981729,0.3759617788563397,0.9992497563362122,-0.03228205069899559,0.02139480225741863,26.11585807800293,10.4325008392334,21.96822547912598,2,10.3.35.51,10.83.46.32,1,0
2015-02-27 20:26:15.744,113,1425097572.05697,37.78751830261811,-122.396910954523,17.07256,0.1460356,-1,10,200,-9999,1425097575.737659,29.67989730834961,12.13250732421875,27.06044006347656,309.9333190917969,296.1600341796875,10,139603.0344312917,1.068954467773438,0.011932373046875,0.0191497802734375,139603.0192992917,-0.3616588739294146,-0.0200277703457229,0.8659633137461984,139603.0192992917,1.98618585853035,1.589250272145228,0.05909633156152973,-0.3656323552131653,-0.01214192155748606,0.8897395730018616,0.1475608199834824,0.0685376450419426,0.04528475925326347,XTrueNorthZVertical,-0.5862335586702394,0.4068667559056939,0.5981230318187296,0.3647444001260901,0.9980843067169189,-0.05906194075942039,0.01842068508267403,25.86660003662109,11.21902084350586,21.87534332275391,2,10.3.35.51,10.83.46.32,1,0
2015-02-27 20:26:15.791,114,1425097572.05697,37.78751830261811,-122.396910954523,17.07256,0.1460356,-1,10,200,-9999,1425097575.787702,30.20829772949219,10.41619873046875,27.3433837890625,306.084228515625,292.3109436035156,10,139603.083328375,1.06781005859375,-0.09014892578125,0.1507568359375,139603.0710824583,-0.3977777298975053,-0.1133191022795256,1.119141782780652,139603.0710824583,2.007236123078433,1.587494747713778,0.1124871494245184,-0.4017511606216431,-0.1054333224892616,1.14291787147522,0.1187327355146408,0.07871125638484955,0.0994051992893219,XTrueNorthZVertical,-0.5792194654145562,0.4156932384887453,0.6119859944467836,0.3423113581936236,0.993541419506073,-0.1122500747442245,0.0165921151638031,26.1411075592041,10.31460571289062,21.99385070800781,2,10.3.35.51,10.83.46.32,4,0
2015-02-27 20:26:15.843,115,1425097572.05697,37.78751830261811,-122.396910954523,17.07256,0.1460356,-1,10,200,-9999,1425097575.837947,30.73670196533203,8.394012451171875,27.39331436157227,302.428955078125,288.6556701660156,10,139603.132458875,1.009780883789062,-0.061553955078125,0.2281951904296875,139603.1228669584,-0.04776485941500717,-0.1125268118552271,1.108707783945831,139603.0710824583,2.007236123078433,1.587494747713778,0.1124871494245184,-0.4017511606216431,-0.1054333224892616,1.14291787147522,0.1187327355146408,0.07871125638484955,0.0994051992893219,XTrueNorthZVertical,-0.5792194654145562,0.4156932384887453,0.6119859944467836,0.3423113581936236,0.993541419506073,-0.1122500747442245,0.0165921151638031,26.1411075592041,10.31460571289062,21.99385070800781,2,10.3.35.51,10.83.46.32,4,0
2015-02-27 20:26:15.898,116,1425097572.05697,37.78751830261811,-122.396910954523,17.07256,0.1460356,-1,10,200,-9999,1425097575.837947,30.73670196533203,8.394012451171875,27.39331436157227,302.428955078125,288.6556701660156,10,139603.181362,1.067367553710938,-0.286865234375,0.1436614990234375,139603.174650125,0.04775766888006396,0.3451342256815819,1.237651652340851,139603.1228669584,2.01817630648361,1.579119630874413,0.1694085541863332,-0.05173825100064278,-0.1046411246061325,1.132483601570129,0.05240492522716522,0.06938675045967102,0.2066091746091843,XTrueNorthZVertical,-0.5670572081420505,0.4272565409821359,0.625821140859113,0.3228712615326566,0.9856504797935486,-0.168599396944046,0.008204057812690735,26.99252319335938,7.483439922332764,22.11062812805176,2,10.3.35.51,10.83.46.32,4,0
2015-02-27 20:26:15.972,117,1425097572.05697,37.78751830261811,-122.396910954523,17.07256,0.1460356,-1,10,200,-9999,1425097575.941478,30.90715026855469,4.791473388671875,27.92592239379883,295.1213684082031,281.3480834960938,10,139603.2303917917,1.08868408203125,-0.3387298583984375,0.1496734619140625,139603.226433375,-0.3440852065281997,0.1630464451018122,1.318790980220623,139603.226433375,2.026171273182606,1.599962399287848,0.2954928287344105,-0.3480585217475891,0.1709319949150085,1.342566251754761,0.1139233186841011,-0.04400898143649101,0.08179741352796555,XTrueNorthZVertical,-0.5477308858515975,0.462536363591447,0.6405932319796855,0.2751204848233108,0.956251859664917,-0.2912113666534424,0.02789802104234695,27.3665943145752,5.016909122467041,22.34677314758301,2,10.3.35.51,10.83.46.32,4,0
2015-02-27 20:26:15.988,118,1425097572.05697,37.78751830261811,-122.396910954523,17.07256,0.1460356,-1,10,200,-9999,1425097575.941478,30.90715026855469,4.791473388671875,27.92592239379883,295.1213684082031,281.3480834960938,10,139603.2794005417,1.109268188476562,-0.2752685546875,0.297821044921875,139603.226433375,-0.3440852065281997,0.1630464451018122,1.318790980220623,139603.226433375,2.026171273182606,1.599962399287848,0.2954928287344105,-0.3480585217475891,0.1709319949150085,1.342566251754761,0.1139233186841011,-0.04400898143649101,0.08179741352796555,XTrueNorthZVertical,-0.5477308858515975,0.462536363591447,0.6405932319796855,0.2751204848233108,0.956251859664917,-0.2912113666534424,0.02789802104234695,27.3665943145752,5.016909122467041,22.34677314758301,2,10.3.35.51,10.83.46.32,4,0
2015-02-27 20:26:16.041,119,1425097572.05697,37.78751830261811,-122.396910954523,17.07256,0.1460356,-1,10,200,-9999,1425097575.99332,31.07759857177734,2.072540283203125,28.22550582885742,290.5381164550781,276.7648315429688,10,139603.3284167083,0.88983154296875,-0.5552520751953125,0.1437225341796875,139603.3300010833,-0.02732030435868687,0.226763639446394,1.801005031427417,139603.27821775,2.045969980977014,1.598069600639065,0.367959781943239,-0.3796539604663849,-0.06663644313812256,1.519869208335876,0.1162035167217255,0.05778687074780464,0.2226938903331757,XTrueNorthZVertical,-0.5350345493415786,0.4758784479078154,0.6535846540766471,0.2451628331761968,0.9327161312103271,-0.359712541103363,0.02544453181326389,27.31947326660156,1.654487609863281,22.89949798583984,2,10.3.35.51,10.83.46.32,4,0
2015-02-27 20:26:16.095,120,1425097572.05697,37.78751830261811,-122.396910954523,17.07256,0.1460356,-1,10,200,-9999,1425097576.046539,30.65147399902344,-0.59539794921875,28.17557144165039,284.7721252441406,270.9988403320312,10,139603.3774322917,0.992889404296875,-0.5728302001953125,0.0793609619140625,139603.3300010833,-0.02732030435868687,0.226763639446394,1.801005031427417,139603.3300010833,2.051303190993934,1.597053662446965,0.4538936419778198,-0.03129353746771812,0.2346490174531937,1.824779868125916,-0.008605314418673515,-0.1167838275432587,0.1201265528798103,XTrueNorthZVertical,-0.5153822870648122,0.4961643767322323,0.6649017575764885,0.2147269037666755,0.8984368443489075,-0.4384682476520538,0.02359598129987717,27.40209579467773,-0.6093358993530273,22.85239219665527,2,10.3.35.51,10.83.46.32,4,0
2015-02-27 20:26:16.141,121,1425097572.05697,37.78751830261811,-122.396910954523,17.07256,0.1460356,-1,10,200,-9999,1425097576.096904,29.93558883666992,-3.6881103515625,28.14228820800781,278.4736022949219,264.7003173828125,10,139603.4264524167,0.855316162109375,-0.732177734375,0.06805419921875,139603.381784375,-0.4847230152697582,0.1246199600491679,1.920609460195639,139603.381784375,2.062519313182605,1.607539798488548,0.548941763441457,-0.4886961877346039,0.1325052529573441,1.944384098052979,0.1403880566358566,-0.05104543641209602,0.04802299663424492,XTrueNorthZVertical,-0.4979470962915046,0.5174144093751074,0.6733772557537527,0.175767092162272,0.8525013327598572,-0.521784782409668,0.03133796527981758,27.18614196777344,-2.130667686462402,23.01851272583008,2,10.3.35.51,10.83.46.32,4,0
2015-02-27 20:26:16.197,122,1425097572.05697,37.78751830261811,-122.396910954523,17.07256,0.1460356,-1,10,200,-9999,1425097576.148698,29.50946426391602,-7.545562744140625,27.82605743408203,272.2565002441406,258.4832153320312,10,139603.475449625,0.707550048828125,-0.761138916015625,0.1171722412109375,139603.4335689167,-0.541953281831125,-0.3329473342172704,2.1548874749738,139603.4335689167,2.088415254164947,1.582544467878728,0.6537385013775574,-0.5459301471710205,-0.3249715566635132,2.178889513015747,0.06155521422624588,-0.1240194067358971,0.05872855335474014,XTrueNorthZVertical,-0.4689017791817031,0.5336608883853551,0.6903086613070886,0.1371536029427214,0.7937609553337097,-0.6081583499908447,0.009325644932687283,26.35663986206055,-6.749188423156738,23.0922908782959,2,10.3.35.51,10.83.46.32,4,0
2015-02-27 20:26:16.234,123,1425097572.05697,37.78751830261811,-122.396910954523,17.07256,0.1460356,-1,10,200,-9999,1425097576.20035,28.69130706787109,-11.75982666015625,27.02716064453125,265.4157409667969,251.6424560546875,10,139603.5244690417,0.6853790283203125,-0.7686767578125,0.012237548828125,139603.5371355,-0.3777531553450905,-1.030534951204299,2.584424732451045,139603.4853520417,2.133640839193679,1.544961694181731,0.7661419146171046,-0.7052568793296814,-0.162609875202179,2.346325397491455,0.01754919439554214,-0.08500578254461288,0.1197341307997704,XTrueNorthZVertical,-0.4375779859483208,0.5470086280493244,0.7076560311173445,0.09235794315608752,0.7203505635261536,-0.6933603286743164,-0.01861413381993771,25.77789115905762,-9.950807571411133,22.58229064941406,2,10.3.35.51,10.83.46.32,4,0
2015-02-27 20:26:16.296,124,1425097572.05697,37.78751830261811,-122.396910954523,17.07256,0.1460356,-1,10,200,-9999,1425097576.255188,27.3958740234375,-15.70223999023438,26.16169357299805,257.2720336914062,243.4987335205078,10,139603.5734780833,0.271453857421875,-0.81488037109375,-0.0060272216796875,139603.5371355,-0.3777531553450905,-1.030534951204299,2.584424732451045,139603.5371355,2.186052713324311,1.476104811026359,0.8889218738930876,-0.3817299604415894,-1.022559404373169,2.608426332473755,-0.01841717399656773,0.006327402777969837,0.06390836089849472,XTrueNorthZVertical,-0.3931973585118503,0.5617835649921575,0.726137523432022,0.05019304150759994,0.6274259686470032,-0.7763926982879639,-0.05959012731909752,25.11059951782227,-12.20560550689697,22.22518730163574,2,10.3.35.51,10.83.46.32,4,0
2015-02-27 20:26:16.339,125,1425097572.05697,37.78751830261811,-122.396910954523,17.07256,0.1460356,-1,10,200,-9999,1425097576.306743,26.01522064208984,-19.45770263671875,24.71369171142578,251.3500213623047,237.5767211914062,10,139603.6224881667,0.27203369140625,-0.5444793701171875,-0.0693817138671875,139603.5889197083,-0.454366440952272,-0.5233135510455513,2.894685129974149,139603.5889197083,2.252024103066709,1.377302685245192,1.025033936733186,-0.4583432078361511,-0.5153379440307617,2.918686389923096,-0.3276205062866211,0.03802037984132767,0.06209143996238708,XTrueNorthZVertical,-0.3370508887663881,0.5800785426061142,0.7415106837257581,0.008213994039514765,0.5093832015991211,-0.8547317981719971,-0.09981116652488708,23.48212814331055,-17.70825386047363,20.21102714538574,2,10.3.35.51,10.83.46.32,4,0
2015-02-27 20:26:16.400,126,1425097572.05697,37.78751830261811,-122.396910954523,17.07256,0.1460356,-1,10,200,-9999,1425097576.381683,22.70847320556641,-25.26936340332031,22.01741027832031,240.9804840087891,227.2071838378906,10,139603.6714909583,0.251678466796875,-0.3947296142578125,-0.0941925048828125,139603.6407029583,0.2456347989306955,-1.488619963986649,3.178341347155687,139603.6407029583,2.363285953564228,1.228866253603418,1.171774229206945,0.2416580617427826,-1.480644464492798,3.202342510223389,-0.1060008183121681,0.4198086857795715,0.06917604804039001,XTrueNorthZVertical,-0.2730155231482046,0.6002719422969804,0.7508627013322821,-0.03662381939229006,0.36602583527565,-0.921441376209259,-0.13027223944664,21.4798698425293,-21.09223937988281,19.16274070739746,2,10.3.35.51,10.83.46.32,4,0
2015-02-27 20:26:16.431,127,1425097572.05697,37.78751830261811,-122.396910954523,17.07256,0.1460356,-1,10,200,-9999,1425097576.381683,22.70847320556641,-25.26936340332031,22.01741027832031,240.9804840087891,227.2071838378906,10,139603.7206024583,0.876068115234375,-0.6080169677734375,-0.4215850830078125,139603.6924862917,0.06898173118745045,-0.2343336748449442,2.021641003521648,139603.6924862917,2.496275335546728,1.059714584013572,1.309423913076654,0.06500504165887833,-0.2263582944869995,2.045641899108887,0.3589185178279877,0.5243248343467712,-0.1494715809822083,XTrueNorthZVertical,-0.2136055636424157,0.6254411455609726,0.7467223712208985,-0.07484462523382142,0.2253862917423248,-0.9660362601280212,-0.1263920664787292,20.15594100952148,-22.98282241821289,18.41211318969727,2,10.3.35.51,10.83.46.32,4,0
2015-02-27 20:26:16.495,128,1425097572.05697,37.78751830261811,-122.396910954523,17.07256,0.1460356,-1,10,200,-9999,1425097576.486994,18.24266052246094,-29.24575805664062,20.51946258544922,232.3561248779297,218.5828247070312,10,139603.7694965834,0.20745849609375,-1.073394775390625,-0.2722930908203125,139603.7442708334,-0.2031001215804949,0.2492401864144448,-0.2530162825240681,139603.7442708334,2.586169487467714,0.9637773336881621,1.332913849666963,-0.207076758146286,0.2572154998779297,-0.2290157079696655,0.1895394772291183,0.1823493987321854,-0.2762579619884491,XTrueNorthZVertical,-0.2001413421273949,0.6266856432655766,0.7483679760214353,-0.08458073746193082,0.1935476809740067,-0.9718391299247742,-0.1344171017408371,17.36652183532715,-25.49712944030762,17.93817901611328,2,10.3.35.51,10.83.46.32,4,0
2015-02-27 20:26:16.529,129,1425097572.05697,37.78751830261811,-122.396910954523,17.07256,0.1460356,-1,10,200,-9999,1425097576.486994,18.24266052246094,-29.24575805664062,20.51946258544922,232.3561248779297,218.5828247070312,10,139603.8186129167,0.4291534423828125,-0.8969573974609375,-0.1579742431640625,139603.796054,-0.2789088662223635,0.1533405545090184,-0.6687967150744,139603.796054,2.568148334887489,1.001670230133206,1.302159687112624,-0.2828854918479919,0.1613157838582993,-0.6447963714599609,0.00426418986171484,0.04419651627540588,-0.1043432131409645,XTrueNorthZVertical,-0.2159950961458209,0.6179239287029268,0.7515492450174132,-0.08179150370803828,0.2235800474882126,-0.9641336798667908,-0.1430322676897049,17.48988151550293,-25.3794994354248,17.98507881164551,2,10.3.35.51,10.83.46.32,4,0
2015-02-27 20:26:16.592,130,1425097572.05697,37.78751830261811,-122.396910954523,17.07256,0.1460356,-1,10,200,-9999,1425097576.539136,18.12334823608398,-29.22877502441406,20.60269165039062,231.5858306884766,217.8125305175781,10,139603.8675099167,0.33087158203125,-0.910308837890625,-0.178466796875,139603.8478374167,-0.1047314730284561,0.1653074688672895,-0.9116069653529575,139603.8478374167,2.502310295716823,1.067661031931461,1.277214487782464,-0.1087080463767052,0.1732826232910156,-0.8876068592071533,0.2796517014503479,-0.00662317406386137,-0.09467419981956482,XTrueNorthZVertical,-0.2266202640453853,0.6155296721740037,0.7515061581783825,-0.07074569813846544,0.2535209059715271,-0.9572135210037231,-0.1395329535007477,17.8706111907959,-25.18909454345703,17.87816619873047,2,10.3.35.51,10.83.46.32,4,0
2015-02-27 20:26:16.627,131,1425097572.05697,37.78751830261811,-122.396910954523,17.07256,0.1460356,-1,10,200,-9999,1425097576.589917,18.94151306152344,-28.75296020507812,20.53610229492188,233.0709381103516,219.2976379394531,10,139603.916633125,0.5166168212890625,-0.4244232177734375,-0.31842041015625,139603.8996218333,0.2500678968812414,-0.0677737213169905,-1.471483055004207,139603.8996218333,2.438013518926293,1.131271724531427,1.216496526503514,0.246091365814209,-0.05979865416884422,-1.44748318195343,0.2553921341896057,0.3552785515785217,-0.00307228765450418,XTrueNorthZVertical,-0.2466588665247944,0.6044399449123002,0.7559320993054743,-0.0487688300711069,0.3139590620994568,-0.9378896355628967,-0.1476235091686249,19.41536331176758,-24.05650329589844,17.82712173461914,2,10.3.35.51,10.83.46.32,4,0
2015-02-27 20:26:16.694,132,1425097572.05697,37.78751830261811,-122.396910954523,17.07256,0.1460356,-1,10,200,-9999,1425097576.641108,20.66306304931641,-27.81834411621094,20.68589782714844,236.2950592041016,222.5217590332031,10,139603.9655240834,0.4502716064453125,-0.5800323486328125,-0.0516815185546875,139603.951405125,0.2565194046219583,-0.402439859701798,-2.320515854752444,139603.8996218333,2.438013518926293,1.131271724531427,1.216496526503514,0.246091365814209,-0.05979865416884422,-1.44748318195343,0.2553921341896057,0.3552785515785217,-0.00307228765450418,XTrueNorthZVertical,-0.2466588665247944,0.6044399449123002,0.7559320993054743,-0.0487688300711069,0.3139590620994568,-0.9378896355628967,-0.1476235091686249,19.41536331176758,-24.05650329589844,17.82712173461914,2,10.3.35.51,10.83.46.32,4,0
2015-02-27 20:26:16.726,133,1425097572.05697,37.78751830261811,-122.396910954523,17.07256,0.1460356,-1,10,200,-9999,1425097576.693161,23.13460540771484,-25.6942138671875,20.50282287597656,241.5015411376953,227.7282409667969,10,139604.0145363333,0.3902740478515625,-1.114654541015625,0.0192413330078125,139604.00318825,0.2771288093497545,-0.3777757922143561,-2.515665907846835,139604.00318825,2.226926872874039,1.30112069607602,1.013825262037475,0.2731523513793945,-0.369800865650177,-2.491666316986084,-0.07686412334442139,0.07951200753450394,-0.01620982587337494,XTrueNorthZVertical,-0.3044790448210994,0.5804099380160105,0.7540129179183908,0.04337413649910598,0.5095118284225464,-0.8488601446151733,-0.1408336311578751,22.70121002197266,-20.85843849182129,17.97383308410645,2,10.3.35.51,10.83.46.32,4,0
2015-02-27 20:26:16.800,134,1425097572.05697,37.78751830261811,-122.396910954523,17.07256,0.1460356,-1,10,200,-9999,1425097576.745438,26.56066513061523,-22.85635375976562,20.75247192382812,249.7715606689453,235.9982604980469,10,139604.0635177083,0.4466552734375,-0.3994140625,-0.0679931640625,139604.0549725833,0.1961961427705735,-0.1977807236191707,-2.512725511687278,139604.00318825,2.226926872874039,1.30112069607602,1.013825262037475,0.2731523513793945,-0.369800865650177,-2.491666316986084,-0.07686412334442139,0.07951200753450394,-0.01620982587337494,XTrueNorthZVertical,-0.3044790448210994,0.5804099380160105,0.7540129179183908,0.04337413649910598,0.5095118284225464,-0.8488601446151733,-0.1408336311578751,22.70121002197266,-20.85843849182129,17.97383308410645,2,10.3.35.51,10.83.46.32,4,0
2015-02-27 20:26:16.825,135,1425097572.05697,37.78751830261811,-122.396910954523,17.07256,0.1460356,-1,10,200,-9999,1425097576.796908,29.47536849975586,-18.62503051757812,20.90225982666016,257.4524536132812,243.6791687011719,10,139604.1125207917,0.42193603515625,-0.57879638671875,-0.042083740234375,139604.106755875,0.4727451819510178,0.3639369419258684,-2.551866256544282,139604.0549725833,2.149091294376472,1.351170032190657,0.9074191524792605,0.1922197341918945,-0.1898058950901031,-2.488726377487183,-0.2725593745708466,0.4399709701538086,-0.04722409695386887,XTrueNorthZVertical,-0.3314337452689911,0.5683952037268704,0.7472909391260147,0.09292361467993818,0.6009895205497742,-0.7879171371459961,-0.1341571360826492,26.50835800170898,-16.05965423583984,17.68819999694824,2,10.3.35.51,10.83.46.32,4,0
2015-02-27 20:26:16.895,136,1425097572.05697,37.78751830261811,-122.396910954523,17.07256,0.1460356,-1,10,200,-9999,1425097576.848584,31.11169815063477,-14.34274291992188,21.96746826171875,265.6811218261719,251.9078369140625,10,139604.16151975,1.002288818359375,-0.7957305908203125,-0.078338623046875,139604.158539125,0.4805327976106275,0.6645063625582823,-2.8713867314937,139604.106755875,2.077453161106541,1.410828539003147,0.783490721560818,0.4687688052654266,0.3719116747379303,-2.527867317199707,-0.1222758069634438,-0.0002674393181223422,0.05600813776254654,XTrueNorthZVertical,-0.3689259464957341,0.554499848161298,0.7319731953645919,0.143662057088297,0.699409008026123,-0.7057567238807678,-0.112847127020359,27.72292518615723,-13.87172317504883,17.67746925354004,2,10.3.35.51,10.83.46.32,4,0
2015-02-27 20:26:16.925,137,1425097572.05697,37.78751830261811,-122.396910954523,17.07256,0.1460356,-1,10,200,-9999,1425097576.900788,31.84463500976562,-9.90753173828125,22.91616058349609,273.6566467285156,259.8833618164062,10,139604.2105485833,0.8501434326171875,-0.7574462890625,-0.0179290771484375,139604.2103236667,0.191306312693079,0.6184139683078449,-2.318036185461472,139604.158539125,2.029549758994453,1.474324033007701,0.6493954221556375,0.4765564501285553,0.6724810600280762,-2.847388029098511,0.1290983408689499,-0.08917317539453506,-0.04849743843078613,XTrueNorthZVertical,-0.4164315482027073,0.5368674638954209,0.7091762403371501,0.1882209685476839,0.7927461266517639,-0.6047049760818481,-0.07671618461608887,28.87477111816406,-10.15679168701172,18.34571266174316,2,10.3.35.51,10.83.46.32,4,0
2015-02-27 20:26:16.963,138,1425097572.05697,37.78751830261811,-122.396910954523,17.07256,0.1460356,-1,10,200,-9999,1425097576.953423,32.10030746459961,-5.336395263671875,24.43074417114258,280.090087890625,266.3168029785156,10,139604.259548375,1.243850708007812,-0.385406494140625,0.1014404296875,139604.2103236667,0.191306312693079,0.6184139683078449,-2.318036185461472,139604.2103236667,2.000001201571482,1.527745325859347,0.5288313058927997,0.1873300075531006,0.6263886094093323,-2.294037580490112,0.03791540488600731,-0.247138574719429,-0.03518328443169594,XTrueNorthZVertical,-0.4598626674453356,0.5195642491808344,0.6842344766420699,0.2245049665939209,0.8625972867012024,-0.5045246481895447,-0.03715863451361656,29.24691581726074,-3.815423011779785,20.0882682800293,2,10.3.35.51,10.83.46.32,4,0
2015-02-27 20:26:17.040,139,1425097572.05697,37.78751830261811,-122.396910954523,17.07256,0.1460356,-1,10,200,-9999,1425097577.00582,32.42416000366211,-1.03717041015625,25.11313629150391,286.4264221191406,272.6531372070312,10,139604.3085605833,1.0250244140625,-0.2620697021484375,0.3473663330078125,139604.3138900833,0.2569375209131008,0.1641465969481239,-1.973973349486428,139604.2621067917,2.004227762689812,1.544614106222066,0.4082141544861685,-0.2050845921039581,0.337625116109848,-2.210204839706421,0.3263340890407562,0.01156436279416084,0.1254685372114182,XTrueNorthZVertical,-0.4975728695512601,0.4903133516731022,0.6672031220551955,0.2585614657391579,0.9175166487693787,-0.3969708681106567,-0.0240281131118536,29.08465194702148,-1.69243049621582,20.60816955566406,2,10.3.35.51,10.83.46.32,4,0
2015-02-27 20:26:17.074,140,1425097572.05697,37.78751830261811,-122.396910954523,17.07256,0.1460356,-1,10,200,-9999,1425097577.056267,31.89575958251953,2.548431396484375,25.82881164550781,292.8300476074219,279.0567626953125,10,139604.35756525,1.260986328125,-0.194061279296875,0.138824462890625,139604.3138900833,0.2569375209131008,0.1641465969481239,-1.973973349486428,139604.3138900833,2.002075395984685,1.543003366126804,0.3070110024398713,0.2529613077640533,0.1721210479736328,-1.949975371360779,0.07215143740177155,0.04014105349779129,0.3738563060760498,XTrueNorthZVertical,-0.5210440619229398,0.4639699284074409,0.6540307704066455,0.2923845471592095,0.9528729915618896,-0.3022107481956482,-0.02648998238146305,28.8329963684082,1.17459774017334,20.99420166015625,2,10.3.35.51,10.83.46.32,4,0
2015-02-27 20:26:17.119,141,1425097572.05697,37.78751830261811,-122.396910954523,17.07256,0.1460356,-1,10,200,-9999,1425097577.108389,31.24805068969727,5.81109619140625,26.36141204833984,298.0636901855469,284.2904052734375,10,139604.406573375,1.036895751953125,-0.12969970703125,0.22869873046875,139604.365674625,0.4647471765652919,0.5486173098268302,-1.719838272988418,139604.365674625,1.985008217229474,1.586554107082573,0.2189253939124217,0.4607709944248199,0.5565916895866394,-1.69584047794342,0.2849761247634888,0.02311951294541359,0.1234434321522713,XTrueNorthZVertical,-0.5513154883878099,0.4513776089598356,0.6264841114236577,0.3159543092203225,0.9760102033615112,-0.2171807885169983,0.01538102701306343,27.8479175567627,5.491049766540527,21.6291446685791,2,10.3.35.51,10.83.46.32,4,0
2015-02-27 20:26:17.162,142,1425097572.05697,37.78751830261811,-122.396910954523,17.07256,0.1460356,-1,10,200,-9999,1425097577.159954,30.17420959472656,8.818878173828125,26.94394302368164,303.7161865234375,289.9429016113281,10,139604.4555772083,1.1396484375,-0.085113525390625,0.1737213134765625,139604.41745775,0.3180373605383527,0.07839893511807963,-1.323616628115846,139604.41745775,1.972967353524109,1.600895700453632,0.1447155575504626,0.3140593767166138,0.08645596355199814,-1.299381494522095,0.1712711453437805,-0.01608261279761791,0.142491489648819,XTrueNorthZVertical,-0.5692628381311801,0.4368408682611579,0.6079495072597848,0.3398635822650396,0.9890987277030945,-0.1442109644412994,0.02978024631738663,27.1762752532959,7.143342018127441,21.99774360656738,2,10.3.35.51,10.83.46.32,4,0
2015-02-27 20:26:17.214,143,1425097572.05697,37.78751830261811,-122.396910954523,17.07256,0.1460356,-1,10,200,-9999,1425097577.159954,30.17420959472656,8.818878173828125,26.94394302368164,303.7161865234375,289.9429016113281,10,139604.504598625,1.313018798828125,-0.051544189453125,0.05535888671875,139604.4692409583,0.2774204254891182,0.1497554070495537,-0.7455439576844125,139604.4692409583,1.949828155191311,1.613579412089671,0.09538712948072961,0.2734424769878387,0.1578123569488525,-0.7213090062141418,0.08782376348972321,0.03205589950084686,0.05057930201292038,XTrueNorthZVertical,-0.5784330064298322,0.4320914947541481,0.5912569715065649,0.3593429724738265,0.994543194770813,-0.09524254500865936,0.04257560521364212,26.50851631164551,9.055241584777832,22.10835075378418,2,10.3.35.51,10.83.46.32,4,0
2015-02-27 20:26:17.262,144,1425097572.05697,37.78751830261811,-122.396910954523,17.07256,0.1460356,-1,10,200,-9999,1425097577.212206,29.59467697143555,11.23190307617188,27.11037445068359,308.0481872558594,294.27490234375,10,139604.5536046667,1.172744750976562,-0.0001373291015625,0.09002685546875,139604.5210255,-0.1729968138826752,-0.02873124710421085,-0.005080512411544163,139604.5210255,1.952559038673443,1.615146691337574,0.07674065080040482,-0.1769747287034988,-0.02067437395453453,0.01915419846773148,0.3326283991336823,0.05214447528123856,0.05346616730093956,XTrueNorthZVertical,-0.583332484793038,0.4264104622626642,0.5877528374953253,0.3639284447004433,0.9960764646530151,-0.07666534930467606,0.04420534148812294,25.73099517822266,10.91635894775391,22.18619155883789,2,10.3.35.51,10.83.46.32,4,0
2015-02-27 20:26:17.313,145,1425097572.05697,37.78751830261811,-122.396910954523,17.07256,0.1460356,-1,10,200,-9999,1425097577.264465,29.2537727355957,11.87765502929688,27.64297103881836,308.725830078125,294.9525451660156,10,139604.6026208333,1.143890380859375,-0.0397491455078125,0.2140350341796875,139604.5728086667,-0.1805604576946093,-0.1353322592179026,0.6214608909110046,139604.5728086667,1.962624990574637,1.61269126242682,0.09601852243576764,-0.184538334608078,-0.1272754669189453,0.6456953883171082,0.2095507234334946,0.08412177860736847,0.09367095679044724,XTrueNorthZVertical,-0.5807918183909758,0.4283990465109802,0.5939199514548199,0.3555477364437295,0.9945203065872192,-0.09587104618549347,0.04168975725769997,25.75100898742676,10.76480293273926,22.23696136474609,2,10.3.35.51,10.83.46.32,4,0
2015-02-27 20:26:17.364,146,1425097572.05697,37.78751830261811,-122.396910954523,17.07256,0.1460356,-1,10,200,-9999,1425097577.31563,29.49240875244141,11.50381469726562,27.77612686157227,307.6328735351562,293.8595886230469,10,139604.6516199583,1.052398681640625,-0.0830230712890625,0.18463134765625,139604.6245920833,-0.0902550619750034,-0.4006424922821035,1.035325445373134,139604.6245920833,1.971527933531448,1.599267726418878,0.1426359355891354,-0.09423288702964783,-0.3925857841968536,1.05955958366394,0.1015446186065674,0.04765509068965912,0.1855971813201904,XTrueNorthZVertical,-0.5688972341542136,0.4364002353832897,0.6078003230708044,0.3413056105485074,0.9894435405731201,-0.1421527713537216,0.02817845717072487,26.07607650756836,9.934823989868164,22.24444961547852,2,10.3.35.51,10.83.46.32,4,0
2015-02-27 20:26:17.412,147,1425097572.05697,37.78751830261811,-122.396910954523,17.07256,0.1460356,-1,10,200,-9999,1425097577.368083,30.08898544311523,10.22933959960938,27.49318313598633,304.5029296875,290.7296447753906,10,139604.7007498333,0.983489990234375,-0.235565185546875,0.019744873046875,139604.6763762917,0.1356734101535418,-0.1854883709756919,1.101657863908173,139604.6763762917,1.968738053917386,1.580661685335063,0.1973925329967715,0.1316956132650375,-0.1774317473173141,1.125891804695129,-0.03338997811079025,0.02109485678374767,0.1141361892223358,XTrueNorthZVertical,-0.5506162389267329,0.4490641065316153,0.6219485703807789,0.3291551950740175,0.9805335402488708,-0.1961131691932678,0.009673628956079483,27.31489181518555,7.694612979888916,21.63718032836914,2,10.3.35.51,10.83.46.32,4,0
