loggingTime,loggingSample,locationTimestamp_since1970,locationLatitude,locationLongitude,locationAltitude,locationSpeed,locationCourse,locationVerticalAccuracy,locationHorizontalAccuracy,locationFloor,locationHeadingTimestamp_since1970,locationHeadingX,locationHeadingY,locationHeadingZ,locationTrueHeading,locationMagneticHeading,locationHeadingAccuracy,accelerometerTimestamp_sinceReboot,accelerometerAccelerationX,accelerometerAccelerationY,accelerometerAccelerationZ,gyroTimestamp_sinceReboot,gyroRotationX,gyroRotationY,gyroRotationZ,motionTimestamp_sinceReboot,motionYaw,motionRoll,motionPitch,motionRotationRateX,motionRotationRateY,motionRotationRateZ,motionUserAccelerationX,motionUserAccelerationY,motionUserAccelerationZ,motionAttitudeReferenceFrame,motionQuaternionX,motionQuaternionY,motionQuaternionZ,motionQuaternionW,motionGravityX,motionGravityY,motionGravityZ,motionMagneticFieldX,motionMagneticFieldY,motionMagneticFieldZ,motionMagneticFieldCalibrationAccuracy,IP_en0,IP_pdp_ip0,deviceOrientation,state
2015-03-04 08:04:10.915,1,1425485047.163738,37.77936927398314,-122.4388619995987,57.10788,-1,-1,10,65,-9999,1425485050.882958,30.16558456420898,-34.90309143066406,-0.4316787719726562,243.4728851318359,229.6964416503906,10,236400.9703289584,0.453582763671875,-0.7061614990234375,-0.4891510009765625,236400.9431862917,-0.07562898126828822,-0.08941882939271852,-0.05265149369919356,236400.9431862917,0.347423942910517,0.7586039663475893,0.8309171939425496,-0.0904981791973114,-0.07472661137580872,-0.01835382543504238,0.06497549265623093,0.03525720536708832,-0.0003688230644911528,XTrueNorthZVertical,0.310726223599626,0.3984764319355601,0.2940927495104121,0.8112800840965491,0.463787317276001,-0.738550066947937,-0.4893314838409424,29.58308029174805,-34.89358139038086,-1.549671173095703,2,192.168.1.8,10.83.46.32,1,0
2015-03-04 08:04:10.944,2,1425485047.163738,37.77936927398314,-122.4388619995987,57.10788,-1,-1,10,65,-9999,1425485050.882958,30.16558456420898,-34.90309143066406,-0.4316787719726562,243.4728851318359,229.6964416503906,10,236401.0193669584,0.479400634765625,-0.7212066650390625,-0.4694671630859375,236400.994960875,-0.04705938804224518,-0.1470355206282558,-0.1038465045982228,236400.994960875,0.3514134634615038,0.7496772078763745,0.8254760618235738,-0.06194613501429558,-0.1323464512825012,-0.06956370919942856,-0.007343987934291363,0.008201422169804573,-0.001859288779087365,XTrueNorthZVertical,0.3088954550435502,0.3954625426129088,0.2936044261200323,0.813627426536972,0.4621321856975555,-0.7348707318305969,-0.4963859617710114,29.79004287719727,-34.70175552368164,-1.861076354980469,2,192.168.1.8,10.83.46.32,1,0
2015-03-04 08:04:10.987,3,1425485047.163738,37.77936927398314,-122.4388619995987,57.10788,-1,-1,10,65,-9999,1425485050.954422,30.48957061767578,-34.47828674316406,-1.080703735351562,244.5319213867188,230.7554779052734,10,236401.0685438334,0.44183349609375,-0.72308349609375,-0.4914398193359375,236401.046733625,0.003615241179782566,0.009875533954231831,-0.01371101855616395,236401.046733625,0.3502864329377309,0.7457348057024411,0.8227253179911002,-0.01127069909125566,0.02456853352487087,0.02056646533310413,-0.005227398127317429,0.02911444194614887,0.04251846298575401,XTrueNorthZVertical,0.3085048354921286,0.3936765753056022,0.2921732986254036,0.8151554803292778,0.461541473865509,-0.7330023646354675,-0.4996870458126068,29.87988471984863,-34.6085090637207,-2.136734008789062,2,192.168.1.8,10.83.46.32,1,0
2015-03-04 08:04:11.066,4,1425485047.163738,37.77936927398314,-122.4388619995987,57.10788,-1,-1,10,65,-9999,1425485051.057408,30.13148307800293,-34.56324768066406,-1.030784606933594,243.6728820800781,229.8964385986328,10,236401.1174687917,0.505340576171875,-0.7102203369140625,-0.4947509765625,236401.0985083334,0.02192394104185931,0.02063230791317088,-0.09230143495662028,236401.0985083334,0.3486555444075178,0.7509877769961099,0.8215586983378063,0.007038164418190718,0.03532514721155167,-0.0580243282020092,0.03655385598540306,0.01562506705522537,0.002152933273464441,XTrueNorthZVertical,0.3075543000466516,0.3955630371520439,0.2921630934894843,0.8146048956220417,0.4647431373596191,-0.7322083115577698,-0.4978804588317871,29.88842010498047,-34.59779357910156,-2.190202713012695,2,192.168.1.8,10.83.46.32,1,0
2015-03-04 08:04:11.085,5,1425485047.163738,37.77936927398314,-122.4388619995987,57.10788,-1,-1,10,65,-9999,1425485051.057408,30.13148307800293,-34.56324768066406,-1.030784606933594,243.6728820800781,229.8964385986328,10,236401.1665280417,0.4710693359375,-0.723876953125,-0.48974609375,236401.15028275,0.05374205816558101,-0.1529786309168766,-0.01091363414714472,236401.15028275,0.3474189618433521,0.7499431773353823,0.8219753627250175,0.03885643184185028,-0.1382859349250793,0.02336313016712666,0.01892585679888725,0.02129513770341873,-0.02346405573189259,XTrueNorthZVertical,0.3081314205410602,0.3949478868779892,0.2915540862896107,0.81490341887899,0.4640148282051086,-0.7324920296669006,-0.4981423914432526,29.98164367675781,-34.52337265014648,-2.088008880615234,2,192.168.1.8,10.83.46.32,1,0
2015-03-04 08:04:11.135,6,1425485047.163738,37.77936927398314,-122.4388619995987,57.10788,-1,-1,10,65,-9999,1425485051.109277,30.55777931213379,-34.54624938964844,-1.147270202636719,244.3879852294922,230.6115417480469,10,236401.2155586667,0.431427001953125,-0.688385009765625,-0.477325439453125,236401.2020556667,0.02804415154297041,0.03360802769236396,0.005216599943247212,236401.15028275,0.3474189618433521,0.7499431773353823,0.8219753627250175,0.03885643184185028,-0.1382859349250793,0.02336313016712666,0.01892585679888725,0.02129513770341873,-0.02346405573189259,XTrueNorthZVertical,0.3081314205410602,0.3949478868779892,0.2915540862896107,0.81490341887899,0.4640148282051086,-0.7324920296669006,-0.4981423914432526,29.98164367675781,-34.52337265014648,-2.088008880615234,2,192.168.1.8,10.83.46.32,1,0
2015-03-04 08:04:11.182,7,1425485047.163738,37.77936927398314,-122.4388619995987,57.10788,-1,-1,10,65,-9999,1425485051.161265,30.47251892089844,-34.73316955566406,-1.297050476074219,244.3177185058594,230.5412750244141,10,236401.26460325,0.504119873046875,-0.73687744140625,-0.4991912841796875,236401.253830125,-0.007282147684712669,0.1813548786477799,-0.04737790210861866,236401.253830125,0.3480284961562694,0.7537585700286978,0.8232699558193131,-0.0221716333180666,0.1960478127002716,-0.01310683134943247,0.02742837369441986,0.004811348859220743,-0.004399751778692007,XTrueNorthZVertical,0.3080136374922735,0.3965971860046624,0.2925628785208718,0.8137846191041092,0.4652626812458038,-0.7333727478981018,-0.4956765472888947,29.89995574951172,-34.58857727050781,-2.178300857543945,2,192.168.1.8,10.83.46.32,1,0
2015-03-04 08:04:11.222,8,1425485047.163738,37.77936927398314,-122.4388619995987,57.10788,-1,-1,10,65,-9999,1425485051.213054,30.1996898651123,-34.80113220214844,-0.8310775756835938,243.3982086181641,229.6217651367188,10,236401.3137455833,0.4941253662109375,-0.72100830078125,-0.4762725830078125,236401.305604875,0.0481491535603056,-0.03839159764236428,0.02656955924739354,236401.253830125,0.3480284961562694,0.7537585700286978,0.8232699558193131,-0.0221716333180666,0.1960478127002716,-0.01310683134943247,0.02742837369441986,0.004811348859220743,-0.004399751778692007,XTrueNorthZVertical,0.3080136374922735,0.3965971860046624,0.2925628785208718,0.8137846191041092,0.4652626812458038,-0.7333727478981018,-0.4956765472888947,29.89995574951172,-34.58857727050781,-2.178300857543945,2,192.168.1.8,10.83.46.32,1,0
2015-03-04 08:04:11.281,9,1425485047.163738,37.77936927398314,-122.4388619995987,57.10788,-1,-1,10,65,-9999,1425485051.265425,30.14853286743164,-34.58023071289062,-0.8810043334960938,243.5222625732422,229.7458190917969,10,236401.3627003334,0.422821044921875,-0.7010955810546875,-0.4710845947265625,236401.3573776667,-0.02897199686675402,0.1199208123057231,0.01904186811017556,236401.305604875,0.3471068904132267,0.7581201419852606,0.8232587496033217,0.03325175866484642,-0.02369008585810661,0.06081949919462204,0.05132723599672318,-0.0105008352547884,0.01113509759306908,XTrueNorthZVertical,0.3075535843089405,0.3982292431239119,0.2928577560882574,0.8130552074770243,0.4674258232116699,-0.7333651185035706,-0.4936485290527344,29.98279190063477,-34.53377532958984,-1.890111923217773,2,192.168.1.8,10.83.46.32,1,0
2015-03-04 08:04:11.319,10,1425485047.163738,37.77936927398314,-122.4388619995987,57.10788,-1,-1,10,65,-9999,1425485051.265425,30.14853286743164,-34.58023071289062,-0.8810043334960938,243.5222625732422,229.7458190917969,10,236401.41172675,0.47052001953125,-0.7516326904296875,-0.4071807861328125,236401.4091522917,-0.1406426024315206,0.7280824093650899,0.2473080630435923,236401.3573776667,0.3514502357894343,0.7564683272846693,0.8254861342222128,-0.04386924207210541,0.1346221715211868,0.05329146608710289,-0.04820534586906433,0.0505666509270668,0.02251236699521542,XTrueNorthZVertical,0.3078937547918691,0.3982286534546441,0.2946678880825854,0.8122723583058153,0.4654874503612518,-0.7348775863647461,-0.4932307600975037,29.89194107055664,-34.6146125793457,-1.849964141845703,2,192.168.1.8,10.83.46.32,1,0
2015-03-04 08:04:11.381,11,1425485047.163738,37.77936927398314,-122.4388619995987,57.10788,-1,-1,10,65,-9999,1425485051.368719,29.41530227661133,-35.17498779296875,-0.0655670166015625,241.2281494140625,227.4517059326172,10,236401.4607830417,0.29718017578125,-0.674407958984375,-0.4765472412109375,236401.4609267917,-0.4141231474039756,1.694999235817358,0.5609954162574096,236401.4091522917,0.3624942787222317,0.7697191647878856,0.8260937867155235,-0.1555397063493729,0.7427836656570435,0.2815573513507843,-0.004477655049413443,-0.003357921727001667,0.04832902178168297,XTrueNorthZVertical,0.3039633268525873,0.4052862072513792,0.3012499003657488,0.8078354143493606,0.4716712534427643,-0.7352895140647888,-0.4866987764835358,29.80735778808594,-34.6927490234375,-1.748283386230469,2,192.168.1.8,10.83.46.32,1,0
2015-03-04 08:04:11.418,12,1425485047.163738,37.77936927398314,-122.4388619995987,57.10788,-1,-1,10,65,-9999,1425485051.368719,29.41530227661133,-35.17498779296875,-0.0655670166015625,241.2281494140625,227.4517059326172,10,236401.5098142917,0.3470611572265625,-0.759246826171875,-0.43426513671875,236401.4609267917,-0.4141231474039756,1.694999235817358,0.5609954162574096,236401.4609267917,0.4090705628334919,0.8006538338437575,0.8334836098145141,-0.42902010679245,1.709700345993042,0.595244288444519,-0.1854052990674973,0.06586993485689163,-0.008465955033898354,XTrueNorthZVertical,0.2926262016431638,0.4246519318157771,0.3255070362475054,0.7925187602052496,0.4825854599475861,-0.740277886390686,-0.4680812954902649,29.26034545898438,-35.1893196105957,-0.8159637451171875,2,192.168.1.8,10.83.46.32,1,0
2015-03-04 08:04:11.476,13,1425485047.163738,37.77936927398314,-122.4388619995987,57.10788,-1,-1,10,65,-9999,1425485051.420527,28.93785285949707,-36.26254272460938,1.598594665527344,237.8024291992188,224.0259857177734,10,236401.558874,0.3732147216796875,-0.7763671875,-0.461151123046875,236401.564474375,-0.3899746679035731,1.64015303106383,1.348860199456489,236401.5126995833,0.4576530588488708,0.8412547102387536,0.8447285833525753,-0.2866356372833252,1.341913819313049,0.79020094871521,-0.1478886753320694,-0.01145588885992765,0.00826573371887207,XTrueNorthZVertical,0.2799483529045388,0.4476197988519907,0.3518861014769596,0.7729435813666894,0.4949498176574707,-0.7477909326553345,-0.4425308704376221,28.33816909790039,-35.93970489501953,0.6385898590087891,2,192.168.1.8,10.83.46.32,1,0
2015-03-04 08:04:11.516,14,1425485047.163738,37.77936927398314,-122.4388619995987,57.10788,-1,-1,10,65,-9999,1425485051.473537,27.53960418701172,-37.14617919921875,2.896644592285156,233.8480224609375,220.0715789794922,10,236401.6080159167,0.4437713623046875,-0.9069976806640625,-0.3352813720703125,236401.564474375,-0.3899746679035731,1.64015303106383,1.348860199456489,236401.564474375,0.5354762564781614,0.8592938791863232,0.8795202808691883,-0.4048713147640228,1.654853820800781,1.383108377456665,-0.1096319779753685,-0.005934050772339106,-0.04486750438809395,XTrueNorthZVertical,0.2735269312050173,0.4658768174333111,0.3886397044279404,0.7463920967111162,0.4828467071056366,-0.7704331278800964,-0.4162836074829102,27.01228904724121,-36.89970397949219,1.967325210571289,2,192.168.1.8,10.83.46.32,1,0
2015-03-04 08:04:11.587,15,1425485047.163738,37.77936927398314,-122.4388619995987,57.10788,-1,-1,10,65,-9999,1425485051.531208,25.16940116882324,-38.48863220214844,3.878494262695312,228.7805480957031,215.0041046142578,10,236401.656953125,0.3247528076171875,-0.8266448974609375,-0.306915283203125,236401.6162490417,-0.4270112491833051,1.710653030388735,1.745913815853602,236401.6162490417,0.6446597833876658,0.8567151859412165,0.9244916617735818,-0.4419077634811401,1.725353717803955,1.780161619186401,-0.01133909821510315,-0.1086829528212547,0.05914007499814034,XTrueNorthZVertical,0.2670017401674518,0.4811437897811943,0.4336165581018526,0.7135738068688644,0.4551104605197906,-0.7983147501945496,-0.3944214582443237,23.63951683044434,-39.03084945678711,3.590028762817383,2,192.168.1.8,10.83.46.32,1,0
2015-03-04 08:04:11.614,16,1425485047.163738,37.77936927398314,-122.4388619995987,57.10788,-1,-1,10,65,-9999,1425485051.602986,19.37178421020508,-41.78530883789062,4.976852416992188,216.9068908691406,203.1304473876953,10,236401.7059890833,0.5357208251953125,-1.010757446289062,-0.2632293701171875,236401.66802175,-0.4559355754665467,2.06719517291578,2.21279338550372,236401.66802175,0.7983790107076706,0.8233427085850645,0.9896463932695957,-0.4708319306373596,2.081895589828491,2.247040987014771,-0.0744369700551033,0.001237179385498166,0.08101054280996323,XTrueNorthZVertical,0.2641155429499608,0.493609219516591,0.4885519958932663,0.6692608151506058,0.4026382565498352,-0.835831880569458,-0.3731858432292938,20.07670783996582,-40.88878631591797,4.489446640014648,2,192.168.1.8,10.83.46.32,1,0
2015-03-04 08:04:11.673,17,1425485047.163738,37.77936927398314,-122.4388619995987,57.10788,-1,-1,10,65,-9999,1425485051.653565,13.76173782348633,-43.80747985839844,6.091842651367188,205.77392578125,191.9974822998047,10,236401.755148875,0.2389068603515625,-0.8624420166015625,-0.3012237548828125,236401.719796375,-0.6030315498515473,2.269331230181666,2.699684746533021,236401.719796375,0.991179763553801,0.7750317300473351,1.053661733647301,-0.6179277300834656,2.284031629562378,2.73393177986145,0.1634238958358765,-0.1143116429448128,0.06097176298499107,XTrueNorthZVertical,0.2541692088282439,0.5087254628856639,0.5477299181062264,0.6136680914905194,0.3459450006484985,-0.8692393898963928,-0.3531928360462189,15.42789459228516,-42.77777862548828,5.211877822875977,2,192.168.1.8,10.83.46.32,1,0
2015-03-04 08:04:11.711,18,1425485047.163738,37.77936927398314,-122.4388619995987,57.10788,-1,-1,10,65,-9999,1425485051.705988,7.128578186035156,-45.14996337890625,6.507881164550781,194.1145782470703,180.338134765625,10,236401.8040717917,0.3971710205078125,-0.945343017578125,-0.2075042724609375,236401.7715711667,-0.4448437758424756,2.52485860729757,2.856860519327862,236401.7715711667,1.278339786055919,0.636525117398252,1.133290785127712,-0.4597398340702057,2.53955864906311,2.891107320785522,-0.04416616261005402,0.03842547163367271,0.07087390869855881,XTrueNorthZVertical,0.2517088434836814,0.5160305134727705,0.6128358852977457,0.5429433837660639,0.2518382966518402,-0.9058113098144531,-0.3407103419303894,7.709722518920898,-44.79904937744141,5.35981273651123,2,192.168.1.8,10.83.46.32,1,0
2015-03-04 08:04:11.772,19,1425485047.163738,37.77936927398314,-122.4388619995987,57.10788,-1,-1,10,65,-9999,1425485051.757296,0.41015625,-46.03359985351562,5.808937072753906,181.5041046142578,167.7276611328125,10,236401.853196875,0.2687835693359375,-1.056365966796875,-0.3221282958984375,236401.823343875,-0.8123586746928655,2.076604387363139,1.881705470359543,236401.823343875,1.551715485489478,0.5078215681922693,1.16410201069163,-0.827290952205658,2.091288328170776,1.916041612625122,0.2405180484056473,-0.04518955945968628,0.1213827207684517,XTrueNorthZVertical,0.2328833554884981,0.5224338617234274,0.6648244967342372,0.4804547475154254,0.1923585385084152,-0.9184334874153137,-0.3456563949584961,1.413422107696533,-45.49504852294922,4.829591751098633,2,192.168.1.8,10.83.46.32,1,0
2015-03-04 08:04:11.811,20,1425485047.163738,37.77936927398314,-122.4388619995987,57.10788,-1,-1,10,65,-9999,1425485051.757296,0.41015625,-46.03359985351562,5.808937072753906,181.5041046142578,167.7276611328125,10,236401.90228325,0.2010345458984375,-0.978607177734375,-0.3388214111328125,236401.8751185834,-0.5048288162354204,1.220599964513292,2.132726778911033,236401.8751185834,1.827504982662811,0.3284124124970513,1.174469538222481,-0.5197609663009644,1.235283851623535,2.167062520980835,0.1429295241832733,-0.11692825704813,0.02999802306294441,XTrueNorthZVertical,0.2261050889016128,0.5159222383073913,0.7056082999449124,0.4299044461835832,0.1245112717151642,-0.9224851727485657,-0.3654014766216278,-3.045215129852295,-45.56286239624023,3.142373085021973,2,192.168.1.8,10.83.46.32,1,0
2015-03-04 08:04:11.869,21,1425485047.163738,37.77936927398314,-122.4388619995987,57.10788,-1,-1,10,65,-9999,1425485051.863892,-10.0426139831543,-45.26890563964844,1.964706420898438,162.2158813476562,148.4394378662109,10,236401.951352125,0.1684722900390625,-0.9653472900390625,-0.356658935546875,236401.92689325,-0.5900121542304769,0.6499119734685391,1.70693099644924,236401.92689325,2.096379957372001,0.1333003684390207,1.17546997211125,-0.604944109916687,0.6645956039428711,1.741266489028931,0.1661628186702728,-0.1330220103263855,0.08111034333705902,XTrueNorthZVertical,0.2281205542821752,0.5070644911184398,0.737949384736872,0.382462407478357,0.05118336528539658,-0.922870934009552,-0.3816932439804077,-8.999216079711914,-44.86294555664062,1.205257415771484,2,192.168.1.8,10.83.46.32,1,0
2015-03-04 08:04:11.909,22,1425485047.163738,37.77936927398314,-122.4388619995987,57.10788,-1,-1,10,65,-9999,1425485051.863892,-10.0426139831543,-45.26890563964844,1.964706420898438,162.2158813476562,148.4394378662109,10,236402.0002634584,0.0402984619140625,-1.0606689453125,-0.2936553955078125,236401.9786663333,-0.2643541582328625,-0.3745573620369954,1.79336974858216,236401.9786663333,2.326534736324523,-0.0740606233594694,1.152324711312005,-0.2792860269546509,-0.3598737716674805,1.827704906463623,0.128853514790535,-0.07864426076412201,0.04167957231402397,XTrueNorthZVertical,0.2442854862277584,0.4875440820176724,0.761362254183208,0.3506466315536974,-0.03006811626255512,-0.9137110710144043,-0.4052507281303406,-12.63519191741943,-43.99334716796875,-0.244720458984375,2,192.168.1.8,10.83.46.32,1,0
2015-03-04 08:04:11.970,23,1425485047.163738,37.77936927398314,-122.4388619995987,57.10788,-1,-1,10,65,-9999,1425485051.938882,-16.52231597900391,-42.99180603027344,0.5335235595703125,153.0342864990234,139.2578430175781,10,236402.0493275417,-0.1022796630859375,-0.890960693359375,-0.335693359375,236402.0304408334,0.1413771022601645,-0.8385825556307667,1.875301899518448,236402.0304408334,2.546368313111352,-0.3088053142524069,1.132002228639221,0.1264454275369644,-0.8238991498947144,1.909636616706848,0.08798250555992126,-0.05190393328666687,0.09618866443634033,XTrueNorthZVertical,0.2794817967118928,0.4685231861382322,0.773163696415443,0.3234099888835505,-0.1291202008724213,-0.905264675617218,-0.4047518968582153,-16.21405029296875,-42.79776382446289,-0.7604188919067383,2,192.168.1.8,10.83.46.32,1,0
2015-03-04 08:04:12.006,24,1425485047.163738,37.77936927398314,-122.4388619995987,57.10788,-1,-1,10,65,-9999,1425485051.990488,-20.56359100341797,-41.34347534179688,1.215835571289062,148.9551391601562,135.1786956787109,10,236402.098467,-0.26849365234375,-0.8431549072265625,-0.2587890625,236402.0822155417,0.4556226540384624,-1.048821813145437,1.505743024531422,236402.0822155417,2.746912749373572,-0.5371486240755412,1.110367849872791,0.4406911134719849,-1.034138560295105,1.540077447891235,-2.688364475034177e-05,0.09534034132957458,0.0780007466673851,XTrueNorthZVertical,0.3207639075570416,0.4541274979568835,0.7760132605229773,0.2977957751673695,-0.2273595929145813,-0.8958622217178345,-0.3817574679851532,-20.91904258728027,-40.71049499511719,0.4148159027099609,2,192.168.1.8,10.83.46.32,1,0
2015-03-04 08:04:12.067,25,1425485047.163738,37.77936927398314,-122.4388619995987,57.10788,-1,-1,10,65,-9999,1425485052.042123,-23.90574645996094,-39.78009033203125,2.746864318847656,145.7463989257812,131.9699554443359,10,236402.1474207084,-0.4993133544921875,-0.6997222900390625,-0.2398223876953125,236402.1339885417,0.6194270347865111,-0.9806664608442383,0.9275965845377931,236402.1339885417,2.87803698383702,-0.7065399557210126,1.099721350844825,0.604495644569397,-0.9659833312034607,0.9619306921958923,-0.06708619743585587,0.04853637516498566,0.06367538124322891,XTrueNorthZVertical,0.3568372364017866,0.4472886862171709,0.7692554814065292,0.2843346535899907,-0.2946386635303497,-0.891080915927887,-0.3452000319957733,-23.52834892272949,-39.19890975952148,2.232646942138672,2,192.168.1.8,10.83.46.32,1,0
2015-03-04 08:04:12.104,26,1425485047.163738,37.77936927398314,-122.4388619995987,57.10788,-1,-1,10,65,-9999,1425485052.095736,-25.88375854492188,-38.18272399902344,5.243110656738281,144.0902709960938,130.3138275146484,10,236402.19656775,-0.400848388671875,-0.9486541748046875,-0.18621826171875,236402.1857633333,0.46337325175892,-0.05747740791052615,0.01162789395150397,236402.1339885417,2.87803698383702,-0.7065399557210126,1.099721350844825,0.604495644569397,-0.9659833312034607,0.9619306921958923,-0.06708619743585587,0.04853637516498566,0.06367538124322891,XTrueNorthZVertical,0.3568372364017866,0.4472886862171709,0.7692554814065292,0.2843346535899907,-0.2946386635303497,-0.891080915927887,-0.3452000319957733,-23.52834892272949,-39.19890975952148,2.232646942138672,2,192.168.1.8,10.83.46.32,1,0
2015-03-04 08:04:12.165,27,1425485047.163738,37.77936927398314,-122.4388619995987,57.10788,-1,-1,10,65,-9999,1425485052.095736,-25.88375854492188,-38.18272399902344,5.243110656738281,144.0902709960938,130.3138275146484,10,236402.2455122083,-0.5153656005859375,-0.8609619140625,-0.197540283203125,236402.2375379167,0.3035569547432649,0.1565720341757205,-0.1060244377376896,236402.2375379167,2.985582513205038,-0.826679240848307,1.117092613526089,0.2886258661746979,0.1712548434734344,-0.07169103622436523,-0.201262503862381,0.03640318289399147,0.07155770808458328,XTrueNorthZVertical,0.3774102000560123,0.4573041087634507,0.7576602449428596,0.2727372714568947,-0.322449654340744,-0.8988299369812012,-0.2968689799308777,-25.33040237426758,-37.69553375244141,5.704400062561035,2,192.168.1.8,10.83.46.32,1,0
2015-03-04 08:04:12.203,28,1425485047.163738,37.77936927398314,-122.4388619995987,57.10788,-1,-1,10,65,-9999,1425485052.172592,-26.5828857421875,-37.01019287109375,7.156906127929688,142.8141784667969,129.0377349853516,10,236402.2946429584,-0.3249664306640625,-0.9167022705078125,-0.2037200927734375,236402.2375379167,0.3035569547432649,0.1565720341757205,-0.1060244377376896,236402.2375379167,2.985582513205038,-0.826679240848307,1.117092613526089,0.2886258661746979,0.1712548434734344,-0.07169103622436523,-0.201262503862381,0.03640318289399147,0.07155770808458328,XTrueNorthZVertical,0.3774102000560123,0.4573041087634507,0.7576602449428596,0.2727372714568947,-0.322449654340744,-0.8988299369812012,-0.2968689799308777,-25.33040237426758,-37.69553375244141,5.704400062561035,2,192.168.1.8,10.83.46.32,1,0
2015-03-04 08:04:12.268,29,1425485047.163738,37.77936927398314,-122.4388619995987,57.10788,-1,-1,10,65,-9999,1425485052.223878,-26.65109252929688,-36.60235595703125,7.090347290039062,141.3598022460938,127.583366394043,10,236402.343603875,-0.2259521484375,-0.9434051513671875,-0.168701171875,236402.341085625,0.1991288157629688,0.5455125966280159,-0.279565335431068,236402.2893110417,2.996619046022083,-0.8081441934261142,1.132726092719485,0.2554933726787567,0.7627803087234497,-0.1416146755218506,-0.04248789325356483,-0.02545833215117455,0.1106007397174835,XTrueNorthZVertical,0.3666352431874307,0.4680315785077135,0.7585843997999856,0.2665988022468341,-0.3066942393779755,-0.9055719375610352,-0.293050080537796,-25.23751449584961,-37.72035598754883,5.946868896484375,2,192.168.1.8,10.83.46.32,1,0
2015-03-04 08:04:12.302,30,1425485047.163738,37.77936927398314,-122.4388619995987,57.10788,-1,-1,10,65,-9999,1425485052.275452,-26.75340270996094,-36.80625915527344,6.657661437988281,140.1974029541016,126.4209671020508,10,236402.3927507084,-0.24554443359375,-0.9544525146484375,-0.1744537353515625,236402.3928604583,0.1867602967123138,0.3705929804383034,-0.1674854020067563,236402.341085625,3.007356972946076,-0.7857269227004895,1.15056444124146,0.1842203587293625,0.5602155923843384,-0.245250329375267,0.03277659043669701,-0.02413942664861679,0.1340273320674896,XTrueNorthZVertical,0.3541999975926699,0.4799476404774211,0.7594034942345289,0.2598059469234218,-0.2885749340057373,-0.912994384765625,-0.2883852422237396,-25.16256332397461,-37.81642913818359,5.646750450134277,2,192.168.1.8,10.83.46.32,1,0
2015-03-04 08:04:12.366,31,1425485047.163738,37.77936927398314,-122.4388619995987,57.10788,-1,-1,10,65,-9999,1425485052.32745,-26.13953399658203,-37.28207397460938,6.4246826171875,139.822021484375,126.0455780029297,10,236402.44171625,-0.1522674560546875,-0.9537506103515625,-0.2309417724609375,236402.4446333334,0.04984585349079509,0.2590265044721589,-0.2427082512088074,236402.3928604583,3.008622887680857,-0.7648272217225586,1.162471246948874,0.1718519926071167,0.3852957785129547,-0.1331707686185837,0.02939379774034023,-0.03666533902287483,0.1120352149009705,XTrueNorthZVertical,0.3450353275989907,0.4875511758062785,0.7600886030852688,0.2559491397628371,-0.2749382257461548,-0.9177871942520142,-0.286488950252533,-24.87794494628906,-38.04283142089844,5.380839347839355,2,192.168.1.8,10.83.46.32,1,0
2015-03-04 08:04:12.399,32,1425485047.163738,37.77936927398314,-122.4388619995987,57.10788,-1,-1,10,65,-9999,1425485052.380285,-26.31004333496094,-37.65591430664062,6.524520874023438,139.5053253173828,125.7288818359375,10,236402.4908662917,-0.1226654052734375,-1.048355102539062,-0.2546234130859375,236402.4446333334,0.04984585349079509,0.2590265044721589,-0.2427082512088074,236402.4446333334,2.99608636283623,-0.7354033415878529,1.171107252153205,0.03493770956993103,0.273729145526886,-0.2083939611911774,0.108796052634716,-0.03256858140230179,0.05762322992086411,XTrueNorthZVertical,0.3362804734537697,0.4925778537913939,0.7612001492017098,0.2546703889150582,-0.2610635161399841,-0.9211820363998413,-0.2885650098323822,-24.71896743774414,-38.17065048217773,5.205398559570312,2,192.168.1.8,10.83.46.32,1,0
2015-03-04 08:04:12.464,33,1425485047.163738,37.77936927398314,-122.4388619995987,57.10788,-1,-1,10,65,-9999,1425485052.457883,-25.71323394775391,-37.33306884765625,6.674293518066406,139.8525238037109,126.0760803222656,10,236402.5398189584,-0.14080810546875,-0.93414306640625,-0.266510009765625,236402.5481827917,0.04767324667350845,-0.9879443474712067,-0.2393587935058147,236402.4964082084,2.976878487939738,-0.7251341779264331,1.188381486222572,0.1443348973989487,-0.5454997420310974,-0.1867614090442657,0.1248292177915573,-0.1205888912081718,0.02465514466166496,XTrueNorthZVertical,0.3359492278220713,0.4974925501513188,0.755773832729867,0.2616206521614431,-0.2474946230649948,-0.9277662038803101,-0.2792785465717316,-24.42033386230469,-38.39325332641602,4.972723960876465,2,192.168.1.8,10.83.46.32,1,0
2015-03-04 08:04:12.497,34,1425485047.163738,37.77936927398314,-122.4388619995987,57.10788,-1,-1,10,65,-9999,1425485052.457883,-25.71323394775391,-37.33306884765625,6.674293518066406,139.8525238037109,126.0760803222656,10,236402.5888607917,-0.25372314453125,-0.8773956298828125,-0.1558074951171875,236402.5481827917,0.04767324667350845,-0.9879443474712067,-0.2393587935058147,236402.5481827917,2.962571873540752,-0.7519952913821427,1.197400500913381,0.03272226452827454,-0.9732332229614258,-0.2051298916339874,0.1083719432353973,-0.003049077000468969,-0.0001014124354696833,XTrueNorthZVertical,0.3489772713476583,0.49498541939788,0.746786453513095,0.2747989529136926,-0.2491800487041473,-0.9310939908027649,-0.2664085924625397,-23.57660293579102,-38.7724609375,5.996891975402832,2,192.168.1.8,10.83.46.32,1,0
2015-03-04 08:04:12.568,35,1425485047.163738,37.77936927398314,-122.4388619995987,57.10788,-1,-1,10,65,-9999,1425485052.561522,-22.93379211425781,-38.70953369140625,8.621376037597656,146.3814544677734,132.6050109863281,10,236402.6379322917,-0.1978302001953125,-0.937530517578125,-0.1495513916015625,236402.59995575,-0.04218447166685513,-0.9890751256700544,-0.5853375075690608,236402.59995575,2.930811177955396,-0.7741136984169636,1.209459978507387,-0.05713433399796486,-0.974363386631012,-0.5511097311973572,-0.0008426830754615366,0.06343121081590652,0.08597573637962341,XTrueNorthZVertical,0.3641840674573887,0.4908946496396811,0.7349968936542055,0.2935509279339383,-0.2471431493759155,-0.9354252219200134,-0.2527848184108734,-22.89692687988281,-39.00027465820312,7.059165000915527,2,192.168.1.8,10.83.46.32,1,0
2015-03-04 08:04:12.599,36,1425485047.163738,37.77936927398314,-122.4388619995987,57.10788,-1,-1,10,65,-9999,1425485052.561522,-22.93379211425781,-38.70953369140625,8.621376037597656,146.3814544677734,132.6050109863281,10,236402.686983,-0.2950592041015625,-0.9444122314453125,-0.2193756103515625,236402.6517305833,-0.03568076596877263,-1.067314537438838,-0.7790872705622875,236402.6517305833,2.842592393684449,-0.7395500011847933,1.232777267957319,-0.05062868446111679,-1.052601337432861,-0.7448617815971375,0.02337763831019402,-0.005469623021781445,0.08616228401660919,XTrueNorthZVertical,0.3718907302806385,0.4890825856937393,0.7212144880588451,0.3199145891067786,-0.2234966605901718,-0.9434134364128113,-0.2449910193681717,-21.09151649475098,-39.77417373657227,8.263494491577148,2,192.168.1.8,10.83.46.32,1,0
2015-03-04 08:04:12.666,37,1425485047.163738,37.77936927398314,-122.4388619995987,57.10788,-1,-1,10,65,-9999,1425485052.612528,-21.34796905517578,-40.11997985839844,9.836212158203125,150.5362548828125,136.7598114013672,10,236402.7360522083,-0.2827606201171875,-0.954559326171875,-0.1117706298828125,236402.7035054583,0.06893406060393803,-1.10232445312902,-0.7673826775713892,236402.7035054583,2.764011987779177,-0.7223124740044112,1.256607559093723,0.05398844927549362,-1.087611317634583,-0.7331548929214478,-0.1053910478949547,-0.007647058926522732,0.03844989836215973,XTrueNorthZVertical,0.3839865527802132,0.4864351686383201,0.7044093364113428,0.3460387460663773,-0.2043166011571884,-0.951047420501709,-0.2318703085184097,-19.34580993652344,-40.45331573486328,9.186493873596191,2,192.168.1.8,10.83.46.32,1,0
2015-03-04 08:04:12.694,38,1425485047.163738,37.77936927398314,-122.4388619995987,57.10788,-1,-1,10,65,-9999,1425485052.663801,-19.21649169921875,-40.71475219726562,10.68494415283203,154.9975280761719,141.2210845947266,10,236402.7850985834,-0.3080596923828125,-1.059829711914062,-0.11541748046875,236402.755278375,0.02630244419005859,-0.7329285636007071,-0.4965162915249561,236402.755278375,2.678892064192872,-0.682811438483137,1.276218183954593,0.01135987881571054,-0.7182143926620483,-0.4622880220413208,-0.09561295062303543,0.03349331021308899,0.1040889248251915,XTrueNorthZVertical,0.3904651751593946,0.4846804031896246,0.6909710542853583,0.3676697280146247,-0.1831956505775452,-0.9569247364997864,-0.2252437025308609,-17.56442451477051,-41.03870391845703,10.12117671966553,2,192.168.1.8,10.83.46.32,1,0
2015-03-04 08:04:12.764,39,1425485047.163738,37.77936927398314,-122.4388619995987,57.10788,-1,-1,10,65,-9999,1425485052.717505,-17.59657669067383,-40.79971313476562,11.70008087158203,158.3223724365234,144.5459289550781,10,236402.8341675834,-0.235107421875,-1.031173706054688,-0.125396728515625,236402.807053125,0.173524652410729,-0.0667553285161442,-0.08914399116822234,236402.807053125,2.681900505401472,-0.7107662954529661,1.292680758405019,0.1587879061698914,-0.05215977504849434,-0.05475888401269913,-0.1743071228265762,-0.0971870943903923,0.1172619163990021,XTrueNorthZVertical,0.3991004444577672,0.4865031843564093,0.6809852513349922,0.3745567344419071,-0.1791169494390488,-0.9615744948387146,-0.2080669701099396,-16.06717872619629,-41.39187622070312,11.12119102478027,2,192.168.1.8,10.83.46.32,1,0
2015-03-04 08:04:12.791,40,1425485047.163738,37.77936927398314,-122.4388619995987,57.10788,-1,-1,10,65,-9999,1425485052.768236,-16.91450119018555,-40.96963500976562,11.33396911621094,158.9192504882812,145.1428070068359,10,236402.8832070417,0.0725555419921875,-1.156951904296875,-0.340850830078125,236402.8588279583,-0.520915108167826,1.786645000513601,-0.4441585444939982,236402.8588279583,2.642738733831933,-0.6201651195261291,1.291240289933518,-0.5355761051177979,1.801266074180603,-0.4097488224506378,0.01644088327884674,-0.1270482838153839,-0.008790856227278709,XTrueNorthZVertical,0.3776229273118409,0.4951036776026968,0.691774681397095,0.365679144028683,-0.1603617817163467,-0.9611780643463135,-0.2245465517044067,-16.12590408325195,-41.30087661743164,11.37168788909912,2,192.168.1.8,10.83.46.32,1,0
2015-03-04 08:04:12.866,41,1425485047.163738,37.77936927398314,-122.4388619995987,57.10788,-1,-1,10,65,-9999,1425485052.820587,-16.69282913208008,-41.22454833984375,10.51853179931641,158.2031555175781,144.4267120361328,10,236402.932263,0.047698974609375,-0.8910064697265625,-0.2808990478515625,236402.910601125,-0.09486552645414857,0.04812811458769398,-0.003491404189093881,236402.910601125,2.578345005089969,-0.5139289756818555,1.283320820554967,-0.1095263883471489,0.06274912506341934,0.03091802448034286,0.2682153284549713,-0.07828399538993835,-0.1037716194987297,XTrueNorthZVertical,0.3564547788377602,0.499486793274734,0.7020022676765975,0.3614497519319146,-0.1393853724002838,-0.9589626789093018,-0.2469058632850647,-16.1685791015625,-41.78982925415039,9.343962669372559,2,192.168.1.8,10.83.46.32,1,0
2015-03-04 08:04:12.890,42,1425485047.163738,37.77936927398314,-122.4388619995987,57.10788,-1,-1,10,65,-9999,1425485052.871895,-16.53936004638672,-41.58140563964844,9.436813354492188,157.5180511474609,143.7416076660156,10,236402.9813001667,-0.2206878662109375,-0.96624755859375,-0.251373291015625,236402.9623759167,-0.2693486505411971,-0.9318267496132751,0.06804190163876148,236402.9623759167,2.576740016076526,-0.5414007472163023,1.273835391615489,-0.2840093672275543,-0.9172059297561646,0.1024509519338608,0.04757009819149971,0.01447297912091017,-0.02160111628472805,XTrueNorthZVertical,0.3661647560890469,0.4904479964345995,0.6996464036458112,0.3686179825563307,-0.1507958024740219,-0.9562301635742188,-0.2507682740688324,-16.15475082397461,-41.89838027954102,8.869745254516602,2,192.168.1.8,10.83.46.32,1,0
2015-03-04 08:04:12.972,43,1425485047.163738,37.77936927398314,-122.4388619995987,57.10788,-1,-1,10,65,-9999,1425485052.923603,-16.28359222412109,-41.49644470214844,9.453453063964844,158.6303100585938,144.8538665771484,10,236403.0303699167,-0.2555999755859375,-0.983795166015625,-0.17681884765625,236403.01415075,-0.1552886568464114,-0.5103631312967141,0.020501813019757,236403.01415075,2.567400593542496,-0.5733699346465601,1.259924573642593,-0.1699492037296295,-0.4957424104213715,0.05491051822900772,-0.0999193862080574,-0.01244078483432531,0.05724834650754929,XTrueNorthZVertical,0.3791532678679423,0.4772394375483336,0.6961752561541861,0.3792433314366184,-0.1659345030784607,-0.9520672559738159,-0.2569706439971924,-15.99991798400879,-41.93104553222656,8.995142936706543,2,192.168.1.8,10.83.46.32,1,0
2015-03-04 08:04:12.988,44,1425485047.163738,37.77936927398314,-122.4388619995987,57.10788,-1,-1,10,65,-9999,1425485052.974995,-16.18128204345703,-41.66636657714844,9.786285400390625,160.2921752929688,146.5157318115234,10,236403.0793959583,-0.1101226806640625,-0.9561767578125,-0.2649688720703125,236403.0659237083,-0.1723925426313363,0.4855640415420052,0.1189343774379577,236403.01415075,2.567400593542496,-0.5733699346465601,1.259924573642593,-0.1699492037296295,-0.4957424104213715,0.05491051822900772,-0.0999193862080574,-0.01244078483432531,0.05724834650754929,XTrueNorthZVertical,0.3791532678679423,0.4772394375483336,0.6961752561541861,0.3792433314366184,-0.1659345030784607,-0.9520672559738159,-0.2569706439971924,-15.99991798400879,-41.93104553222656,8.995142936706543,2,192.168.1.8,10.83.46.32,1,0
2015-03-04 08:04:13.064,45,1425485047.163738,37.77936927398314,-122.4388619995987,57.10788,-1,-1,10,65,-9999,1425485053.027219,-16.65873336791992,-41.83628845214844,9.553298950195312,159.6330261230469,145.8565826416016,10,236403.1284534583,-0.0317230224609375,-0.979766845703125,-0.290618896484375,236403.1176986667,0.1357897902931782,0.3082039045293442,0.2109298151853279,236403.1176986667,2.590423734582216,-0.5642255576338193,1.241866627244679,0.1211295053362846,0.3228243291378021,0.2453378587961197,0.1266323328018188,0.03192939609289169,-0.03106947802007198,XTrueNorthZVertical,0.369930802648513,0.4760989958946416,0.7076357389280985,0.3684193010124556,-0.1727443933486938,-0.9463886022567749,-0.2729618847370148,-16.57466125488281,-41.88037109375,8.150919914245605,2,192.168.1.8,10.83.46.32,1,0
2015-03-04 08:04:13.085,46,1425485047.163738,37.77936927398314,-122.4388619995987,57.10788,-1,-1,10,65,-9999,1425485053.079917,-17.46017456054688,-41.58140563964844,9.03741455078125,157.5852813720703,143.808837890625,10,236403.177492875,-0.0707244873046875,-0.9701995849609375,-0.29931640625,236403.1694734583,0.1119068279534566,0.00433429467410396,0.2834740569629773,236403.1176986667,2.590423734582216,-0.5642255576338193,1.241866627244679,0.1211295053362846,0.3228243291378021,0.2453378587961197,0.1266323328018188,0.03192939609289169,-0.03106947802007198,XTrueNorthZVertical,0.369930802648513,0.4760989958946416,0.7076357389280985,0.3684193010124556,-0.1727443933486938,-0.9463886022567749,-0.2729618847370148,-16.57466125488281,-41.88037109375,8.150919914245605,2,192.168.1.8,10.83.46.32,1,0
2015-03-04 08:04:13.166,47,1425485047.163738,37.77936927398314,-122.4388619995987,57.10788,-1,-1,10,65,-9999,1425485053.130839,-18.27866363525391,-41.07159423828125,9.13726806640625,155.9715270996094,142.1950836181641,10,236403.2265597084,-0.0871429443359375,-0.9886932373046875,-0.29595947265625,236403.221246375,-0.115649368233345,0.05142404275277604,0.1860598853456229,236403.1694734583,2.6396507170934,-0.6076289564831296,1.240546321800251,0.09724670648574829,0.01895455829799175,0.3178817331790924,0.1220741048455238,-0.02199524082243443,-0.0323488675057888,XTrueNorthZVertical,0.3735489235278002,0.4768056657803195,0.7089437998855159,0.361270564012313,-0.1851386874914169,-0.9459612965583801,-0.2662351131439209,-17.14886856079102,-41.64190292358398,8.184792518615723,2,192.168.1.8,10.83.46.32,1,0
2015-03-04 08:04:13.183,48,1425485047.163738,37.77936927398314,-122.4388619995987,57.10788,-1,-1,10,65,-9999,1425485053.130839,-18.27866363525391,-41.07159423828125,9.13726806640625,155.9715270996094,142.1950836181641,10,236403.2755777084,-0.00146484375,-0.9260406494140625,-0.276519775390625,236403.273021375,-0.1066601342898915,0.1819146751089146,0.1277052321720247,236403.221246375,2.670937132756004,-0.6361221865508354,1.232020032737414,-0.1303093433380127,0.0660441592335701,0.220467209815979,0.1050409525632858,-0.06021014228463173,-0.02450863644480705,XTrueNorthZVertical,0.3761684595536652,0.4741643267604018,0.711756344443589,0.356466773228667,-0.1974329203367233,-0.9431620240211487,-0.2673309743404388,-17.71923828125,-41.36737442016602,8.360114097595215,2,192.168.1.8,10.83.46.32,1,0
2015-03-04 08:04:13.265,49,1425485047.163738,37.77936927398314,-122.4388619995987,57.10788,-1,-1,10,65,-9999,1425485053.234322,-18.90956878662109,-41.22451782226562,8.321815490722656,154.7445526123047,140.9681091308594,10,236403.324635125,0.0104827880859375,-0.944732666015625,-0.34906005859375,236403.3247960834,-0.2172268595828203,-0.2206889689999233,0.05121924566494895,236403.273021375,2.65071795289489,-0.6044308789759528,1.226572786646196,-0.1213853061199188,0.1965397894382477,0.161992147564888,0.1678237020969391,0.007393063046038151,-0.006244407966732979,XTrueNorthZVertical,0.3696121555954852,0.4738659245683017,0.7156788684923884,0.3558677706247411,-0.1917800009250641,-0.9413377642631531,-0.2776758670806885,-18.3189582824707,-41.17876815795898,7.990457534790039,2,192.168.1.8,10.83.46.32,1,0
2015-03-04 08:04:13.281,50,1425485047.163738,37.77936927398314,-122.4388619995987,57.10788,-1,-1,10,65,-9999,1425485053.234322,-18.90956878662109,-41.22451782226562,8.321815490722656,154.7445526123047,140.9681091308594,10,236403.3736633334,-0.02313232421875,-0.947509765625,-0.297882080078125,236403.3247960834,-0.2172268595828203,-0.2206889689999233,0.05121924566494895,236403.3247960834,2.607261715437363,-0.5578773570201788,1.224489071537327,-0.232028141617775,-0.2060523629188538,0.08534251898527145,0.1901708692312241,-0.004100126679986715,-0.06109675392508507,XTrueNorthZVertical,0.3631869598634784,0.4734063589897792,0.7170442166027036,0.3603184923046017,-0.1796880811452866,-0.9406325221061707,-0.2879633009433746,-17.5450439453125,-41.62949371337891,7.367436408996582,2,192.168.1.8,10.83.46.32,1,0
2015-03-04 08:04:13.366,51,1425485047.163738,37.77936927398314,-122.4388619995987,57.10788,-1,-1,10,65,-9999,1425485053.339052,-19.33586120605469,-41.13954162597656,8.371742248535156,155.4710998535156,141.6946563720703,10,236403.4227167084,-0.1631317138671875,-0.937744140625,-0.3041839599609375,236403.4283440833,-0.02906760434988786,-0.8527215441741064,0.1475689517945987,236403.3765692083,2.562786433393808,-0.5385600445676989,1.216199779136086,-0.2494573593139648,-0.7724363207817078,0.2034963071346283,0.1549530476331711,-0.009723116643726826,0.0001817459269659594,XTrueNorthZVertical,0.366430949571833,0.4655066553726555,0.7148825452151963,0.3714499058462297,-0.1780853718519211,-0.9377866387367249,-0.2980638146400452,-17.18378257751465,-41.85983657836914,6.898870468139648,2,192.168.1.8,10.83.46.32,1,0
2015-03-04 08:04:13.380,52,1425485047.163738,37.77936927398314,-122.4388619995987,57.10788,-1,-1,10,65,-9999,1425485053.339052,-19.33586120605469,-41.13954162597656,8.371742248535156,155.4710998535156,141.6946563720703,10,236403.471764375,-0.102783203125,-0.8804931640625,-0.32598876953125,236403.4283440833,-0.02906760434988786,-0.8527215441741064,0.1475689517945987,236403.4283440833,2.572478879033279,-0.5914739508521123,1.204388783640873,-0.04396684840321541,-0.8380851149559021,0.1815425753593445,0.03663104027509689,-0.004123726394027472,-0.006781863514333963,XTrueNorthZVertical,0.3826375366372664,0.4526449682175761,0.710271562704574,0.3797571968028501,-0.1997627466917038,-0.9336203932762146,-0.2974020838737488,-17.14514923095703,-41.83786392211914,7.124587059020996,2,192.168.1.8,10.83.46.32,1,0
2015-03-04 08:04:13.468,53,1425485047.163738,37.77936927398314,-122.4388619995987,57.10788,-1,-1,10,65,-9999,1425485053.441757,-19.30176544189453,-40.79969787597656,9.703071594238281,157.6940002441406,143.9175567626953,10,236403.52084025,-0.26190185546875,-1.003646850585938,-0.20281982421875,236403.4801189167,-0.004690359311847555,-0.8089908411783513,0.2834207937411757,236403.4801189167,2.594335437144585,-0.6490833416456376,1.195001555001654,-0.01958945393562317,-0.7943545579910278,0.3173940777778625,0.1190597265958786,0.0497230626642704,-0.03361275792121887,XTrueNorthZVertical,0.3979073089287045,0.4421332002837584,0.705957415219769,0.3844636622765072,-0.2218429297208786,-0.9302162528038025,-0.2923760116100311,-17.22658920288086,-41.71370315551758,7.63767147064209,2,192.168.1.8,10.83.46.32,1,0
2015-03-04 08:04:13.479,54,1425485047.163738,37.77936927398314,-122.4388619995987,57.10788,-1,-1,10,65,-9999,1425485053.441757,-19.30176544189453,-40.79969787597656,9.703071594238281,157.6940002441406,143.9175567626953,10,236403.5699218333,-0.2086029052734375,-0.88177490234375,-0.3478240966796875,236403.531892125,0.4203413622332016,-0.6717597481032221,-0.2051973609389323,236403.531892125,2.636520904864043,-0.7388987661434336,1.207254444242749,0.4054431319236755,-0.657123327255249,-0.171224519610405,-0.01992057450115681,-0.08551362156867981,0.08342576026916504,XTrueNorthZVertical,0.4201184230495538,0.438262001400985,0.6921668053575358,0.3902975983917715,-0.2394788414239883,-0.9346432685852051,-0.2628538608551025,-17.43837356567383,-41.48015975952148,8.391792297363281,2,192.168.1.8,10.83.46.32,1,0
2015-03-04 08:04:13.567,55,1425485047.163738,37.77936927398314,-122.4388619995987,57.10788,-1,-1,10,65,-9999,1425485053.545252,-18.50032806396484,-40.85067749023438,10.41865539550781,159.648681640625,145.8722381591797,10,236403.6189440417,-0.1513824462890625,-1.000152587890625,-0.2679443359375,236403.583667125,-0.3046872003098945,0.3877804894814568,-0.300367020389568,236403.583667125,2.594878230681081,-0.6903436421990662,1.204356545336746,-0.3196353316307068,0.4023989140987396,-0.2663982510566711,0.04586577787995338,-0.01173415314406157,-0.1013699248433113,XTrueNorthZVertical,0.4123883536699701,0.4379595310544985,0.6949604985483749,0.3939002073878254,-0.2281625270843506,-0.9336088895797729,-0.2762545943260193,-16.92677879333496,-41.45014190673828,9.512755393981934,2,192.168.1.8,10.83.46.32,1,0
2015-03-04 08:04:13.576,56,1425485047.163738,37.77936927398314,-122.4388619995987,57.10788,-1,-1,10,65,-9999,1425485053.545252,-18.50032806396484,-40.85067749023438,10.41865539550781,159.648681640625,145.8722381591797,10,236403.668114625,-0.04620361328125,-0.8733062744140625,-0.258819580078125,236403.635441875,-0.3115879833265078,0.1261728492807931,-0.1494113266367155,236403.635441875,2.538578342779438,-0.623449011647722,1.198568671032358,-0.3265309929847717,0.1408026665449142,-0.1154764965176582,0.1338614076375961,-0.009535819292068481,0.03681693226099014,XTrueNorthZVertical,0.4012584780463289,0.437443119356739,0.6991176240177246,0.3985848365380745,-0.2123373597860336,-0.9315194487571716,-0.2952702939510345,-16.63307571411133,-41.81768035888672,8.351337432861328,2,192.168.1.8,10.83.46.32,1,0
2015-03-04 08:04:13.636,57,1425485047.163738,37.77936927398314,-122.4388619995987,57.10788,-1,-1,10,65,-9999,1425485053.597822,-18.56853485107422,-40.85067749023438,9.420158386230469,159.1665954589844,145.3901519775391,10,236403.7170567917,-0.3408660888671875,-0.9895477294921875,-0.3636627197265625,236403.6872151667,-0.2702916758831941,-0.321443809888673,0.6385525261549151,236403.6872151667,2.53822540998907,-0.6308715110186812,1.187587983862856,-0.2852581143379211,-0.3067829012870789,0.672346293926239,0.08002528548240662,0.03144320845603943,0.01642086170613766,XTrueNorthZVertical,0.403557896617914,0.4314823200771292,0.7007714572726889,0.399854435034773,-0.2205434739589691,-0.927469789981842,-0.3019280731678009,-16.46430587768555,-41.99636077880859,7.768844604492188,2,192.168.1.8,10.83.46.32,1,0
2015-03-04 08:04:13.674,58,1425485047.163738,37.77936927398314,-122.4388619995987,57.10788,-1,-1,10,65,-9999,1425485053.64925,-18.5855827331543,-40.79971313476562,9.237098693847656,160.1082916259766,146.3318481445312,10,236403.7662065417,-0.1688232421875,-0.92529296875,-0.2641448974609375,236403.7389899167,-0.1512513046338513,-0.5736986946570876,-0.03906697529480838,236403.7389899167,2.549181763309479,-0.6618196000292205,1.165508571232389,-0.166217565536499,-0.559037983417511,-0.005273607093840837,-0.0230268407613039,-0.03587552532553673,0.01665271446108818,XTrueNorthZVertical,0.4113856143816871,0.4186186935365821,0.7030719697292975,0.4015099551560029,-0.2423082441091537,-0.9189890027046204,-0.3110405206680298,-17.13818740844727,-41.79145431518555,7.408056259155273,2,192.168.1.8,10.83.46.32,1,0
2015-03-04 08:04:13.738,59,1425485047.163738,37.77936927398314,-122.4388619995987,57.10788,-1,-1,10,65,-9999,1425485053.70221,-18.72199630737305,-41.17355346679688,9.303665161132812,160.6849517822266,146.9085083007812,10,236403.815142375,-0.1900634765625,-0.9052886962890625,-0.3152923583984375,236403.790765,-0.01688843605273749,-0.4547771003923622,-0.04598000885243606,236403.790765,2.536519980216186,-0.6758182520450967,1.166462980892433,-0.03185455128550529,-0.4401165246963501,-0.0121869808062911,0.08852748572826385,0.01245873887091875,0.03238234668970108,XTrueNorthZVertical,0.4189493833201997,0.4135390500107245,0.6973249830529193,0.4089069690638454,-0.2460897415876389,-0.919364869594574,-0.306933730840683,-16.92619705200195,-41.85355377197266,7.543622970581055,2,192.168.1.8,10.83.46.32,1,0
2015-03-04 08:04:13.772,60,1425485047.163738,37.77936927398314,-122.4388619995987,57.10788,-1,-1,10,65,-9999,1425485053.752578,-18.55147552490234,-41.17355346679688,9.336952209472656,161.0820159912109,147.3055725097656,10,236403.86418475,-0.0782012939453125,-0.9119720458984375,-0.2798614501953125,236403.842538,-0.1598778160368359,-0.4002387570608475,-0.3577956924521457,236403.842538,2.51605616922201,-0.6755544607178329,1.163559523511876,-0.1746835559606552,-0.3856812417507172,-0.3238157033920288,0.07020197063684464,0.04389014467597008,-0.004075740464031696,XTrueNorthZVertical,0.422967123591813,0.4081159376548338,0.6940010167134641,0.4158160117168946,-0.2476769387722015,-0.918218731880188,-0.3090803921222687,-16.72402954101562,-41.89227676391602,7.776018142700195,2,192.168.1.8,10.83.46.32,1,0
2015-03-04 08:04:13.836,61,1425485047.163738,37.77936927398314,-122.4388619995987,57.10788,-1,-1,10,65,-9999,1425485053.804234,-18.09108352661133,-41.56439208984375,9.586578369140625,162.5060272216797,148.7295837402344,10,236403.9132479583,-0.1431884765625,-0.873138427734375,-0.2721710205078125,236403.8943130417,-0.1744580903728017,-0.8088073493792448,-0.1810986825509143,236403.8943130417,2.476905380302373,-0.6704589319515513,1.165314660826702,-0.1892636567354202,-0.794249951839447,-0.1471190750598907,0.1279095709323883,-0.0251945499330759,0.03949816524982452,XTrueNorthZVertical,0.4292019021299464,0.4015571340363304,0.6863149130490764,0.4283802148160976,-0.2450970709323883,-0.9189125299453735,-0.3090751767158508,-15.89346122741699,-42.21358108520508,7.780362129211426,2,192.168.1.8,10.83.46.32,1,0
2015-03-04 08:04:13.870,62,1425485047.163738,37.77936927398314,-122.4388619995987,57.10788,-1,-1,10,65,-9999,1425485053.856859,-17.52836990356445,-41.85328674316406,9.703071594238281,162.2559204101562,148.4794769287109,10,236403.9622775833,-0.0277252197265625,-0.7667388916015625,-0.2302703857421875,236403.9460878333,-0.1310256614191355,-0.8965137661910424,-0.3318634276536081,236403.9460878333,2.438427174132295,-0.6770770379942288,1.162990968216419,-0.1458310782909393,-0.8819565773010254,-0.2978841662406921,0.1921083331108093,0.1560762971639633,0.07316311448812485,XTrueNorthZVertical,0.4389724554740655,0.3908302692892355,0.6771741213136814,0.4427078792751485,-0.2484742999076843,-0.917993426322937,-0.3091097772121429,-15.29927253723145,-42.40581130981445,7.924774169921875,2,192.168.1.8,10.83.46.32,1,0
2015-03-04 08:04:13.970,63,1425485047.163738,37.77936927398314,-122.4388619995987,57.10788,-1,-1,10,65,-9999,1425485053.912474,-16.38589477539062,-42.17613220214844,10.21896362304688,165.2859191894531,151.5094757080078,10,236404.0113355833,-0.095855712890625,-0.7146148681640625,-0.161834716796875,236403.9978611667,0.03076723375757643,-1.232925606670397,-0.2172423059171427,236403.9978611667,2.406959098996444,-0.6978709659546497,1.169663000501206,0.01596194319427013,-1.218368530273438,-0.1832633465528488,0.184408500790596,0.1709547638893127,0.1138588860630989,XTrueNorthZVertical,0.452363849472138,0.3818095184265055,0.6635084534512148,0.4575425057143088,-0.2509063184261322,-0.9206190705299377,-0.2991768717765808,-14.43501949310303,-42.6519660949707,8.219648361206055,2,192.168.1.8,10.83.46.32,1,0
2015-03-04 08:04:13.973,64,1425485047.163738,37.77936927398314,-122.4388619995987,57.10788,-1,-1,10,65,-9999,1425485053.912474,-16.38589477539062,-42.17613220214844,10.21896362304688,165.2859191894531,151.5094757080078,10,236404.060379875,-0.081207275390625,-0.746337890625,0.008148193359375,236404.0496359583,0.3666011682803836,-2.305010131937676,-0.03543255935517724,236403.9978611667,2.406959098996444,-0.6978709659546497,1.169663000501206,0.01596194319427013,-1.218368530273438,-0.1832633465528488,0.184408500790596,0.1709547638893127,0.1138588860630989,XTrueNorthZVertical,0.452363849472138,0.3818095184265055,0.6635084534512148,0.4575425057143088,-0.2509063184261322,-0.9206190705299377,-0.2991768717765808,-14.43501949310303,-42.6519660949707,8.219648361206055,2,192.168.1.8,10.83.46.32,1,0
2015-03-04 08:04:14.035,65,1425485047.163738,37.77936927398314,-122.4388619995987,57.10788,-1,-1,10,65,-9999,1425485053.989163,-14.25441360473633,-42.26109313964844,11.26737976074219,170.3551788330078,156.5787353515625,10,236404.1094415,-0.479949951171875,-0.7179718017578125,0.1009368896484375,236404.1014110417,0.1484121085957178,-3.122088993346598,0.4968872698648041,236404.1014110417,2.470589227469124,-0.9839520169897196,1.173719349754572,0.1336071342229843,-3.107532024383545,0.530865490436554,-0.0815570130944252,0.2059019953012466,0.3006455302238464,XTrueNorthZVertical,0.532098521192556,0.331359989284553,0.6068873955412393,0.4886303136176572,-0.3220227062702179,-0.9221953153610229,-0.2141434401273727,-12.32622241973877,-42.57529449462891,11.42502689361572,2,192.168.1.8,10.83.46.32,1,0
2015-03-04 08:04:14.073,66,1425485047.163738,37.77936927398314,-122.4388619995987,57.10788,-1,-1,10,65,-9999,1425485053.989163,-14.25441360473633,-42.26109313964844,11.26737976074219,170.3551788330078,156.5787353515625,10,236404.1584763333,-0.5142822265625,-0.7795562744140625,0.146484375,236404.1014110417,0.1484121085957178,-3.122088993346598,0.4968872698648041,236404.1014110417,2.470589227469124,-0.9839520169897196,1.173719349754572,0.1336071342229843,-3.107532024383545,0.530865490436554,-0.0815570130944252,0.2059019953012466,0.3006455302238464,XTrueNorthZVertical,0.532098521192556,0.331359989284553,0.6068873955412393,0.4886303136176572,-0.3220227062702179,-0.9221953153610229,-0.2141434401273727,-12.32622241973877,-42.57529449462891,11.42502689361572,2,192.168.1.8,10.83.46.32,1,0
2015-03-04 08:04:14.135,67,1425485047.163738,37.77936927398314,-122.4388619995987,57.10788,-1,-1,10,65,-9999,1425485054.067033,-12.24230194091797,-41.75128173828125,13.99661254882812,178.0092315673828,164.2327880859375,10,236404.2075286667,-0.4913330078125,-0.8304443359375,0.1283111572265625,236404.2049592083,0.4055445729006124,0.9546015706234147,-0.04929085071962257,236404.153184125,2.504243330700267,-1.156362847767641,1.173328266946211,0.2938400506973267,-2.069166660308838,-0.1732918918132782,-0.1965562701225281,0.1484081596136093,0.3058621287345886,XTrueNorthZVertical,0.5774588866438054,0.2976694766749451,0.5675270255875009,0.5058135675590835,-0.3543165326118469,-0.922044038772583,-0.1558682322502136,-11.51494121551514,-42.23347091674805,13.37395668029785,2,192.168.1.8,10.83.46.32,1,0
2015-03-04 08:04:14.167,68,1425485047.163738,37.77936927398314,-122.4388619995987,57.10788,-1,-1,10,65,-9999,1425485054.14217,-10.46891021728516,-41.03756713867188,16.69255065917969,183.4833068847656,169.7068634033203,10,236404.2565609167,-0.3122100830078125,-0.7924957275390625,0.041473388671875,236404.2567339583,0.2146734207296523,2.185952183825139,-0.5791033137732943,236404.2049592083,2.54390071097181,-1.210923709358864,1.183537967073992,0.3907409310340881,0.9691578149795532,-0.01531134825199842,-0.13418048620224,0.1092670112848282,0.2425957918167114,XTrueNorthZVertical,0.5864661256911687,0.2992683210442579,0.5587019785115235,0.5043294832253338,-0.353459894657135,-0.925947904586792,-0.1329919099807739,-9.780908584594727,-42.02402496337891,15.27866744995117,2,192.168.1.8,10.83.46.32,1,0
2015-03-04 08:04:14.264,69,1425485047.163738,37.77936927398314,-122.4388619995987,57.10788,-1,-1,10,65,-9999,1425485054.245067,-11.23623657226562,-40.91860961914062,16.97545623779297,178.3881683349609,164.6117248535156,10,236404.3056246667,-0.1916656494140625,-0.844818115234375,-0.107025146484375,236404.3085073333,0.04338209520906377,0.7059765744207782,-0.304131132274286,236404.2567339583,2.562274866876027,-1.134578440526822,1.202251186198928,0.1998699158430099,2.20050835609436,-0.5451241731643677,0.0143129201605916,0.1403567343950272,0.1936880797147751,XTrueNorthZVertical,0.5609271736104144,0.3305349600130695,0.5797410865136345,0.4899059008926744,-0.3265230059623718,-0.9328524470329285,-0.1522146910429001,-10.41773223876953,-41.81542587280273,15.42930698394775,2,192.168.1.8,10.83.46.32,1,0
2015-03-04 08:04:14.269,70,1425485047.163738,37.77936927398314,-122.4388619995987,57.10788,-1,-1,10,65,-9999,1425485054.245067,-11.23623657226562,-40.91860961914062,16.97545623779297,178.3881683349609,164.6117248535156,10,236404.354651375,-0.335296630859375,-0.9066162109375,-0.13031005859375,236404.3085073333,0.04338209520906377,0.7059765744207782,-0.304131132274286,236404.3085073333,2.553584660498725,-1.048418541217074,1.226011905000766,0.02857874147593975,0.7205324769020081,-0.2701523303985596,0.101252056658268,0.09633022546768188,0.06161443889141083,XTrueNorthZVertical,0.5361620365318878,0.3580649069494891,0.5942591657591895,0.4808076641561636,-0.2929176986217499,-0.9411483407020569,-0.1686395853757858,-10.90684509277344,-41.90626525878906,14.83335781097412,2,192.168.1.8,10.83.46.32,1,0
2015-03-04 08:04:14.322,71,1425485047.163738,37.77936927398314,-122.4388619995987,57.10788,-1,-1,10,65,-9999,1425485054.298443,-10.4859619140625,-41.19049072265625,16.80903625488281,179.0652618408203,165.288818359375,10,236404.4038279584,-0.3517303466796875,-0.8198394775390625,0.031097412109375,236404.41205725,-0.06770607702530249,-1.949707957214172,0.2670724467575063,236404.3602821667,2.519328636882757,-1.044756842799651,1.237793560643616,-0.09886935353279114,-1.537872672080994,-0.3804908692836761,-0.05260762199759483,0.03844884410500526,0.03382176533341408,XTrueNorthZVertical,0.5408014879071545,0.3542143961974678,0.5833865900464551,0.4916565587528783,-0.2826890051364899,-0.9450650811195374,-0.1641318202018738,-10.58214378356934,-42.08976364135742,14.54621505737305,2,192.168.1.8,10.83.46.32,1,0
2015-03-04 08:04:14.366,72,1425485047.163738,37.77936927398314,-122.4388619995987,57.10788,-1,-1,10,65,-9999,1425485054.349599,-9.104759216308594,-41.27548217773438,16.89224624633789,183.1744232177734,169.3979797363281,10,236404.4527511667,-0.6829376220703125,-0.938507080078125,0.1144561767578125,236404.41205725,-0.06770607702530249,-1.949707957214172,0.2670724467575063,236404.41205725,2.506585207728776,-1.131718595780044,1.236575709470809,-0.08250914514064789,-1.935152292251587,0.3010505735874176,-0.05481278523802757,0.1248267814517021,0.1705460399389267,XTrueNorthZVertical,0.5678047873262486,0.328440882097969,0.5564551326009145,0.5099825181955574,-0.2969175577163696,-0.9446662664413452,-0.1394486278295517,-8.965299606323242,-42.27899169921875,15.07424449920654,2,192.168.1.8,10.83.46.32,1,0
2015-03-04 08:04:14.420,73,1425485047.163738,37.77936927398314,-122.4388619995987,57.10788,-1,-1,10,65,-9999,1425485054.401622,-8.081653594970703,-41.92123413085938,17.35821533203125,186.9154815673828,173.1390380859375,10,236404.5018299583,-0.5552215576171875,-0.8707122802734375,-0.0129241943359375,236404.4638305,0.09655423690136782,0.0662306857813986,-0.1045951191806441,236404.4638305,2.519118238932877,-1.192199965933197,1.227998253503088,0.08175132423639297,0.08078619092702866,-0.07061734795570374,-0.3328355848789215,-0.01188697945326567,0.2078399658203125,XTrueNorthZVertical,0.5828357119886934,0.3133432695868968,0.5448326947275277,0.5150495471292527,-0.312321275472641,-0.9418178796768188,-0.1242370530962944,-8.145870208740234,-42.23153686523438,15.66092300415039,2,192.168.1.8,10.83.46.32,1,0
2015-03-04 08:04:14.468,74,1425485047.163738,37.77936927398314,-122.4388619995987,57.10788,-1,-1,10,65,-9999,1425485054.452786,-8.729621887207031,-41.68331909179688,17.25836563110352,185.2545928955078,171.4781494140625,10,236404.5508590417,-0.3574371337890625,-1.028945922851562,-0.0626068115234375,236404.5156055,0.3625323907669606,1.941783721390641,-0.2319291066967117,236404.5156055,2.546672790539712,-1.154301550604691,1.240572358861666,0.3477296233177185,1.956339001655579,-0.1979516744613647,-0.2255285829305649,0.05552785098552704,0.1480256021022797,XTrueNorthZVertical,0.5672639777042795,0.3355914626315797,0.5590033520012794,0.5030957913420974,-0.2965356111526489,-0.9459697604179382,-0.1311798989772797,-8.26425838470459,-42.12570953369141,15.88235569000244,2,192.168.1.8,10.83.46.32,1,0
2015-03-04 08:04:14.519,75,1425485047.163738,37.77936927398314,-122.4388619995987,57.10788,-1,-1,10,65,-9999,1425485054.504327,-9.735675811767578,-41.42840576171875,17.24172210693359,181.1150360107422,167.3385925292969,10,236404.5999452917,-0.0875091552734375,-0.9772186279296875,-0.1613922119140625,236404.5673802917,0.2959451077156004,1.373386847831683,-0.347120677538672,236404.5673802917,2.575539542698694,-1.091813755586011,1.259125936749589,0.2811424732208252,1.38794207572937,-0.3131435513496399,0.007659857627004385,-0.1141410693526268,0.08943238109350204,XTrueNorthZVertical,0.5434892610389894,0.36599953576472,0.5779526923076883,0.4864510472971343,-0.2721404433250427,-0.9518226981163025,-0.1413275301456451,-9.255203247070312,-41.96292495727539,15.76632404327393,2,192.168.1.8,10.83.46.32,1,0
2015-03-04 08:04:14.565,76,1425485047.163738,37.77936927398314,-122.4388619995987,57.10788,-1,-1,10,65,-9999,1425485054.555946,-10.1619758605957,-41.34344482421875,17.45805358886719,179.2322845458984,165.4558410644531,10,236404.6489520833,-0.3107147216796875,-0.95953369140625,-0.0841217041015625,236404.6191535417,0.1141252411414926,-0.2061078957156304,-0.2127333078755295,236404.6191535417,2.585886219265733,-1.072423114563382,1.270351048231093,0.09932275861501694,-0.1915528178215027,-0.1787565350532532,0.1351764649152756,0.00201877043582499,-0.01771827600896358,XTrueNorthZVertical,0.5353731623624204,0.3776835594535198,0.5823082583601781,0.4812982144086958,-0.2599475681781769,-0.9552047848701477,-0.1414614170789719,-9.712890625,-41.88085556030273,15.70911884307861,2,192.168.1.8,10.83.46.32,1,0
2015-03-04 08:04:14.616,77,1425485047.163738,37.77936927398314,-122.4388619995987,57.10788,-1,-1,10,65,-9999,1425485054.608227,-9.58221435546875,-41.10552978515625,17.5911865234375,180.0557708740234,166.2793273925781,10,236404.6980100833,-0.328155517578125,-1.041915893554688,-0.049468994140625,236404.6709287083,-0.06434862983903959,-0.74996587035838,-0.2855316152211725,236404.6709287083,2.558720896874088,-1.079565575254636,1.281493283117001,-0.07915094494819641,-0.7354109287261963,-0.2515552043914795,-0.06130021065473557,-0.05774663761258125,0.05614194646477699,XTrueNorthZVertical,0.5419758614667903,0.3727949892755485,0.5703966425192926,0.4918677716297085,-0.2515507340431213,-0.9584429264068604,-0.1345721185207367,-9.049761772155762,-41.93037414550781,15.97084617614746,2,192.168.1.8,10.83.46.32,1,0
2015-03-04 08:04:14.667,78,1425485047.163738,37.77936927398314,-122.4388619995987,57.10788,-1,-1,10,65,-9999,1425485054.608227,-9.58221435546875,-41.10552978515625,17.5911865234375,180.0557708740234,166.2793273925781,10,236404.7470422084,-0.3191070556640625,-1.028488159179688,-0.05877685546875,236404.7227036667,0.04868844368104665,0.03759291563144952,-0.3410891503018606,236404.7227036667,2.539238081097096,-1.079921438257862,1.290502202399541,0.03388627618551254,0.05214769393205643,-0.3071130812168121,-0.1768180727958679,-0.01943360082805157,0.1107993572950363,XTrueNorthZVertical,0.545273483400499,0.3707740231170004,0.5627189863873905,0.4985488616454264,-0.2439735531806946,-0.9609740972518921,-0.1304069012403488,-8.132951736450195,-42.06901550292969,16.09893608093262,2,192.168.1.8,10.83.46.32,1,0
2015-03-04 08:04:14.713,79,1425485047.163738,37.77936927398314,-122.4388619995987,57.10788,-1,-1,10,65,-9999,1425485054.667297,-9.258232116699219,-41.46238708496094,17.44140625,181.3462066650391,167.5697631835938,10,236404.7961125417,-0.191131591796875,-1.129364013671875,-0.1624755859375,236404.7744767917,0.06291611548868598,0.7366796259960837,-0.1850670588912414,236404.7744767917,2.514635598486477,-1.028327135047101,1.303643409067212,0.04811407998204231,0.751234233379364,-0.1510912925004959,-0.008927756920456886,-0.1294982582330704,-0.003669730387628078,XTrueNorthZVertical,0.5348037775719042,0.3818939356206424,0.5664587563346271,0.4972590791626721,-0.2260881066322327,-0.9645264148712158,-0.1362838894128799,-7.628054618835449,-42.1563720703125,16.11755561828613,2,192.168.1.8,10.83.46.32,1,0
2015-03-04 08:04:14.770,80,1425485054.716673,37.77923235275278,-122.4387713392464,57.16516,-1,-1,10,65,-9999,1425485054.737829,-8.729621887207031,-41.37745666503906,16.95879364013672,181.3910980224609,167.6146545410156,10,236404.8451446667,-0.18011474609375,-1.120986938476562,-0.17156982421875,236404.8262517917,-0.222594993392093,-0.1686769002784577,-0.1739313171091841,236404.8262517917,2.489781956223199,-0.987917728946711,1.305616634110985,-0.2372746616601944,-0.1542024910449982,-0.1398045420646667,0.05453237146139145,-0.16360142827034,-0.04073920473456383,XTrueNorthZVertical,0.5280313658664681,0.3860747343649301,0.5704027662558131,0.4967595327729906,-0.2188084870576859,-0.9650453925132751,-0.1442583501338959,-7.79371452331543,-42.23429107666016,15.83177757263184,2,192.168.1.8,10.83.46.32,1,0
2015-03-04 08:04:14.812,81,1425485054.716673,37.77923235275278,-122.4387713392464,57.16516,-1,-1,10,65,-9999,1425485054.789767,-8.013439178466797,-41.37745666503906,16.75909423828125,182.3712615966797,168.5948181152344,10,236404.894214125,-0.2764129638671875,-1.123321533203125,-0.0972442626953125,236404.87802675,-0.3079961779643179,-0.4497466554093115,-0.05292393507870867,236404.87802675,2.437228330800804,-0.9589302025142534,1.30157994696847,-0.3226757049560547,-0.4352723658084869,-0.01879751123487949,-0.02235925197601318,-0.1347905248403549,0.05553168430924416,XTrueNorthZVertical,0.5299003087618529,0.3779122780751825,0.5661677913780367,0.5058084398931255,-0.2177225351333618,-0.9639796018600464,-0.1527759432792664,-7.412544727325439,-42.44203186035156,15.45479869842529,2,192.168.1.8,10.83.46.32,1,0
2015-03-04 08:04:14.869,82,1425485054.716673,37.77923235275278,-122.4387713392464,57.16516,-1,-1,10,65,-9999,1425485054.841508,-7.518932342529297,-41.66635131835938,16.04349899291992,183.8963928222656,170.1199493408203,10,236404.9432543333,-0.2435455322265625,-1.176284790039062,-0.137054443359375,236404.9298000833,-0.1979341216979592,0.0341976515577075,0.01417014752809361,236404.87802675,2.437228330800804,-0.9589302025142534,1.30157994696847,-0.3226757049560547,-0.4352723658084869,-0.01879751123487949,-0.02235925197601318,-0.1347905248403549,0.05553168430924416,XTrueNorthZVertical,0.5299003087618529,0.3779122780751825,0.5661677913780367,0.5058084398931255,-0.2177225351333618,-0.9639796018600464,-0.1527759432792664,-7.412544727325439,-42.44203186035156,15.45479869842529,2,192.168.1.8,10.83.46.32,1,0
2015-03-04 08:04:14.911,83,1425485054.716673,37.77923235275278,-122.4387713392464,57.16516,-1,-1,10,65,-9999,1425485054.894631,-7.450733184814453,-42.04022216796875,16.01021575927734,184.2907562255859,170.5143127441406,10,236404.9924289167,-0.260498046875,-1.082595825195312,-0.1441650390625,236404.9815751667,-0.1335854918589196,-0.02309226981207707,0.2344551149906519,236404.9815751667,2.38365552549438,-0.9108166991735618,1.278165834833909,-0.1482647359371185,-0.008618280291557312,0.2685808837413788,0.02603602223098278,-0.1635596007108688,0.01913253217935562,XTrueNorthZVertical,0.526154939576039,0.3670553941346671,0.5726372391536233,0.5104097202618481,-0.2278945446014404,-0.9574883580207825,-0.1768626272678375,-7.323792457580566,-42.85748672485352,14.3080587387085,2,192.168.1.8,10.83.46.32,1,0
2015-03-04 08:04:14.962,84,1425485054.716673,37.77923235275278,-122.4387713392464,57.16516,-1,-1,10,65,-9999,1425485054.944794,-7.672405242919922,-42.46505737304688,15.42776489257812,184.3495483398438,170.5731048583984,10,236405.0413625,-0.3594207763671875,-1.36163330078125,-0.2319793701171875,236405.0333500417,-0.2381640994408052,0.2069028493010191,0.2300601002436941,236404.9815751667,2.38365552549438,-0.9108166991735618,1.278165834833909,-0.1482647359371185,-0.008618280291557312,0.2685808837413788,0.02603602223098278,-0.1635596007108688,0.01913253217935562,XTrueNorthZVertical,0.526154939576039,0.3670553941346671,0.5726372391536233,0.5104097202618481,-0.2278945446014404,-0.9574883580207825,-0.1768626272678375,-7.323792457580566,-42.85748672485352,14.3080587387085,2,192.168.1.8,10.83.46.32,1,0
2015-03-04 08:04:15.008,85,1425485054.716673,37.77923235275278,-122.4387713392464,57.16516,-1,-1,10,65,-9999,1425485054.997631,-8.525001525878906,-42.66896057128906,15.09493255615234,183.2352600097656,169.4588165283203,10,236405.090545625,-0.30999755859375,-0.9795989990234375,-0.0614471435546875,236405.0851232917,-0.06086175302379885,-0.4053198021046097,0.8519090137255232,236405.0333500417,2.391018019370887,-0.9145265153513196,1.262955646071948,-0.2528431713581085,0.2213766723871231,0.2641854882240295,-0.09500721096992493,-0.333402156829834,-0.01946425437927246,XTrueNorthZVertical,0.5257054469478238,0.3622058230108307,0.5782958611904617,0.5079515673401364,-0.2400605380535126,-0.9529900550842285,-0.1848814487457275,-7.850542068481445,-42.85135650634766,14.04468154907227,2,192.168.1.8,10.83.46.32,1,0
2015-03-04 08:04:15.066,86,1425485054.716673,37.77923235275278,-122.4387713392464,57.16516,-1,-1,10,65,-9999,1425485054.997631,-8.525001525878906,-42.66896057128906,15.09493255615234,183.2352600097656,169.4588165283203,10,236405.1394783334,-0.3354644775390625,-1.156829833984375,-0.034820556640625,236405.136898375,0.6152376160757075,0.4670414898443951,0.5644601888356027,236405.0851232917,2.405379883929683,-0.9176797124943659,1.23834491402714,-0.0755406841635704,-0.3908461332321167,0.8860340714454651,-0.03676509857177734,-0.07364524155855179,0.1123808845877647,XTrueNorthZVertical,0.5237655202212752,0.355683127613583,0.5887185320325151,0.5025632851758276,-0.2591943740844727,-0.9452451467514038,-0.1983183920383453,-8.531571388244629,-42.90653610229492,13.46714019775391,2,192.168.1.8,10.83.46.32,1,0
2015-03-04 08:04:15.107,87,1425485054.716673,37.77923235275278,-122.4387713392464,57.16516,-1,-1,10,65,-9999,1425485055.074998,-10.94636154174805,-41.95523071289062,15.26134490966797,180.3287506103516,166.5523071289062,10,236405.1886501667,-0.258026123046875,-1.112594604492188,-0.3395233154296875,236405.1886734584,-0.2197826952809693,2.281784437754986,0.904234003875073,236405.136898375,2.512822326315398,-1.028038133683548,1.205285635667466,0.6005592942237854,0.4815149903297424,0.598585307598114,0.00346290273591876,-0.1894564777612686,0.1517281085252762,XTrueNorthZVertical,0.5378418891890165,0.3441230917088127,0.5960376288008038,0.4868723837380353,-0.3060599565505981,-0.9339413642883301,-0.1846107989549637,-10.54915237426758,-42.47749710083008,13.39776802062988,2,192.168.1.8,10.83.46.32,1,0
2015-03-04 08:04:15.167,88,1425485054.716673,37.77923235275278,-122.4387713392464,57.16516,-1,-1,10,65,-9999,1425485055.128824,-13.7769660949707,-41.37745666503906,14.82865905761719,174.7473602294922,160.9709167480469,10,236405.237573875,-0.0739288330078125,-0.916656494140625,-0.2345123291015625,236405.1886734584,-0.2197826952809693,2.281784437754986,0.904234003875073,236405.1886734584,2.580911293288098,-0.9982601999185288,1.167364666602969,-0.2344608455896378,2.296257972717285,0.9383587837219238,0.0719466358423233,-0.1928753852844238,-0.1268385648727417,XTrueNorthZVertical,0.5176989670104444,0.354464953789231,0.6310493658293057,0.4562008844630097,-0.3299727439880371,-0.9197192192077637,-0.2126847505569458,-12.48537158966064,-41.85012435913086,13.70421123504639,2,192.168.1.8,10.83.46.32,1,0
2015-03-04 08:04:15.205,89,1425485054.716673,37.77923235275278,-122.4387713392464,57.16516,-1,-1,10,65,-9999,1425485055.128824,-13.7769660949707,-41.37745666503906,14.82865905761719,174.7473602294922,160.9709167480469,10,236405.2867853334,-0.3118743896484375,-0.916778564453125,-0.164886474609375,236405.2922218333,-0.3223122667201479,-1.206522228675024,1.087889853704681,236405.2404466667,2.595898777626058,-0.9903674051542961,1.111905791787997,-0.593999981880188,-0.9138591885566711,1.375996232032776,0.2964814901351929,-0.02011200413107872,0.008395959623157978,XTrueNorthZVertical,0.5138300314469954,0.3384147665158184,0.6521427073485352,0.4429042863263241,-0.3704103231430054,-0.8965445160865784,-0.2429082840681076,-15.36920261383057,-41.42658996582031,11.94771385192871,2,192.168.1.8,10.83.46.32,1,0
2015-03-04 08:04:15.268,90,1425485054.716673,37.77923235275278,-122.4387713392464,57.16516,-1,-1,10,65,-9999,1425485055.255694,-19.60868835449219,-39.33827209472656,13.13121032714844,167.3551025390625,153.5786590576172,10,236405.33568025,-0.7183837890625,-1.058822631835938,-0.2132568359375,236405.2922218333,-0.3223122667201479,-1.206522228675024,1.087889853704681,236405.2922218333,2.62541789423932,-1.076783317081036,1.050754286840792,-0.3369901478290558,-1.192049145698547,1.122013926506042,0.1256296932697296,-0.04898027330636978,0.07073307782411575,XTrueNorthZVertical,0.5388106879523249,0.3031060320640871,0.6525111561969745,0.4382227058472413,-0.4375040829181671,-0.8677982687950134,-0.2356195449829102,-17.81843376159668,-40.58050918579102,11.43889617919922,2,192.168.1.8,10.83.46.32,1,0
2015-03-04 08:04:15.303,91,1425485054.716673,37.77923235275278,-122.4387713392464,57.16516,-1,-1,10,65,-9999,1425485055.255694,-19.60868835449219,-39.33827209472656,13.13121032714844,167.3551025390625,153.5786590576172,10,236405.3848500834,-0.6471099853515625,-0.7175445556640625,-0.14501953125,236405.3439967083,-0.5452281710235954,-0.2509193094817397,1.634181424951546,236405.3439967083,2.647637963601513,-1.122879735666538,0.9722214843947415,-0.5599058866500854,-0.2364463955163956,1.668305158615112,-0.2105030417442322,-0.2326831519603729,0.03077381663024426,XTrueNorthZVertical,0.5531286337723464,0.2683903650482032,0.6649095842584658,0.424158866721594,-0.5078807473182678,-0.826139509677887,-0.2440306544303894,-19.52654647827148,-39.75603485107422,11.54531764984131,2,192.168.1.8,10.83.46.32,1,0
2015-03-04 08:04:15.367,92,1425485054.716673,37.77923235275278,-122.4387713392464,57.16516,-1,-1,10,65,-9999,1425485055.363916,-25.20168304443359,-36.99319458007812,10.96781158447266,161.1573638916016,147.3809204101562,10,236405.43377075,-0.1275787353515625,-1.115386962890625,-0.284027099609375,236405.3957702084,-1.037066620093827,0.6690744827760953,1.890730923293822,236405.3957702084,2.657024176665259,-1.129446613172697,0.8744855485279808,-1.051744103431702,0.6835472583770752,1.924854278564453,-0.02352352440357208,0.02993946895003319,0.1907098740339279,XTrueNorthZVertical,0.5564919661660592,0.23092888379816,0.6885440630269577,0.4036035040699987,-0.5799310803413391,-0.7672136425971985,-0.2739770710468292,-22.30895042419434,-38.47011184692383,10.83899879455566,2,192.168.1.8,10.83.46.32,1,0
2015-03-04 08:04:15.400,93,1425485054.716673,37.77923235275278,-122.4387713392464,57.16516,-1,-1,10,65,-9999,1425485055.363916,-25.20168304443359,-36.99319458007812,10.96781158447266,161.1573638916016,147.3809204101562,10,236405.4828246667,-0.164947509765625,-0.700775146484375,-0.412689208984375,236405.4475450417,-0.2923471770829033,1.742249039877544,-0.6770810102773095,236405.4475450417,2.615671669327881,-1.014004265561212,0.8326359768091786,-0.3070245683193207,1.756721615791321,-0.6429579257965088,0.5740934014320374,-0.3745347857475281,0.05421260744333267,XTrueNorthZVertical,0.5207139648789579,0.2259363461621031,0.7210077434412497,0.3974389779168544,-0.5712857842445374,-0.7397077679634094,-0.3556194603443146,-26.12312316894531,-36.86296463012695,7.336685180664062,2,192.168.1.8,10.83.46.32,1,0
2015-03-04 08:04:15.466,94,1425485054.716673,37.77923235275278,-122.4387713392464,57.16516,-1,-1,10,65,-9999,1425485055.437563,-25.84966278076172,-37.70689392089844,8.205299377441406,158.2269744873047,144.4505310058594,10,236405.531861,-0.2867584228515625,-0.81884765625,-0.3486785888671875,236405.4993200417,0.1858705345921183,-0.5886430231140671,-1.214799333342991,236405.4993200417,2.58107651191869,-0.9586085126135891,0.8715765309760242,0.1711932420730591,-0.5741705298423767,-1.180676579475403,0.2912000119686127,0.114038422703743,-0.06823232769966125,XTrueNorthZVertical,0.5053538080335898,0.2443074799385695,0.719155704169171,0.4095688344098498,-0.5267347097396851,-0.7653445601463318,-0.3698627650737762,-25.52934837341309,-37.64219284057617,5.14200496673584,2,192.168.1.8,10.83.46.32,1,0
2015-03-04 08:04:15.499,95,1425485054.716673,37.77923235275278,-122.4387713392464,57.16516,-1,-1,10,65,-9999,1425485055.490554,-22.72917938232422,-39.42320251464844,8.288497924804688,163.6067047119141,149.8302612304688,10,236405.5810447083,-0.5774078369140625,-0.895538330078125,-0.1870880126953125,236405.5510934167,0.01907382604325651,-1.902366007780269,-1.972752556442736,236405.5510934167,2.506402617768787,-0.9739560408171705,0.9402564418248345,0.004396690987050533,-1.887893676757812,-1.938630104064941,0.2050131857395172,-0.07701052725315094,0.02005353942513466,XTrueNorthZVertical,0.5213439953698861,0.2500375211812378,0.6822718163766709,0.4474226392107004,-0.4876517355442047,-0.8077093362808228,-0.3313633501529694,-23.34013175964355,-38.93242263793945,5.884500503540039,2,192.168.1.8,10.83.46.32,1,0
2015-03-04 08:04:15.568,96,1425485054.716673,37.77923235275278,-122.4387713392464,57.16516,-1,-1,10,65,-9999,1425485055.540613,-18.10813522338867,-41.61534118652344,9.203788757324219,172.2408294677734,158.4643859863281,10,236405.62997175,-0.50787353515625,-0.7301788330078125,-0.31201171875,236405.6028685417,-0.4845768077259128,-0.4953591480313166,-2.091769758190595,236405.6028685417,2.386238934861708,-0.9378572976930167,1.015677932810086,-0.4992516338825226,-0.4808864593505859,-2.057649374008179,-0.3646295666694641,0.05299356579780579,0.03964560106396675,XTrueNorthZVertical,0.5270329228112475,0.2576014468106618,0.6434967897073478,0.4917213108228168,-0.4249517321586609,-0.8498380184173584,-0.3117555975914001,-18.06575965881348,-41.31804656982422,7.84665584564209,2,192.168.1.8,10.83.46.32,1,0
2015-03-04 08:04:15.597,97,1425485054.716673,37.77923235275278,-122.4387713392464,57.16516,-1,-1,10,65,-9999,1425485055.540613,-18.10813522338867,-41.61534118652344,9.203788757324219,172.2408294677734,158.4643859863281,10,236405.679036625,-0.619354248046875,-0.928466796875,-0.2494964599609375,236405.6546434583,-0.05716608437909589,-0.05907344035181064,-1.706007412183201,236405.6546434583,2.243544849689235,-0.8251490387553527,1.08076863872134,-0.07184078544378281,-0.04460090026259422,-1.671887397766113,-0.01045350544154644,0.1966966539621353,0.1597810536623001,XTrueNorthZVertical,0.5143353310979142,0.2753240285568469,0.6181418623854559,0.5268364617764726,-0.3457629382610321,-0.8823198080062866,-0.3193116784095764,-14.05497932434082,-42.92317581176758,7.428397178649902,2,192.168.1.8,10.83.46.32,1,0
2015-03-04 08:04:15.665,98,1425485054.716673,37.77923235275278,-122.4387713392464,57.16516,-1,-1,10,65,-9999,1425485055.646254,-9.957366943359375,-44.67413330078125,9.536613464355469,183.8648071289062,170.0883636474609,10,236405.7280653334,-0.45037841796875,-0.7102813720703125,-0.011993408203125,236405.706417,0.613139577768943,0.009922405589417226,-1.447184905850542,236405.706417,2.158425455545046,-0.7446350483688766,1.143351908788115,0.5984650254249573,0.02439481765031815,-1.413065314292908,-0.3687183856964111,0.036859180778265,0.0907348170876503,XTrueNorthZVertical,0.5075935386955797,0.2998889073906347,0.5977115006737386,0.5432831468652259,-0.2809398174285889,-0.9100281000137329,-0.3048308789730072,-10.80962944030762,-43.86144256591797,7.378913879394531,2,192.168.1.8,10.83.46.32,1,0
2015-03-04 08:04:15.695,99,1425485054.716673,37.77923235275278,-122.4387713392464,57.16516,-1,-1,10,65,-9999,1425485055.646254,-9.957366943359375,-44.67413330078125,9.536613464355469,183.8648071289062,170.0883636474609,10,236405.777133625,-0.482574462890625,-0.7805938720703125,-0.3605194091796875,236405.758191875,1.07003868491788,0.6833932346930153,-0.6662507330722842,236405.758191875,2.130165858822386,-0.7039337879927243,1.203588341211007,1.05536425113678,0.6978654861450195,-0.6321314573287964,-0.3559885919094086,-0.01095681544393301,0.01096448581665754,XTrueNorthZVertical,0.5060445442552532,0.3272329303417382,0.5823864683611516,0.545585651393218,-0.2323598116636276,-0.9333333373069763,-0.2736750543117523,-7.545268535614014,-44.27560424804688,8.823954582214355,2,192.168.1.8,10.83.46.32,1,0
2015-03-04 08:04:15.768,100,1425485054.716673,37.77923235275278,-122.4387713392464,57.16516,-1,-1,10,65,-9999,1425485055.748416,-6.700469970703125,-44.55519104003906,12.04950714111328,185.6361846923828,171.8597412109375,10,236405.8261545,-0.1661834716796875,-0.9987945556640625,-0.1990814208984375,236405.8099670417,1.02302909798802,1.737220991739474,-0.6903235787977285,236405.8099670417,2.173308507674524,-0.6756402180094303,1.274358544055567,1.008354783058167,1.75169312953949,-0.6562047004699707,-0.1338705718517303,0.01342048589140177,0.2812082469463348,XTrueNorthZVertical,0.4970398617124528,0.3728021750390411,0.5794173595880475,0.5274899151357545,-0.1826882660388947,-0.9563831090927124,-0.2279398292303085,-6.601132392883301,-43.9709358215332,10.86758422851562,2,192.168.1.8,10.83.46.32,1,0
2015-03-04 08:04:15.792,101,1425485054.716673,37.77923235275278,-122.4387713392464,57.16516,-1,-1,10,65,-9999,1425485055.748416,-6.700469970703125,-44.55519104003906,12.04950714111328,185.6361846923828,171.8597412109375,10,236405.8752211667,-0.352935791015625,-1.093231201171875,-0.3150787353515625,236405.8617404167,0.6974632473641219,0.4374100942917374,0.163847523957708,236405.8617404167,2.279838994204783,-0.7275532662326408,1.315907086954911,0.682884156703949,0.4518180787563324,0.1980921775102615,-0.20832359790802,-0.09190960228443146,-0.002696053823456168,XTrueNorthZVertical,0.4944877649923055,0.4016624775157012,0.5810048640937622,0.5065398556235595,-0.167683482170105,-0.9676912426948547,-0.1882982105016708,-6.286823749542236,-43.51937103271484,12.71467113494873,2,192.168.1.8,10.83.46.32,1,0
2015-03-04 08:04:15.867,102,1425485054.716673,37.77923235275278,-122.4387713392464,57.16516,-1,-1,10,65,-9999,1425485055.852798,-7.740631103515625,-43.04278564453125,15.49432754516602,181.4607238769531,167.6842803955078,10,236405.9242512083,-0.23492431640625,-1.2615966796875,-0.2152557373046875,236405.9135154583,0.2335307317762853,0.8014769984788017,0.3083905921217587,236405.8617404167,2.279838994204783,-0.7275532662326408,1.315907086954911,0.682884156703949,0.4518180787563324,0.1980921775102615,-0.20832359790802,-0.09190960228443146,-0.002696053823456168,XTrueNorthZVertical,0.4944877649923055,0.4016624775157012,0.5810048640937622,0.5065398556235595,-0.167683482170105,-0.9676912426948547,-0.1882982105016708,-6.286823749542236,-43.51937103271484,12.71467113494873,2,192.168.1.8,10.83.46.32,1,0
2015-03-04 08:04:15.892,103,1425485054.716673,37.77923235275278,-122.4387713392464,57.16516,-1,-1,10,65,-9999,1425485055.852798,-7.740631103515625,-43.04278564453125,15.49432754516602,181.4607238769531,167.6842803955078,10,236405.97336225,-0.111419677734375,-1.046768188476562,-0.0192718505859375,236405.9652903333,0.2145772806143004,-0.3215628531893996,0.2217941808523061,236405.9652903333,2.437178092106173,-0.8317273016881367,1.31318230280242,0.1999985128641129,-0.3071551918983459,0.256038099527359,0.1328066736459732,-0.07996594160795212,0.05442870408296585,XTrueNorthZVertical,0.4929699675466088,0.4137299959214834,0.5950198800095521,0.4814141844318757,-0.1883028894662857,-0.9670006036758423,-0.1716161966323853,-8.390000343322754,-42.61807632446289,14.43710422515869,2,192.168.1.8,10.83.46.32,1,0
2015-03-04 08:04:15.936,104,1425485054.716673,37.77923235275278,-122.4387713392464,57.16516,-1,-1,10,65,-9999,1425485055.904038,-8.76373291015625,-42.46499633789062,15.72731018066406,178.9838104248047,165.2073669433594,10,236406.022337625,-0.452789306640625,-0.913665771484375,0.022674560546875,236405.9652903333,0.2145772806143004,-0.3215628531893996,0.2217941808523061,236405.9652903333,2.437178092106173,-0.8317273016881367,1.31318230280242,0.1999985128641129,-0.3071551918983459,0.256038099527359,0.1328066736459732,-0.07996594160795212,0.05442870408296585,XTrueNorthZVertical,0.4929699675466088,0.4137299959214834,0.5950198800095521,0.4814141844318757,-0.1883028894662857,-0.9670006036758423,-0.1716161966323853,-8.390000343322754,-42.61807632446289,14.43710422515869,2,192.168.1.8,10.83.46.32,1,0
2015-03-04 08:04:15.989,105,1425485054.716673,37.77923235275278,-122.4387713392464,57.16516,-1,-1,10,65,-9999,1425485055.956888,-8.985404968261719,-42.31204223632812,16.2764892578125,179.2254638671875,165.4490203857422,10,236406.0715144167,-0.1413421630859375,-1.062973022460938,-0.1217041015625,236406.0688387917,0.4942480772245356,1.104866706705609,-0.09850233923876078,236406.0170636667,2.49879802476811,-0.9323039466375501,1.319900253462173,0.5343138575553894,-0.3760563433170319,-0.01804517582058907,-0.2104740589857101,0.07611221820116043,0.1817040890455246,XTrueNorthZVertical,0.5098989488251197,0.4074550347163695,0.5825502740862486,0.4843746564801276,-0.1993617564439774,-0.9686903357505798,-0.1479669064283371,-8.602337837219238,-42.42245483398438,14.88145637512207,2,192.168.1.8,10.83.46.32,1,0
2015-03-04 08:04:16.064,106,1425485054.716673,37.77923235275278,-122.4387713392464,57.16516,-1,-1,10,65,-9999,1425485056.009109,-9.002464294433594,-42.09112548828125,17.15849304199219,178.7422790527344,164.9658355712891,10,236406.1204145834,-0.1223907470703125,-0.998199462890625,-0.0257415771484375,236406.1206137917,0.4290341863473293,-0.2719047525554551,-0.05139687850965723,236406.0688387917,2.586143458591629,-0.9841173207151972,1.338806801673496,0.4796695709228516,1.119274139404297,-0.06425905227661133,-0.04578954726457596,-0.0665535032749176,0.03638389706611633,XTrueNorthZVertical,0.5062312743615491,0.4243697042159106,0.5842988539268165,0.4714183633553919,-0.1914693713188171,-0.9732109308242798,-0.1272805035114288,-8.366969108581543,-41.97052383422852,16.23549652099609,2,192.168.1.8,10.83.46.32,1,0
2015-03-04 08:04:16.087,107,1425485054.716673,37.77923235275278,-122.4387713392464,57.16516,-1,-1,10,65,-9999,1425485056.009109,-9.002464294433594,-42.09112548828125,17.15849304199219,178.7422790527344,164.9658355712891,10,236406.16947575,-0.3332977294921875,-0.9366455078125,0.01824951171875,236406.1723871667,0.2984117275172318,-0.01203828707548518,-0.1702582853337468,236406.1206137917,2.652330953987474,-1.032751300537254,1.349921769331863,0.4144558608531952,-0.2574974894523621,-0.01715396717190742,0.06573911011219025,-0.02249324135482311,0.08652967214584351,XTrueNorthZVertical,0.5056038348765993,0.4338538194885313,0.5839993887970707,0.4637677353641826,-0.1881298571825027,-0.9757062196731567,-0.112271249294281,-8.916105270385742,-41.67830657958984,16.68964767456055,2,192.168.1.8,10.83.46.32,1,0
2015-03-04 08:04:16.136,108,1425485054.716673,37.77923235275278,-122.4387713392464,57.16516,-1,-1,10,65,-9999,1425485056.08658,-9.019519805908203,-40.98658752441406,18.20691299438477,177.5296478271484,163.7532043457031,10,236406.2185153333,-0.1511383056640625,-0.9215240478515625,0.0297698974609375,236406.1723871667,0.2984117275172318,-0.01203828707548518,-0.1702582853337468,236406.1723871667,2.712954132417212,-1.102923396978283,1.362872234084384,0.2838335633277893,0.002368812914937735,-0.1360157132148743,-0.1490529328584671,0.04181604087352753,0.1113470941781998,XTrueNorthZVertical,0.5117231532364827,0.4377106602325576,0.5762090545457145,0.4631760905173201,-0.1842447966337204,-0.9784615635871887,-0.09309758245944977,-8.710353851318359,-41.39626312255859,17.48146820068359,2,192.168.1.8,10.83.46.32,1,0
2015-03-04 08:04:16.187,109,1425485054.716673,37.77923235275278,-122.4387713392464,57.16516,-1,-1,10,65,-9999,1425485056.137397,-8.576171875,-40.68072509765625,18.97242736816406,178.3650360107422,164.5885925292969,10,236406.26768125,-0.34503173828125,-0.975860595703125,0.125152587890625,236406.2759375,0.1834917991064595,-0.3065985510242444,-0.2568030312780518,236406.22416225,2.760324159110654,-1.137022263817283,1.376711517569512,0.2944484949111938,0.2674834430217743,-0.2026645690202713,0.02386871352791786,0.05970054492354393,0.1108325943350792,XTrueNorthZVertical,0.5096901539589839,0.446860825975273,0.5742178334451145,0.4591354940825722,-0.1750070154666901,-0.9812245965003967,-0.08106269687414169,-8.387439727783203,-41.14496231079102,18.21717643737793,2,192.168.1.8,10.83.46.32,1,0
2015-03-04 08:04:16.236,110,1425485054.716673,37.77923235275278,-122.4387713392464,57.16516,-1,-1,10,65,-9999,1425485056.188842,-8.661426544189453,-40.96958923339844,19.55489349365234,178.1245880126953,164.34814453125,10,236406.31658925,0.047637939453125,-1.109695434570312,-0.086181640625,236406.2759375,0.1834917991064595,-0.3065985510242444,-0.2568030312780518,236406.2759375,2.786689054869929,-1.167877400338233,1.388329179548283,0.1689139008522034,-0.2921917140483856,-0.2225611209869385,-0.1781055629253387,0.00753841083496809,0.1963028907775879,XTrueNorthZVertical,0.5112959389723826,0.4505566647579637,0.5689032985861396,0.4603524350942708,-0.1669261753559113,-0.9833990335464478,-0.07115031033754349,-8.217844009399414,-41.00531768798828,18.60520172119141,2,192.168.1.8,10.83.46.32,1,0
2015-03-04 08:04:16.283,111,1425485054.716673,37.77923235275278,-122.4387713392464,57.16516,-1,-1,10,65,-9999,1425485056.240355,-8.269237518310547,-40.81666564941406,19.90436935424805,179.0384826660156,165.2620391845703,10,236406.3656348333,-0.1608123779296875,-0.9573211669921875,0.040771484375,236406.32771075,0.2727247398550905,0.1638307460428405,-0.24437459110287,236406.32771075,2.845388831357199,-1.213522564460717,1.39244910185989,0.2581470012664795,0.1782374083995819,-0.2101330459117889,0.1533080786466599,-0.1241076067090034,-0.06938190758228302,XTrueNorthZVertical,0.5104572097853272,0.4565220858029854,0.569449544590787,0.4546959548143141,-0.1662017554044724,-0.9841382503509521,-0.06204204261302948,-7.855978488922119,-40.89984893798828,18.98969841003418,2,192.168.1.8,10.83.46.32,1,0
2015-03-04 08:04:16.332,112,1425485054.716673,37.77923235275278,-122.4387713392464,57.16516,-1,-1,10,65,-9999,1425485056.292383,-7.7576904296875,-40.64674377441406,19.97092819213867,181.6264495849609,167.8500061035156,10,236406.4146658333,-0.197113037109375,-0.95623779296875,0.1051177978515625,236406.3794857917,0.008361526874521784,-0.567563304137763,-0.05418707238373325,236406.3794857917,2.845357130573182,-1.233830334880902,1.406198130787495,-0.006216062232851982,-0.5531567931175232,-0.01994587294757366,-0.06055270135402679,0.02437184564769268,0.1705082505941391,XTrueNorthZVertical,0.514320160759019,0.4564944113507608,0.5602095488705727,0.4617933076642125,-0.1546420007944107,-0.9864842891693115,-0.0541752502322197,-7.46947193145752,-40.76005554199219,19.44087028503418,2,192.168.1.8,10.83.46.32,1,0
2015-03-04 08:04:16.381,113,1425485054.716673,37.77923235275278,-122.4387713392464,57.16516,-1,-1,10,65,-9999,1425485056.343829,-7.229087829589844,-40.18795776367188,20.71979904174805,182.5438079833984,168.7673645019531,10,236406.463731,-0.018463134765625,-1.015213012695312,0.011688232421875,236406.4312608333,0.2852498527778421,0.1248364750457913,-0.2372967078737664,236406.4312608333,2.8968457833406,-1.295053748962051,1.415176516026866,0.2706724107265472,0.139242872595787,-0.203055813908577,-0.05719097331166267,-0.06278929859399796,0.201851487159729,XTrueNorthZVertical,0.5182582910647779,0.4585945451616866,0.5537108475372617,0.4631456112466297,-0.1491383761167526,-0.9879156351089478,-0.04219877347350121,-6.907403945922852,-40.72169876098633,19.72697257995605,2,192.168.1.8,10.83.46.32,1,0
2015-03-04 08:04:16.421,114,1425485054.716673,37.77923235275278,-122.4387713392464,57.16516,-1,-1,10,65,-9999,1425485056.397082,-6.973316192626953,-40.17095947265625,21.16912078857422,182.96044921875,169.1840057373047,10,236406.5128731667,-0.098236083984375,-1.003005981445312,0.01727294921875,236406.4830344167,0.2628563964358019,-0.03930612716069749,-0.3456482157719672,236406.4830344167,2.973569370831635,-1.361314718007396,1.432426818136379,0.2482790797948837,-0.02489987760782242,-0.3114076554775238,0.1260184347629547,-0.03618438169360161,0.06687560677528381,XTrueNorthZVertical,0.5158229852285307,0.4685992092135467,0.5494727851193166,0.4608918099234057,-0.1349143087863922,-0.9904422163963318,-0.02868285775184631,-6.644046783447266,-40.50913619995117,20.24818420410156,2,192.168.1.8,10.83.46.32,1,0
2015-03-04 08:04:16.479,115,1425485054.716673,37.77923235275278,-122.4387713392464,57.16516,-1,-1,10,65,-9999,1425485056.447867,-6.205982208251953,-40.11997985839844,21.91799926757812,183.6278381347656,169.8513946533203,10,236406.5618324167,-0.1613006591796875,-0.9578857421875,0.09954833984375,236406.534809375,0.07808787790275838,-0.3462298501540405,-0.2996490321596826,236406.534809375,3.01964675282012,-1.419565958629947,1.446284197133151,0.0635107234120369,-0.3318237662315369,-0.2654088735580444,-0.1318488568067551,-0.04103630408644676,0.1231565102934837,XTrueNorthZVertical,0.518253602571774,0.4712304696321053,0.5413392425986507,0.4650882124299522,-0.1227745488286018,-0.9922583699226379,-0.01871009543538094,-5.922291278839111,-40.29801940917969,20.88345527648926,2,192.168.1.8,10.83.46.32,1,0
2015-03-04 08:04:16.519,116,1425485054.716673,37.77923235275278,-122.4387713392464,57.16516,-1,-1,10,65,-9999,1425485056.500297,-5.592113494873047,-39.91607666015625,22.28411865234375,184.7807464599609,171.0043029785156,10,236406.6109774584,-0.11676025390625,-1.003021240234375,0.11431884765625,236406.5865845417,0.1435371922203277,0.2107532476050556,-0.151140250816395,236406.5865845417,3.053336283395757,-1.450313268159079,1.459437850398249,0.1289601922035217,0.2251591980457306,-0.1169004142284393,-0.005016800947487354,-0.007170512806624174,0.008519876748323441,XTrueNorthZVertical,0.5158914747052072,0.4766314405435232,0.5377776681657473,0.4663408719391743,-0.1103243827819824,-0.9938060641288757,-0.01335691288113594,-5.217498779296875,-40.27936935424805,21.10622596740723,2,192.168.1.8,10.83.46.32,1,0
2015-03-04 08:04:16.578,117,1425485054.716673,37.77923235275278,-122.4387713392464,57.16516,-1,-1,10,65,-9999,1425485056.552142,-5.063507080078125,-39.76312255859375,22.16762542724609,185.6475677490234,171.8711242675781,10,236406.660045125,-0.176666259765625,-0.96746826171875,0.014801025390625,236406.638358375,-0.1689445479680107,-0.0997361817717945,-0.1170539193922528,236406.638358375,3.008161695308407,-1.408893270354254,1.468647397054903,-0.1835214346647263,-0.08533036708831787,-0.08281439542770386,-0.007514822296798229,-0.007760884705930948,0.1731149554252625,XTrueNorthZVertical,0.5136815208185774,0.4774017569495606,0.5354107891373182,0.4706955677645862,-0.1006394773721695,-0.994787335395813,-0.0164377149194479,-5.042785167694092,-40.22684860229492,21.24837875366211,2,192.168.1.8,10.83.46.32,1,0
2015-03-04 08:04:16.617,118,1425485054.716673,37.77923235275278,-122.4387713392464,57.16516,-1,-1,10,65,-9999,1425485056.603688,-4.722469329833984,-39.86508178710938,22.16762542724609,186.1593780517578,172.3829345703125,10,236406.708978375,-0.044189453125,-1.073822021484375,0.032135009765625,236406.6901330417,-0.04680265931316154,0.00957299885439883,-0.1224790448488532,236406.6901330417,2.966653703230636,-1.367099069723612,1.46506559404034,-0.06137937307357788,0.02397865802049637,-0.08823990076780319,0.05025295913219452,-0.04022173956036568,0.08127019554376602,XTrueNorthZVertical,0.5130468416486719,0.4755086481726447,0.537350333635214,0.4710936804249842,-0.1033535450696945,-0.9944157004356384,-0.02134892717003822,-4.822526931762695,-40.41423034667969,20.94172477722168,2,192.168.1.8,10.83.46.32,1,0
2015-03-04 08:04:16.677,119,1425485054.716673,37.77923235275278,-122.4387713392464,57.16516,-1,-1,10,65,-9999,1425485056.655987,-4.807731628417969,-39.78009033203125,21.8514404296875,186.2459411621094,172.4694976806641,10,236406.7581635417,0.1210479736328125,-1.006698608398438,0.0308074951171875,236406.741908,-0.2194988023087668,-0.05305336470768652,0.02619698301089145,236406.741908,2.899867455992077,-1.296567732427202,1.46304100774397,-0.2340753674507141,-0.0386478491127491,0.06043578311800957,0.2384480684995651,-0.08470318466424942,0.06882797181606293,XTrueNorthZVertical,0.5102601526256395,0.47441782720445,0.5402272758268462,0.4719289833573042,-0.1035298556089401,-0.9941999912261963,-0.02912460453808308,-4.82634449005127,-40.48598480224609,20.80178070068359,2,192.168.1.8,10.83.46.32,1,0
2015-03-04 08:04:16.715,120,1425485054.716673,37.77923235275278,-122.4387713392464,57.16516,-1,-1,10,65,-9999,1425485056.7077,-4.483745574951172,-40.06895446777344,21.801513671875,186.5118255615234,172.7353820800781,10,236406.807203,-0.0216827392578125,-1.069564819335938,0.082977294921875,236406.7936815417,-0.04400367700748826,-0.2304867386503248,0.04014688711683551,236406.741908,2.899867455992077,-1.296567732427202,1.46304100774397,-0.2340753674507141,-0.0386478491127491,0.06043578311800957,0.2384480684995651,-0.08470318466424942,0.06882797181606293,XTrueNorthZVertical,0.5102601526256395,0.47441782720445,0.5402272758268462,0.4719289833573042,-0.1035298556089401,-0.9941999912261963,-0.02912460453808308,-4.82634449005127,-40.48598480224609,20.80178070068359,2,192.168.1.8,10.83.46.32,1,0
2015-03-04 08:04:16.774,121,1425485054.716673,37.77923235275278,-122.4387713392464,57.16516,-1,-1,10,65,-9999,1425485056.75902,-4.85888671875,-40.06895446777344,21.10256195068359,185.7457733154297,171.9693298339844,10,236406.85615775,-0.0051727294921875,-1.022537231445312,-0.0428619384765625,236406.8454565417,-0.2333533652476861,-0.1698913017355339,0.3007238839756386,236406.8454565417,2.822612386646219,-1.231099729510848,1.443774087505121,-0.2477110773324966,-0.1556115448474884,0.3351129591464996,0.1910831034183502,-0.06430038064718246,-0.0945538729429245,XTrueNorthZVertical,0.5135619095535313,0.4638413918591569,0.5444264824759272,0.4740309129578631,-0.1194430887699127,-0.9919435381889343,-0.0422106571495533,-5.0279541015625,-40.75339126586914,20.22383689880371,2,192.168.1.8,10.83.46.32,1,0
2015-03-04 08:04:16.813,122,1425485054.716673,37.77923235275278,-122.4387713392464,57.16516,-1,-1,10,65,-9999,1425485056.75902,-4.85888671875,-40.06895446777344,21.10256195068359,185.7457733154297,171.9693298339844,10,236406.9051944167,-0.1080169677734375,-1.0445556640625,0.0500946044921875,236406.89723175,-0.1990137672038773,0.04976116496813057,0.4174379840127972,236406.8454565417,2.822612386646219,-1.231099729510848,1.443774087505121,-0.2477110773324966,-0.1556115448474884,0.3351129591464996,0.1910831034183502,-0.06430038064718246,-0.0945538729429245,XTrueNorthZVertical,0.5135619095535313,0.4638413918591569,0.5444264824759272,0.4740309129578631,-0.1194430887699127,-0.9919435381889343,-0.0422106571495533,-5.0279541015625,-40.75339126586914,20.22383689880371,2,192.168.1.8,10.83.46.32,1,0
2015-03-04 08:04:16.872,123,1425485054.716673,37.77923235275278,-122.4387713392464,57.16516,-1,-1,10,65,-9999,1425485056.863096,-6.240089416503906,-40.52774047851562,20.55338668823242,183.8861389160156,170.1096954345703,10,236406.9543684583,-0.0602264404296875,-1.018463134765625,6.103515625e-05,236406.9490050417,-0.003740942383234306,0.4441633381839604,0.3508634841346694,236406.89723175,2.793426107924817,-1.21438623849599,1.42385851689892,-0.2133713215589523,0.06404075771570206,0.4518266618251801,0.02821610122919083,-0.06390705704689026,0.1201457753777504,XTrueNorthZVertical,0.5183753400783746,0.4535909600740919,0.5478139760413332,0.4748076119844369,-0.1372096240520477,-0.9892240762710571,-0.0510844960808754,-5.461170196533203,-40.87474060058594,19.86337852478027,2,192.168.1.8,10.83.46.32,1,0
2015-03-04 08:04:16.911,124,1425485054.716673,37.77923235275278,-122.4387713392464,57.16516,-1,-1,10,65,-9999,1425485056.863096,-6.240089416503906,-40.52774047851562,20.55338668823242,183.8861389160156,170.1096954345703,10,236407.003299625,-0.035430908203125,-0.9908447265625,0.02264404296875,236407.0007802917,-0.375553650600794,0.2189552511302817,0.6226526554988151,236406.9490050417,2.809466869009959,-1.211582185725045,1.402393906740242,-0.01809835061430931,0.4584427773952484,0.3852518498897552,0.1173141077160835,-0.006333708763122559,0.06320860236883163,XTrueNorthZVertical,0.5167505136290267,0.4511191248700129,0.5587427855351301,0.466119206276656,-0.1569106727838516,-0.9858537912368774,-0.05892088264226913,-6.627853393554688,-40.91524124145508,19.42001724243164,2,192.168.1.8,10.83.46.32,1,0
2015-03-04 08:04:16.971,125,1425485054.716673,37.77923235275278,-122.4387713392464,57.16516,-1,-1,10,65,-9999,1425485056.913937,-7.212043762207031,-40.64669799804688,20.6365966796875,181.9272613525391,168.1508178710938,10,236407.0523732083,-0.0770721435546875,-1.0284423828125,0.0277099609375,236407.05255525,-0.05198570342667375,0.5192186745534455,0.5386528262921898,236407.0007802917,2.806664630236876,-1.192466599007461,1.375130951960527,-0.3899109065532684,0.2332345694303513,0.6570407152175903,0.1654735058546066,-0.0455859899520874,0.1106921136379242,XTrueNorthZVertical,0.5154093078070159,0.4454737772769369,0.5711057852848482,0.4579789451553124,-0.1806712597608566,-0.9809185266494751,-0.07181271910667419,-7.759490966796875,-40.84981918334961,19.1364917755127,2,192.168.1.8,10.83.46.32,1,0
2015-03-04 08:04:17.010,126,1425485054.716673,37.77923235275278,-122.4387713392464,57.16516,-1,-1,10,65,-9999,1425485056.966734,-9.121849060058594,-40.54473876953125,20.13735198974609,178.6062316894531,164.8297882080078,10,236407.1015210417,-0.2091217041015625,-0.9229278564453125,0.1109771728515625,236407.05255525,-0.05198570342667375,0.5192186745534455,0.5386528262921898,236407.05255525,2.827001136519595,-1.191166977388741,1.339267049776776,-0.06634282320737839,0.5334978699684143,0.5730404853820801,0.1360572278499603,-0.05512576550245285,0.1127449572086334,XTrueNorthZVertical,0.5149051264880237,0.4385831863078679,0.5864942487651966,0.4455807093856551,-0.2131293714046478,-0.9733166098594666,-0.08503499627113342,-9.256069183349609,-40.86433792114258,18.42698669433594,2,192.168.1.8,10.83.46.32,1,0
2015-03-04 08:04:17.068,127,1425485054.716673,37.77923235275278,-122.4387713392464,57.16516,-1,-1,10,65,-9999,1425485057.017945,-10.41778564453125,-40.57872009277344,19.17213439941406,176.5942077636719,162.8177642822266,10,236407.1504817083,-0.2695465087890625,-1.052200317382812,0.026214599609375,236407.1561037917,-0.07730677275503814,0.6283363738972622,0.392827978695484,236407.1043286667,2.827489729538198,-1.178290009165605,1.308646282132363,-0.2704369425773621,-0.02967352606356144,0.5876233577728271,0.03032849356532097,0.04290715232491493,0.2101066261529922,XTrueNorthZVertical,0.514604888810373,0.4308330126884918,0.5986829607871835,0.4371997358876125,-0.2394502013921738,-0.9658350348472595,-0.09912944585084915,-11.19960975646973,-40.64781188964844,17.81703567504883,2,192.168.1.8,10.83.46.32,1,0
2015-03-04 08:04:17.108,128,1425485054.716673,37.77923235275278,-122.4387713392464,57.16516,-1,-1,10,65,-9999,1425485057.070234,-12.02065277099609,-40.30685424804688,18.37333679199219,173.9850616455078,160.2086181640625,10,236407.1996331667,-0.30499267578125,-0.8763580322265625,-0.0472869873046875,236407.1561037917,-0.07730677275503814,0.6283363738972622,0.392827978695484,236407.1561037917,2.855664913399355,-1.191671868926527,1.280815251898075,-0.09166362136602402,0.6426152586936951,0.4272150099277496,-0.003916371148079634,-0.0939510315656662,0.1320410817861557,XTrueNorthZVertical,0.5158724557596966,0.425396721267263,0.6091293945563846,0.4264678095915091,-0.2656301259994507,-0.9582492709159851,-0.1058264747262001,-12.35440444946289,-40.44522094726562,17.51214981079102,2,192.168.1.8,10.83.46.32,1,0
2015-03-04 08:04:17.167,129,1425485054.716673,37.77923235275278,-122.4387713392464,57.16516,-1,-1,10,65,-9999,1425485057.122385,-13.14607620239258,-39.86505126953125,18.63959884643555,171.7725067138672,157.9960632324219,10,236407.248720125,-0.5119171142578125,-0.9397735595703125,-0.0946807861328125,236407.2078790833,-0.1412577926433289,-0.1639380714347707,0.3346581489015372,236407.2078790833,2.85249761376633,-1.171734670706519,1.265853583730271,-0.1556144952774048,-0.1496593356132507,0.3690448105335236,-0.02834459207952023,0.07750611007213593,0.06937207281589508,XTrueNorthZVertical,0.5121660086816557,0.4235049575031465,0.6177183858996038,0.4204208596749613,-0.276648074388504,-0.9538641571998596,-0.1166590601205826,-13.46267700195312,-40.29999542236328,17.02320289611816,2,192.168.1.8,10.83.46.32,1,0
2015-03-04 08:04:17.205,130,1425485054.716673,37.77923235275278,-122.4387713392464,57.16516,-1,-1,10,65,-9999,1425485057.174234,-14.10098266601562,-39.72911071777344,18.24020385742188,170.5804138183594,156.8039703369141,10,236407.2976223333,-0.359222412109375,-1.10736083984375,-0.1774444580078125,236407.2596525417,-0.4215733405534722,-0.09246655094420519,0.5694365716485247,236407.2596525417,2.843486612884419,-1.181403751794825,1.236436992315538,-0.4359298944473267,-0.07818795740604401,0.6038228273391724,-0.2060149759054184,-0.04231772944331169,0.01615100167691708,XTrueNorthZVertical,0.5203130582981259,0.408637178160901,0.6213853512462176,0.4197265732028971,-0.3035980463027954,-0.9446207284927368,-0.1245799586176872,-14.23705005645752,-40.15906143188477,16.72360229492188,2,192.168.1.8,10.83.46.32,1,0
2015-03-04 08:04:17.264,131,1425485054.716673,37.77923235275278,-122.4387713392464,57.16516,-1,-1,10,65,-9999,1425485057.225476,-15.29460525512695,-39.69512939453125,17.44140625,169.0982971191406,155.3218536376953,10,236407.3466979167,-0.5095672607421875,-1.147369384765625,-0.349639892578125,236407.311427625,-0.4523541564326081,0.7156624913053964,0.5172873501309201,236407.311427625,2.817551072772109,-1.130361713747718,1.199364448525313,-0.4667105674743652,0.7299409508705139,0.5516732931137085,0.01492778677493334,-0.1458586305379868,-0.06566032767295837,XTrueNorthZVertical,0.5132135860002902,0.3990526338258177,0.6392515244251396,0.4107632798929592,-0.3283127844333649,-0.9318085908889771,-0.1547376215457916,-15.47691345214844,-40.07407760620117,15.80051422119141,2,192.168.1.8,10.83.46.32,1,0
2015-03-04 08:04:17.304,132,1425485054.716673,37.77923235275278,-122.4387713392464,57.16516,-1,-1,10,65,-9999,1425485057.278335,-17.0679931640625,-39.38925170898438,16.01022720336914,165.7539367675781,151.9774932861328,10,236407.395837375,0.01739501953125,-0.953857421875,-0.23907470703125,236407.363202625,-1.078329904339624,0.8678139443876944,0.6638011575016294,236407.363202625,2.777118065758164,-1.066254666173208,1.15159188668424,-1.092686176300049,0.8820922374725342,0.6981867551803589,-0.227317214012146,-0.2947473526000977,-0.1370078474283218,XTrueNorthZVertical,0.5042085807959521,0.3839169892394366,0.6602440046764637,0.4030626250605851,-0.3563162088394165,-0.9134130477905273,-0.1967629045248032,-16.98791885375977,-39.9723014831543,14.44812965393066,2,192.168.1.8,10.83.46.32,1,0
2015-03-04 08:04:17.368,133,1425485054.716673,37.77923235275278,-122.4387713392464,57.16516,-1,-1,10,65,-9999,1425485057.329446,-18.56855392456055,-39.83106994628906,14.01322937011719,164.2476348876953,150.47119140625,10,236407.4448013334,0.235870361328125,-0.8408203125,-0.3781890869140625,236407.4149760834,-1.234658259275602,1.590827825566146,-0.7058170510714825,236407.4149760834,2.659574796258642,-0.8844203447516504,1.120531785430174,-1.249014377593994,1.605105996131897,-0.6714317202568054,0.498821496963501,0.0384698212146759,0.08420070260763168,XTrueNorthZVertical,0.4666725630540417,0.3798869028431914,0.6892209766670933,0.4035805722154163,-0.336651086807251,-0.9003320336341858,-0.2758053243160248,-18.81344985961914,-40.31254196166992,10.77383518218994,2,192.168.1.8,10.83.46.32,1,0
2015-03-04 08:04:17.402,134,1425485054.716673,37.77923235275278,-122.4387713392464,57.16516,-1,-1,10,65,-9999,1425485057.382348,-18.77317428588867,-41.29246520996094,11.15086364746094,163.0283508300781,149.2519073486328,10,236407.4939485417,0.029296875,-0.6619415283203125,-0.17156982421875,236407.4667514167,-1.40923006662695,-1.793164685178224,-0.8011105475128067,236407.4667514167,2.478904902592991,-0.7183277040622865,1.111653007872174,-1.423586130142212,-1.778886675834656,-0.7667256593704224,0.2207918018102646,0.05013427138328552,0.002130948239937425,XTrueNorthZVertical,0.4430363928893104,0.3699753993541784,0.6916702053118835,0.434084621403531,-0.2916688919067383,-0.8964325189590454,-0.3336739242076874,-17.67411994934082,-41.53167724609375,7.607094764709473,2,192.168.1.8,10.83.46.32,1,0
2015-03-04 08:04:17.464,135,1425485054.716673,37.77923235275278,-122.4387713392464,57.16516,-1,-1,10,65,-9999,1425485057.433668,-17.03388595581055,-42.82183837890625,9.453414916992188,167.4184722900391,153.6420288085938,10,236407.5429055833,-0.606536865234375,-0.7834014892578125,-0.098876953125,236407.5185265,-0.7273907864299963,-2.236419619114358,-0.8828855719447799,236407.5185265,2.331439762841731,-0.7185261354316926,1.092848322111307,-0.7417466044425964,-2.222141742706299,-0.8485010266304016,0.24653559923172,0.1415569633245468,0.394631564617157,XTrueNorthZVertical,0.4677882056169524,0.3287114551576823,0.6631131799156536,0.4831190925256691,-0.302779495716095,-0.8879406452178955,-0.3462459444999695,-15.54602432250977,-42.56327056884766,6.466180801391602,2,192.168.1.8,10.83.46.32,1,0
2015-03-04 08:04:17.500,136,1425485054.716673,37.77923235275278,-122.4387713392464,57.16516,-1,-1,10,65,-9999,1425485057.485171,-13.81109619140625,-44.40220642089844,8.305137634277344,175.5999450683594,161.8235015869141,10,236407.5919507917,-0.2465972900390625,-0.8089447021484375,-0.30670166015625,236407.57029975,-0.1515391923476888,0.1676667632769906,-1.115858637788803,236407.5185265,2.331439762841731,-0.7185261354316926,1.092848322111307,-0.7417466044425964,-2.222141742706299,-0.8485010266304016,0.24653559923172,0.1415569633245468,0.394631564617157,XTrueNorthZVertical,0.4677882056169524,0.3287114551576823,0.6631131799156536,0.4831190925256691,-0.302779495716095,-0.8879406452178955,-0.3462459444999695,-15.54602432250977,-42.56327056884766,6.466180801391602,2,192.168.1.8,10.83.46.32,1,0
2015-03-04 08:04:17.564,137,1425485054.716673,37.77923235275278,-122.4387713392464,57.16516,-1,-1,10,65,-9999,1425485057.536705,-11.06574630737305,-45.23487854003906,8.32177734375,180.1170196533203,166.340576171875,10,236407.6410134167,-0.055389404296875,-0.71258544921875,-0.2734222412109375,236407.6220749167,0.5787709512692524,0.05058275016442001,-1.002901725417528,236407.6220749167,2.128692483857833,-0.550628471518964,1.153558259780212,0.5644153952598572,0.06486034393310547,-0.9685177803039551,0.1009759679436684,0.1310543119907379,0.1815689504146576,XTrueNorthZVertical,0.453829311282093,0.3483793705723117,0.6334870505352735,0.5209271544005609,-0.212029442191124,-0.9142116904258728,-0.3453415334224701,-10.40022563934326,-44.16485595703125,6.035171508789062,2,192.168.1.8,10.83.46.32,1,0
2015-03-04 08:04:17.598,138,1425485054.716673,37.77923235275278,-122.4387713392464,57.16516,-1,-1,10,65,-9999,1425485057.589285,-8.88311767578125,-45.26885986328125,9.020729064941406,182.6353454589844,168.8589019775391,10,236407.6901560834,-0.29150390625,-0.7573394775390625,-0.0134429931640625,236407.67385025,1.260163885667509,-0.8486799309038021,-0.3575858353582474,236407.67385025,2.116251252520145,-0.5607730982850759,1.198183882363708,1.245808482170105,-0.8344024419784546,-0.3232023119926453,0.1764506846666336,0.1520215570926666,0.08170076459646225,XTrueNorthZVertical,0.4649452063026885,0.3601097954625302,0.6150300129525912,0.525247700159178,-0.1936168223619461,-0.9313794374465942,-0.3082937896251678,-8.687929153442383,-44.37477493286133,7.107853889465332,2,192.168.1.8,10.83.46.32,1,0
2015-03-04 08:04:17.665,139,1425485054.716673,37.77923235275278,-122.4387713392464,57.16516,-1,-1,10,65,-9999,1425485057.640681,-8.030529022216797,-44.69107055664062,11.05101013183594,183.9759521484375,170.1995086669922,10,236407.7391126667,-0.5449066162109375,-1.353012084960938,-0.6446075439453125,236407.7256235417,1.022997672687157,0.6050691344015668,-0.0440217865029008,236407.7256235417,2.223365993019159,-0.6762799635983022,1.254907508869421,1.008642315864563,0.6193464398384094,-0.009638553485274315,-0.4989020824432373,-0.0007885711384005845,-0.3631968200206757,XTrueNorthZVertical,0.4861734422846595,0.3774808459569426,0.5982951343761922,0.5130172513097148,-0.1944420337677002,-0.9505206346511841,-0.2422871887683868,-7.762725830078125,-43.81294631958008,10.73723602294922,2,192.168.1.8,10.83.46.32,1,0
2015-03-04 08:04:17.696,140,1425485054.716673,37.77923235275278,-122.4387713392464,57.16516,-1,-1,10,65,-9999,1425485057.640681,-8.030529022216797,-44.69107055664062,11.05101013183594,183.9759521484375,170.1995086669922,10,236407.7881472083,0.26959228515625,-0.9369659423828125,-0.2220458984375,236407.7773988333,-0.007443535246771471,2.822319053673426,0.07921865610160603,236407.7256235417,2.223365993019159,-0.6762799635983022,1.254907508869421,1.008642315864563,0.6193464398384094,-0.009638553485274315,-0.4989020824432373,-0.0007885711384005845,-0.3631968200206757,XTrueNorthZVertical,0.4861734422846595,0.3774808459569426,0.5982951343761922,0.5130172513097148,-0.1944420337677002,-0.9505206346511841,-0.2422871887683868,-7.762725830078125,-43.81294631958008,10.73723602294922,2,192.168.1.8,10.83.46.32,1,0
2015-03-04 08:04:17.768,141,1425485054.716673,37.77923235275278,-122.4387713392464,57.16516,-1,-1,10,65,-9999,1425485057.74487,-9.616344451904297,-43.45057678222656,13.96329116821289,177.1197662353516,163.3433227539062,10,236407.8372145,-0.2514801025390625,-0.944488525390625,-0.0627288818359375,236407.8291737917,0.604266457649017,-2.134400575656148,0.7084378679002294,236407.8291737917,2.373927686578342,-0.6909300559995716,1.288844190917341,0.5899598598480225,-2.120160341262817,0.7429094910621643,0.3501253724098206,0.3628883957862854,0.1449012458324432,XTrueNorthZVertical,0.4626922743946518,0.4227359833697499,0.6213007101092709,0.4703145205120883,-0.1773043274879456,-0.9605141282081604,-0.2144202888011932,-9.854564666748047,-43.08801651000977,11.89256000518799,2,192.168.1.8,10.83.46.32,1,0
2015-03-04 08:04:17.795,142,1425485054.716673,37.77923235275278,-122.4387713392464,57.16516,-1,-1,10,65,-9999,1425485057.74487,-9.616344451904297,-43.45057678222656,13.96329116821289,177.1197662353516,163.3433227539062,10,236407.8863430417,-0.371307373046875,-0.80328369140625,0.03375244140625,236407.8291737917,0.604266457649017,-2.134400575656148,0.7084378679002294,236407.8291737917,2.373927686578342,-0.6909300559995716,1.288844190917341,0.5899598598480225,-2.120160341262817,0.7429094910621643,0.3501253724098206,0.3628883957862854,0.1449012458324432,XTrueNorthZVertical,0.4626922743946518,0.4227359833697499,0.6213007101092709,0.4703145205120883,-0.1773043274879456,-0.9605141282081604,-0.2144202888011932,-9.854564666748047,-43.08801651000977,11.89256000518799,2,192.168.1.8,10.83.46.32,1,0
2015-03-04 08:04:17.869,143,1425485054.716673,37.77923235275278,-122.4387713392464,57.16516,-1,-1,10,65,-9999,1425485057.84818,-10.43483352661133,-42.29505920410156,16.126708984375,177.3098602294922,163.5334167480469,10,236407.9352947084,-0.0807342529296875,-1.046463012695312,-0.128265380859375,236407.9327224584,0.725999551076539,0.59203269454952,0.1794643005899327,236407.8809474584,2.511770149206335,-0.8882081564032488,1.300358614473508,0.4920288920402527,0.5380465388298035,-0.1876067668199539,-0.4247229993343353,0.0007786861970089376,0.1693607568740845,XTrueNorthZVertical,0.4944748285131131,0.41380415557419,0.6028619430338622,0.4699131999048121,-0.2072960436344147,-0.9636540412902832,-0.168521523475647,-9.887683868408203,-42.32368850708008,14.35484504699707,2,192.168.1.8,10.83.46.32,1,0
2015-03-04 08:04:17.895,144,1425485054.716673,37.77923235275278,-122.4387713392464,57.16516,-1,-1,10,65,-9999,1425485057.84818,-10.43483352661133,-42.29505920410156,16.126708984375,177.3098602294922,163.5334167480469,10,236407.9843595417,-0.187408447265625,-0.99652099609375,-0.0089263916015625,236407.9844977084,0.3680986637613352,-0.9425664793412376,0.01701813199782435,236407.9327224584,2.599302707695884,-0.9053146461737437,1.323631837352383,0.7116931676864624,0.6062725782394409,0.2139352858066559,0.1469801515340805,0.001989192562177777,0.0389384813606739,XTrueNorthZVertical,0.4804365123985661,0.4400576385137995,0.6115214191256063,0.4489674367896292,-0.1924513429403305,-0.9696100354194641,-0.1510600596666336,-10.26357078552246,-42.02910995483398,14.94441604614258,2,192.168.1.8,10.83.46.32,1,0
2015-03-04 08:04:17.968,145,1425485054.716673,37.77923235275278,-122.4387713392464,57.16516,-1,-1,10,65,-9999,1425485057.951728,-10.74176025390625,-41.27548217773438,18.65623092651367,176.4546356201172,162.6781921386719,10,236408.0333702083,-0.4316864013671875,-0.86236572265625,0.17071533203125,236408.036271125,0.4226218270746365,-0.420791170141316,0.01964960147093164,236407.9844977084,2.706746492648395,-1.043448593217557,1.32992954852764,0.3537924587726593,-0.9283267259597778,0.05148874968290329,0.0187290795147419,-0.0253894217312336,0.11111980676651,XTrueNorthZVertical,0.4983521287121391,0.4377465670690961,0.5998480678184305,0.4474433677781818,-0.2061375230550766,-0.9711315631866455,-0.1200461983680725,-10.81988334655762,-41.49735260009766,16.00070190429688,2,192.168.1.8,10.83.46.32,1,0
2015-03-04 08:04:17.991,146,1425485054.716673,37.77923235275278,-122.4387713392464,57.16516,-1,-1,10,65,-9999,1425485057.951728,-10.74176025390625,-41.27548217773438,18.65623092651367,176.4546356201172,162.6781921386719,10,236408.0825229167,-0.366241455078125,-0.95526123046875,-0.025634765625,236408.036271125,0.4226218270746365,-0.420791170141316,0.01964960147093164,236408.036271125,2.783134418470913,-1.150512866013572,1.335131278217387,0.4083157777786255,-0.4065515995025635,0.05411987379193306,-0.2185159176588058,0.1099935546517372,0.265983909368515,XTrueNorthZVertical,0.5130159093721878,0.434948723202492,0.5883362239302943,0.4488818837220725,-0.2131704837083817,-0.972359299659729,-0.09526856988668442,-10.21865940093994,-41.05295562744141,17.47445297241211,2,192.168.1.8,10.83.46.32,1,0
2015-03-04 08:04:18.068,147,1425485054.716673,37.77923235275278,-122.4387713392464,57.16516,-1,-1,10,65,-9999,1425485058.054444,-10.96343994140625,-40.17091369628906,19.77121353149414,176.1792602539062,162.4028167724609,10,236408.1314412917,-0.0628509521484375,-0.9912872314453125,0.1674346923828125,236408.1398214167,0.3702670095208777,0.2982133220160209,-0.05589815338410916,236408.0880462083,2.849112766897066,-1.202583934731361,1.334673575669544,0.1903902292251587,0.4844745993614197,0.07360564172267914,-0.1479862034320831,0.01699107326567173,0.05856986716389656,XTrueNorthZVertical,0.5139725561249473,0.4401475830801257,0.5897733603686954,0.4407605620576924,-0.2182552516460419,-0.9722523093223572,-0.08420463651418686,-10.31452560424805,-40.71182250976562,18.20112419128418,2,192.168.1.8,10.83.46.32,1,0
2015-03-04 08:04:18.091,148,1425485054.716673,37.77923235275278,-122.4387713392464,57.16516,-1,-1,10,65,-9999,1425485058.054444,-10.96343994140625,-40.17091369628906,19.77121353149414,176.1792602539062,162.4028167724609,10,236408.1805530417,-0.1118316650390625,-1.013839721679688,0.1154327392578125,236408.1398214167,0.3702670095208777,0.2982133220160209,-0.05589815338410916,236408.1398214167,2.891575901803115,-1.231007932173394,1.336254159015318,0.3559612333774567,0.312452644109726,-0.02142853476107121,0.1562601178884506,-0.01866638846695423,0.2448901981115341,XTrueNorthZVertical,0.512756945636798,0.4453678963956105,0.5913262976378412,0.4348116078144403,-0.2191110700368881,-0.9726208448410034,-0.07745550572872162,-10.7810583114624,-40.5312614440918,18.33325576782227,2,192.168.1.8,10.83.46.32,1,0
