loggingTime,loggingSample,locationTimestamp_since1970,locationLatitude,locationLongitude,locationAltitude,locationSpeed,locationCourse,locationVerticalAccuracy,locationHorizontalAccuracy,locationFloor,locationHeadingTimestamp_since1970,locationHeadingX,locationHeadingY,locationHeadingZ,locationTrueHeading,locationMagneticHeading,locationHeadingAccuracy,accelerometerTimestamp_sinceReboot,accelerometerAccelerationX,accelerometerAccelerationY,accelerometerAccelerationZ,gyroTimestamp_sinceReboot,gyroRotationX,gyroRotationY,gyroRotationZ,motionTimestamp_sinceReboot,motionYaw,motionRoll,motionPitch,motionRotationRateX,motionRotationRateY,motionRotationRateZ,motionUserAccelerationX,motionUserAccelerationY,motionUserAccelerationZ,motionAttitudeReferenceFrame,motionQuaternionX,motionQuaternionY,motionQuaternionZ,motionQuaternionW,motionGravityX,motionGravityY,motionGravityZ,motionMagneticFieldX,motionMagneticFieldY,motionMagneticFieldZ,motionMagneticFieldCalibrationAccuracy,IP_en0,IP_pdp_ip0,deviceOrientation,state
2015-02-27 16:57:10.038,1,1425085022.869836,37.78757783066614,-122.3964055850179,13.11881,-1,-1,10,198.4253335977043,-9999,1425085029.992244,34.97061157226562,-16.05899047851562,-15.16144561767578,320.4461059570312,306.6728515625,10,136674.2052729584,0.5727996826171875,-0.7582855224609375,-0.4235076904296875,136674.1823913333,-0.3224451584585429,0.3103727829211047,0.0123144568805264,136674.1823913333,-1.551385688774277,0.9155817472259165,0.9087767688947217,-0.3266249895095825,0.3169316649436951,0.04455255344510078,-0.004672656301409006,-0.02478520199656487,-0.04316309094429016,XTrueNorthZVertical,-0.5591581927595319,-0.007833019159535031,0.42588322708662,-0.7112694668303087,0.4874149560928345,-0.7887523770332336,-0.3745615184307098,34.01005935668945,-17.16654205322266,-19.61347198486328,1,10.3.35.51,10.83.46.32,1,0
2015-02-27 16:57:10.045,2,1425085022.869836,37.78757783066614,-122.3964055850179,13.11881,-1,-1,10,198.4253335977043,-9999,1425085029.992244,34.97061157226562,-16.05899047851562,-15.16144561767578,320.4461059570312,306.6728515625,10,136674.25429775,0.46429443359375,-0.767303466796875,-0.352783203125,136674.2341745833,0.03135925446790105,-0.3121232787056137,-0.05089087790254218,136674.1823913333,-1.551385688774277,0.9155817472259165,0.9087767688947217,-0.3266249895095825,0.3169316649436951,0.04455255344510078,-0.004672656301409006,-0.02478520199656487,-0.04316309094429016,XTrueNorthZVertical,-0.5591581927595319,-0.007833019159535031,0.42588322708662,-0.7112694668303087,0.4874149560928345,-0.7887523770332336,-0.3745615184307098,34.01005935668945,-17.16654205322266,-19.61347198486328,1,10.3.35.51,10.83.46.32,1,0
2015-02-27 16:57:10.101,3,1425085022.869836,37.78757783066614,-122.3964055850179,13.11881,-1,-1,10,198.4253335977043,-9999,1425085030.045944,34.86830520629883,-16.05899047851562,-15.39443206787109,320.5488891601562,306.775634765625,10,136674.303348125,0.4799346923828125,-0.776153564453125,-0.3570404052734375,136674.285957125,0.01251259606562829,-0.03872928646858633,-0.01005396574726714,136674.285957125,-1.550804479175789,0.899684619756275,0.9088212969124536,0.00828184001147747,-0.03222544491291046,0.022035026922822,-0.02415731549263,0.01419785805046558,0.04821036756038666,XTrueNorthZVertical,-0.5557646386050431,-0.002325120969970668,0.4300951311737965,-0.7114340845836109,0.48137167096138,-0.7887797951698303,-0.3822405338287354,33.90737915039062,-16.9985408782959,-19.9349479675293,1,10.3.35.51,10.83.46.32,1,0
2015-02-27 16:57:10.122,4,1425085022.869836,37.78757783066614,-122.3964055850179,13.11881,-1,-1,10,198.4253335977043,-9999,1425085030.045944,34.86830520629883,-16.05899047851562,-15.39443206787109,320.5488891601562,306.775634765625,10,136674.3523707083,0.4958648681640625,-0.7764129638671875,-0.385711669921875,136674.3377394167,0.005889314434601227,0.04006779123246015,-0.008361793190630792,136674.3377394167,-1.548613593456649,0.9010012904103415,0.9092617111938138,0.001658600405789912,0.04657157137989998,0.02372687868773937,0.01171449478715658,0.01100474875420332,-0.002200022106990218,XTrueNorthZVertical,-0.5561421694830609,-0.003247966855782842,0.4288271254772731,-0.711900732382628,0.4816021621227264,-0.7890504002571106,-0.3813906908035278,33.90444183349609,-17.01325988769531,-19.9273796081543,1,10.3.35.51,10.83.46.32,1,0
2015-02-27 16:57:10.205,5,1425085022.869836,37.78757783066614,-122.3964055850179,13.11881,-1,-1,10,198.4253335977043,-9999,1425085030.171554,34.33969879150391,-16.00798034667969,-14.74541473388672,319.4216918945312,305.6484375,10,136674.4014144583,0.4915008544921875,-0.7796783447265625,-0.3857269287109375,136674.3895227917,0.02241689215963298,-0.05521611782893987,-0.04635205245672013,136674.3895227917,-1.549331541903518,0.9010265220153704,0.9098437646698755,0.01815672777593136,-0.04877710342407227,-0.01439218129962683,0.01812274381518364,0.01243030186742544,-0.005762736313045025,XTrueNorthZVertical,-0.5562779787400988,-0.002852895638569369,0.4289137815047337,-0.7117440956331565,0.4812516570091248,-0.7894078493118286,-0.3810933530330658,33.92377471923828,-17.05214309692383,-19.86113357543945,1,10.3.35.51,10.83.46.32,1,0
2015-02-27 16:57:10.221,6,1425085022.869836,37.78757783066614,-122.3964055850179,13.11881,-1,-1,10,198.4253335977043,-9999,1425085030.171554,34.33969879150391,-16.00798034667969,-14.74541473388672,319.4216918945312,305.6484375,10,136674.450542875,0.47589111328125,-0.7729644775390625,-0.3819427490234375,136674.4413050417,0.04580716969768992,-0.06289880494160045,-0.03274436455085126,136674.3895227917,-1.549331541903518,0.9010265220153704,0.9098437646698755,0.01815672777593136,-0.04877710342407227,-0.01439218129962683,0.01812274381518364,0.01243030186742544,-0.005762736313045025,XTrueNorthZVertical,-0.5562779787400988,-0.002852895638569369,0.4289137815047337,-0.7117440956331565,0.4812516570091248,-0.7894078493118286,-0.3810933530330658,33.92377471923828,-17.05214309692383,-19.86113357543945,1,10.3.35.51,10.83.46.32,1,0
2015-02-27 16:57:10.300,7,1425085022.869836,37.78757783066614,-122.3964055850179,13.11881,-1,-1,10,198.4253335977043,-9999,1425085030.276488,34.7659912109375,-15.88900756835938,-14.82862854003906,319.8783264160156,306.1050720214844,10,136674.4994860417,0.478546142578125,-0.78564453125,-0.3719329833984375,136674.4930875833,0.09870234263662574,-0.07354372613475618,-0.0007672567100518285,136674.4930875833,-1.557761903529517,0.9017608644042602,0.9109834123173886,0.09443965554237366,-0.06710121035575867,0.03118130750954151,0.005060264375060797,0.009574086405336857,0.009942344389855862,XTrueNorthZVertical,-0.5566947674475408,-0.0003674365346303897,0.4313886876467989,-0.7099257843854798,0.4808253645896912,-0.7901069521903992,-0.380181610584259,33.86021423339844,-17.04484176635742,-19.97553443908691,1,10.3.35.51,10.83.46.32,1,0
2015-02-27 16:57:10.319,8,1425085022.869836,37.78757783066614,-122.3964055850179,13.11881,-1,-1,10,198.4253335977043,-9999,1425085030.276488,34.7659912109375,-15.88900756835938,-14.82862854003906,319.8783264160156,306.1050720214844,10,136674.5485530417,0.493865966796875,-0.7911529541015625,-0.3768768310546875,136674.4930875833,0.09870234263662574,-0.07354372613475618,-0.0007672567100518285,136674.4930875833,-1.557761903529517,0.9017608644042602,0.9109834123173886,0.09443965554237366,-0.06710121035575867,0.03118130750954151,0.005060264375060797,0.009574086405336857,0.009942344389855862,XTrueNorthZVertical,-0.5566947674475408,-0.0003674365346303897,0.4313886876467989,-0.7099257843854798,0.4808253645896912,-0.7901069521903992,-0.380181610584259,33.86021423339844,-17.04484176635742,-19.97553443908691,1,10.3.35.51,10.83.46.32,1,0
2015-02-27 16:57:10.406,9,1425085022.869836,37.78757783066614,-122.3964055850179,13.11881,-1,-1,10,198.4253335977043,-9999,1425085030.379159,34.74893569946289,-15.66812133789062,-14.67885589599609,319.8189392089844,306.0456848144531,10,136674.59756525,0.4873199462890625,-0.7907867431640625,-0.386993408203125,136674.5966530417,0.04939071926050054,-0.04603380470645566,-0.02828383604107754,136674.5448707917,-1.562295594264781,0.9042072742141136,0.9143128514263187,0.06081328541040421,0.002702007535845041,-1.219502337335143e-05,0.005072631407529116,0.0002122307196259499,-0.003743233624845743,XTrueNorthZVertical,-0.5579523155082621,0.001201353789757587,0.4313874097287099,-0.7089377203772131,0.4796838462352753,-0.7921434044837952,-0.3773755431175232,33.80320739746094,-17.1768970489502,-19.95895957946777,1,10.3.35.51,10.83.46.32,1,0
2015-02-27 16:57:10.417,10,1425085022.869836,37.78757783066614,-122.3964055850179,13.11881,-1,-1,10,198.4253335977043,-9999,1425085030.379159,34.74893569946289,-15.66812133789062,-14.67885589599609,319.8189392089844,306.0456848144531,10,136674.64661825,0.47906494140625,-0.78826904296875,-0.375244140625,136674.648435625,0.02227254882855069,-0.03002288023289928,-0.02986282425138552,136674.5966530417,-1.565190337203484,0.9057248368336956,0.913569215888677,0.04510454833507538,-0.03963061794638634,0.003523818217217922,0.009377682581543922,0.002031704410910606,-0.007602463476359844,XTrueNorthZVertical,-0.5581158047058042,0.001209002428696811,0.4321971087453758,-0.708315582435473,0.4807193577289581,-0.7916892766952515,-0.3770105838775635,33.82140731811523,-17.14539527893066,-19.9552116394043,1,10.3.35.51,10.83.46.32,1,0
2015-02-27 16:57:10.502,11,1425085022.869836,37.78757783066614,-122.3964055850179,13.11881,-1,-1,10,198.4253335977043,-9999,1425085030.481742,34.5443115234375,-15.60014343261719,-15.04496765136719,319.8358764648438,306.0626220703125,10,136674.695639875,0.484405517578125,-0.7864532470703125,-0.3808746337890625,136674.648435625,0.02227254882855069,-0.03002288023289928,-0.02986282425138552,136674.648435625,-1.56636860040852,0.9046161388855677,0.9143785325555732,0.01798452623188496,-0.02362040244042873,0.001943112467415631,-0.0007322467863559723,0.003914426080882549,0.001903088763356209,XTrueNorthZVertical,-0.5580514979419836,0.00221606205633872,0.4326978702293927,-0.708058038645607,0.4797971844673157,-0.7921834588050842,-0.3771472275257111,33.79800033569336,-17.15188980102539,-19.98926162719727,1,10.3.35.51,10.83.46.32,1,0
2015-02-27 16:57:10.516,12,1425085022.869836,37.78757783066614,-122.3964055850179,13.11881,-1,-1,10,198.4253335977043,-9999,1425085030.481742,34.5443115234375,-15.60014343261719,-15.04496765136719,319.8358764648438,306.0626220703125,10,136674.7446700833,0.480743408203125,-0.790191650390625,-0.381805419921875,136674.7002187083,0.01603329502671304,-0.01419118650070524,-0.03147430302699247,136674.7002187083,-1.567708332702581,0.9051983122643725,0.9142667412696007,0.0117295878008008,-0.00785991083830595,0.000236230029258877,0.004319192841649055,0.005661992356181145,-0.003952107857912779,XTrueNorthZVertical,-0.5581516289807821,0.002344373119832163,0.4330408163493029,-0.7077689825319767,0.4800863265991211,-0.7921152114868164,-0.3769225180149078,33.77199554443359,-17.16941070556641,-20.01815032958984,1,10.3.35.51,10.83.46.32,1,0
2015-02-27 16:57:10.601,13,1425085022.869836,37.78757783066614,-122.3964055850179,13.11881,-1,-1,10,198.4253335977043,-9999,1425085030.586492,34.28853225708008,-15.34526062011719,-15.66071319580078,320.0349731445312,306.26171875,10,136674.7937140834,0.468017578125,-0.795196533203125,-0.3736724853515625,136674.8037835,0.009962619321877423,-0.02616662297446455,-0.03727706472616612,136674.752001125,-1.567814052742927,0.9042051148303617,0.9135971433174619,-0.01879487931728363,-0.03781041130423546,-0.005071075633168221,0.0006149276741780341,0.001514708041213453,-0.004078392870724201,XTrueNorthZVertical,-0.5577905451736859,0.002488823877035992,0.4335421210072939,-0.7077462547135763,0.4801284670829773,-0.791706383228302,-0.3777270317077637,33.76904678344727,-17.1449089050293,-20.04410743713379,1,10.3.35.51,10.83.46.32,1,0
2015-02-27 16:57:10.614,14,1425085022.869836,37.78757783066614,-122.3964055850179,13.11881,-1,-1,10,198.4253335977043,-9999,1425085030.586492,34.28853225708008,-15.34526062011719,-15.66071319580078,320.0349731445312,306.26171875,10,136674.8427379167,0.479278564453125,-0.787078857421875,-0.3780670166015625,136674.8037835,0.009962619321877423,-0.02616662297446455,-0.03727706472616612,136674.8037835,-1.567926615831453,0.9027373318363238,0.9140677293915999,0.005659823771566153,-0.01983525045216084,-0.005566461943089962,-0.01008851081132889,-0.003477438585832715,0.004070262424647808,XTrueNorthZVertical,-0.5575746290470144,0.003205835222879983,0.4338600154923848,-0.7077187018149246,0.4792810082435608,-0.7919937372207642,-0.378200501203537,33.75054931640625,-17.13140487670898,-20.08675765991211,1,10.3.35.51,10.83.46.32,1,0
2015-02-27 16:57:10.674,15,1425085022.869836,37.78757783066614,-122.3964055850179,13.11881,-1,-1,10,198.4253335977043,-9999,1425085030.63856,34.03276062011719,-16.07597351074219,-15.37779998779297,320.1149291992188,306.3416748046875,10,136674.8917809167,0.47979736328125,-0.789947509765625,-0.3721923828125,136674.8555669583,-0.01231898425437953,0.001962749723388398,-0.04161668572245024,136674.8555669583,-1.568099270687714,0.9030791088758885,0.9139872515231333,-0.01662332564592361,0.00814621988683939,-0.01002929639071226,0.0006880199653096497,0.008192175067961216,-0.005575586576014757,XTrueNorthZVertical,-0.557630960332504,0.003104605372975805,0.43384825842954,-0.7076819769075853,0.4794602990150452,-0.7919446229934692,-0.3780761361122131,33.72861480712891,-17.1611499786377,-20.09821701049805,1,10.3.35.51,10.83.46.32,1,0
2015-02-27 16:57:10.711,16,1425085022.869836,37.78757783066614,-122.3964055850179,13.11881,-1,-1,10,198.4253335977043,-9999,1425085030.690301,34.18622589111328,-16.29692077636719,-14.96176910400391,320.0983276367188,306.3250732421875,10,136674.9408089583,0.481903076171875,-0.779754638671875,-0.376556396484375,136674.907349125,0.002514556701252817,-0.01388545560756414,-0.04368969031496792,136674.907349125,-1.56832620975092,0.9025904343300524,0.9133441435699404,-0.001789103960618377,-0.007701307535171509,-0.01210315059870481,-0.00373826501891017,-0.002378278644755483,0.008752832189202309,XTrueNorthZVertical,-0.5573843971966661,0.003113583872630704,0.4342440415540217,-0.7076334291213573,0.4796751439571381,-0.7915517687797546,-0.3786258697509766,33.72809982299805,-17.12484169006348,-20.13002014160156,1,10.3.35.51,10.83.46.32,1,0
2015-02-27 16:57:10.775,17,1425085022.869836,37.78757783066614,-122.3964055850179,13.11881,-1,-1,10,198.4253335977043,-9999,1425085030.7419,34.13507080078125,-16.347900390625,-14.84527587890625,320.0731201171875,306.2998657226562,10,136674.98986275,0.4722900390625,-0.7883758544921875,-0.3827667236328125,136674.9591317083,-0.003679689678162484,-0.005327387444594508,-0.04511794360757741,136674.9591317083,-1.569369466947763,0.9039010988588059,0.9127978300064525,-0.007982701063156128,0.0008578564738854766,-0.01353319641202688,0.003803258063271642,0.008579254150390625,-0.00279345246963203,XTrueNorthZVertical,-0.5575484793969483,0.002747679691414889,0.4344000532583429,-0.7074098920609304,0.4805107116699219,-0.7912178039550781,-0.3782642781734467,33.73335266113281,-17.12727546691895,-20.119140625,1,10.3.35.51,10.83.46.32,1,0
2015-02-27 16:57:10.809,18,1425085022.869836,37.78757783066614,-122.3964055850179,13.11881,-1,-1,10,198.4253335977043,-9999,1425085030.79411,34.39084625244141,-15.68515014648438,-15.46102142333984,320.1086120605469,306.3353576660156,10,136675.038899125,0.4872589111328125,-0.787933349609375,-0.3843841552734375,136675.0109148333,0.006103698902352606,0.003906857319146242,-0.02090421666046797,136675.0109148333,-1.569346900160479,0.903685228099588,0.9124492347026389,0.001822122605517507,0.009944546967744827,0.01056840736418962,0.0019745456520468,0.001484313863329589,-0.00892779603600502,XTrueNorthZVertical,-0.557425709736687,0.00269455288587265,0.4345494117317813,-0.7074151147317271,0.4806456863880157,-0.7910045981407166,-0.3785386383533478,33.75242233276367,-17.09028434753418,-20.11862182617188,1,10.3.35.51,10.83.46.32,1,0
2015-02-27 16:57:10.874,19,1425085022.869836,37.78757783066614,-122.3964055850179,13.11881,-1,-1,10,198.4253335977043,-9999,1425085030.845639,34.98765563964844,-15.49824523925781,-15.34452056884766,320.1468200683594,306.3735656738281,10,136675.0879585,0.473663330078125,-0.7872161865234375,-0.3721923828125,136675.062697375,0.0075487301098296,-0.03232145456974667,-0.029778135728721,136675.062697375,-1.569359615895813,0.9029243882928762,0.9116073474755905,0.003265806939452887,-0.02628359757363796,0.001691876561380923,0.00192311336286366,0.002616907702758908,0.00456065172329545,XTrueNorthZVertical,-0.5570768503707388,0.002669693206916716,0.435000468361014,-0.7074127976810572,0.4808802306652069,-0.7904891967773438,-0.379316508769989,33.75144958496094,-17.05620765686035,-20.14914321899414,1,10.3.35.51,10.83.46.32,1,0
2015-02-27 16:57:10.908,20,1425085022.869836,37.78757783066614,-122.3964055850179,13.11881,-1,-1,10,198.4253335977043,-9999,1425085030.897168,34.91944885253906,-15.8720703125,-15.44436645507812,320.1629028320312,306.3896484375,10,136675.136997875,0.48040771484375,-0.7849578857421875,-0.3768463134765625,136675.114479625,-0.008607336643136098,-0.002860767642963118,-0.04517147314548801,136675.114479625,-1.569129296964111,0.9022009520985427,0.9117508229075758,-0.01288898289203644,0.003176941769197583,-0.01369990687817335,-0.007036468014121056,0.001941835274919868,0.006928584072738886,XTrueNorthZVertical,-0.5569510972828233,0.002912142049381568,0.4350805237494109,-0.7074616249635919,0.4805167019367218,-0.7905771136283875,-0.3795939981937408,33.73708724975586,-17.06232833862305,-20.16800880432129,1,10.3.35.51,10.83.46.32,1,0
2015-02-27 16:57:10.974,21,1425085022.869836,37.78757783066614,-122.3964055850179,13.11881,-1,-1,10,198.4253335977043,-9999,1425085030.949268,34.73188018798828,-16.05900573730469,-15.12818145751953,320.16357421875,306.3903198242188,10,136675.1860617083,0.486297607421875,-0.7869720458984375,-0.3773345947265625,136675.166263,0.01103134586732622,0.0003989415312938699,-0.03183356345804416,136675.166263,-1.569238230876207,0.9031807413860433,0.9118089688726539,0.006779558025300503,0.006283754482865334,-0.0004850773839280009,0.005231700371950865,0.002938744146376848,-0.004587709438055754,XTrueNorthZVertical,-0.5571767075600623,0.002616454736837135,0.4348299584401104,-0.7074391820065913,0.4808522760868073,-0.7906126976013184,-0.3790945410728455,33.7507209777832,-17.06301116943359,-20.14460754394531,1,10.3.35.51,10.83.46.32,1,0
2015-02-27 16:57:11.006,22,1425085022.869836,37.78757783066614,-122.3964055850179,13.11881,-1,-1,10,198.4253335977043,-9999,1425085030.949268,34.73188018798828,-16.05900573730469,-15.12818145751953,320.16357421875,306.3903198242188,10,136675.2350914167,0.48046875,-0.7875823974609375,-0.37640380859375,136675.2180452917,8.841694819063071e-05,-0.01767220436154781,-0.03258084645992039,136675.2180452917,-1.569585086122827,0.9030751157494377,0.9116402577842624,-0.004163181409239769,-0.01178688928484917,-0.001233638031408191,-0.005651467945426702,0.004437601193785667,0.005418101791292429,XTrueNorthZVertical,-0.5571165061860092,0.002690816837940525,0.4350290639398888,-0.7073639019949123,0.4809169769287109,-0.7905094027519226,-0.3792279064655304,33.75076293945312,-17.0562858581543,-20.15023040771484,1,10.3.35.51,10.83.46.32,1,0
2015-02-27 16:57:11.073,23,1425085022.869836,37.78757783066614,-122.3964055850179,13.11881,-1,-1,10,198.4253335977043,-9999,1425085031.053288,34.90240097045898,-15.71914672851562,-15.22803497314453,320.1957702636719,306.4225158691406,10,136675.2841442083,0.4770660400390625,-0.783477783203125,-0.3770904541015625,136675.269827875,0.008683503050312364,-0.01560639030397334,-0.01430037610539849,136675.269827875,-1.570144549022423,0.903161279902356,0.9124071511298348,0.004433115012943745,-0.009720735251903534,0.0170473325997591,-0.004338179714977741,-0.001745779649354517,0.006115103140473366,XTrueNorthZVertical,-0.5573014945079546,0.003087270927138175,0.4349892541440922,-0.7072410339019046,0.4804734289646149,-0.7909788489341736,-0.3788110315799713,33.7474365234375,-17.05766296386719,-20.15463829040527,1,10.3.35.51,10.83.46.32,1,0
2015-02-27 16:57:11.106,24,1425085022.869836,37.78757783066614,-122.3964055850179,13.11881,-1,-1,10,198.4253335977043,-9999,1425085031.053288,34.90240097045898,-15.71914672851562,-15.22803497314453,320.1957702636719,306.4225158691406,10,136675.333180625,0.481353759765625,-0.795684814453125,-0.3795166015625,136675.3216109583,0.02833150662458996,-0.01569853567769008,-0.01922615885760904,136675.269827875,-1.570144549022423,0.903161279902356,0.9124071511298348,0.004433115012943745,-0.009720735251903534,0.0170473325997591,-0.004338179714977741,-0.001745779649354517,0.006115103140473366,XTrueNorthZVertical,-0.5573014945079546,0.003087270927138175,0.4349892541440922,-0.7072410339019046,0.4804734289646149,-0.7909788489341736,-0.3788110315799713,33.7474365234375,-17.05766296386719,-20.15463829040527,1,10.3.35.51,10.83.46.32,1,0
2015-02-27 16:57:11.204,25,1425085022.869836,37.78757783066614,-122.3964055850179,13.11881,-1,-1,10,198.4253335977043,-9999,1425085031.157095,34.85124206542969,-16.00801086425781,-15.47765350341797,320.2271423339844,306.4538879394531,10,136675.3822385,0.4671630859375,-0.79876708984375,-0.3725128173828125,136675.3733935,0.04323801819409048,-0.03838760290072916,0.02902472745633759,136675.3733935,-1.571464189579779,0.9026508861407934,0.9167349560579813,0.0390036515891552,-0.0326358936727047,0.06025157868862152,-0.007190471980720758,-0.01308230683207512,0.01258251816034317,XTrueNorthZVertical,-0.5581284555023666,0.005165797983966621,0.4343912935212537,-0.7069442439688652,0.477588415145874,-0.7936193346977234,-0.3769318759441376,33.67212295532227,-17.2081184387207,-20.15270233154297,1,10.3.35.51,10.83.46.32,1,0
2015-02-27 16:57:11.207,26,1425085022.869836,37.78757783066614,-122.3964055850179,13.11881,-1,-1,10,198.4253335977043,-9999,1425085031.157095,34.85124206542969,-16.00801086425781,-15.47765350341797,320.2271423339844,306.4538879394531,10,136675.4312784167,0.5033111572265625,-0.833953857421875,-0.3929290771484375,136675.42517575,0.01028512812988602,-0.07100759782867372,0.0409162743557594,136675.3733935,-1.571464189579779,0.9026508861407934,0.9167349560579813,0.0390036515891552,-0.0326358936727047,0.06025157868862152,-0.007190471980720758,-0.01308230683207512,0.01258251816034317,XTrueNorthZVertical,-0.5581284555023666,0.005165797983966621,0.4343912935212537,-0.7069442439688652,0.477588415145874,-0.7936193346977234,-0.3769318759441376,33.67212295532227,-17.2081184387207,-20.15270233154297,1,10.3.35.51,10.83.46.32,1,0
2015-02-27 16:57:11.274,27,1425085022.869836,37.78757783066614,-122.3964055850179,13.11881,-1,-1,10,198.4253335977043,-9999,1425085031.261231,34.47610092163086,-16.41584777832031,-15.54423522949219,320.372314453125,306.5990600585938,10,136675.4804467083,0.4530487060546875,-0.824462890625,-0.3746185302734375,136675.4769591667,0.0003214435435725641,-0.2385225609235299,0.1430200063366343,136675.42517575,-1.569834009015878,0.8996830983343314,0.920198376774323,0.006051946431398392,-0.06525624543428421,0.07214494794607162,0.01665452495217323,-0.03087733685970306,-0.01108975615352392,XTrueNorthZVertical,-0.558241148336203,0.006984508691727767,0.4336766082317974,-0.7072783431529792,0.4743122756481171,-0.7957217693328857,-0.3766360878944397,33.62138748168945,-17.30878067016602,-20.15120506286621,1,10.3.35.51,10.83.46.32,1,0
2015-02-27 16:57:11.306,28,1425085022.869836,37.78757783066614,-122.3964055850179,13.11881,-1,-1,10,198.4253335977043,-9999,1425085031.261231,34.47610092163086,-16.41584777832031,-15.54423522949219,320.372314453125,306.5990600585938,10,136675.5293660834,0.49322509765625,-0.7847747802734375,-0.34228515625,136675.5287414167,0.1046028423478053,-0.4190020585210008,0.1583976311029699,136675.4769591667,-1.563331396705327,0.8863476725937195,0.9258943643059073,-0.003907720092684031,-0.232869029045105,0.1741439253091812,-0.007491783238947392,-0.03706871345639229,0.003239956451579928,XTrueNorthZVertical,-0.5566241385294722,0.01190345484518439,0.4335042438007304,-0.7085915361150421,0.4657284915447235,-0.7991586923599243,-0.3800557553768158,33.31468963623047,-17.60054206848145,-20.40624618530273,1,10.3.35.51,10.83.46.32,1,0
2015-02-27 16:57:11.359,29,1425085022.869836,37.78757783066614,-122.3964055850179,13.11881,-1,-1,10,198.4253335977043,-9999,1425085031.312187,33.99864959716797,-16.34785461425781,-15.81050872802734,320.5195922851562,306.746337890625,10,136675.578538375,0.4473724365234375,-0.735382080078125,-0.31048583984375,136675.5805239583,0.3989204923212583,-0.5486013308602897,0.1476858645664532,136675.5287414167,-1.556867436425553,0.8667029748583956,0.9349400269151988,0.1003799587488174,-0.413344144821167,0.1895200163125992,0.0333937369287014,-0.001985608832910657,0.03986150398850441,XTrueNorthZVertical,-0.5544112085469779,0.02026010807250829,0.4341571068464996,-0.7097361232959006,0.4526444673538208,-0.8045634627342224,-0.3844354748725891,32.90744018554688,-17.91970062255859,-20.78574752807617,1,10.3.35.51,10.83.46.32,1,0
2015-02-27 16:57:11.399,30,1425085022.869836,37.78757783066614,-122.3964055850179,13.11881,-1,-1,10,198.4253335977043,-9999,1425085031.363262,33.40184020996094,-16.73867797851562,-15.92699432373047,319.9094848632812,306.13623046875,10,136675.6274529583,0.4649810791015625,-0.7671051025390625,-0.33184814453125,136675.5805239583,0.3989204923212583,-0.5486013308602897,0.1476858645664532,136675.5805239583,-1.563454675812654,0.8461940383996905,0.9498749974800953,0.3946981430053711,-0.5429426431655884,0.1788067221641541,0.01175345946103334,0.07796070724725723,0.07514304667711258,XTrueNorthZVertical,-0.5531615520237759,0.03461000720250102,0.438037311300178,-0.7077695789952037,0.4356189668178558,-0.813342809677124,-0.385628879070282,32.54205703735352,-18.18107032775879,-21.13115692138672,1,10.3.35.51,10.83.46.32,1,0
2015-02-27 16:57:11.456,31,1425085022.869836,37.78757783066614,-122.3964055850179,13.11881,-1,-1,10,198.4253335977043,-9999,1425085031.415135,32.83912658691406,-17.33341979980469,-16.47616577148438,320.7832336425781,307.0099792480469,10,136675.6765031667,0.4931488037109375,-0.8016510009765625,-0.349212646484375,136675.684089625,0.7083846046784279,-0.5826786075367257,-0.2483288526894196,136675.6323072083,-1.590902977435354,0.8420422576380141,0.9695190419661985,0.5555477142333984,-0.5537458062171936,0.005094836466014385,0.04296904057264328,0.05750862881541252,0.0448719821870327,XTrueNorthZVertical,-0.5559464433344414,0.05063090428554418,0.44340759716837,-0.7012487324241174,0.4220120310783386,-0.8246137499809265,-0.376720130443573,31.50605010986328,-19.16226196289062,-21.82290267944336,1,10.3.35.51,10.83.46.32,1,0
2015-02-27 16:57:11.508,32,1425085022.869836,37.78757783066614,-122.3964055850179,13.11881,-1,-1,10,198.4253335977043,-9999,1425085031.466972,32.19115829467773,-17.707275390625,-16.64257049560547,321.7242431640625,307.9509887695312,10,136675.72552625,0.5708465576171875,-0.7855072021484375,-0.3510589599609375,136675.684089625,0.7083846046784279,-0.5826786075367257,-0.2483288526894196,136675.684089625,-1.641676719219221,0.857813925224196,0.9876605905052629,0.7041590809822083,-0.5771027803421021,-0.2173170447349548,0.07663357257843018,0.03308907896280289,0.01095964480191469,XTrueNorthZVertical,-0.5617662785959351,0.06582174696740108,0.4515719767486058,-0.6900499358394551,0.4165152311325073,-0.8347401022911072,-0.360172301530838,31.03699493408203,-19.71520614624023,-22.00177764892578,1,10.3.35.51,10.83.46.32,1,0
2015-02-27 16:57:11.555,33,1425085022.869836,37.78757783066614,-122.3964055850179,13.11881,-1,-1,10,198.4253335977043,-9999,1425085031.518976,31.74780654907227,-18.04714965820312,-17.27494812011719,324.8660278320312,311.0927734375,10,136675.774574625,0.4901123046875,-0.7430419921875,-0.3255157470703125,136675.7358719167,0.7918187784695203,-0.9846106024186455,-0.3973492272781115,136675.7358719167,-1.711332239871578,0.8755980431358963,0.9993208467038632,0.7875933051109314,-0.9790347218513489,-0.3663381338119507,0.1644826382398605,0.05042391270399094,-0.003464550245553255,XTrueNorthZVertical,-0.5654926694214647,0.08362440152760285,0.4670108658116583,-0.6746301726069084,0.4153513610363007,-0.8411038517951965,-0.346450001001358,30.77050399780273,-19.93826675415039,-22.17440605163574,1,10.3.35.51,10.83.46.32,1,0
2015-02-27 16:57:11.603,34,1425085022.869836,37.78757783066614,-122.3964055850179,13.11881,-1,-1,10,198.4253335977043,-9999,1425085031.569946,31.32151031494141,-18.23408508300781,-17.85740661621094,327.9658813476562,314.192626953125,10,136675.82359625,0.414337158203125,-0.851531982421875,-0.244873046875,136675.7876553333,0.9898165497175324,-1.456825282680519,-0.6879163474884059,136675.7876553333,-1.807143585077583,0.8946115600985379,1.007825824716992,0.9855911135673523,-1.451249361038208,-0.6569055318832397,0.05586906895041466,0.1008004397153854,0.01996037922799587,XTrueNorthZVertical,-0.5669408434854268,0.1075979618865626,0.4909805353095548,-0.6526399396382964,0.41626837849617,-0.8456735014915466,-0.3340015113353729,29.58229446411133,-20.37066650390625,-23.36635589599609,1,10.3.35.51,10.83.46.32,1,0
2015-02-27 16:57:11.653,35,1425085022.869836,37.78757783066614,-122.3964055850179,13.11881,-1,-1,10,198.4253335977043,-9999,1425085031.62225,30.86111450195312,-18.35302734375,-18.47313690185547,331.3335876464844,317.5603332519531,10,136675.87264525,0.2974395751953125,-0.927703857421875,-0.2369537353515625,136675.83943775,1.113405333792622,-1.391110451202269,-0.7741985057492291,136675.83943775,-1.928238716286114,0.9238458450799439,1.012447316858636,1.109179973602295,-1.385534644126892,-0.7431879639625549,-0.02507107146084309,-0.02908158488571644,0.0824698805809021,XTrueNorthZVertical,-0.5676946865970096,0.134375260155631,0.5200033428487675,-0.6239091071396392,0.4227303862571716,-0.8481309413909912,-0.3193320631980896,28.64477348327637,-20.57763290405273,-24.3331184387207,1,10.3.35.51,10.83.46.32,1,0
2015-02-27 16:57:11.704,36,1425085022.869836,37.78757783066614,-122.3964055850179,13.11881,-1,-1,10,198.4253335977043,-9999,1425085031.674856,30.55418395996094,-18.35302734375,-19.20536804199219,336.1675109863281,322.3942565917969,10,136675.9216719583,0.2710723876953125,-1.007461547851562,-0.24371337890625,136675.8912201667,1.083918281571046,-0.9634669675761794,-0.5158351283884999,136675.8912201667,-2.048248285619566,0.9658324506467468,1.018126490422695,1.079692840576172,-0.9578912258148193,-0.4848248958587646,-0.1626887023448944,-0.09366770833730698,0.06824642419815063,XTrueNorthZVertical,-0.5707680166619115,0.1579321908728096,0.5429902317333826,-0.5953510903341948,0.4317927062511444,-0.8511260151863098,-0.2985625863075256,28.10885620117188,-20.76493072509766,-24.79460716247559,1,10.3.35.51,10.83.46.32,1,0
2015-02-27 16:57:11.751,37,1425085022.869836,37.78757783066614,-122.3964055850179,13.11881,-1,-1,10,198.4253335977043,-9999,1425085031.726178,30.17904281616211,-18.93081665039062,-19.40507507324219,339.3852233886719,325.6119689941406,10,136675.9708237083,0.2760009765625,-1.036270141601562,-0.309967041015625,136675.943003375,0.7596477925013632,-0.3184118009876178,-0.1266551477542064,136675.943003375,-2.136992169671183,1.013452172705185,1.033415371936305,0.7554224729537964,-0.3128361105918884,-0.09564529359340668,-0.1344782263040543,-0.1429160982370377,-0.0161102544516325,XTrueNorthZVertical,-0.5777926701299879,0.1754369991660958,0.5508633886500612,-0.5761310918451373,0.4344202280044556,-0.859052300453186,-0.2707549929618835,27.23752784729004,-21.8227424621582,-24.85855102539062,1,10.3.35.51,10.83.46.32,1,0
2015-02-27 16:57:11.801,38,1425085022.869836,37.78757783066614,-122.3964055850179,13.11881,-1,-1,10,198.4253335977043,-9999,1425085031.777441,29.95736694335938,-19.28764343261719,-19.18872833251953,341.0207214355469,327.2474670410156,10,136676.0197477917,0.345306396484375,-0.9928436279296875,-0.2935333251953125,136675.9947857917,0.2173735997588836,0.02582200992940829,0.2460459910030037,136675.9947857917,-2.169824894305487,1.035768865915984,1.049610329271444,0.2131483256816864,0.03139763697981834,0.2770555317401886,-0.1462851017713547,-0.1772806197404861,-0.04697605594992638,XTrueNorthZVertical,-0.5821368706472435,0.1848879380328743,0.5490785915749153,-0.5704785997345893,0.4283285737037659,-0.8672292828559875,-0.2538662254810333,26.99804306030273,-22.47488784790039,-24.53666114807129,1,10.3.35.51,10.83.46.32,1,0
2015-02-27 16:57:11.849,39,1425085022.869836,37.78757783066614,-122.3964055850179,13.11881,-1,-1,10,198.4253335977043,-9999,1425085031.829519,29.63338088989258,-19.84841918945312,-18.67283630371094,340.2993469238281,326.5260925292969,10,136676.068907875,0.4236602783203125,-0.906646728515625,-0.3122711181640625,136676.0465680417,-0.1584258606105247,0.4491559662795319,0.5051393408185236,136676.0465680417,-2.146314512039423,1.02845363877441,1.068238691161922,-0.1626510769128799,0.4547315239906311,0.5361486077308655,-0.02410700544714928,-0.09250331670045853,-0.06300470232963562,XTrueNorthZVertical,-0.5835903083487251,0.1873958615669127,0.5389815591348299,-0.5777577695363911,0.4125500023365021,-0.8763535022735596,-0.2486102879047394,26.84278106689453,-22.85177993774414,-24.35824203491211,1,10.3.35.51,10.83.46.32,1,0
2015-02-27 16:57:11.901,40,1425085022.869836,37.78757783066614,-122.3964055850179,13.11881,-1,-1,10,198.4253335977043,-9999,1425085031.881272,29.22413635253906,-20.25625610351562,-18.33999633789062,337.5519104003906,323.7786560058594,10,136676.117832,0.40802001953125,-0.7993927001953125,-0.3223114013671875,136676.0983512917,-0.307157282220943,0.4813000543206793,0.6244694639944671,136676.0465680417,-2.146314512039423,1.02845363877441,1.068238691161922,-0.1626510769128799,0.4547315239906311,0.5361486077308655,-0.02410700544714928,-0.09250331670045853,-0.06300470232963562,XTrueNorthZVertical,-0.5835903083487251,0.1873958615669127,0.5389815591348299,-0.5777577695363911,0.4125500023365021,-0.8763535022735596,-0.2486102879047394,26.84278106689453,-22.85177993774414,-24.35824203491211,1,10.3.35.51,10.83.46.32,1,0
2015-02-27 16:57:11.947,41,1425085022.869836,37.78757783066614,-122.3964055850179,13.11881,-1,-1,10,198.4253335977043,-9999,1425085031.933404,28.88310241699219,-21.03793334960938,-18.04045867919922,335.232666015625,321.4594116210938,10,136676.1668920833,0.3283843994140625,-0.8805084228515625,-0.3298797607421875,136676.1501339167,-0.2755871053947077,0.3184235188964142,0.4046771813335736,136676.1501339167,-2.029412002791156,0.9679402800482884,1.100964572133214,-0.2798122465610504,0.3239989578723907,0.435685783624649,-0.02986441738903522,0.05277728289365768,-0.0780165046453476,XTrueNorthZVertical,-0.5812240254684548,0.1839252181348115,0.5122435554578129,-0.6049435548233314,0.3729277849197388,-0.8916444778442383,-0.2567003071308136,27.6634635925293,-24.00523948669434,-22.61057090759277,1,10.3.35.51,10.83.46.32,1,0
2015-02-27 16:57:12.001,42,1425085022.869836,37.78757783066614,-122.3964055850179,13.11881,-1,-1,10,198.4253335977043,-9999,1425085031.98515,28.95130920410156,-21.30984497070312,-17.34151458740234,331.5092163085938,317.7359619140625,10,136676.2159092917,0.5442047119140625,-0.9001312255859375,-0.4600982666015625,136676.2019161667,-0.348666642551463,0.6195404854489485,0.4069922672691794,136676.2019161667,-1.971838976036103,0.9391792262881647,1.112273788036457,-0.352891743183136,0.6251158714294434,0.4380005896091461,0.01950947754085064,-0.01085482072085142,-0.1088459864258766,XTrueNorthZVertical,-0.5803511901443592,0.1803295590151127,0.4995877256846942,-0.6173215279468864,0.3572300374507904,-0.8967074155807495,-0.2613475024700165,27.55558013916016,-24.19900321960449,-22.5356330871582,1,10.3.35.51,10.83.46.32,1,0
2015-02-27 16:57:12.045,43,1425085022.869836,37.78757783066614,-122.3964055850179,13.11881,-1,-1,10,198.4253335977043,-9999,1425085032.036909,28.78078842163086,-21.71768188476562,-17.17509460449219,329.6842041015625,315.9109497070312,10,136676.26496,0.44970703125,-0.762725830078125,-0.3765106201171875,136676.2536994167,-0.188549940964847,0.1035772590120158,-0.01083933195273151,136676.2019161667,-1.971838976036103,0.9391792262881647,1.112273788036457,-0.352891743183136,0.6251158714294434,0.4380005896091461,0.01950947754085064,-0.01085482072085142,-0.1088459864258766,XTrueNorthZVertical,-0.5803511901443592,0.1803295590151127,0.4995877256846942,-0.6173215279468864,0.3572300374507904,-0.8967074155807495,-0.2613475024700165,27.55558013916016,-24.19900321960449,-22.5356330871582,1,10.3.35.51,10.83.46.32,1,0
2015-02-27 16:57:12.101,44,1425085022.869836,37.78757783066614,-122.3964055850179,13.11881,-1,-1,10,198.4253335977043,-9999,1425085032.088554,28.93425369262695,-21.25886535644531,-17.35814666748047,329.3968811035156,315.6236267089844,10,136676.313977875,0.2173614501953125,-0.7163848876953125,-0.222625732421875,136676.3054818333,0.004345479950682293,0.09419680670442968,0.0184080357707367,136676.2536994167,-1.932592461384312,0.9262475676676238,1.110334528503497,-0.1927749961614609,0.1091526076197624,0.02016869373619556,0.1757043153047562,0.098758764564991,-0.1150296330451965,XTrueNorthZVertical,-0.5803835368123796,0.1722214953338939,0.4917285160246983,-0.6258576447949656,0.35521000623703,-0.8958473801612854,-0.2669894099235535,27.82802772521973,-24.32935333251953,-22.05538558959961,1,10.3.35.51,10.83.46.32,1,0
2015-02-27 16:57:12.143,45,1425085022.869836,37.78757783066614,-122.3964055850179,13.11881,-1,-1,10,198.4253335977043,-9999,1425085032.088554,28.93425369262695,-21.25886535644531,-17.35814666748047,329.3968811035156,315.6236267089844,10,136676.3630224583,0.2804718017578125,-0.892822265625,-0.2433013916015625,136676.3572644583,0.08437506860421745,0.4660931381802179,0.06025109018584367,136676.3572644583,-1.911960355431117,0.9268615883880044,1.110287982248926,0.08015009760856628,0.4716683626174927,0.0912584662437439,-0.06417796015739441,0.03503263741731644,-0.0296362042427063,XTrueNorthZVertical,-0.5822724918417849,0.1660138554982064,0.4850814055091663,-0.630947060643183,0.3554072082042694,-0.8958266973495483,-0.2667962908744812,27.92960739135742,-24.21962738037109,-22.0477466583252,1,10.3.35.51,10.83.46.32,1,0
2015-02-27 16:57:12.201,46,1425085022.869836,37.78757783066614,-122.3964055850179,13.11881,-1,-1,10,198.4253335977043,-9999,1425085032.19211,29.47991180419922,-21.97257995605469,-17.22502136230469,329.0837707519531,315.3105163574219,10,136676.4120427917,0.34686279296875,-0.89190673828125,-0.282684326171875,136676.3572644583,0.08437506860421745,0.4660931381802179,0.06025109018584367,136676.3572644583,-1.911960355431117,0.9268615883880044,1.110287982248926,0.08015009760856628,0.4716683626174927,0.0912584662437439,-0.06417796015739441,0.03503263741731644,-0.0296362042427063,XTrueNorthZVertical,-0.5822724918417849,0.1660138554982064,0.4850814055091663,-0.630947060643183,0.3554072082042694,-0.8958266973495483,-0.2667962908744812,27.92960739135742,-24.21962738037109,-22.0477466583252,1,10.3.35.51,10.83.46.32,1,0
2015-02-27 16:57:12.241,47,1425085022.869836,37.78757783066614,-122.3964055850179,13.11881,-1,-1,10,198.4253335977043,-9999,1425085032.19211,29.47991180419922,-21.97257995605469,-17.22502136230469,329.0837707519531,315.3105163574219,10,136676.4612250417,0.1357574462890625,-0.903106689453125,-0.1456298828125,136676.4608301667,0.5116811297201943,0.5110281226209068,0.3641521253419468,136676.4090475834,-1.925887748146869,0.9623230700744733,1.120801778805529,0.2309788018465042,0.5228598713874817,0.2230250090360641,0.01943286508321762,0.00503321411088109,0.04567305743694305,XTrueNorthZVertical,-0.5908899783750252,0.1628923830993222,0.4758799695183177,-0.6307561952715744,0.3568946421146393,-0.9004494547843933,-0.2486302107572556,28.46260070800781,-24.62296867370605,-20.88890266418457,1,10.3.35.51,10.83.46.32,1,0
2015-02-27 16:57:12.302,48,1425085022.869836,37.78757783066614,-122.3964055850179,13.11881,-1,-1,10,198.4253335977043,-9999,1425085032.295471,29.82094955444336,-23.46798706054688,-14.69549560546875,325.0627746582031,311.2895202636719,10,136676.5101167917,0.210723876953125,-0.8634185791015625,-0.076568603515625,136676.5126124583,0.3137225069402063,1.342542915034712,0.3031500237287008,136676.4608301667,-1.936504210098554,0.9937539530633824,1.142465245136488,0.5074562430381775,0.5166032314300537,0.3951589167118073,-0.1854405105113983,0.04784379899501801,-0.002607292728498578,XTrueNorthZVertical,-0.5997498008618888,0.1643249447723,0.4632143292714622,-0.6314507045901024,0.3480992019176483,-0.9096602201461792,-0.2265949845314026,28.54054641723633,-25.23785591125488,-20.03108215332031,1,10.3.35.51,10.83.46.32,1,0
2015-02-27 16:57:12.339,49,1425085022.869836,37.78757783066614,-122.3964055850179,13.11881,-1,-1,10,198.4253335977043,-9999,1425085032.295471,29.82094955444336,-23.46798706054688,-14.69549560546875,325.0627746582031,311.2895202636719,10,136676.5591667917,0.349761962890625,-1.254241943359375,-0.42169189453125,136676.5126124583,0.3137225069402063,1.342542915034712,0.3031500237287008,136676.5126124583,-1.96486915736479,1.067588573491267,1.175709137905464,0.3094976544380188,1.34811794757843,0.3341564834117889,-0.126454085111618,0.05954442918300629,0.1090394034981728,XTrueNorthZVertical,-0.6171697371919936,0.1621650723549789,0.4393073636901407,-0.6323077283159922,0.337177962064743,-0.92296302318573,-0.1856080144643784,28.54935836791992,-25.96543121337891,-19.06533050537109,1,10.3.35.51,10.83.46.32,1,0
2015-02-27 16:57:12.404,50,1425085022.869836,37.78757783066614,-122.3964055850179,13.11881,-1,-1,10,198.4253335977043,-9999,1425085032.350617,30.3836555480957,-24.19869995117188,-12.68186187744141,322.0953674316406,308.3221130371094,10,136676.608193125,0.6636962890625,-1.158416748046875,-0.1239471435546875,136676.5643957084,-0.3748188844560412,1.845401258379583,0.06172754669418361,136676.5643957084,-1.964479015797197,1.145960793291679,1.180220320022195,-0.3790436983108521,1.850976347923279,0.0927337110042572,0.002884438959881663,-0.32955202460289,-0.2647697031497955,XTrueNorthZVertical,-0.6342429772976276,0.1388335305386116,0.4132271022772563,-0.6385174052196302,0.3468775153160095,-0.9246898889541626,-0.1569221913814545,29.91167640686035,-26.76161003112793,-15.55198669433594,1,10.3.35.51,10.83.46.32,1,0
2015-02-27 16:57:12.437,51,1425085022.869836,37.78757783066614,-122.3964055850179,13.11881,-1,-1,10,198.4253335977043,-9999,1425085032.426192,31.06573486328125,-24.53857421875,-10.58501434326172,315.9882507324219,302.2149963378906,10,136676.6572442084,0.1374053955078125,-0.8873443603515625,0.631439208984375,136676.6679607083,0.2876448335461504,0.2089071443374127,0.5128505237548481,136676.6161781667,-1.838103960919383,1.105924092418705,1.180758127240682,-0.587674617767334,0.6617871522903442,0.4692972004413605,0.3238222897052765,-0.2335222065448761,0.04651045054197311,XTrueNorthZVertical,-0.6342202060250223,0.111963985593915,0.384681764900611,-0.6612478765413897,0.3398739993572235,-0.9248945116996765,-0.17045758664608,30.61229133605957,-26.71012115478516,-14.22018432617188,1,10.3.35.51,10.83.46.32,1,0
2015-02-27 16:57:12.503,52,1425085022.869836,37.78757783066614,-122.3964055850179,13.11881,-1,-1,10,198.4253335977043,-9999,1425085032.477893,30.7588005065918,-25.28628540039062,-9.653083801269531,312.6757202148438,298.9024658203125,10,136676.7062724583,0.25372314453125,-0.9033203125,-0.0586700439453125,136676.6679607083,0.2876448335461504,0.2089071443374127,0.5128505237548481,136676.6679607083,-1.825460245595848,1.08122653658401,1.213843625863121,0.2834201157093048,0.2144820392131805,0.5438560247421265,-0.2556264400482178,0.1130523905158043,0.7003703117370605,XTrueNorthZVertical,-0.6335384674157289,0.1283437767123581,0.3776798557990135,-0.6629591466187157,0.3083760738372803,-0.9369659423828125,-0.1643137633800507,30.21863555908203,-27.10502624511719,-14.31460952758789,1,10.3.35.51,10.83.46.32,1,0
2015-02-27 16:57:12.536,53,1425085022.869836,37.78757783066614,-122.3964055850179,13.11881,-1,-1,10,198.4253335977043,-9999,1425085032.529678,30.60533142089844,-26.11894226074219,-7.938995361328125,310.2901611328125,296.5169067382812,10,136676.7554318333,0.3278656005859375,-0.9351806640625,-0.0721588134765625,136676.719743875,0.1679890057688903,2.06308804588266,0.1800254286316124,136676.719743875,-1.831422128290916,1.161280971719775,1.224972171387699,0.1638375520706177,2.068526983261108,0.2109295576810837,-0.02053863741457462,-0.04939219355583191,0.04986853152513504,XTrueNorthZVertical,-0.6487759822823311,0.107732654673382,0.3503766515361026,-0.6668730165983719,0.3109439015388489,-0.940796434879303,-0.1349668055772781,30.18478775024414,-28.1766300201416,-12.15371131896973,1,10.3.35.51,10.83.46.32,1,0
2015-02-27 16:57:12.600,54,1425085022.869836,37.78757783066614,-122.3964055850179,13.11881,-1,-1,10,198.4253335977043,-9999,1425085032.580704,30.2642936706543,-27.10453796386719,-5.908714294433594,306.0046997070312,292.2314453125,10,136676.804344625,0.281280517578125,-0.9842681884765625,0.049163818359375,136676.7715264167,0.01577523471708437,1.508655723815642,0.774097039311697,136676.7715264167,-1.805606393335283,1.22531471865853,1.255729721534253,0.01162382494658232,1.514094591140747,0.805000901222229,0.06159485876560211,0.003189681796357036,0.03508603572845459,XTrueNorthZVertical,-0.6630258940353558,0.08902964965667264,0.3105555020514816,-0.6752967375489246,0.2915698289871216,-0.9507757425308228,-0.1049407720565796,30.38416290283203,-28.97063827514648,-9.500589370727539,1,10.3.35.51,10.83.46.32,1,0
2015-02-27 16:57:12.634,55,1425085022.869836,37.78757783066614,-122.3964055850179,13.11881,-1,-1,10,198.4253335977043,-9999,1425085032.580704,30.2642936706543,-27.10453796386719,-5.908714294433594,306.0046997070312,292.2314453125,10,136676.8534844583,0.18475341796875,-0.986114501953125,0.1241912841796875,136676.82330875,-0.1144858331530893,1.105087216443868,0.6144924636027033,136676.82330875,-1.759206740056314,1.241785986510652,1.288211681473813,-0.1186371967196465,1.110526084899902,0.6453959941864014,-0.01430982165038586,-0.03740375116467476,0.164710134267807,XTrueNorthZVertical,-0.6697683587722357,0.07976854507099768,0.2784300150120883,-0.6837573179302816,0.263882577419281,-0.9603379368782043,-0.09009464830160141,30.08112907409668,-29.67291259765625,-8.209772109985352,1,10.3.35.51,10.83.46.32,1,0
2015-02-27 16:57:12.701,56,1425085022.869836,37.78757783066614,-122.3964055850179,13.11881,-1,-1,10,198.4253335977043,-9999,1425085032.685113,28.900146484375,-29.21171569824219,-2.513824462890625,294.6199340820312,280.8466796875,10,136676.9024767083,0.1236724853515625,-1.103485107421875,0.2296905517578125,136676.875092125,-0.2348758944428844,1.333863939358253,0.8535750873034768,136676.875092125,-1.680577275882734,1.226510702418162,1.321228463087152,-0.2390272170305252,1.339302778244019,0.8844783306121826,-0.06981746852397919,-0.08124320954084396,0.2157335430383682,XTrueNorthZVertical,-0.6733089898007452,0.07052114941891159,0.2453261707882153,-0.6938997477608482,0.2324914187192917,-0.9690192341804504,-0.08336354047060013,29.06578063964844,-31.1920051574707,-5.915731906890869,1,10.3.35.51,10.83.46.32,1,0
2015-02-27 16:57:12.731,57,1425085022.869836,37.78757783066614,-122.3964055850179,13.11881,-1,-1,10,198.4253335977043,-9999,1425085032.685113,28.900146484375,-29.21171569824219,-2.513824462890625,294.6199340820312,280.8466796875,10,136676.9514771667,-0.0112152099609375,-1.082427978515625,0.270263671875,136676.9268744584,-0.1276394520930997,1.720265710343376,1.351259707598651,136676.9268744584,-1.54858637232793,1.173835741857165,1.367511083070399,-0.1317907422780991,1.725704550743103,1.382162570953369,-0.1333481520414352,-0.1235119178891182,0.3363083899021149,XTrueNorthZVertical,-0.6762167649244504,0.06086210681340021,0.20121905573187,-0.7060719514877797,0.1861893385648727,-0.9794086217880249,-0.07805338501930237,27.97686195373535,-32.41648101806641,-4.384453773498535,1,10.3.35.51,10.83.46.32,1,0
2015-02-27 16:57:12.805,58,1425085022.869836,37.78757783066614,-122.3964055850179,13.11881,-1,-1,10,198.4253335977043,-9999,1425085032.793319,25.16579818725586,-31.60775756835938,1.530082702636719,279.9178771972656,266.1446228027344,10,136677.0004911667,-0.0207366943359375,-0.9784698486328125,0.3262786865234375,136676.9786570417,-0.03525732335545002,2.112501402012426,1.715494657250499,136676.9786570417,-1.29204417841229,1.020144771594055,1.439392996392963,-0.03940856829285622,2.117940187454224,1.746397256851196,-0.08144551515579224,-0.03486612066626549,0.3151096999645233,XTrueNorthZVertical,-0.6803654749191128,0.05313873346387933,0.1381179336166025,-0.7177761142831844,0.1116579174995422,-0.9913790225982666,-0.06855819374322891,26.70292091369629,-33.62451171875,-3.017095327377319,1,10.3.35.51,10.83.46.32,1,0
2015-02-27 16:57:12.829,59,1425085022.869836,37.78757783066614,-122.3964055850179,13.11881,-1,-1,10,198.4253335977043,-9999,1425085032.793319,25.16579818725586,-31.60775756835938,1.530082702636719,279.9178771972656,266.1446228027344,10,136677.049634125,-0.0051422119140625,-1.129379272460938,0.2191619873046875,136677.0304402083,-0.04252562260249428,2.698733199075535,1.73740474985469,136677.0304402083,-0.6382751010155256,0.485552259146008,1.504502362167804,-0.04667682200670242,2.704171657562256,1.768306970596313,-0.08999867737293243,-0.05804380774497986,0.379053920507431,XTrueNorthZVertical,-0.6848279619763904,0.04142764820666717,0.06639950090878631,-0.7244898460409467,0.03091664798557758,-0.9978033304214478,-0.05858882516622543,22.23602294921875,-36.84199142456055,0.9916439056396484,1,10.3.35.51,10.83.46.32,1,0
2015-02-27 16:57:12.872,60,1425085022.869836,37.78757783066614,-122.3964055850179,13.11881,-1,-1,10,198.4253335977043,-9999,1425085032.86598,19.86268615722656,-33.83389282226562,5.074760437011719,263.0076293945312,249.234375,10,136677.0985585417,-0.0753936767578125,-1.1693115234375,0.081207275390625,136677.0822227917,-0.389534713691492,2.35492070024296,1.204824996112317,136677.0304402083,-0.6382751010155256,0.485552259146008,1.504502362167804,-0.04667682200670242,2.704171657562256,1.768306970596313,-0.08999867737293243,-0.05804380774497986,0.379053920507431,XTrueNorthZVertical,-0.6848279619763904,0.04142764820666717,0.06639950090878631,-0.7244898460409467,0.03091664798557758,-0.9978033304214478,-0.05858882516622543,22.23602294921875,-36.84199142456055,0.9916439056396484,1,10.3.35.51,10.83.46.32,1,0
2015-02-27 16:57:12.928,61,1425085022.869836,37.78757783066614,-122.3964055850179,13.11881,-1,-1,10,198.4253335977043,-9999,1425085032.918809,16.09423828125,-35.00639343261719,6.023330688476562,251.8750305175781,238.1017761230469,10,136677.1476087917,-0.153717041015625,-1.31304931640625,0.0508575439453125,136677.134005125,-0.8712249211118679,3.059332667523317,1.838654139757867,136677.134005125,0.8463326579915315,-0.7280082791090775,1.421151810249098,-0.8753760457038879,3.064771175384521,1.869555830955505,-0.07619982957839966,-0.2666079998016357,0.1237445920705795,XTrueNorthZVertical,-0.6665847472293166,-0.004250160965412013,-0.07913504646714037,-0.7412046772597173,-0.09919995069503784,-0.9888241291046143,-0.1112934201955795,17.59687232971191,-39.08212661743164,3.961572408676147,1,10.3.35.51,10.83.46.32,1,0
2015-02-27 16:57:13.004,62,1425085022.869836,37.78757783066614,-122.3964055850179,13.11881,-1,-1,10,198.4253335977043,-9999,1425085032.96963,11.45614624023438,-35.75410461425781,6.089897155761719,240.5321044921875,226.7588500976562,10,136677.196634,0.00628662109375,-1.225540161132812,-0.4583282470703125,136677.1857883333,-0.835230967398902,4.069443037379471,2.555578436787743,136677.134005125,0.8463326579915315,-0.7280082791090775,1.421151810249098,-0.8753760457038879,3.064771175384521,1.869555830955505,-0.07619982957839966,-0.2666079998016357,0.1237445920705795,XTrueNorthZVertical,-0.6665847472293166,-0.004250160965412013,-0.07913504646714037,-0.7412046772597173,-0.09919995069503784,-0.9888241291046143,-0.1112934201955795,17.59687232971191,-39.08212661743164,3.961572408676147,1,10.3.35.51,10.83.46.32,1,0
2015-02-27 16:57:13.026,63,1425085022.869836,37.78757783066614,-122.3964055850179,13.11881,-1,-1,10,198.4253335977043,-9999,1425085032.96963,11.45614624023438,-35.75410461425781,6.089897155761719,240.5321044921875,226.7588500976562,10,136677.2456762917,0.4483184814453125,-0.8184967041015625,-0.481292724609375,136677.2375708333,-1.027728245731464,1.899543855973112,1.385045900767941,136677.2375708333,1.173851903265047,-0.6930587145693533,1.180710055890295,-1.031879186630249,1.904982328414917,1.415946960449219,0.8611606359481812,0.1778212040662766,-0.2572813332080841,XTrueNorthZVertical,-0.5922020402931375,-0.05502212921379216,-0.275300710534461,-0.7553005003484963,-0.2429507970809937,-0.9248762726783752,-0.2925386130809784,5.591977119445801,-41.76840972900391,2.776251792907715,1,10.3.35.51,10.83.46.32,1,0
2015-02-27 16:57:13.071,64,1425085022.869836,37.78757783066614,-122.3964055850179,13.11881,-1,-1,10,198.4253335977043,-9999,1425085033.022296,6.442916870117188,-36.26388549804688,4.725288391113281,228.4494323730469,214.6761779785156,10,136677.2946936667,0.612945556640625,-0.588958740234375,-0.4546356201171875,136677.289353375,-0.9832025891503207,-0.7817773295793765,-0.928934024037231,136677.2375708333,1.173851903265047,-0.6930587145693533,1.180710055890295,-1.031879186630249,1.904982328414917,1.415946960449219,0.8611606359481812,0.1778212040662766,-0.2572813332080841,XTrueNorthZVertical,-0.5922020402931375,-0.05502212921379216,-0.275300710534461,-0.7553005003484963,-0.2429507970809937,-0.9248762726783752,-0.2925386130809784,5.591977119445801,-41.76840972900391,2.776251792907715,1,10.3.35.51,10.83.46.32,1,0
2015-02-27 16:57:13.125,65,1425085022.869836,37.78757783066614,-122.3964055850179,13.11881,-1,-1,10,198.4253335977043,-9999,1425085033.074827,3.20306396484375,-36.603759765625,2.561874389648438,218.5321655273438,204.7589111328125,10,136677.343866125,-1.110595703125,-1.2178955078125,-0.05694580078125,136677.3411365,0.6157388229928603,-2.974045466245747,1.006059435522035,136677.289353375,1.086297636935913,-0.6126763567350959,1.126693453878622,-0.9873535633087158,-0.7763389348983765,-0.8980333209037781,0.8831508755683899,0.3283504843711853,-0.2414411604404449,XTrueNorthZVertical,-0.5676585130308964,-0.04487486558339455,-0.2787586013114211,-0.7733328646161144,-0.2470729649066925,-0.9029964804649353,-0.3515001237392426,4.140297889709473,-42.00414657592773,1.444884300231934,1,10.3.35.51,10.83.46.32,1,0
2015-02-27 16:57:13.174,66,1425085022.869836,37.78757783066614,-122.3964055850179,13.11881,-1,-1,10,198.4253335977043,-9999,1425085033.125848,2.640350341796875,-36.79067993164062,1.080772399902344,219.9792938232422,206.2060394287109,10,136677.3927857083,-0.4816131591796875,-0.93280029296875,0.119110107421875,136677.3411365,0.6157388229928603,-2.974045466245747,1.006059435522035,136677.3411365,1.072710045543557,-0.7112350426468416,1.136659509712415,0.6115878820419312,-2.968607187271118,1.036959886550903,-0.3342069685459137,-0.1667869240045547,0.2832180559635162,XTrueNorthZVertical,-0.5836473241693761,-0.005595705593473082,-0.2426508126506014,-0.7748839206402998,-0.2745729386806488,-0.9072334766387939,-0.3186489641666412,4.595884323120117,-41.60464477539062,-1.06379222869873,1,10.3.35.51,10.83.46.32,1,0
2015-02-27 16:57:13.222,67,1425085022.869836,37.78757783066614,-122.3964055850179,13.11881,-1,-1,10,198.4253335977043,-9999,1425085033.178051,1.105682373046875,-36.89262390136719,1.014205932617188,221.4440307617188,207.6707763671875,10,136677.44194625,0.81683349609375,-0.382293701171875,-0.92218017578125,136677.4447014167,0.6989327796536277,0.03418966207443726,0.5336479476556039,136677.3929191667,1.238963731650966,-0.8279981588697379,1.077960118286938,0.2426679879426956,3.988367080688477,1.78429388999939,-0.1331181675195694,-0.0518057756125927,0.4391099810600281,XTrueNorthZVertical,-0.583036726994007,0.00826052543020498,-0.2880998065886855,-0.759604145866343,-0.3484950065612793,-0.8809944987297058,-0.3199998736381531,1.214663505554199,-41.84823608398438,-0.6709423065185547,1,10.3.35.51,10.83.46.32,1,0
2015-02-27 16:57:13.260,68,1425085022.869836,37.78757783066614,-122.3964055850179,13.11881,-1,-1,10,198.4253335977043,-9999,1425085033.229241,-1.5885009765625,-36.58674621582031,1.513458251953125,210.520263671875,196.7470092773438,10,136677.49085925,-0.3985595703125,-0.8744049072265625,-0.334259033203125,136677.4447014167,0.6989327796536277,0.03418966207443726,0.5336479476556039,136677.4447014167,1.328405861022612,-0.7609379918017635,1.052099119153274,0.6947806477546692,0.03962777554988861,0.5645456910133362,1.158702611923218,0.486172080039978,-0.5631638765335083,XTrueNorthZVertical,-0.5650668531693744,-0.03451505279812022,-0.348143115876519,-0.747197799598897,-0.3418691158294678,-0.868465781211853,-0.3590163290500641,-0.6055574417114258,-41.86513900756836,-0.3790464401245117,1,10.3.35.51,10.83.46.32,1,0
2015-02-27 16:57:13.321,69,1425085022.869836,37.78757783066614,-122.3964055850179,13.11881,-1,-1,10,198.4253335977043,-9999,1425085033.280569,-3.191368103027344,-36.11093139648438,2.74493408203125,207.2153930664062,193.442138671875,10,136677.5399544583,-0.960113525390625,-0.747528076171875,-0.026397705078125,136677.5482672917,0.9551778786833078,-0.2563681370720418,0.9209413449736852,136677.4964847083,1.414273901273261,-0.947073862561861,1.082452333074888,0.9168059825897217,-2.592376232147217,-0.1840662360191345,-0.01773438788950443,0.008706100285053253,-0.06023867800831795,XTrueNorthZVertical,-0.6024859296549099,-0.0007260232428830636,-0.3169275814468486,-0.7325074087368688,-0.3808251917362213,-0.8831110000610352,-0.2740203440189362,-1.672911643981934,-41.78797149658203,2.041276931762695,1,10.3.35.51,10.83.46.32,1,0
2015-02-27 16:57:13.360,70,1425085022.869836,37.78757783066614,-122.3964055850179,13.11881,-1,-1,10,198.4253335977043,-9999,1425085033.33317,-3.413040161132812,-35.58415222167969,4.891700744628906,209.4791107177734,195.7058563232422,10,136677.588921625,-0.4975128173828125,-0.7472076416015625,-0.200439453125,136677.5482672917,0.9551778786833078,-0.2563681370720418,0.9209413449736852,136677.5482672917,1.517739118824736,-1.110829793894383,1.091694891232443,0.9510257840156555,-0.25093013048172,0.951838493347168,-0.5470426082611084,0.139881432056427,0.1782405525445938,XTrueNorthZVertical,-0.6301818178874904,0.02348926697175139,-0.301077073511955,-0.7153123407467997,-0.4130709171295166,-0.887409508228302,-0.2046382576227188,-2.585233688354492,-41.47869873046875,3.427378177642822,1,10.3.35.51,10.83.46.32,1,0
2015-02-27 16:57:13.419,71,1425085022.869836,37.78757783066614,-122.3964055850179,13.11881,-1,-1,10,198.4253335977043,-9999,1425085033.384542,-4.862449645996094,-34.58154296875,7.238174438476562,207.0477600097656,193.2745056152344,10,136677.6379565417,-0.36676025390625,-0.9240875244140625,-0.3246612548828125,136677.6000495833,1.130978202245509,0.3551596956051852,1.319855978340545,136677.6000495833,1.657925833578353,-1.213468369114227,1.052098260723527,1.126826167106628,0.3605976402759552,1.350752711296082,-0.04168302565813065,0.1795767992734909,-0.05084361881017685,XTrueNorthZVertical,-0.642227672052363,0.029048997830409,-0.3303233631209576,-0.691076165867231,-0.4644357562065125,-0.8684653639793396,-0.1733995527029037,-3.91120433807373,-41.2687873840332,4.527980327606201,1,10.3.35.51,10.83.46.32,1,0
2015-02-27 16:57:13.458,72,1425085022.869836,37.78757783066614,-122.3964055850179,13.11881,-1,-1,10,198.4253335977043,-9999,1425085033.43678,-7.130340576171875,-33.61294555664062,8.918983459472656,201.2785339355469,187.5052795410156,10,136677.687077875,-0.09283447265625,-0.631317138671875,-0.31732177734375,136677.6518330833,0.7657757261696354,0.2011560139847371,1.060186320465132,136677.6518330833,1.796964679456118,-1.318545160862928,1.009086502195432,0.761623740196228,0.2065939009189606,1.091082811355591,0.2499239593744278,-0.07436969131231308,-0.22468301653862,XTrueNorthZVertical,-0.6574999329324451,0.03500322711591115,-0.3569511689548876,-0.6626118724751937,-0.5157778263092041,-0.8463456630706787,-0.1329372227191925,-8.026556015014648,-40.20218658447266,7.633567333221436,1,10.3.35.51,10.83.46.32,1,0
2015-02-27 16:57:13.516,73,1425085022.869836,37.78757783066614,-122.3964055850179,13.11881,-1,-1,10,198.4253335977043,-9999,1425085033.487879,-9.330024719238281,-32.20248413085938,10.69963836669922,195.6056518554688,181.8323974609375,10,136677.736005625,-0.09716796875,-0.423675537109375,-0.218719482421875,136677.7036153333,0.2649019704690918,-0.4353916845015664,1.047797295074083,136677.7036153333,1.858379008638139,-1.371135530727183,0.9607615459167187,0.260750025510788,-0.4299538433551788,1.078693509101868,0.5127019286155701,0.2031730115413666,-0.1915188580751419,XTrueNorthZVertical,-0.6638835392020106,0.04945144121245631,-0.3748404045312952,-0.6452192578864023,-0.5615147948265076,-0.819628119468689,-0.1136264055967331,-10.02080249786377,-39.56951904296875,8.529335975646973,1,10.3.35.51,10.83.46.32,1,0
2015-02-27 16:57:13.555,74,1425085022.869836,37.78757783066614,-122.3964055850179,13.11881,-1,-1,10,198.4253335977043,-9999,1425085033.540593,-11.20572662353516,-31.62472534179688,11.83126831054688,192.2347717285156,178.4615173339844,10,136677.7851355,-0.3525390625,-0.9439239501953125,0.037689208984375,136677.75539775,-0.1049804785903785,-1.182911974030927,1.242251197859527,136677.75539775,1.877140661007269,-1.429791147810346,0.9039829265140945,-0.1091461032629013,-1.177547574043274,1.273056387901306,0.4853174090385437,0.3497766256332397,-0.09948046505451202,XTrueNorthZVertical,-0.6706325224974257,0.08241096666817468,-0.3788296563166211,-0.6324148655073099,-0.6123468279838562,-0.7857965230941772,-0.08692090213298798,-11.15666675567627,-39.17404937744141,8.93505859375,1,10.3.35.51,10.83.46.32,1,0
2015-02-27 16:57:13.614,75,1425085022.869836,37.78757783066614,-122.3964055850179,13.11881,-1,-1,10,198.4253335977043,-9999,1425085033.593901,-12.24589538574219,-30.99600219726562,12.84641265869141,190.9593658447266,177.1861114501953,10,136677.8340695833,-0.8149566650390625,-1.475799560546875,0.3448486328125,136677.8071810833,0.08864731162492256,-3.61664679620591,0.2269178364735096,136677.8071810833,1.892031854993063,-1.558257193629536,0.8587918782966171,0.08448173105716705,-3.611282348632812,0.2577227354049683,0.09092329442501068,-0.8726459145545959,0.3662702739238739,XTrueNorthZVertical,-0.6914493328549578,0.1334229736515009,-0.3536132190049912,-0.6156734847460901,-0.6533012390136719,-0.7570537924766541,-0.008192260749638081,-13.02023601531982,-38.14845275878906,10.68090629577637,1,10.3.35.51,10.83.46.32,1,0
2015-02-27 16:57:13.654,76,1425085022.869836,37.78757783066614,-122.3964055850179,13.11881,-1,-1,10,198.4253335977043,-9999,1425085033.644036,-11.41036224365234,-30.94502258300781,14.36080932617188,195.3209381103516,181.5476837158203,10,136677.883200375,-0.397857666015625,-1.08172607421875,0.0671539306640625,136677.8589636667,-0.6608527718588026,-1.252311022561193,-0.6937864871631585,136677.8589636667,1.84845511206797,-1.67707176090288,0.8883566248808719,-0.6650183200836182,-1.246946692466736,-0.6629818677902222,-0.1569734662771225,-0.3879803717136383,0.02219550497829914,XTrueNorthZVertical,-0.7090406220799262,0.1752474780303853,-0.2893073617451835,-0.6187495344665592,-0.6271299123764038,-0.7760363221168518,0.06690056622028351,-10.51555824279785,-38.62973785400391,11.66530990600586,1,10.3.35.51,10.83.46.32,1,0
2015-02-27 16:57:13.712,77,1425085022.869836,37.78757783066614,-122.3964055850179,13.11881,-1,-1,10,198.4253335977043,-9999,1425085033.695749,-10.25083160400391,-31.45480346679688,14.42737579345703,201.6276397705078,187.8543853759766,10,136677.932142875,0.0663909912109375,-0.873382568359375,-0.202667236328125,136677.9107459583,-1.020200021962028,1.328462249719245,-0.08185784874187456,136677.9107459583,1.788578980116062,-1.59313394720793,0.9005620369315468,-1.024365544319153,1.333826541900635,-0.05105351656675339,0.5029574036598206,-0.2478485107421875,-0.1103861406445503,XTrueNorthZVertical,-0.6924390581344688,0.1657265810360845,-0.2960316165733279,-0.6367324017002461,-0.6210146546363831,-0.7836761474609375,0.01387429796159267,-9.749905586242676,-38.99605560302734,11.09774398803711,1,10.3.35.51,10.83.46.32,1,0
2015-02-27 16:57:13.751,78,1425085022.869836,37.78757783066614,-122.3964055850179,13.11881,-1,-1,10,198.4253335977043,-9999,1425085033.747848,-9.756332397460938,-32.9332275390625,13.04611206054688,202.0881805419922,188.3149261474609,10,136677.9811775833,-0.0904998779296875,-0.8832244873046875,-0.0767822265625,136677.9625294167,-0.8977625224261805,-0.4732937931355741,-0.7081345338520695,136677.9107459583,1.788578980116062,-1.59313394720793,0.9005620369315468,-1.024365544319153,1.333826541900635,-0.05105351656675339,0.5029574036598206,-0.2478485107421875,-0.1103861406445503,XTrueNorthZVertical,-0.6924390581344688,0.1657265810360845,-0.2960316165733279,-0.6367324017002461,-0.6210146546363831,-0.7836761474609375,0.01387429796159267,-9.749905586242676,-38.99605560302734,11.09774398803711,1,10.3.35.51,10.83.46.32,1,0
2015-02-27 16:57:13.811,79,1425085022.869836,37.78757783066614,-122.3964055850179,13.11881,-1,-1,10,198.4253335977043,-9999,1425085033.799403,-8.784385681152344,-33.90182495117188,11.16561126708984,206.3239898681641,192.5507354736328,10,136678.0302270833,-0.4770965576171875,-0.8964385986328125,0.1222076416015625,136678.0143117083,-0.7948116389025514,-1.456636997191451,-0.8841015712985101,136678.0143117083,1.630492878840686,-1.507815201618177,0.9581682595052481,-0.7989770174026489,-1.45127284526825,-0.8532978892326355,0.2986415028572083,-0.1146606355905533,0.1082129254937172,XTrueNorthZVertical,-0.6725739542372335,0.1718969286023523,-0.2545533885073453,-0.6732743220235274,-0.5738795399665833,-0.8181396722793579,-0.03619144484400749,-8.612760543823242,-39.41741180419922,6.62060022354126,1,10.3.35.51,10.83.46.32,1,0
2015-02-27 16:57:13.850,80,1425085022.869836,37.78757783066614,-122.3964055850179,13.11881,-1,-1,10,198.4253335977043,-9999,1425085033.799403,-8.784385681152344,-33.90182495117188,11.16561126708984,206.3239898681641,192.5507354736328,10,136678.07930875,-0.5190887451171875,-0.6826019287109375,0.046112060546875,136678.0660943333,-0.9001353989574411,0.126908680689982,-0.574051030869305,136678.0660943333,1.555277169111159,-1.483597694493575,0.9900279996111064,-0.9043007493019104,0.1322728097438812,-0.5432476401329041,-0.08340773731470108,0.08826912194490433,0.1630167365074158,XTrueNorthZVertical,-0.6666744336454496,0.1779157649605632,-0.2264684295197675,-0.6874614526000054,-0.5465818643569946,-0.8360413312911987,-0.04778236150741577,-7.388772010803223,-39.76033020019531,6.022157669067383,1,10.3.35.51,10.83.46.32,1,0
2015-02-27 16:57:13.910,81,1425085022.869836,37.78757783066614,-122.3964055850179,13.11881,-1,-1,10,198.4253335977043,-9999,1425085033.903111,-5.356971740722656,-35.65214538574219,8.020347595214844,216.9086151123047,203.1353607177734,10,136678.1282954583,-0.2891082763671875,-0.8160858154296875,-0.0987701416015625,136678.1178774583,-0.9106932347829513,1.260371345916426,-0.4399592720871613,136678.0660943333,1.555277169111159,-1.483597694493575,0.9900279996111064,-0.9043007493019104,0.1322728097438812,-0.5432476401329041,-0.08340773731470108,0.08826912194490433,0.1630167365074158,XTrueNorthZVertical,-0.6666744336454496,0.1779157649605632,-0.2264684295197675,-0.6874614526000054,-0.5465818643569946,-0.8360413312911987,-0.04778236150741577,-7.388772010803223,-39.76033020019531,6.022157669067383,1,10.3.35.51,10.83.46.32,1,0
2015-02-27 16:57:13.947,82,1425085022.869836,37.78757783066614,-122.3964055850179,13.11881,-1,-1,10,198.4253335977043,-9999,1425085033.903111,-5.356971740722656,-35.65214538574219,8.020347595214844,216.9086151123047,203.1353607177734,10,136678.1773225833,-0.2067108154296875,-0.741119384765625,-0.142730712890625,136678.16966,-0.5613011471505507,-0.2589335601501151,-0.6517663325355613,136678.1178774583,1.465079808970306,-1.353664481197153,1.004281017850388,-0.9148585796356201,1.265735387802124,-0.4091561734676361,0.211791455745697,0.1071277484297752,0.07121697813272476,XTrueNorthZVertical,-0.6461122156942757,0.1572544986354769,-0.2328584355412229,-0.7096386366770594,-0.5240930914878845,-0.8437762856483459,-0.1156200543045998,-5.981416702270508,-40.32437133789062,3.148350954055786,1,10.3.35.51,10.83.46.32,1,0
2015-02-27 16:57:14.014,83,1425085022.869836,37.78757783066614,-122.3964055850179,13.11881,-1,-1,10,198.4253335977043,-9999,1425085033.955036,-4.606689453125,-36.53579711914062,6.223045349121094,217.4919738769531,203.7187194824219,10,136678.2263707917,-0.62335205078125,-0.7655029296875,-0.07550048828125,136678.2214423333,-0.5540933016602512,-1.223889767407867,-0.5540267226329992,136678.2214423333,1.321446433120693,-1.25230198793987,1.033503551980813,-0.5582585334777832,-1.218525767326355,-0.5232242941856384,-0.05418062582612038,0.09873670339584351,0.05438656732439995,XTrueNorthZVertical,-0.6287613715277842,0.1566061490640502,-0.2037355429514172,-0.7339110971815065,-0.4860720634460449,-0.859097421169281,-0.1602673083543777,-4.415332794189453,-40.63778686523438,0.9052009582519531,1,10.3.35.51,10.83.46.32,1,0
2015-02-27 16:57:14.046,84,1425085022.869836,37.78757783066614,-122.3964055850179,13.11881,-1,-1,10,198.4253335977043,-9999,1425085034.014114,-4.095130920410156,-36.94364929199219,4.958274841308594,219.5532531738281,205.7799987792969,10,136678.2754032083,-0.511444091796875,-0.9888458251953125,-0.1004486083984375,136678.2214423333,-0.5540933016602512,-1.223889767407867,-0.5540267226329992,136678.2214423333,1.321446433120693,-1.25230198793987,1.033503551980813,-0.5582585334777832,-1.218525767326355,-0.5232242941856384,-0.05418062582612038,0.09873670339584351,0.05438656732439995,XTrueNorthZVertical,-0.6287613715277842,0.1566061490640502,-0.2037355429514172,-0.7339110971815065,-0.4860720634460449,-0.859097421169281,-0.1602673083543777,-4.415332794189453,-40.63778686523438,0.9052009582519531,1,10.3.35.51,10.83.46.32,1,0
2015-02-27 16:57:14.114,85,1425085022.869836,37.78757783066614,-122.3964055850179,13.11881,-1,-1,10,198.4253335977043,-9999,1425085034.084589,-2.765090942382812,-37.52143859863281,3.127700805664062,225.8808898925781,212.1076354980469,10,136678.3244397083,-0.4679412841796875,-0.8742218017578125,-0.0435791015625,136678.3250080833,-0.5669015086068783,-1.148255726133508,-0.657439398289648,136678.2732255833,1.241790290908475,-1.226235474515174,1.054761294921011,-0.6783015727996826,-0.4728982746601105,-0.5589569807052612,-0.1157364994287491,-0.0594014935195446,0.06769050657749176,XTrueNorthZVertical,-0.6240561872209058,0.1649749640103065,-0.1756096838537743,-0.7433023568211827,-0.4644331932067871,-0.8697824478149414,-0.1666742712259293,-2.705107688903809,-40.79312133789062,-0.5896873474121094,1,10.3.35.51,10.83.46.32,1,0
2015-02-27 16:57:14.144,86,1425085022.869836,37.78757783066614,-122.3964055850179,13.11881,-1,-1,10,198.4253335977043,-9999,1425085034.135506,-1.332740783691406,-38.09921264648438,1.796379089355469,230.0342254638672,216.2609710693359,10,136678.3734706667,-0.47515869140625,-0.8517608642578125,-0.175994873046875,136678.3767906667,-0.4052023567005372,-0.6659119789816261,-0.5157815988505893,136678.3250080833,1.16275144311444,-1.197656815930749,1.067615957562183,-0.571063756942749,-1.142891407012939,-0.6266380548477173,-0.01890949159860611,0.001831574249081314,0.1322075873613358,XTrueNorthZVertical,-0.6177201092922716,0.1747241268465907,-0.1508205534881312,-0.7517622795786033,-0.449031800031662,-0.8760533928871155,-0.1757866889238358,-1.826220512390137,-40.80899429321289,-1.74213171005249,1,10.3.35.51,10.83.46.32,1,0
2015-02-27 16:57:14.207,87,1425085022.869836,37.78757783066614,-122.3964055850179,13.11881,-1,-1,10,198.4253335977043,-9999,1425085034.188681,-0.1050033569335938,-38.47305297851562,1.163993835449219,234.31689453125,220.5436401367188,10,136678.42251275,-0.4602508544921875,-0.87188720703125,-0.115234375,136678.3767906667,-0.4052023567005372,-0.6659119789816261,-0.5157815988505893,136678.3767906667,1.092308990349928,-1.184635193372355,1.086256934772725,-0.4093629717826843,-0.6605475544929504,-0.4849793314933777,-0.04365860298275948,0.03312873095273972,-0.0005579590797424316,XTrueNorthZVertical,-0.6146490956204068,0.1857095373799815,-0.1223541321809832,-0.756801124203322,-0.4315000772476196,-0.8848896026611328,-0.1754369139671326,-1.115324020385742,-40.80442047119141,-2.345113754272461,1,10.3.35.51,10.83.46.32,1,0
2015-02-27 16:57:14.242,88,1425085022.869836,37.78757783066614,-122.3964055850179,13.11881,-1,-1,10,198.4253335977043,-9999,1425085034.188681,-0.1050033569335938,-38.47305297851562,1.163993835449219,234.31689453125,220.5436401367188,10,136678.4715406667,-0.4828338623046875,-0.883575439453125,-0.143341064453125,136678.4285737917,-0.3995114477671469,-0.5963105302085143,-0.5530221782698214,136678.4285737917,1.038329238650376,-1.163803157343454,1.100636314860082,-0.4036707282066345,-0.5909458994865417,-0.5222161412239075,-0.04422745108604431,0.01960860192775726,0.06409709900617599,XTrueNorthZVertical,-0.6117547782796902,0.189974612573504,-0.1037480203194405,-0.7608561653738212,-0.4160234034061432,-0.8914958238601685,-0.1793314814567566,0.2392587661743164,-40.73799896240234,-3.478874444961548,1,10.3.35.51,10.83.46.32,1,0
2015-02-27 16:57:14.307,89,1425085022.869836,37.78757783066614,-122.3964055850179,13.11881,-1,-1,10,198.4253335977043,-9999,1425085034.294253,2.555076599121094,-39.62857055664062,0.3319168090820312,239.7917175292969,226.0184631347656,10,136678.5205960833,-0.563018798828125,-0.882568359375,-0.12091064453125,136678.5321387083,-0.5997087237594554,-1.35161950066192,-0.1066950217001715,136678.480356375,0.9632986562436523,-1.142919109222602,1.108590924896512,-0.6395769119262695,-1.362776041030884,-0.397112637758255,-0.07711123675107956,0.01149579603224993,0.04169046133756638,XTrueNorthZVertical,-0.6053826708061713,0.2024748362497167,-0.07900679167052033,-0.7656851230899109,-0.4057226181030273,-0.8950712084770203,-0.1850315183401108,0.8934116363525391,-40.63482284545898,-4.444911956787109,1,10.3.35.51,10.83.46.32,1,0
2015-02-27 16:57:14.340,90,1425085022.869836,37.78757783066614,-122.3964055850179,13.11881,-1,-1,10,198.4253335977043,-9999,1425085034.294253,2.555076599121094,-39.62857055664062,0.3319168090820312,239.7917175292969,226.0184631347656,10,136678.5696301667,-0.5414276123046875,-0.810394287109375,-0.071685791015625,136678.5321387083,-0.5997087237594554,-1.35161950066192,-0.1066950217001715,136678.5321387083,0.8876606421831944,-1.148307236150819,1.107556484149435,-0.6038667559623718,-1.346254825592041,-0.07588858902454376,-0.1084332391619682,-0.02149770222604275,0.08964016288518906,XTrueNorthZVertical,-0.5971566793764099,0.227580190041859,-0.04870428159172027,-0.7676190908317285,-0.4075579643249512,-0.8946094512939453,-0.183222308754921,1.152318000793457,-40.53070831298828,-5.260993480682373,1,10.3.35.51,10.83.46.32,1,0
2015-02-27 16:57:14.402,91,1425085022.869836,37.78757783066614,-122.3964055850179,13.11881,-1,-1,10,198.4253335977043,-9999,1425085034.368669,3.168937683105469,-40.17233276367188,-1.5985107421875,245.4868469238281,231.7135925292969,10,136678.6186605,-0.5343170166015625,-0.950286865234375,-0.1192474365234375,136678.5839220833,-0.6248566876169647,-1.045310435248168,0.003045591022614617,136678.5839220833,0.8269114616413924,-1.155345623787932,1.094100247839754,-0.6290138363838196,-1.039945721626282,0.03385266661643982,-0.1385049372911453,0.04104261472821236,0.1176712289452553,XTrueNorthZVertical,-0.5864282091808629,0.2520045046409828,-0.02734493859447954,-0.7693165523559774,-0.4198141694068909,-0.8885157704353333,-0.1851913630962372,0.7185859680175781,-40.2386474609375,-7.216597557067871,1,10.3.35.51,10.83.46.32,1,0
2015-02-27 16:57:14.438,92,1425085034.410884,37.78742097794863,-122.3964608441798,13.38689,-1,-1,10,65,-9999,1425085034.422109,2.964317321777344,-40.1043701171875,-3.362518310546875,248.8578186035156,235.0845642089844,10,136678.6676798333,-0.4685516357421875,-0.9811553955078125,-0.2028045654296875,136678.635704375,-0.5024138617589365,-0.9824691545861128,0.02448030937222637,136678.635704375,0.7769031474835957,-1.159373726423744,1.081358876960703,-0.5065708160400391,-0.9771045446395874,0.05528729036450386,-0.105722576379776,-0.06079242378473282,0.1179428249597549,XTrueNorthZVertical,-0.5764223579525046,0.2715357660414081,-0.0107424607786261,-0.7706427257992152,-0.430898517370224,-0.8825974464416504,-0.1880111843347549,0.3013772964477539,-40.04926681518555,-8.228569984436035,1,10.3.35.51,10.83.46.32,1,0
2015-02-27 16:57:14.516,93,1425085034.410884,37.78742097794863,-122.3964608441798,13.38689,-1,-1,10,65,-9999,1425085034.473408,2.913169860839844,-40.22331237792969,-4.643928527832031,251.5619659423828,237.7887115478516,10,136678.7167301667,-0.53411865234375,-0.917572021484375,-0.1709747314453125,136678.6874867917,-0.1829003110283529,-0.3975628127975359,0.1852833075717558,136678.6874867917,0.7453222147258398,-1.164879334324521,1.069788884847316,-0.1870570182800293,-0.392198234796524,0.2160903662443161,-0.006016312632709742,-0.1608494818210602,-0.05961191654205322,XTrueNorthZVertical,-0.5687859414107431,0.2857529053257917,-0.0004444293209425609,-0.7712507054855681,-0.4412798285484314,-0.8770990967750549,-0.1896556615829468,0.002155303955078125,-39.92382431030273,-8.822266578674316,1,10.3.35.51,10.83.46.32,1,0
2015-02-27 16:57:14.535,94,1425085034.410884,37.78742097794863,-122.3964608441798,13.38689,-1,-1,10,65,-9999,1425085034.526945,2.418663024902344,-40.17233276367188,-5.692352294921875,253.1105651855469,239.3373107910156,10,136678.76575525,-0.4120025634765625,-0.7552337646484375,-0.216796875,136678.7392700833,-0.4705281003435268,-0.7492382947485704,0.2827483455659308,136678.7392700833,0.7284001184161575,-1.176015763612899,1.048539647457527,-0.4746967554092407,-0.7439296245574951,0.3134981691837311,-0.05889618769288063,-0.05231067538261414,-0.004494462162256241,XTrueNorthZVertical,-0.5602368995663616,0.300344466752745,0.002891220751115477,-0.7719582092159473,-0.4604672193527222,-0.8666956424713135,-0.1918556392192841,-1.075902938842773,-39.70930862426758,-9.682844161987305,1,10.3.35.51,10.83.46.32,1,0
2015-02-27 16:57:14.612,95,1425085034.410884,37.78742097794863,-122.3964608441798,13.38689,-1,-1,10,65,-9999,1425085034.578372,1.975311279296875,-40.7501220703125,-7.023689270019531,254.6863708496094,240.9131164550781,10,136678.8147978333,-0.9300689697265625,-0.9132843017578125,0.058929443359375,136678.7910524583,-0.253045044663841,-0.4044137947017647,-0.1153273920575544,136678.7910524583,0.7016152468628759,-1.195808353989448,1.032181343843324,-0.2572140991687775,-0.3991051614284515,-0.08457804471254349,-0.09798296540975571,0.00769667886197567,0.1127538532018661,XTrueNorthZVertical,-0.5512839639029832,0.3196084424973873,0.01382576217618684,-0.7705487013849943,-0.4773038923740387,-0.8584199547767639,-0.1878728717565536,-1.965088844299316,-39.50642776489258,-10.35011291503906,1,10.3.35.51,10.83.46.32,1,0
2015-02-27 16:57:14.634,96,1425085034.410884,37.78742097794863,-122.3964608441798,13.38689,-1,-1,10,65,-9999,1425085034.629676,1.992362976074219,-41.37886047363281,-7.339874267578125,255.6822662353516,241.9090118408203,10,136678.8638530417,-1.948623657226562,-1.513092041015625,-0.0686798095703125,136678.8428349583,1.491541451702465,0.3450261013413247,0.3678078465702985,136678.8428349583,0.7490163892620305,-1.230298336173741,1.039873609253513,1.487372398376465,0.3503346741199493,0.3985568583011627,-0.8464245200157166,0.08838394284248352,0.2616975605487823,XTrueNorthZVertical,-0.5608346039010101,0.3176768183343532,0.00755979931514271,-0.7645187073398003,-0.4772601425647736,-0.8623402118682861,-0.1690919697284698,-1.815319061279297,-39.48134613037109,-10.47245121002197,1,10.3.35.51,10.83.46.32,1,0
2015-02-27 16:57:14.708,97,1425085034.410884,37.78742097794863,-122.3964608441798,13.38689,-1,-1,10,65,-9999,1425085034.682656,1.685432434082031,-41.752685546875,-6.774070739746094,254.3688659667969,240.5956115722656,10,136678.9128600417,1.382720947265625,-1.33038330078125,-0.4572296142578125,136678.8946182083,-0.678139084178398,3.701137446001436,0.6673953597088003,136678.8946182083,0.8282281724772274,-1.17836090441417,1.024408327959789,-0.68230801820755,3.706445932388306,0.6981440782546997,0.006654697936028242,-1.522836089134216,-0.485486626625061,XTrueNorthZVertical,-0.5679245243999337,0.2794691391567881,-0.04228558931012682,-0.7730269607580407,-0.4801044166088104,-0.8544068932533264,-0.198717474937439,-2.093231201171875,-39.99513244628906,-8.231156349182129,1,10.3.35.51,10.83.46.32,1,0
2015-02-27 16:57:14.733,98,1425085034.410884,37.78742097794863,-122.3964608441798,13.38689,-1,-1,10,65,-9999,1425085034.682656,1.685432434082031,-41.752685546875,-6.774070739746094,254.3688659667969,240.5956115722656,10,136678.9618850834,-1.004714965820312,-0.6844482421875,0.4142913818359375,136678.9464006667,0.1861187412057137,-1.811778583301224,0.9995069939760037,136678.8946182083,0.8282281724772274,-1.17836090441417,1.024408327959789,-0.68230801820755,3.706445932388306,0.6981440782546997,0.006654697936028242,-1.522836089134216,-0.485486626625061,XTrueNorthZVertical,-0.5679245243999337,0.2794691391567881,-0.04228558931012682,-0.7730269607580407,-0.4801044166088104,-0.8544068932533264,-0.198717474937439,-2.093231201171875,-39.99513244628906,-8.231156349182129,1,10.3.35.51,10.83.46.32,1,0
2015-02-27 16:57:14.811,99,1425085034.410884,37.78742097794863,-122.3964608441798,13.38689,-1,-1,10,65,-9999,1425085034.763806,0.03139495849609375,-41.497802734375,-5.858779907226562,244.3830261230469,230.6097717285156,10,136679.0109367083,-0.3683013916015625,-1.02996826171875,-0.2022705078125,136678.9981830417,-0.01559387344684997,0.6075104541728426,0.6855900762762217,136678.9981830417,0.8830688093369223,-1.199176433069121,0.9339601252495657,-0.01976274326443672,0.6128188371658325,0.7163382172584534,-0.09235946089029312,-0.191227599978447,0.199118971824646,XTrueNorthZVertical,-0.5513434924105843,0.2967377147347534,-0.08533465271767476,-0.7750387715166874,-0.5540638566017151,-0.8039811253547668,-0.215934157371521,-4.571487426757812,-39.7049560546875,-8.623355865478516,1,10.3.35.51,10.83.46.32,1,0
2015-02-27 16:57:14.830,100,1425085034.410884,37.78742097794863,-122.3964608441798,13.38689,-1,-1,10,65,-9999,1425085034.763806,0.03139495849609375,-41.497802734375,-5.858779907226562,244.3830261230469,230.6097717285156,10,136679.059961875,-0.9558563232421875,-0.46612548828125,-0.00927734375,136679.0499665,0.1804861555001961,-0.9215344309484458,0.7177227127246817,136678.9981830417,0.8830688093369223,-1.199176433069121,0.9339601252495657,-0.01976274326443672,0.6128188371658325,0.7163382172584534,-0.09235946089029312,-0.191227599978447,0.199118971824646,XTrueNorthZVertical,-0.5513434924105843,0.2967377147347534,-0.08533465271767476,-0.7750387715166874,-0.5540638566017151,-0.8039811253547668,-0.215934157371521,-4.571487426757812,-39.7049560546875,-8.623355865478516,1,10.3.35.51,10.83.46.32,1,0
2015-02-27 16:57:14.914,101,1425085034.410884,37.78742097794863,-122.3964608441798,13.38689,-1,-1,10,65,-9999,1425085034.88895,-3.702949523925781,-40.52920532226562,-5.342887878417969,240.8255767822266,227.0523223876953,10,136679.1090003334,-0.887298583984375,-0.7499542236328125,-0.1346588134765625,136679.1017488333,0.3007662282369709,0.6435368984511074,0.2192932062726127,136679.1017488333,0.9417443804451924,-1.261502791278943,0.8838021958197385,0.2965974509716034,0.6488451361656189,0.2500406801700592,-0.2417339235544205,0.01734227687120438,0.1200177818536758,XTrueNorthZVertical,-0.5496332161127158,0.3184025036795546,-0.1064133389916819,-0.7649832631887266,-0.6041218042373657,-0.7731558680534363,-0.1930463463068008,-7.844693183898926,-39.2884635925293,-8.162199020385742,1,10.3.35.51,10.83.46.32,1,0
2015-02-27 16:57:14.928,102,1425085034.410884,37.78742097794863,-122.3964608441798,13.38689,-1,-1,10,65,-9999,1425085034.88895,-3.702949523925781,-40.52920532226562,-5.342887878417969,240.8255767822266,227.0523223876953,10,136679.15803525,-0.57305908203125,-0.8282318115234375,-0.0063018798828125,136679.15353125,0.2545183053788728,0.5507683450392873,-0.02414661528763944,136679.1017488333,0.9417443804451924,-1.261502791278943,0.8838021958197385,0.2965974509716034,0.6488451361656189,0.2500406801700592,-0.2417339235544205,0.01734227687120438,0.1200177818536758,XTrueNorthZVertical,-0.5496332161127158,0.3184025036795546,-0.1064133389916819,-0.7649832631887266,-0.6041218042373657,-0.7731558680534363,-0.1930463463068008,-7.844693183898926,-39.2884635925293,-8.162199020385742,1,10.3.35.51,10.83.46.32,1,0
2015-02-27 16:57:15.003,103,1425085034.410884,37.78742097794863,-122.3964608441798,13.38689,-1,-1,10,65,-9999,1425085034.992213,-4.487342834472656,-40.52920532226562,-4.9434814453125,239.3408355712891,225.5675811767578,10,136679.207085,-0.6436309814453125,-0.5920257568359375,-0.3620147705078125,136679.2053144583,-0.1976350487075433,-0.2247721275832328,-0.08693516536011062,136679.15353125,0.9606849669876899,-1.245689072548708,0.8848568856604981,0.2503495514392853,0.5560765862464905,0.006600575987249613,-0.03414836153388023,-0.02056347019970417,0.1529219448566437,XTrueNorthZVertical,-0.5519904798582337,0.3068373915635704,-0.1176877298400188,-0.7663595382113351,-0.6002205610275269,-0.7738243341445923,-0.2023146450519562,-7.278839111328125,-41.97774505615234,-6.520416736602783,1,10.3.35.51,10.83.46.32,1,0
2015-02-27 16:57:15.031,104,1425085034.410884,37.78742097794863,-122.3964608441798,13.38689,-1,-1,10,65,-9999,1425085034.992213,-4.487342834472656,-40.52920532226562,-4.9434814453125,239.3408355712891,225.5675811767578,10,136679.2561149583,-1.027740478515625,-0.8349609375,0.3816375732421875,136679.2053144583,-0.1976350487075433,-0.2247721275832328,-0.08693516536011062,136679.2053144583,0.9721261357898191,-1.244871394148138,0.8869580927565879,-0.2018037587404251,-0.2194639295339584,-0.05618827790021896,0.1818719804286957,0.2258676588535309,-0.0581374391913414,XTrueNorthZVertical,-0.5542460077192736,0.3027692296430806,-0.1216359690663705,-0.7657328945630546,-0.5985132455825806,-0.7751535177230835,-0.2022843062877655,-7.154886245727539,-42.063232421875,-6.092658042907715,1,10.3.35.51,10.83.46.32,1,0
2015-02-27 16:57:15.112,105,1425085034.410884,37.78742097794863,-122.3964608441798,13.38689,-1,-1,10,65,-9999,1425085035.04594,-5.40814208984375,-40.83505249023438,-5.609153747558594,237.8438262939453,224.0705718994141,10,136679.305160125,-0.72601318359375,-0.923583984375,-0.58721923828125,136679.308879375,-0.1762133798472729,-0.09456805136038672,0.100559631180847,136679.2570970417,0.9268159561599618,-1.236448303459785,0.8797867771622472,0.1561216861009598,-0.1051467284560204,-0.04626141861081123,-0.4257166683673859,-0.0643579289317131,0.5907747745513916,XTrueNorthZVertical,-0.5448352848302049,0.3139839173461312,-0.1088012500109337,-0.7698901988764842,-0.6020237803459167,-0.7706030011177063,-0.2091372311115265,-7.219039916992188,-41.94829559326172,-6.771600246429443,1,10.3.35.51,10.83.46.32,1,0
2015-02-27 16:57:15.128,106,1425085034.410884,37.78742097794863,-122.3964608441798,13.38689,-1,-1,10,65,-9999,1425085035.04594,-5.40814208984375,-40.83505249023438,-5.609153747558594,237.8438262939453,224.0705718994141,10,136679.354189375,-0.487823486328125,-0.2722930908203125,-0.1689605712890625,136679.308879375,-0.1762133798472729,-0.09456805136038672,0.100559631180847,136679.308879375,0.9561662998792854,-1.22466366769987,0.8950215679246348,-0.1803819984197617,-0.08925996720790863,0.1313058733940125,-0.1376085728406906,-0.1433614194393158,-0.3750099241733551,XTrueNorthZVertical,-0.5528009269838967,0.297164071220227,-0.1185803480088709,-0.7694435451972459,-0.5884045958518982,-0.7802225947380066,-0.2122092992067337,-6.930824279785156,-42.00252151489258,-6.736489295959473,1,10.3.35.51,10.83.46.32,1,0
2015-02-27 16:57:15.207,107,1425085034.410884,37.78742097794863,-122.3964608441798,13.38689,-1,-1,10,65,-9999,1425085035.178443,-4.623756408691406,-40.18930053710938,-5.609146118164062,234.9869689941406,221.2137145996094,10,136679.4032325,-0.161834716796875,-0.235748291015625,-0.0512237548828125,136679.36066275,-0.6507601902757294,0.7843928200859434,0.1024632587280356,136679.36066275,0.930825828929002,-1.191325755848127,0.8701444726899182,-0.6549287438392639,0.7897008657455444,0.1332092136144638,0.1110281124711037,0.492128998041153,0.06986082345247269,XTrueNorthZVertical,-0.5401194126426521,0.2980944848439001,-0.1255702210551253,-0.7769445514671044,-0.5988516211509705,-0.7644221186637878,-0.2388214021921158,-7.282289505004883,-41.83115386962891,-7.399402141571045,1,10.3.35.51,10.83.46.32,1,0
2015-02-27 16:57:15.223,108,1425085034.410884,37.78742097794863,-122.3964608441798,13.38689,-1,-1,10,65,-9999,1425085035.178443,-4.623756408691406,-40.18930053710938,-5.609146118164062,234.9869689941406,221.2137145996094,10,136679.4523776667,-2.040237426757812,-1.4627685546875,-1.075576782226562,136679.4124450417,-0.3728111273102304,0.654410585181901,-0.5773048810891638,136679.4124450417,0.8749451015052706,-1.111133151742529,0.8866669947738633,-0.3769796788692474,0.6597185730934143,-0.5465592741966248,0.4045636057853699,0.5392212867736816,0.2291600406169891,XTrueNorthZVertical,-0.5319614797317943,0.2771733915936404,-0.1202045506716291,-0.7910390504582672,-0.5663983225822449,-0.7749695777893066,-0.2803837954998016,-6.655762672424316,-41.76262664794922,-8.319387435913086,1,10.3.35.51,10.83.46.32,1,0
2015-02-27 16:57:15.308,109,1425085034.410884,37.78742097794863,-122.3964608441798,13.38689,-1,-1,10,65,-9999,1425085035.252254,-3.737068176269531,-40.35922241210938,-7.60614013671875,237.5798645019531,223.8066101074219,10,136679.5013269167,-0.058929443359375,-0.8054351806640625,-0.746612548828125,136679.4642274583,-0.8128279236769375,-0.01644209025404021,0.1816851106229498,136679.4642274583,0.8441725117115968,-1.094887278207768,0.8896762348037549,-0.8169964551925659,-0.01113416161388159,0.2124304175376892,-0.7384329438209534,-0.9482144713401794,-0.370365709066391,XTrueNorthZVertical,-0.527659636163231,0.2780938104259958,-0.1114307167709963,-0.7948725398482367,-0.5596932768821716,-0.7768679261207581,-0.288478285074234,-5.210036277770996,-41.82222747802734,-9.021376609802246,1,10.3.35.51,10.83.46.32,1,0
2015-02-27 16:57:15.321,110,1425085034.410884,37.78742097794863,-122.3964608441798,13.38689,-1,-1,10,65,-9999,1425085035.303847,-3.1402587890625,-40.376220703125,-8.421577453613281,236.9152221679688,223.1419677734375,10,136679.55046525,-0.7979888916015625,-0.2677001953125,0.056182861328125,136679.51601075,0.2312116510990443,-0.06847759479309845,-0.166266206859718,136679.51601075,0.8066454767648809,-1.011762008032028,0.8993388432062682,0.2270431965589523,-0.06316971778869629,-0.135521188378334,0.4752957820892334,0.1153589934110641,-0.154937282204628,XTrueNorthZVertical,-0.5209957473041279,0.2521610118626468,-0.1154591359721105,-0.8072468405550071,-0.5274198055267334,-0.7829157710075378,-0.3299565017223358,-3.983341217041016,-41.62091445922852,-10.46235275268555,1,10.3.35.51,10.83.46.32,1,0
2015-02-27 16:57:15.407,111,1425085034.410884,37.78742097794863,-122.3964608441798,13.38689,-1,-1,10,65,-9999,1425085035.355509,-2.713966369628906,-40.15531921386719,-8.305084228515625,237.1874694824219,223.4142150878906,10,136679.599410375,-0.3009033203125,-1.040695190429688,-0.25372314453125,136679.5677933333,0.2032492586015394,0.1222627961683387,0.2081633234449536,136679.5677933333,0.8216533893752703,-1.033966036996493,0.8902980792465784,0.1990808546543121,0.127570629119873,0.238908052444458,-0.4256782531738281,0.4533457458019257,0.4402108490467072,XTrueNorthZVertical,-0.5213280447707335,0.2594821991732739,-0.1182267305255777,-0.8043062330449804,-0.5406761169433594,-0.777259349822998,-0.3217721283435822,-4.300119400024414,-41.61579132080078,-10.3568000793457,1,10.3.35.51,10.83.46.32,1,0
2015-02-27 16:57:15.419,112,1425085034.410884,37.78742097794863,-122.3964608441798,13.38689,-1,-1,10,65,-9999,1425085035.413802,-2.799224853515625,-40.13833618164062,-7.988899230957031,236.3367767333984,222.5635223388672,10,136679.6484525,-0.308868408203125,-0.8570404052734375,-0.50439453125,136679.619575625,0.1239123581475338,1.625879286569333,0.03212464696518982,136679.619575625,0.8351904863192384,-0.9785568668876478,0.8949044853231906,0.1197439879179001,1.631187081336975,0.06286904215812683,0.5279460549354553,-0.2618428468704224,-0.09247714281082153,XTrueNorthZVertical,-0.5209327111310768,0.2324211648616874,-0.1368617375427452,-0.8098631956526926,-0.5190501809120178,-0.7801493406295776,-0.349219024181366,-4.524002075195312,-41.64934158325195,-10.12393760681152,1,10.3.35.51,10.83.46.32,1,0
2015-02-27 16:57:15.479,113,1425085034.410884,37.78742097794863,-122.3964608441798,13.38689,-1,-1,10,65,-9999,1425085035.413802,-2.799224853515625,-40.13833618164062,-7.988899230957031,236.3367767333984,222.5635223388672,10,136679.6975039583,-0.159637451171875,-1.31463623046875,-0.434600830078125,136679.6713587917,-0.3077999029919791,-0.8823201828453561,-0.05545953075257311,136679.6713587917,0.834385949990012,-0.979202491386529,0.9079497953916456,-0.3119463622570038,-0.877012312412262,-0.02477343194186687,-0.4171335399150848,-0.01838159002363682,-0.2532111704349518,XTrueNorthZVertical,-0.5250788967113746,0.2295710209062732,-0.1328274827251781,-0.8086693865229211,-0.5107839107513428,-0.7882437705993652,-0.3431786000728607,-3.458931922912598,-41.83557891845703,-9.769766807556152,1,10.3.35.51,10.83.46.32,1,0
2015-02-27 16:57:15.517,114,1425085034.410884,37.78742097794863,-122.3964608441798,13.38689,-1,-1,10,65,-9999,1425085035.485217,-2.5946044921875,-39.73046875,-7.789199829101562,234.8801879882812,221.10693359375,10,136679.746528125,-0.8686981201171875,-0.3489227294921875,0.316162109375,136679.7231412917,-0.6393080649561707,-0.1270487629633201,-0.3613853672854634,136679.7231412917,0.79095641569527,-0.9496606120122142,0.8952167043185496,-0.6434696912765503,-0.1217813566327095,-0.3307330310344696,0.2955330014228821,-0.3976949453353882,-0.2663057744503021,XTrueNorthZVertical,-0.5139969609750058,0.2320412257911705,-0.1262731566333579,-0.8160999337297389,-0.5085456967353821,-0.7803446054458618,-0.3639279901981354,-3.69170093536377,-41.68353652954102,-10.31903648376465,1,10.3.35.51,10.83.46.32,1,0
2015-02-27 16:57:15.578,115,1425085034.410884,37.78742097794863,-122.3964608441798,13.38689,-1,-1,10,65,-9999,1425085035.537379,-2.270622253417969,-40.08732604980469,-7.905693054199219,234.2083282470703,220.4350738525391,10,136679.7955699583,0.0507049560546875,-1.210098266601562,-1.025619506835938,136679.7749238333,-0.458233617171176,0.3507732029737157,-0.7199411259127177,136679.7749238333,0.7412693768629959,-0.9242561002541079,0.8982420585025265,-0.4623952209949493,0.3560405373573303,-0.6892890930175781,-0.3184690475463867,0.4030367732048035,0.5187829732894897,XTrueNorthZVertical,-0.5077187447120359,0.2336009179179435,-0.1116273500623595,-0.8217004566215304,-0.4972505569458008,-0.782232940196991,-0.3753045797348022,-3.206769943237305,-41.43001174926758,-11.44110488891602,1,10.3.35.51,10.83.46.32,1,0
2015-02-27 16:57:15.615,116,1425085034.410884,37.78742097794863,-122.3964608441798,13.38689,-1,-1,10,65,-9999,1425085035.588629,-1.315719604492188,-40.42721557617188,-8.77105712890625,236.1358642578125,222.3626098632812,10,136679.8445865833,-0.2152557373046875,-0.9379425048828125,0.039886474609375,136679.8267069584,-0.7420062144923513,-1.249603652997018,-0.823369780535907,136679.7749238333,0.7412693768629959,-0.9242561002541079,0.8982420585025265,-0.4623952209949493,0.3560405373573303,-0.6892890930175781,-0.3184690475463867,0.4030367732048035,0.5187829732894897,XTrueNorthZVertical,-0.5077187447120359,0.2336009179179435,-0.1116273500623595,-0.8217004566215304,-0.4972505569458008,-0.782232940196991,-0.3753045797348022,-3.206769943237305,-41.43001174926758,-11.44110488891602,1,10.3.35.51,10.83.46.32,1,0
2015-02-27 16:57:15.708,117,1425085034.410884,37.78742097794863,-122.3964608441798,13.38689,-1,-1,10,65,-9999,1425085035.6925,0.9351119995117188,-40.08735656738281,-9.736274719238281,240.4225769042969,226.6493225097656,10,136679.89361625,-0.6526641845703125,-0.3773345947265625,-0.146514892578125,136679.8784893334,0.3356467142981747,-0.06284154697816376,-0.04060521714043815,136679.8784893334,0.6232643994648402,-0.8693076124976661,0.9106292125832525,0.3314852118492126,-0.0575743094086647,-0.009953831322491169,-0.2745157480239868,0.8367342352867126,0.6017419695854187,XTrueNorthZVertical,-0.4956042174088462,0.2376860508370376,-0.07351426699415174,-0.8321523128312621,-0.4684499502182007,-0.7898897528648376,-0.3957636058330536,-0.8616466522216797,-40.80942535400391,-13.83751010894775,1,10.3.35.51,10.83.46.32,1,0
2015-02-27 16:57:15.713,118,1425085034.410884,37.78742097794863,-122.3964608441798,13.38689,-1,-1,10,65,-9999,1425085035.6925,0.9351119995117188,-40.08735656738281,-9.736274719238281,240.4225769042969,226.6493225097656,10,136679.9426374583,0.008453369140625,-0.815887451171875,-0.8192138671875,136679.9302717917,0.2049558122280621,1.062318979866068,0.3825889232524564,136679.9302717917,0.6737312133265947,-0.879588347789061,0.9214300840474807,0.2007942199707031,1.067586064338684,0.413241058588028,0.1864741742610931,-0.1284748315811157,-0.4745808839797974,XTrueNorthZVertical,-0.5057230083259718,0.2269614194001769,-0.08924730528017626,-0.8275069121958201,-0.4658931195735931,-0.7964671850204468,-0.3854655027389526,-0.8799629211425781,-40.98549652099609,-13.30576324462891,1,10.3.35.51,10.83.46.32,1,0
2015-02-27 16:57:15.780,119,1425085034.410884,37.78742097794863,-122.3964608441798,13.38689,-1,-1,10,65,-9999,1425085035.746041,1.139739990234375,-39.74751281738281,-9.636421203613281,240.5124816894531,226.7392272949219,10,136679.9916743333,-0.1660919189453125,-1.217422485351562,-0.85400390625,136679.9820551667,-0.4263193599321025,-0.5589074979627874,0.1751145595815063,136679.9302717917,0.6737312133265947,-0.879588347789061,0.9214300840474807,0.2007942199707031,1.067586064338684,0.413241058588028,0.1864741742610931,-0.1284748315811157,-0.4745808839797974,XTrueNorthZVertical,-0.5057230083259718,0.2269614194001769,-0.08924730528017626,-0.8275069121958201,-0.4658931195735931,-0.7964671850204468,-0.3854655027389526,-0.8799629211425781,-40.98549652099609,-13.30576324462891,1,10.3.35.51,10.83.46.32,1,0
2015-02-27 16:57:15.812,120,1425085034.410884,37.78742097794863,-122.3964608441798,13.38689,-1,-1,10,65,-9999,1425085035.796262,0.01432037353515625,-39.33969116210938,-10.10239410400391,238.5681304931641,224.7948760986328,10,136680.0406930417,-0.85760498046875,-0.2860870361328125,0.0296173095703125,136680.0338375,-0.5459323108158124,-1.654013452957148,0.4525096850402687,136679.9820551667,0.6766300051960431,-0.8493626325815802,0.896935963804954,-0.4304808974266052,-0.5536404252052307,0.205766350030899,0.4260308146476746,-0.2778618037700653,-0.7538368701934814,XTrueNorthZVertical,-0.4959047222314482,0.2191164727094428,-0.1039867860156281,-0.8338184721317402,-0.4685418009757996,-0.7814186215400696,-0.4121329486370087,-1.239240646362305,-40.99967956542969,-13.23324489593506,1,10.3.35.51,10.83.46.32,1,0
2015-02-27 16:57:15.910,121,1425085034.410884,37.78742097794863,-122.3964608441798,13.38689,-1,-1,10,65,-9999,1425085035.899389,-2.134223937988281,-39.3397216796875,-12.36566162109375,241.4568939208984,227.6836395263672,10,136680.0897299167,-0.6663970947265625,-0.903167724609375,-0.334014892578125,136680.0856200417,-0.2468068561264394,-0.3951004540536486,0.1400769470159878,136680.0856200417,0.6692887736109214,-0.9491646486496955,0.8404662896364579,-0.250968337059021,-0.3898334503173828,0.1707281619310379,-0.2159524857997894,-0.06586726009845734,-0.02118023112416267,XTrueNorthZVertical,-0.4797803200548691,0.2748806041145594,-0.09062991378616647,-0.8282739492310633,-0.542317807674408,-0.7449542880058289,-0.3885029852390289,-3.775894165039062,-40.46421432495117,-14.35334014892578,1,10.3.35.51,10.83.46.32,1,0
2015-02-27 16:57:15.913,122,1425085034.410884,37.78742097794863,-122.3964608441798,13.38689,-1,-1,10,65,-9999,1425085035.899389,-2.134223937988281,-39.3397216796875,-12.36566162109375,241.4568939208984,227.6836395263672,10,136680.138747,-0.9355926513671875,-0.229095458984375,0.0270538330078125,136680.0856200417,-0.2468068561264394,-0.3951004540536486,0.1400769470159878,136680.0856200417,0.6692887736109214,-0.9491646486496955,0.8404662896364579,-0.250968337059021,-0.3898334503173828,0.1707281619310379,-0.2159524857997894,-0.06586726009845734,-0.02118023112416267,XTrueNorthZVertical,-0.4797803200548691,0.2748806041145594,-0.09062991378616647,-0.8282739492310633,-0.542317807674408,-0.7449542880058289,-0.3885029852390289,-3.775894165039062,-40.46421432495117,-14.35334014892578,1,10.3.35.51,10.83.46.32,1,0
2015-02-27 16:57:15.978,123,1425085034.410884,37.78742097794863,-122.3964608441798,13.38689,-1,-1,10,65,-9999,1425085035.951272,-2.594612121582031,-39.52664184570312,-12.51543426513672,243.5565643310547,229.7833099365234,10,136680.1877937083,-0.49688720703125,-1.047073364257812,-0.5418701171875,136680.18918575,0.06687863287461487,1.444535060565913,-0.6665404849988849,136680.1374031667,0.6791434851960046,-0.9745561811325388,0.8376870868905839,0.2977310717105865,-0.3320844769477844,0.2844901084899902,-0.3993463516235352,0.5129948258399963,0.3473124504089355,XTrueNorthZVertical,-0.4813234636259351,0.2836241711572827,-0.08932110836864442,-0.8245646189209926,-0.5537176132202148,-0.7430973649024963,-0.375770092010498,-4.893972396850586,-40.31936645507812,-14.42311668395996,1,10.3.35.51,10.83.46.32,1,0
2015-02-27 16:57:16.013,124,1425085034.410884,37.78742097794863,-122.3964608441798,13.38689,-1,-1,10,65,-9999,1425085035.951272,-2.594612121582031,-39.52664184570312,-12.51543426513672,243.5565643310547,229.7833099365234,10,136680.2368150833,-0.447357177734375,-0.6818084716796875,-0.3023681640625,136680.240968,0.2136022973392224,-0.4203509496131259,-0.3616279812607697,136680.18918575,0.6709795857923867,-0.929048997617507,0.8492155442069645,0.0627172514796257,1.449801921844482,-0.6358899474143982,0.03226492181420326,-0.2963109314441681,-0.1464541405439377,XTrueNorthZVertical,-0.4821735631218221,0.2641981588194206,-0.0939375005983223,-0.8299902120882039,-0.5291521549224854,-0.7507624626159668,-0.3954159617424011,-4.958644866943359,-40.35997009277344,-14.28681182861328,1,10.3.35.51,10.83.46.32,1,0
2015-02-27 16:57:16.075,125,1425085034.410884,37.78742097794863,-122.3964608441798,13.38689,-1,-1,10,65,-9999,1425085036.054439,-0.9235305786132812,-39.76457214355469,-11.35052490234375,241.5258941650391,227.7526397705078,10,136680.2858595417,-0.609100341796875,-0.8023223876953125,-0.4930419921875,136680.240968,0.2136022973392224,-0.4203509496131259,-0.3616279812607697,136680.240968,0.6603452791720288,-0.9053463993697823,0.8678406711266993,0.2094409465789795,-0.4150841236114502,-0.3309777081012726,0.06118571013212204,0.08112629503011703,0.09677429497241974,XTrueNorthZVertical,-0.4863211492662194,0.2528250602235713,-0.09058076078406531,-0.8314844392730133,-0.5085428953170776,-0.7629347443580627,-0.3991424441337585,-3.24818229675293,-40.47597503662109,-14.44897842407227,1,10.3.35.51,10.83.46.32,1,0
2015-02-27 16:57:16.109,126,1425085034.410884,37.78742097794863,-122.3964608441798,13.38689,-1,-1,10,65,-9999,1425085036.054439,-0.9235305786132812,-39.76457214355469,-11.35052490234375,241.5258941650391,227.7526397705078,10,136680.3348696667,-0.280181884765625,-0.66717529296875,-0.2466888427734375,136680.2927512084,0.1411043945645404,-0.1949375328394021,-0.1665815251327834,136680.2927512084,0.6702513343067915,-0.927201626211394,0.8843416797345111,0.1369431018829346,-0.189670741558075,-0.1359315365552902,-0.1020968407392502,-0.02882447466254234,-0.1127152219414711,XTrueNorthZVertical,-0.4943695208319047,0.2558034216995022,-0.08517983705971158,-0.8263823569969214,-0.5070034861564636,-0.7734979391098022,-0.3803267776966095,-2.744497299194336,-40.79497909545898,-13.63326263427734,1,10.3.35.51,10.83.46.32,1,0
2015-02-27 16:57:16.181,127,1425085034.410884,37.78742097794863,-122.3964608441798,13.38689,-1,-1,10,65,-9999,1425085036.109946,-0.2073593139648438,-40.24038696289062,-10.95112609863281,242.4191436767578,228.6458892822266,10,136680.383894125,-0.5680999755859375,-0.90557861328125,-0.43939208984375,136680.3963162084,-0.1765010012450015,-0.4651154917440498,-0.07234343943145746,136680.3445336667,0.6628991968804993,-0.9342839570655955,0.8718921560289178,-0.3204973936080933,-0.4459209740161896,0.3875519037246704,0.2372067123651505,0.09837238490581512,0.1357321441173553,XTrueNorthZVertical,-0.4893445162748458,0.2633086640011608,-0.0835616747214938,-0.8271807279243437,-0.5173885822296143,-0.7655476927757263,-0.3824209868907928,-2.75920295715332,-40.7627067565918,-13.72649955749512,1,10.3.35.51,10.83.46.32,1,0
2015-02-27 16:57:16.224,128,1425085034.410884,37.78742097794863,-122.3964608441798,13.38689,-1,-1,10,65,-9999,1425085036.185601,-0.343780517578125,-40.20637512207031,-11.31723785400391,242.3667755126953,228.5935211181641,10,136680.432919625,-0.3705902099609375,-0.7299346923828125,-0.1375274658203125,136680.3963162084,-0.1765010012450015,-0.4651154917440498,-0.07234343943145746,136680.3963162084,0.6522719617811504,-0.9470441888681033,0.8665399525023079,-0.180662214756012,-0.4598488211631775,-0.04169408977031708,-0.0851275622844696,-0.2831643223762512,0.06437885016202927,XTrueNorthZVertical,-0.4865519062690535,0.2723588052602366,-0.07742034846535632,-0.8264950281911662,-0.5255444049835205,-0.7620932459831238,-0.3781758546829224,-3.49395751953125,-40.528076171875,-14.24414348602295,1,10.3.35.51,10.83.46.32,1,0
2015-02-27 16:57:16.266,129,1425085034.410884,37.78742097794863,-122.3964608441798,13.38689,-1,-1,10,65,-9999,1425085036.262632,-0.7871246337890625,-39.86650085449219,-11.51695251464844,244.4143371582031,230.6410827636719,10,136680.4819622917,-0.363555908203125,-0.86474609375,-0.5581512451171875,136680.4480993333,0.3856976311929058,1.381038109643481,-0.1089488549307056,136680.4480993333,0.652946650422298,-0.9192830843740033,0.8572994351558886,0.381536453962326,1.38630473613739,-0.07829978317022324,0.1561644971370697,0.0931902751326561,0.261007159948349,XTrueNorthZVertical,-0.4822296020940214,0.2627144942746025,-0.08676497345629604,-0.8312084955180959,-0.5204223394393921,-0.7560778260231018,-0.396871417760849,-3.524698257446289,-40.37577819824219,-14.66291904449463,1,10.3.35.51,10.83.46.32,1,0
2015-02-27 16:57:16.313,130,1425085034.410884,37.78742097794863,-122.3964608441798,13.38689,-1,-1,10,65,-9999,1425085036.262632,-0.7871246337890625,-39.86650085449219,-11.51695251464844,244.4143371582031,230.6410827636719,10,136680.5309900834,-0.2866058349609375,-0.8177947998046875,-0.258636474609375,136680.4998817084,-0.3867884619754023,0.2136291952662322,0.2692996483771396,136680.4998817084,0.6674730517646951,-0.8966701398504769,0.854110626597539,-0.3909426331520081,0.218895897269249,0.2999340295791626,0.202497124671936,-0.2053330689668655,-0.3257234394550323,XTrueNorthZVertical,-0.4819036069515856,0.2504972144453917,-0.09905697904192264,-0.8337912162785638,-0.513196587562561,-0.7539870142936707,-0.4100401103496552,-3.232479095458984,-40.50276947021484,-14.37723731994629,1,10.3.35.51,10.83.46.32,1,0
2015-02-27 16:57:16.362,131,1425085034.410884,37.78742097794863,-122.3964608441798,13.38689,-1,-1,10,65,-9999,1425085036.312843,-1.008804321289062,-39.95149230957031,-11.50030517578125,243.06689453125,229.2936401367188,10,136680.5800219583,-0.7862701416015625,-0.8216400146484375,-0.4580078125,136680.5516641667,0.2092040867989566,-0.230697661008659,0.3821966396238877,136680.5516641667,0.6708919282730509,-0.8985614528535637,0.8404170157293537,0.2050499767065048,-0.2254310250282288,0.4128306806087494,-0.09337050467729568,0.1373011618852615,0.2538997828960419,XTrueNorthZVertical,-0.4775195432492713,0.2534662956232692,-0.1034202788842966,-0.8348857328949671,-0.5220012068748474,-0.7449213862419128,-0.4154598414897919,-3.365505218505859,-40.33488464355469,-14.81210899353027,1,10.3.35.51,10.83.46.32,1,0
2015-02-27 16:57:16.412,132,1425085034.410884,37.78742097794863,-122.3964608441798,13.38689,-1,-1,10,65,-9999,1425085036.365444,-1.486259460449219,-40.223388671875,-11.23403930664062,241.2590942382812,227.48583984375,10,136680.629024875,-0.510986328125,-0.7082672119140625,-0.610382080078125,136680.6034474167,0.08586244407302671,0.6100620288132474,-0.08160857686384314,136680.6034474167,0.6959879516309856,-0.9176192383164259,0.8424607919247983,0.08170836418867111,0.6153286099433899,-0.05097484961152077,-0.0224881861358881,-0.167519748210907,-0.009994248859584332,XTrueNorthZVertical,-0.4824488987415896,0.2549268167639857,-0.1087867858090481,-0.8309156586013964,-0.5286135077476501,-0.7462833523750305,-0.4045107662677765,-4.146501541137695,-40.4847412109375,-14.19226455688477,1,10.3.35.51,10.83.46.32,1,0
2015-02-27 16:57:16.459,133,1425085034.410884,37.78742097794863,-122.3964608441798,13.38689,-1,-1,10,65,-9999,1425085036.417463,-1.793190002441406,-40.25736999511719,-11.36717987060547,241.1435852050781,227.3703308105469,10,136680.6780519167,-0.6762237548828125,-0.7577972412109375,-0.256317138671875,136680.6552300417,0.4229677717002377,-0.1227474914867332,-0.4453556354039889,136680.6552300417,0.6975473274164947,-0.8976169932046756,0.8493423342116084,0.4188098907470703,-0.1174799427390099,-0.4147237241268158,0.01138477772474289,-0.02457494847476482,-0.1165904626250267,XTrueNorthZVertical,-0.4839761611110014,0.2446868068829381,-0.1125418258556505,-0.8326042263433527,-0.5163896679878235,-0.7508462071418762,-0.4117908775806427,-3.869663238525391,-40.4586181640625,-14.34414100646973,1,10.3.35.51,10.83.46.32,1,0
2015-02-27 16:57:16.504,134,1425085034.410884,37.78742097794863,-122.3964608441798,13.38689,-1,-1,10,65,-9999,1425085036.468209,-1.827285766601562,-40.46127319335938,-10.9677734375,240.2433319091797,226.4700775146484,10,136680.7270650833,-0.4127044677734375,-0.7357177734375,-0.535186767578125,136680.7070122084,0.3725807638759386,0.3107751865618156,-0.1638621713437035,136680.7070122084,0.7039180917377725,-0.895726624165343,0.8738544736818719,0.3684216439723969,0.3160438537597656,-0.1332378536462784,-0.1596472263336182,0.1082393825054169,0.004748506005853415,XTrueNorthZVertical,-0.4933025250154406,0.2368162890318247,-0.1095343635041139,-0.8298029317569211,-0.5010888576507568,-0.7668087482452393,-0.4011413156986237,-3.192075729370117,-40.72960662841797,-13.73091983795166,1,10.3.35.51,10.83.46.32,1,0
2015-02-27 16:57:16.556,135,1425085034.410884,37.78742097794863,-122.3964608441798,13.38689,-1,-1,10,65,-9999,1425085036.520995,-1.059959411621094,-40.24038696289062,-10.01919555664062,240.3004760742188,226.5272216796875,10,136680.7762103333,-0.4946441650390625,-0.5671844482421875,-0.3841094970703125,136680.758795625,0.0685566906774738,0.02739274234033703,-0.08521636119257348,136680.758795625,0.7147708720360172,-0.8971127501676089,0.8837176036463686,0.06438875943422318,0.03263059258460999,-0.05458430573344231,0.1384247541427612,0.07969707250595093,0.03018427267670631,XTrueNorthZVertical,-0.4981084591637716,0.23245145877462,-0.1112182809479808,-0.8279400911201653,-0.4957093000411987,-0.7731022238731384,-0.3957085609436035,-2.61616325378418,-41.04454040527344,-12.88912773132324,1,10.3.35.51,10.83.46.32,1,0
2015-02-27 16:57:16.601,136,1425085034.410884,37.78742097794863,-122.3964608441798,13.38689,-1,-1,10,65,-9999,1425085036.572537,-0.7189254760742188,-40.61422729492188,-9.7529296875,240.0471649169922,226.2739105224609,10,136680.8251192083,-0.302581787109375,-0.850433349609375,-0.371734619140625,136680.8105779167,-0.01609348246734884,-0.1509716727193929,0.2888475170944302,136680.758795625,0.7147708720360172,-0.8971127501676089,0.8837176036463686,0.06438875943422318,0.03263059258460999,-0.05458430573344231,0.1384247541427612,0.07969707250595093,0.03018427267670631,XTrueNorthZVertical,-0.4981084591637716,0.23245145877462,-0.1112182809479808,-0.8279400911201653,-0.4957093000411987,-0.7731022238731384,-0.3957085609436035,-2.61616325378418,-41.04454040527344,-12.88912773132324,1,10.3.35.51,10.83.46.32,1,0
2015-02-27 16:57:16.654,137,1425085034.410884,37.78742097794863,-122.3964608441798,13.38689,-1,-1,10,65,-9999,1425085036.625111,-0.5654525756835938,-40.97109985351562,-9.636444091796875,239.6521453857422,225.8788909912109,10,136680.8741522083,-0.61468505859375,-0.769134521484375,-0.3089599609375,136680.8623604167,-0.04013570184025717,-0.4408373162985604,0.2399406942039971,136680.8623604167,0.7205836867718654,-0.9024338872986744,0.8672051501127622,-0.04432631656527519,-0.4355852007865906,0.2705188393592834,-0.02016492560505867,-0.06105412170290947,-0.1254906803369522,XTrueNorthZVertical,-0.4933231951027992,0.2370043907118385,-0.1164584209121485,-0.8287934594539049,-0.5077586770057678,-0.7625237703323364,-0.4009222984313965,-3.705509185791016,-40.84922409057617,-13.23775672912598,1,10.3.35.51,10.83.46.32,1,0
2015-02-27 16:57:16.702,138,1425085034.410884,37.78742097794863,-122.3964608441798,13.38689,-1,-1,10,65,-9999,1425085036.67635,-1.58856201171875,-41.0390625,-9.703018188476562,238.6390533447266,224.8657989501953,10,136680.9231832083,-0.4066925048828125,-0.802581787109375,-0.491241455078125,136680.9141435417,-0.0882385163975954,0.4048058120142244,0.3569016692742061,136680.8623604167,0.7205836867718654,-0.9024338872986744,0.8672051501127622,-0.04432631656527519,-0.4355852007865906,0.2705188393592834,-0.02016492560505867,-0.06105412170290947,-0.1254906803369522,XTrueNorthZVertical,-0.4933231951027992,0.2370043907118385,-0.1164584209121485,-0.8287934594539049,-0.5077586770057678,-0.7625237703323364,-0.4009222984313965,-3.705509185791016,-40.84922409057617,-13.23775672912598,1,10.3.35.51,10.83.46.32,1,0
2015-02-27 16:57:16.753,139,1425085034.410884,37.78742097794863,-122.3964608441798,13.38689,-1,-1,10,65,-9999,1425085036.72862,-2.304733276367188,-40.8011474609375,-9.736289978027344,237.6051940917969,223.8319396972656,10,136680.9723553333,-0.53106689453125,-0.489471435546875,-0.441436767578125,136680.9659260833,-0.1580615401734019,-0.3787260080912964,0.8318410296473401,136680.9141435417,0.7345454144244259,-0.9194523380862233,0.8491916113942105,-0.09243082255125046,0.4100564420223236,0.3874933421611786,0.005648342426866293,-0.006058783270418644,-0.118144303560257,XTrueNorthZVertical,-0.4897345738056404,0.2447788989827216,-0.1226225773730351,-0.8277723477071792,-0.5253474116325378,-0.7507466077804565,-0.4004866778850555,-4.143593788146973,-40.86027526855469,-13.07275199890137,1,10.3.35.51,10.83.46.32,1,0
2015-02-27 16:57:16.805,140,1425085034.410884,37.78742097794863,-122.3964608441798,13.38689,-1,-1,10,65,-9999,1425085036.78051,-3.532470703125,-40.32534790039062,-10.13568878173828,236.7828063964844,223.0095520019531,10,136681.02125475,-0.48785400390625,-0.8479156494140625,-0.190582275390625,136681.017708375,-0.1001079590599696,0.1444748912401446,0.4283249865490412,136680.9659260833,0.7482025182486486,-0.9254192229498202,0.8252317907500999,-0.1622537970542908,-0.3734754025936127,0.8624324202537537,0.1681350022554398,0.1987248212099075,-0.07364002615213394,XTrueNorthZVertical,-0.4834523977540797,0.249497629045384,-0.1329458192952083,-0.8284625155168674,-0.5419448018074036,-0.7347050309181213,-0.4080494344234467,-4.370506286621094,-40.70409774780273,-13.47973823547363,1,10.3.35.51,10.83.46.32,1,0
2015-02-27 16:57:16.850,141,1425085034.410884,37.78742097794863,-122.3964608441798,13.38689,-1,-1,10,65,-9999,1425085036.832205,-4.674942016601562,-40.308349609375,-10.71814727783203,235.8758697509766,222.1026153564453,10,136681.070397125,-0.6157684326171875,-0.6622467041015625,-0.4282989501953125,136681.06949175,-0.2714938267992559,-0.1010943939277349,0.8861964138119663,136681.017708375,0.7725105257359672,-0.9553864286337895,0.7949204471109818,-0.1043004170060158,0.1497250348329544,0.4589188098907471,-0.04034315422177315,-0.2305585592985153,0.1833857297897339,XTrueNorthZVertical,-0.4781127285804718,0.2631672134518226,-0.1436302550201442,-0.8255432179203183,-0.5718547105789185,-0.7138078808784485,-0.4043024778366089,-5.945950508117676,-40.44539642333984,-13.65445518493652,1,10.3.35.51,10.83.46.32,1,0
2015-02-27 16:57:16.901,142,1425085034.410884,37.78742097794863,-122.3964608441798,13.38689,-1,-1,10,65,-9999,1425085036.883364,-6.226661682128906,-39.54365539550781,-11.53359222412109,234.4728240966797,220.6995697021484,10,136681.1193141667,-0.5657806396484375,-0.5857086181640625,-0.6335906982421875,136681.06949175,-0.2714938267992559,-0.1010943939277349,0.8861964138119663,136681.06949175,0.7937575452821878,-0.9628915395973786,0.7505532582017326,-0.2756862342357635,-0.09584431350231171,0.9167899489402771,0.005339161027222872,0.208395391702652,-0.09781511127948761,XTrueNorthZVertical,-0.4661496289649947,0.2717730919454663,-0.16222577610702,-0.8261517570971575,-0.6002945899963379,-0.6820434927940369,-0.4176878333091736,-8.151529312133789,-39.85216522216797,-14.24731349945068,1,10.3.35.51,10.83.46.32,1,0
2015-02-27 16:57:16.949,143,1425085034.410884,37.78742097794863,-122.3964608441798,13.38689,-1,-1,10,65,-9999,1425085036.935633,-8.272872924804688,-38.5240478515625,-12.03284454345703,232.6715393066406,218.8982849121094,10,136681.1684740417,-0.5216064453125,-0.6166229248046875,-0.250518798828125,136681.1730565833,-0.5436899291779657,0.04372670825412002,1.075073124642566,136681.1212740417,0.8174884649333301,-0.9708283576009135,0.7084253129946245,-0.3402544856071472,0.2364471554756165,1.091997623443604,0.06098254770040512,0.06493016332387924,-0.2048283964395523,XTrueNorthZVertical,-0.4554427744072034,0.2796260571242896,-0.1812191437894816,-0.8255548362281255,-0.6267631649971008,-0.6506387591362,-0.428762286901474,-9.124228477478027,-39.56837463378906,-14.44715881347656,1,10.3.35.51,10.83.46.32,1,0
2015-02-27 16:57:17.005,144,1425085034.410884,37.78742097794863,-122.3964608441798,13.38689,-1,-1,10,65,-9999,1425085036.987856,-10.35320281982422,-37.47048950195312,-13.03134155273438,230.0736541748047,216.3003997802734,10,136681.2173911667,-0.732513427734375,-0.5120086669921875,-0.3540802001953125,136681.1730565833,-0.5436899291779657,0.04372670825412002,1.075073124642566,136681.1730565833,0.8231626081853236,-0.9788265224712548,0.6510875305751603,-0.5478821992874146,0.04897681251168251,1.10566520690918,0.1384716928005219,-0.01057111192494631,0.1933258473873138,XTrueNorthZVertical,-0.4368991264435489,0.2952910883573243,-0.1967541292088054,-0.8265652771360182,-0.6600781083106995,-0.6060518026351929,-0.4438446462154388,-10.82354640960693,-38.88865280151367,-15.10469818115234,1,10.3.35.51,10.83.46.32,1,0
2015-02-27 16:57:17.047,145,1425085034.410884,37.78742097794863,-122.3964608441798,13.38689,-1,-1,10,65,-9999,1425085037.039213,-12.39942169189453,-36.11103820800781,-13.76357269287109,228.1006927490234,214.3274383544922,10,136681.2664435,-0.6913909912109375,-0.7411651611328125,-0.524017333984375,136681.2248397083,-0.2280840347148553,0.02529363876913657,0.8388922812655429,136681.2248397083,0.8448937551600236,-0.9969703667679525,0.6045924138872503,-0.2322755753993988,0.03054331243038177,0.869485080242157,-0.04155667871236801,0.05641812086105347,0.0925401970744133,XTrueNorthZVertical,-0.4256240736077214,0.3090856690559756,-0.2139494316640029,-0.8231256624103555,-0.6909567713737488,-0.568426787853241,-0.4466204047203064,-13.75939655303955,-37.53981781005859,-16.09562683105469,1,10.3.35.51,10.83.46.32,1,0
