loggingTime,loggingSample,locationTimestamp_since1970,locationLatitude,locationLongitude,locationAltitude,locationSpeed,locationCourse,locationVerticalAccuracy,locationHorizontalAccuracy,locationFloor,locationHeadingTimestamp_since1970,locationHeadingX,locationHeadingY,locationHeadingZ,locationTrueHeading,locationMagneticHeading,locationHeadingAccuracy,accelerometerTimestamp_sinceReboot,accelerometerAccelerationX,accelerometerAccelerationY,accelerometerAccelerationZ,gyroTimestamp_sinceReboot,gyroRotationX,gyroRotationY,gyroRotationZ,motionTimestamp_sinceReboot,motionYaw,motionRoll,motionPitch,motionRotationRateX,motionRotationRateY,motionRotationRateZ,motionUserAccelerationX,motionUserAccelerationY,motionUserAccelerationZ,motionAttitudeReferenceFrame,motionQuaternionX,motionQuaternionY,motionQuaternionZ,motionQuaternionW,motionGravityX,motionGravityY,motionGravityZ,motionMagneticFieldX,motionMagneticFieldY,motionMagneticFieldZ,motionMagneticFieldCalibrationAccuracy,IP_en0,IP_pdp_ip0,deviceOrientation,state
2015-02-21 12:36:39.110,1,1424547353.825705,39.63853231406885,-106.370320057256,2516.065,-1,-1,10,65,-9999,1424547399.084225,13.89291000366211,-44.39083862304688,-19.46539306640625,293.4934387207031,284.3668823242188,10,16727.481858625,-0.1703948974609375,-0.948394775390625,-0.2398529052734375,16727.45598295833,-0.01465990285255918,0.1721784244796939,-0.1547751993882441,16727.45598295833,0.3405576737161278,-0.5488528707680873,1.281662371468245,-0.02801282331347466,0.185549259185791,-0.1214198395609856,-0.05689181759953499,-0.002614183118566871,0.03612180054187775,XTrueNorthZVertical,-0.6039784110191415,0.1165666243919378,0.02892051764119441,-0.7878997095985072,-0.1487508863210678,-0.9584911465644836,-0.2432446032762527,15.27114486694336,-43.4059944152832,-19.40627098083496,2,192.168.1.118,10.97.20.126,1,0
2015-02-21 12:36:39.123,2,1424547353.825705,39.63853231406885,-106.370320057256,2516.065,-1,-1,10,65,-9999,1424547399.084225,13.89291000366211,-44.39083862304688,-19.46539306640625,293.4934387207031,284.3668823242188,10,16727.530919375,-0.18988037109375,-0.9547119140625,-0.2345428466796875,16727.507757375,0.136924563233661,0.3050192964978274,0.02508031956582123,16727.507757375,0.3415035049315958,-0.5340754114048488,1.284424641085202,0.1235717609524727,0.3183900117874146,0.05843538045883179,-0.03902362287044525,0.02157672680914402,0.02048003673553467,XTrueNorthZVertical,-0.6052426577488598,0.1100598993315064,0.02450733239034688,-0.7880149631096665,-0.1437919288873672,-0.9592750668525696,-0.2431362867355347,15.66497802734375,-43.33896255493164,-19.24147796630859,2,192.168.1.118,10.97.20.126,1,0
2015-02-21 12:36:39.160,3,1424547353.825705,39.63853231406885,-106.370320057256,2516.065,-1,-1,10,65,-9999,1424547399.135648,13.92700576782227,-44.22091674804688,-19.49868774414062,293.7041015625,284.5775451660156,10,16727.57995054167,-0.0944976806640625,-0.984588623046875,-0.2484588623046875,16727.55953208333,0.05771336398310717,0.196614791693934,-0.05154921132400977,16727.55953208333,0.3558411576949971,-0.5320552178114935,1.28669667747362,0.0443606972694397,0.2099853754043579,-0.01819448173046112,-0.002458911389112473,0.01060410123318434,-0.02835003472864628,XTrueNorthZVertical,-0.6068666223928435,0.1045905790491232,0.01859702662600027,-0.7876724646867677,-0.1421944051980972,-0.9599143862724304,-0.2415474206209183,15.76803112030029,-43.43207168579102,-18.9450855255127,2,192.168.1.118,10.97.20.126,1,0
2015-02-21 12:36:39.214,4,1424547353.825705,39.63853231406885,-106.370320057256,2516.065,-1,-1,10,65,-9999,1424547399.18732,14.42143249511719,-44.33987426757812,-19.68180084228516,293.6392822265625,284.5127258300781,10,16727.62911945834,-0.12677001953125,-0.9744720458984375,-0.244659423828125,16727.61130466667,0.05519507885632825,0.01164999818855163,-0.0003933488930047035,16727.61130466667,0.3565619689500529,-0.5294791948366983,1.288497005056224,0.04183908924460411,0.02502113953232765,0.03295586258172989,-0.01918298006057739,-0.007249158341437578,0.002322862390428782,XTrueNorthZVertical,-0.6075861634015387,0.1030948622307484,0.0178093088877782,-0.7873330804474978,-0.1406986117362976,-0.9604174494743347,-0.2404210120439529,16.06195640563965,-43.49575042724609,-18.54791069030762,2,192.168.1.118,10.97.20.126,1,0
2015-02-21 12:36:39.259,5,1424547353.825705,39.63853231406885,-106.370320057256,2516.065,-1,-1,10,65,-9999,1424547399.239699,14.5919303894043,-44.67967224121094,-18.74959564208984,292.1135864257812,282.9870300292969,10,16727.678093875,-0.1359405517578125,-0.9626312255859375,-0.2366180419921875,16727.663079375,0.04439649326827495,-0.03057335563021866,-0.006647782713055795,16727.61130466667,0.3565619689500529,-0.5294791948366983,1.288497005056224,0.04183908924460411,0.02502113953232765,0.03295586258172989,-0.01918298006057739,-0.007249158341437578,0.002322862390428782,XTrueNorthZVertical,-0.6075861634015387,0.1030948622307484,0.0178093088877782,-0.7873330804474978,-0.1406986117362976,-0.9604174494743347,-0.2404210120439529,16.06195640563965,-43.49575042724609,-18.54791069030762,2,192.168.1.118,10.97.20.126,1,0
2015-02-21 12:36:39.311,6,1424547353.825705,39.63853231406885,-106.370320057256,2516.065,-1,-1,10,65,-9999,1424547399.291882,14.52373123168945,-44.81556701660156,-18.48325347900391,291.6012573242188,282.4747009277344,10,16727.72721675,-0.1668548583984375,-0.9804229736328125,-0.21539306640625,16727.71485375,0.04167154684090587,0.01205027130039054,-0.0187273487854372,16727.71485375,0.359668475167217,-0.5326869485918252,1.290749092853435,0.02831733785569668,0.02542182803153992,0.01461702771484852,-0.006388743408024311,-0.008790990337729454,0.01247286517173052,XTrueNorthZVertical,-0.6085405302015209,0.103083138246539,0.0179109284954973,-0.7865948995366741,-0.1403702944517136,-0.9610424041748047,-0.2381045818328857,16.02087783813477,-43.57144546508789,-18.40522003173828,2,192.168.1.118,10.97.20.126,1,0
2015-02-21 12:36:39.388,7,1424547353.825705,39.63853231406885,-106.370320057256,2516.065,-1,-1,10,65,-9999,1424547399.343012,14.84766387939453,-44.56071472167969,-18.10039520263672,290.8660583496094,281.739501953125,10,16727.77614329167,-0.1597442626953125,-0.9743499755859375,-0.2118072509765625,16727.76662670833,0.1095310219449969,0.1669410518799441,0.03595453892883277,16727.71485375,0.359668475167217,-0.5326869485918252,1.290749092853435,0.02831733785569668,0.02542182803153992,0.01461702771484852,-0.006388743408024311,-0.008790990337729454,0.01247286517173052,XTrueNorthZVertical,-0.6085405302015209,0.103083138246539,0.0179109284954973,-0.7865948995366741,-0.1403702944517136,-0.9610424041748047,-0.2381045818328857,16.02087783813477,-43.57144546508789,-18.40522003173828,2,192.168.1.118,10.97.20.126,1,0
2015-02-21 12:36:39.410,8,1424547353.825705,39.63853231406885,-106.370320057256,2516.065,-1,-1,10,65,-9999,1424547399.394528,15.00110626220703,-44.44178771972656,-18.2169189453125,291.2255249023438,282.0989685058594,10,16727.8252,-0.1501312255859375,-0.9647369384765625,-0.2312469482421875,16727.81840120833,0.1057120489418233,-0.01537655950189951,-0.004694886685700689,16727.81840120833,0.4092516456558537,-0.5708246833288675,1.296931439553494,0.0923885703086853,-0.002111476613208652,0.02871890179812908,-0.001800350612029433,-0.007070042658597231,0.0005246365908533335,XTrueNorthZVertical,-0.6130390031917852,0.1019581858171273,0.01109867440034199,-0.7833674590908418,-0.146133616566658,-0.9627327919006348,-0.227575421333313,15.87099838256836,-43.87576293945312,-17.80226898193359,2,192.168.1.118,10.97.20.126,1,0
2015-02-21 12:36:39.459,9,1424547353.825705,39.63853231406885,-106.370320057256,2516.065,-1,-1,10,65,-9999,1424547399.44808,15.01815414428711,-44.59469604492188,-17.80075836181641,290.5472717285156,281.4207153320312,10,16727.87423779167,-0.15643310546875,-0.9658355712890625,-0.221160888671875,16727.87017575,0.1297510725214235,0.07041291395725903,-0.002010686623009825,16727.81840120833,0.4092516456558537,-0.5708246833288675,1.296931439553494,0.0923885703086853,-0.002111476613208652,0.02871890179812908,-0.001800350612029433,-0.007070042658597231,0.0005246365908533335,XTrueNorthZVertical,-0.6130390031917852,0.1019581858171273,0.01109867440034199,-0.7833674590908418,-0.146133616566658,-0.9627327919006348,-0.227575421333313,15.87099838256836,-43.87576293945312,-17.80226898193359,2,192.168.1.118,10.97.20.126,1,0
2015-02-21 12:36:39.507,10,1424547353.825705,39.63853231406885,-106.370320057256,2516.065,-1,-1,10,65,-9999,1424547399.498545,14.76241683959961,-45.15536499023438,-17.55107116699219,290.1793518066406,281.0527954101562,10,16727.92341304167,-0.12841796875,-0.984222412109375,-0.2217254638671875,16727.92194845833,0.1183245135483296,0.1269206649148873,-0.04500582452568508,16727.87017575,0.4253100326094769,-0.5853233845778182,1.299915699291607,0.1164269745349884,0.08367763459682465,0.03140497207641602,-0.01026656106114388,-0.001552258967421949,0.0004723507154267281,XTrueNorthZVertical,-0.6148443568206077,0.1022149347915405,0.00977581048200411,-0.7819354226189132,-0.1478297561407089,-0.9635356068611145,-0.2230370491743088,15.82549667358398,-43.94426345825195,-17.67334175109863,2,192.168.1.118,10.97.20.126,1,0
2015-02-21 12:36:39.558,11,1424547353.825705,39.63853231406885,-106.370320057256,2516.065,-1,-1,10,65,-9999,1424547399.550004,15.12044525146484,-45.71604919433594,-17.06832885742188,289.5693969726562,280.4428405761719,10,16727.972446875,-0.134368896484375,-0.9803314208984375,-0.2061767578125,16727.92194845833,0.1183245135483296,0.1269206649148873,-0.04500582452568508,16727.92194845833,0.4359409357324904,-0.5886622566404472,1.304876570029535,0.1050009503960609,0.1401854902505875,-0.01159249246120453,0.01276953425258398,-0.01737231016159058,-0.00902076717466116,XTrueNorthZVertical,-0.6171177496727726,0.09941653446913273,0.007516602095914026,-0.7805290411197245,-0.1459177285432816,-0.9648512005805969,-0.2185640782117844,15.84505939483643,-44.11774063110352,-17.21774673461914,2,192.168.1.118,10.97.20.126,1,0
2015-02-21 12:36:39.606,12,1424547353.825705,39.63853231406885,-106.370320057256,2516.065,-1,-1,10,65,-9999,1424547399.602325,14.96700668334961,-45.73301696777344,-16.98509216308594,289.6646423339844,280.5380859375,10,16728.02143495833,-0.141693115234375,-0.967559814453125,-0.20562744140625,16728.025497625,0.07126725603495644,-0.006538593108362546,-0.008525577597670666,16727.97372304167,0.4410184823028009,-0.5887587523861323,1.310958536368136,0.08964023739099503,0.04430136829614639,0.006747879087924957,0.008308465592563152,-0.01389975473284721,0.007489054929465055,XTrueNorthZVertical,-0.6195043042888104,0.09685819821184789,0.0066353340921344,-0.7789665759027541,-0.142677366733551,-0.9664316773414612,-0.2136658132076263,16.04863166809082,-44.1671028137207,-16.89971542358398,2,192.168.1.118,10.97.20.126,1,0
2015-02-21 12:36:39.645,13,1424547353.825705,39.63853231406885,-106.370320057256,2516.065,-1,-1,10,65,-9999,1424547399.602325,14.96700668334961,-45.73301696777344,-16.98509216308594,289.6646423339844,280.5380859375,10,16728.07058029167,-0.1558990478515625,-0.9792022705078125,-0.2036285400390625,16728.025497625,0.07126725603495644,-0.006538593108362546,-0.008525577597670666,16728.025497625,0.4499447683843544,-0.5967601713243222,1.314043012197079,0.05795224383473396,0.006727126892656088,0.02487594075500965,0.001013425178825855,-0.0003402714501135051,0.004423205275088549,XTrueNorthZVertical,-0.6209895875783481,0.09667786068663149,0.006189562081728428,-0.777809141318711,-0.1427065432071686,-0.9672195315361023,-0.210050642490387,16.10266494750977,-44.21006011962891,-16.73518943786621,2,192.168.1.118,10.97.20.126,1,0
2015-02-21 12:36:39.704,14,1424547353.825705,39.63853231406885,-106.370320057256,2516.065,-1,-1,10,65,-9999,1424547399.654021,15.08635330200195,-45.61405944824219,-16.86856079101562,289.5800170898438,280.4534606933594,10,16728.11956295833,-0.1579742431640625,-0.9803619384765625,-0.2076263427734375,16728.07727016667,0.0503372067119147,0.00208818461073113,-0.006259227510013234,16728.07727016667,0.4621463751817962,-0.6080423344733596,1.31498828924983,0.03702421113848686,0.01535336207598448,0.02714531682431698,-0.01135417725890875,-0.01174311432987452,0.004048221744596958,XTrueNorthZVertical,-0.6218775314318639,0.09710795559975878,0.005122623597275294,-0.7770535291807842,-0.1445448696613312,-0.9674591422080994,-0.2076767683029175,16.04319000244141,-44.31454849243164,-16.51449394226074,2,192.168.1.118,10.97.20.126,1,0
2015-02-21 12:36:39.743,15,1424547353.825705,39.63853231406885,-106.370320057256,2516.065,-1,-1,10,65,-9999,1424547399.705135,15.2568473815918,-45.24026489257812,-16.66880035400391,289.4195861816406,280.2930297851562,10,16728.16871454167,-0.1671295166015625,-0.96923828125,-0.2042694091796875,16728.12904491667,0.02349414082057003,-0.02675757842035313,-0.006706372257037537,16728.12904491667,0.4708501895467579,-0.6166720444176067,1.314923403038907,0.01018329989165068,-0.01349303405731916,0.02670162729918957,-0.01160628348588943,-0.01291920244693756,-0.001153466990217566,XTrueNorthZVertical,-0.6222585508666861,0.0977642981768734,0.004414021177469819,-0.7766704590221679,-0.1463679671287537,-0.9674427509307861,-0.2064728736877441,15.97029209136963,-44.36857223510742,-16.43992614746094,2,192.168.1.118,10.97.20.126,1,0
2015-02-21 12:36:39.802,16,1424547353.825705,39.63853231406885,-106.370320057256,2516.065,-1,-1,10,65,-9999,1424547399.757058,15.29094314575195,-45.00241088867188,-16.73537445068359,289.3918151855469,280.2652587890625,10,16728.21768291667,-0.16326904296875,-0.9645538330078125,-0.19366455078125,16728.18081925,0.02448883148771463,0.008788431597261486,-0.03329297573540758,16728.18081925,0.4790531332388932,-0.6248291687275835,1.313854941163314,0.01117807906121016,0.02205188013613224,0.0001230135967489332,-0.01936265639960766,-0.003973863087594509,0.007227279711514711,XTrueNorthZVertical,-0.6222769106033222,0.09857118366093635,0.00356805241712804,-0.7765581014380062,-0.1486518681049347,-0.9671717882156372,-0.206110343337059,15.89975929260254,-44.39673614501953,-16.43225479125977,2,192.168.1.118,10.97.20.126,1,0
2015-02-21 12:36:39.840,17,1424547353.825705,39.63853231406885,-106.370320057256,2516.065,-1,-1,10,65,-9999,1424547399.808774,15.39323806762695,-45.27426147460938,-16.80195617675781,289.4010314941406,280.2744750976562,10,16728.266713,-0.15582275390625,-0.973052978515625,-0.188079833984375,16728.23259216667,0.03516730851060535,0.06936762322940293,-0.03851090725919983,16728.23259216667,0.4877780785297211,-0.6306152759051467,1.314089015183096,0.02186023443937302,0.08262965828180313,-0.005088197533041239,-0.01056986209005117,0.004767844919115305,0.01518355216830969,XTrueNorthZVertical,-0.6227780197418361,0.09805904635930354,0.002026118239087573,-0.7762267091667276,-0.1497084647417068,-0.9672312140464783,-0.2050639241933823,15.79929351806641,-44.45875930786133,-16.36132621765137,2,192.168.1.118,10.97.20.126,1,0
2015-02-21 12:36:39.903,18,1424547399.832528,39.63855789318174,-106.3703861661192,2516.195,-1,-1,10,65,-9999,1424547399.860276,15.23979568481445,-45.49513244628906,-17.05164337158203,289.4330749511719,280.3065185546875,10,16728.31579604167,-0.172088623046875,-0.9675140380859375,-0.181243896484375,16728.28436658334,0.01954147713067443,0.01377466810621684,-0.03952583795062903,16728.28436658334,0.4946944643483225,-0.6349502366001792,1.315261383438453,0.006241449620574713,0.02703514881432056,-0.006099778227508068,-0.01450540963560343,-0.007493142038583755,0.01940264366567135,XTrueNorthZVertical,-0.6235134203252917,0.09737067377152953,0.0009161136745657948,-0.7757249350927524,-0.1499232947826385,-0.967528223991394,-0.2034999281167984,15.80526542663574,-44.50559997558594,-16.22764587402344,2,192.168.1.118,10.97.20.126,1,0
2015-02-21 12:36:39.939,19,1424547399.832528,39.63855789318174,-106.3703861661192,2516.195,-1,-1,10,65,-9999,1424547399.911309,15.12044525146484,-45.71601867675781,-17.10158538818359,289.4676513671875,280.3410949707031,10,16728.36484020833,-0.1651153564453125,-0.965972900390625,-0.17462158203125,16728.336141125,0.01431129506586781,0.06483012936412592,-0.04692143629777908,16728.336141125,0.5057334150758543,-0.6432046017262113,1.315893028504404,0.001022552489303052,0.0780876949429512,-0.01348508801311255,-0.02224580198526382,-0.01027862448245287,0.01904243789613247,XTrueNorthZVertical,-0.6242642320816848,0.09701005160835195,-0.0006676039923970891,-0.7751663178703675,-0.1512313783168793,-0.9676876664161682,-0.2017664313316345,15.79035758972168,-44.53513336181641,-16.1609992980957,2,192.168.1.118,10.97.20.126,1,0
2015-02-21 12:36:40.002,20,1424547399.832528,39.63855789318174,-106.3703861661192,2516.195,-1,-1,10,65,-9999,1424547399.968839,14.91585922241211,-45.64805603027344,-16.86853790283203,289.4930725097656,280.3665161132812,10,16728.41390325,-0.1576385498046875,-0.95611572265625,-0.1747894287109375,16728.387913875,0.02397643929398338,0.09134136538364672,-0.04271523967210793,16728.387913875,0.5151480388062104,-0.6485720247805962,1.317529498673654,0.01069792918860912,0.1045963242650032,-0.009273028932511806,-0.009151818230748177,0.014424710534513,0.02515947632491589,XTrueNorthZVertical,-0.6252759223695504,0.09583980592697587,-0.002319667734931807,-0.7744930078908222,-0.1513553857803345,-0.9680989980697632,-0.199689507484436,15.76874160766602,-44.62278366088867,-15.93880844116211,2,192.168.1.118,10.97.20.126,1,0
2015-02-21 12:36:40.037,21,1424547399.832528,39.63855789318174,-106.3703861661192,2516.195,-1,-1,10,65,-9999,1424547399.968839,14.91585922241211,-45.64805603027344,-16.86853790283203,289.4930725097656,280.3665161132812,10,16728.46303941667,-0.163421630859375,-0.9586334228515625,-0.172698974609375,16728.43968858333,0.03916950699677643,0.01622104788356363,-0.05185467590104186,16728.43968858333,0.5233230456065523,-0.6535082341793508,1.319934964863727,0.0258997306227684,0.02947380393743515,-0.01840922236442566,-0.009980934672057629,0.002405622974038124,0.02787050232291222,XTrueNorthZVertical,-0.6264825711409295,0.09473305446164199,-0.003465914406350326,-0.7736493207595614,-0.1509229987859726,-0.9686989784240723,-0.1970904767513275,15.80624389648438,-44.67401504516602,-15.75712299346924,2,192.168.1.118,10.97.20.126,1,0
2015-02-21 12:36:40.096,22,1424547399.832528,39.63855789318174,-106.3703861661192,2516.195,-1,-1,10,65,-9999,1424547400.0406,15.17159652709961,-45.32524108886719,-16.98506164550781,289.5552673339844,280.4287109375,10,16728.51199558334,-0.158294677734375,-0.938262939453125,-0.163604736328125,16728.49146295833,0.04790467537223633,-0.008893093828101601,-0.07814726639506715,16728.49146295833,0.5314534762805931,-0.6615389187699222,1.32275962147057,0.03464486822485924,0.004357186146080494,-0.04469619691371918,-0.01341102737933397,0.02481620199978352,0.02934463694691658,XTrueNorthZVertical,-0.6278277555360942,0.09474256000911756,-0.003529099134083155,-0.7725566320899174,-0.1508193165063858,-0.9693962931632996,-0.1937123090028763,15.82112789154053,-44.70597457885742,-15.65118217468262,2,192.168.1.118,10.97.20.126,1,0
2015-02-21 12:36:40.135,23,1424547399.832528,39.63855789318174,-106.3703861661192,2516.195,-1,-1,10,65,-9999,1424547400.093182,15.59782791137695,-45.34222412109375,-17.30135345458984,289.6175231933594,280.490966796875,10,16728.56103375,-0.165435791015625,-0.9528961181640625,-0.1517181396484375,16728.54323591667,0.08127408383092918,-0.04100176182675094,-0.05782495043278149,16728.49146295833,0.5314534762805931,-0.6615389187699222,1.32275962147057,0.03464486822485924,0.004357186146080494,-0.04469619691371918,-0.01341102737933397,0.02481620199978352,0.02934463694691658,XTrueNorthZVertical,-0.6278277555360942,0.09474256000911756,-0.003529099134083155,-0.7725566320899174,-0.1508193165063858,-0.9693962931632996,-0.1937123090028763,15.82112789154053,-44.70597457885742,-15.65118217468262,2,192.168.1.118,10.97.20.126,1,0
2015-02-21 12:36:40.197,24,1424547399.832528,39.63855789318174,-106.3703861661192,2516.195,-1,-1,10,65,-9999,1424547400.145156,15.49553298950195,-45.24026489257812,-16.63549041748047,289.6496887207031,280.5231323242188,10,16728.61010208333,-0.1307373046875,-0.968597412109375,-0.132965087890625,16728.59501033333,0.1720015905833126,-0.2214383825306716,-0.1158163484336929,16728.59501033333,0.5628975519790119,-0.6987020690793363,1.333637474122976,0.1587674617767334,-0.2081948965787888,-0.08235383778810501,-0.002001434564590454,0.01172802969813347,0.04106548056006432,XTrueNorthZVertical,-0.6329694993473081,0.09697753171678176,-0.001696849359341559,-0.768076909928801,-0.151120513677597,-0.9720094203948975,-0.1798899471759796,15.76923656463623,-44.88888931274414,-15.17269420623779,2,192.168.1.118,10.97.20.126,1,0
2015-02-21 12:36:40.236,25,1424547399.832528,39.63855789318174,-106.3703861661192,2516.195,-1,-1,10,65,-9999,1424547400.197027,15.92176818847656,-45.05339050292969,-16.35249328613281,289.6708679199219,280.5443115234375,10,16728.65913816667,-0.12744140625,-0.989410400390625,-0.1098480224609375,16728.646785,0.3422039495341677,-0.9390439161673898,-0.1175774968625623,16728.646785,0.585050320963406,-0.7482983927426657,1.349734494307547,0.3289810717105865,-0.9258043169975281,-0.08412068337202072,0.04272636771202087,-0.02126780711114407,0.04424870386719704,XTrueNorthZVertical,-0.6391545043292294,0.1055332052345564,0.009068825830212559,-0.7617493460529026,-0.1491869390010834,-0.9756651520729065,-0.1606885194778442,15.77149391174316,-44.95497894287109,-14.97336673736572,2,192.168.1.118,10.97.20.126,1,0
2015-02-21 12:36:40.293,26,1424547399.832528,39.63855789318174,-106.3703861661192,2516.195,-1,-1,10,65,-9999,1424547400.249775,15.8706169128418,-45.34222412109375,-16.06951141357422,291.2040710449219,282.0775146484375,10,16728.70819683333,-0.1620330810546875,-0.927886962890625,-0.206787109375,16728.698557625,0.08604353902715209,-1.615687635393708,-0.02419721534835095,16728.646785,0.585050320963406,-0.7482983927426657,1.349734494307547,0.3289810717105865,-0.9258043169975281,-0.08412068337202072,0.04272636771202087,-0.02126780711114407,0.04424870386719704,XTrueNorthZVertical,-0.6391545043292294,0.1055332052345564,0.009068825830212559,-0.7617493460529026,-0.1491869390010834,-0.9756651520729065,-0.1606885194778442,15.77149391174316,-44.95497894287109,-14.97336673736572,2,192.168.1.118,10.97.20.126,1,0
2015-02-21 12:36:40.335,27,1424547399.832528,39.63855789318174,-106.3703861661192,2516.195,-1,-1,10,65,-9999,1424547400.30162,14.91586685180664,-45.376220703125,-16.26927185058594,293.8917846679688,284.7652282714844,10,16728.75734133333,-0.223846435546875,-0.9139251708984375,-0.1628265380859375,16728.750332375,0.1246814790703487,-0.5354391898047911,-0.3145270479055193,16728.698557625,0.6152091479209997,-0.8470976940399348,1.358376194074162,0.07282143086194992,-1.602448344230652,0.009258884936571121,0.01415593363344669,0.0309140533208847,-0.03531048819422722,XTrueNorthZVertical,-0.6426002870030486,0.1313939349181874,0.03128697326606174,-0.7542026769639242,-0.1579852849245071,-0.9775235652923584,-0.13960100710392,15.04744434356689,-45.16940689086914,-15.07284927368164,2,192.168.1.118,10.97.20.126,1,0
2015-02-21 12:36:40.393,28,1424547399.832528,39.63855789318174,-106.3703861661192,2516.195,-1,-1,10,65,-9999,1424547400.352105,13.92700576782227,-45.54612731933594,-16.70207214355469,296.6760864257812,287.5495300292969,10,16728.80630291667,-0.0414581298828125,-0.9375762939453125,-0.1782073974609375,16728.80210679167,0.03782354538185038,0.1853072760215665,-0.5613064734727308,16728.80210679167,0.5528651689396968,-0.841831087764549,1.382529556928228,0.02468769252300262,0.1984078735113144,-0.5277679562568665,0.06964723765850067,0.05409217998385429,-0.04457042366266251,XTrueNorthZVertical,-0.6456931551135754,0.1440414768317468,0.05867660025228282,-0.7475891295356196,-0.1395935267210007,-0.9823300838470459,-0.124664805829525,14.09974575042725,-45.15464782714844,-16.00458526611328,2,192.168.1.118,10.97.20.126,1,0
2015-02-21 12:36:40.435,29,1424547399.832528,39.63855789318174,-106.3703861661192,2516.195,-1,-1,10,65,-9999,1424547400.40434,13.92700576782227,-45.1043701171875,-17.23475646972656,300.604248046875,291.4776916503906,10,16728.85544233333,-0.0538787841796875,-1.084335327148438,-0.156494140625,16728.80210679167,0.03782354538185038,0.1853072760215665,-0.5613064734727308,16728.80210679167,0.5528651689396968,-0.841831087764549,1.382529556928228,0.02468769252300262,0.1984078735113144,-0.5277679562568665,0.06964723765850067,0.05409217998385429,-0.04457042366266251,XTrueNorthZVertical,-0.6456931551135754,0.1440414768317468,0.05867660025228282,-0.7475891295356196,-0.1395935267210007,-0.9823300838470459,-0.124664805829525,14.09974575042725,-45.15464782714844,-16.00458526611328,2,192.168.1.118,10.97.20.126,1,0
2015-02-21 12:36:40.491,30,1424547399.832528,39.63855789318174,-106.3703861661192,2516.195,-1,-1,10,65,-9999,1424547400.455636,14.86471557617188,-44.88348388671875,-17.31797790527344,302.1176452636719,292.9910888671875,10,16728.904387,-0.089935302734375,-1.060760498046875,-0.1751861572265625,16728.905654125,0.06961183510136319,-0.5760489343190824,-0.4002512739179708,16728.85387970833,0.4563074190782614,-0.7452850822804084,1.401736474536079,0.05528021231293678,-0.175292894244194,-0.4364418089389801,0.06801123172044754,-0.07085146009922028,-0.04390639066696167,XTrueNorthZVertical,-0.6479938449435555,0.1351990798726635,0.06770162899982554,-0.7464862508934833,-0.11410803347826,-0.9857434034347534,-0.1236503720283508,15.89903259277344,-44.62194061279297,-15.81122970581055,2,192.168.1.118,10.97.20.126,1,0
2015-02-21 12:36:40.528,31,1424547399.832528,39.63855789318174,-106.3703861661192,2516.195,-1,-1,10,65,-9999,1424547400.5084,15.59782791137695,-44.76455688476562,-17.06829071044922,302.9813842773438,293.8548278808594,10,16728.953516125,-0.1361541748046875,-0.955841064453125,-0.160614013671875,16728.95742879167,0.05297240461054811,-0.6698942037596216,-0.4345485277004473,16728.905654125,0.3770315649784673,-0.6867887142393244,1.416492401650889,0.05647318810224533,-0.5629483461380005,-0.3667211830615997,0.007514602039009333,-0.07264174520969391,-0.05633779615163803,XTrueNorthZVertical,-0.6495937756483796,0.1363955504652749,0.08111220166156109,-0.7435354993671504,-0.09744990617036819,-0.9881187677383423,-0.1188483610749245,16.54622650146484,-44.3577766418457,-15.89030456542969,2,192.168.1.118,10.97.20.126,1,0
2015-02-21 12:36:40.589,32,1424547399.832528,39.63855789318174,-106.3703861661192,2516.195,-1,-1,10,65,-9999,1424547400.559281,15.76831436157227,-44.42475891113281,-17.53440093994141,306.1510620117188,297.0245056152344,10,16729.00245333333,-0.189666748046875,-0.975067138671875,-0.1665191650390625,16728.95742879167,0.05297240461054811,-0.6698942037596216,-0.4345485277004473,16728.95742879167,0.2844693390835023,-0.6274532696057892,1.429799590297411,0.03983200341463089,-0.6567934155464172,-0.4010181427001953,-0.05365092307329178,0.03423535078763962,-0.04685115814208984,XTrueNorthZVertical,-0.650283587358058,0.1423018929132186,0.09843780318384134,-0.7397239172933204,-0.08250325173139572,-0.9900764226913452,-0.1137628555297852,16.7728271484375,-44.20001220703125,-16.09107780456543,2,192.168.1.118,10.97.20.126,1,0
2015-02-21 12:36:40.625,33,1424547399.832528,39.63855789318174,-106.3703861661192,2516.195,-1,-1,10,65,-9999,1424547400.611396,16.22864532470703,-43.86408996582031,-18.11702728271484,308.5718078613281,299.4452514648438,10,16729.0515115,-0.222747802734375,-1.008224487304688,-0.188446044921875,16729.00920145834,0.02193193052512955,-0.6171777289298301,-0.4566181436539339,16729.00920145834,0.1718607208916231,-0.5473041546040147,1.439889526353801,0.008835803717374802,-0.6041646003723145,-0.4230309128761292,-0.1217387691140175,0.01637679524719715,-0.05505257472395897,XTrueNorthZVertical,-0.6499050987492756,0.1479529222643173,0.1154039769384547,-0.7364884691190469,-0.06792797893285751,-0.991443932056427,-0.1114665940403938,17.17899322509766,-43.76145553588867,-16.84366226196289,2,192.168.1.118,10.97.20.126,1,0
2015-02-21 12:36:40.689,34,1424547399.832528,39.63855789318174,-106.3703861661192,2516.195,-1,-1,10,65,-9999,1424547400.665524,16.14340209960938,-43.74513244628906,-18.59976959228516,311.4695129394531,302.3429565429688,10,16729.100537375,-0.214599609375,-0.9869384765625,-0.1875762939453125,16729.112750625,0.01288197650882228,-0.5369223042158563,-0.391351522187144,16729.06097595833,0.03395665055432414,-0.4411346626073169,1.45002391911913,0.02122871577739716,-0.6193117499351501,-0.3908656537532806,-0.171307235956192,-0.01550861448049545,-0.07950042933225632,XTrueNorthZVertical,-0.6497655291881262,0.1527479872392323,0.1326642281995929,-0.7327162204119883,-0.05144057050347328,-0.9927158951759338,-0.1089456155896187,17.50938415527344,-43.44993209838867,-17.30364990234375,2,192.168.1.118,10.97.20.126,1,0
2015-02-21 12:36:40.724,35,1424547399.832528,39.63855789318174,-106.3703861661192,2516.195,-1,-1,10,65,-9999,1424547400.717905,16.60372924804688,-43.72816467285156,-18.88275146484375,313.2611999511719,304.1346435546875,10,16729.14966854167,-0.2171478271484375,-0.93951416015625,-0.1799468994140625,16729.112750625,0.01288197650882228,-0.5369223042158563,-0.391351522187144,16729.112750625,-0.08819924064786562,-0.3489668958076729,1.455531451574919,-0.0002247843804070726,-0.5239074230194092,-0.357751727104187,-0.1743894964456558,0.0185718759894371,-0.08268727362155914,XTrueNorthZVertical,-0.6487514498010982,0.1583745622942415,0.1477835991273424,-0.729519780303067,-0.03932510316371918,-0.9933643341064453,-0.1080781072378159,17.67262268066406,-43.25892639160156,-17.61349105834961,2,192.168.1.118,10.97.20.126,1,0
2015-02-21 12:36:40.788,36,1424547399.832528,39.63855789318174,-106.3703861661192,2516.195,-1,-1,10,65,-9999,1424547400.717905,16.60372924804688,-43.72816467285156,-18.88275146484375,313.2611999511719,304.1346435546875,10,16729.19861179167,-0.2374420166015625,-0.9427032470703125,-0.1619110107421875,16729.1645235,-0.04566948426933282,-0.4092437036547324,-0.4654158963150107,16729.1645235,-0.2365936954207644,-0.2245671319812199,1.45752175259753,-0.0587606281042099,-0.3963565528392792,-0.4317711293697357,-0.1941591799259186,0.05722044408321381,-0.06244326382875443,XTrueNorthZVertical,-0.6472620145714603,0.1611041480076531,0.161585536381967,-0.7273152686731933,-0.02517065405845642,-0.99359130859375,-0.1101946756243706,18.06052017211914,-42.77975082397461,-18.37395286560059,2,192.168.1.118,10.97.20.126,1,0
2015-02-21 12:36:40.822,37,1424547399.832528,39.63855789318174,-106.3703861661192,2516.195,-1,-1,10,65,-9999,1424547400.793299,17.64373397827148,-42.79367065429688,-19.43208312988281,314.7804870605469,305.6539306640625,10,16729.24764575,-0.21466064453125,-0.9750213623046875,-0.1895904541015625,16729.21629795833,-0.04794595436913256,-0.04152667087760556,-0.4991589462746417,16729.21629795833,-0.4023525885487452,-0.07071330694190378,1.456094981258342,-0.0610479824244976,-0.0286382120102644,-0.4654950797557831,-0.228409543633461,0.05165654793381691,-0.05523873493075371,XTrueNorthZVertical,-0.6463131031722038,0.1587362643002588,0.172116406253085,-0.7262631488570949,-0.008086420595645905,-0.9934290051460266,-0.1141643449664116,18.2966365814209,-42.46444320678711,-18.86520767211914,2,192.168.1.118,10.97.20.126,1,0
2015-02-21 12:36:40.890,38,1424547399.832528,39.63855789318174,-106.3703861661192,2516.195,-1,-1,10,65,-9999,1424547400.845368,18.41094970703125,-42.13104248046875,-19.54860687255859,314.6410217285156,305.5144653320312,10,16729.2967025,-0.163482666015625,-0.9562530517578125,-0.1698760986328125,16729.2680725,0.05806889598863275,0.3028512170543939,-0.4163018794917694,16729.2680725,-0.4886044062424615,0.02191961519284309,1.452480279488216,0.04493678733706474,0.3157436847686768,-0.3825914263725281,-0.2034844160079956,0.008908475749194622,-0.0608208142220974,XTrueNorthZVertical,-0.6462879124721586,0.1526624925637663,0.1737748232951592,-0.7271921726550138,0.002587196184322238,-0.9930087924003601,-0.1180121973156929,18.86481666564941,-42.17071914672852,-18.96420288085938,2,192.168.1.118,10.97.20.126,1,0
2015-02-21 12:36:40.919,39,1424547399.832528,39.63855789318174,-106.3703861661192,2516.195,-1,-1,10,65,-9999,1424547400.89741,19.07587051391602,-41.57035827636719,-19.49868011474609,314.6411437988281,305.5145874023438,10,16729.345739125,-0.098052978515625,-0.986114501953125,-0.1372528076171875,16729.31984529167,0.1656709903560853,0.5900486395374109,-0.3197726763046483,16729.31984529167,-0.6170006875578277,0.1740307348386446,1.455437593583784,0.1525346785783768,0.6029415726661682,-0.2860561311244965,-0.1492793262004852,0.07575102150440216,-0.05239146947860718,XTrueNorthZVertical,-0.6510706037013273,0.1393724912871785,0.1707831588935434,-0.7263026489915364,0.01993056945502758,-0.993353545665741,-0.1133647561073303,20.00493431091309,-41.83010864257812,-18.54552841186523,2,192.168.1.118,10.97.20.126,1,0
2015-02-21 12:36:40.992,40,1424547399.832528,39.63855789318174,-106.3703861661192,2516.195,-1,-1,10,65,-9999,1424547400.949421,20.30341339111328,-41.40045166015625,-18.73296356201172,313.9128112792969,304.7862548828125,10,16729.39478608334,0.0302886962890625,-1.365585327148438,0.0468292236328125,16729.37162008333,0.2364170657657132,0.6903563356791365,-0.10714642750494,16729.37162008333,-0.6924753099348201,0.280565178696209,1.461943112495669,0.2232737839221954,0.7032492160797119,-0.07341443002223969,-0.1440498381853104,-0.2385999411344528,0.05600527301430702,XTrueNorthZVertical,-0.657134840265957,0.1264055194467174,0.162375815692624,-0.7251410817665631,0.03008194081485271,-0.9940813183784485,-0.1043908894062042,20.78183937072754,-41.78792572021484,-17.77009201049805,2,192.168.1.118,10.97.20.126,1,0
2015-02-21 12:36:41.019,41,1424547399.832528,39.63855789318174,-106.3703861661192,2516.195,-1,-1,10,65,-9999,1424547401.002794,20.93423461914062,-41.31550598144531,-17.78411102294922,312.2491149902344,303.12255859375,10,16729.44382958334,0.3415069580078125,-0.90625,-0.160064697265625,16729.42339445834,0.2121743103627219,1.106440368593737,0.5808452874423151,16729.42339445834,-0.5970514374129189,0.2343496635156896,1.476221002799022,0.1990311443805695,1.119333028793335,0.6145769357681274,0.1780987083911896,-0.2548198699951172,0.09188405424356461,XTrueNorthZVertical,-0.6641549899099872,0.1138919784416265,0.1408881794791402,-0.7253118881782896,0.02192876301705837,-0.9955310821533203,-0.09185353666543961,21.26601600646973,-41.8426628112793,-17.05402374267578,2,192.168.1.118,10.97.20.126,1,0
2015-02-21 12:36:41.090,42,1424547399.832528,39.63855789318174,-106.3703861661192,2516.195,-1,-1,10,65,-9999,1424547401.078333,20.96833038330078,-42.02909851074219,-15.95302581787109,306.3613891601562,297.2348327636719,10,16729.492887875,0.2422332763671875,-0.7138671875,-0.133697509765625,16729.47516720833,0.05754212272501508,-0.3136596563384805,0.5802767025495832,16729.47516720833,-0.2258859671429956,-0.1116823415144691,1.484788411416967,0.04439910501241684,-0.3007670342922211,0.6140080094337463,0.3413914740085602,0.2717705070972443,-0.1119441464543343,XTrueNorthZVertical,-0.6660645102728682,0.1169377713702278,0.1204075836173942,-0.7267638455610828,-0.009573852643370628,-0.9963036179542542,-0.08536725491285324,20.74905776977539,-42.86092376708984,-15.04358673095703,2,192.168.1.118,10.97.20.126,1,0
2015-02-21 12:36:41.119,43,1424547399.832528,39.63855789318174,-106.3703861661192,2516.195,-1,-1,10,65,-9999,1424547401.078333,20.96833038330078,-42.02909851074219,-15.95302581787109,306.3613891601562,297.2348327636719,10,16729.54193066667,0.040313720703125,-1.062850952148438,0.0711517333984375,16729.52694195833,0.007415039423107623,-0.7465429094093012,0.6255443158104231,16729.47516720833,-0.2258859671429956,-0.1116823415144691,1.484788411416967,0.04439910501241684,-0.3007670342922211,0.6140080094337463,0.3413914740085602,0.2717705070972443,-0.1119441464543343,XTrueNorthZVertical,-0.6660645102728682,0.1169377713702278,0.1204075836173942,-0.7267638455610828,-0.009573852643370628,-0.9963036179542542,-0.08536725491285324,20.74905776977539,-42.86092376708984,-15.04358673095703,2,192.168.1.118,10.97.20.126,1,0
2015-02-21 12:36:41.195,44,1424547399.832528,39.63855789318174,-106.3703861661192,2516.195,-1,-1,10,65,-9999,1424547401.182059,17.11520767211914,-43.69419860839844,-15.52022552490234,302.5513916015625,293.4248352050781,10,16729.59098375,0.05755615234375,-1.18255615234375,-0.06695556640625,16729.57871658334,0.1596988516115826,0.2921716747670671,0.996592430479021,16729.57871658334,0.4389259280444071,-0.8176571491612719,1.452130136489535,0.1465560793876648,0.3050640523433685,1.030323028564453,0.1223040670156479,-0.149061381816864,0.112982489168644,XTrueNorthZVertical,-0.6593213542838741,0.1575137350183247,0.1082234831009353,-0.7271674500393573,-0.08636961877346039,-0.992967426776886,-0.08096954971551895,18.06389427185059,-43.75603866577148,-15.90586948394775,2,192.168.1.118,10.97.20.126,1,0
2015-02-21 12:36:41.218,45,1424547399.832528,39.63855789318174,-106.3703861661192,2516.195,-1,-1,10,65,-9999,1424547401.182059,17.11520767211914,-43.69419860839844,-15.52022552490234,302.5513916015625,293.4248352050781,10,16729.64013045833,0.0086212158203125,-1.108169555664062,-0.1344451904296875,16729.63048933333,0.2647118207672601,-0.2165325734866366,0.9223983604060675,16729.57871658334,0.4389259280444071,-0.8176571491612719,1.452130136489535,0.1465560793876648,0.3050640523433685,1.030323028564453,0.1223040670156479,-0.149061381816864,0.112982489168644,XTrueNorthZVertical,-0.6593213542838741,0.1575137350183247,0.1082234831009353,-0.7271674500393573,-0.08636961877346039,-0.992967426776886,-0.08096954971551895,18.06389427185059,-43.75603866577148,-15.90586948394775,2,192.168.1.118,10.97.20.126,1,0
2015-02-21 12:36:41.290,46,1424547399.832528,39.63855789318174,-106.3703861661192,2516.195,-1,-1,10,65,-9999,1424547401.234262,14.93291091918945,-44.47576904296875,-15.12071990966797,300.2655334472656,291.1389770507812,10,16729.68908891667,-0.07672119140625,-1.002883911132812,-0.0240478515625,16729.68226379167,0.2105492494655556,-0.2406192676497493,0.4741856857846417,16729.68226379167,0.8758772276278964,-1.260251843586915,1.386820452949021,0.1974067538976669,-0.2277271598577499,0.5079156160354614,0.1036023646593094,-0.03985561802983284,0.01690082438290119,XTrueNorthZVertical,-0.6598574905786102,0.1914078053522437,0.0775739294195628,-0.7224496364988566,-0.1741895228624344,-0.9831241369247437,-0.05590228736400604,13.49343872070312,-45.67394638061523,-15.02362823486328,2,192.168.1.118,10.97.20.126,1,0
2015-02-21 12:36:41.313,47,1424547399.832528,39.63855789318174,-106.3703861661192,2516.195,-1,-1,10,65,-9999,1424547401.285797,12.92110443115234,-45.39323425292969,-15.25388336181641,298.5508117675781,289.4242553710938,10,16729.738267375,-0.045501708984375,-0.949920654296875,0.0081329345703125,16729.734038375,0.1447598494767831,0.4485418413321597,0.2208261217960623,16729.68226379167,0.8758772276278964,-1.260251843586915,1.386820452949021,0.1974067538976669,-0.2277271598577499,0.5079156160354614,0.1036023646593094,-0.03985561802983284,0.01690082438290119,XTrueNorthZVertical,-0.6598574905786102,0.1914078053522437,0.0775739294195628,-0.7224496364988566,-0.1741895228624344,-0.9831241369247437,-0.05590228736400604,13.49343872070312,-45.67394638061523,-15.02362823486328,2,192.168.1.118,10.97.20.126,1,0
2015-02-21 12:36:41.388,48,1424547399.832528,39.63855789318174,-106.3703861661192,2516.195,-1,-1,10,65,-9999,1424547401.33781,11.94929504394531,-45.98789978027344,-14.73783874511719,297.3069458007812,288.1803894042969,10,16729.78717941667,0.029571533203125,-0.9930572509765625,0.03826904296875,16729.78581120833,0.06884404575909335,0.4010837780747296,0.1194110832730819,16729.734038375,0.9426593078104952,-1.316990154223312,1.379529143505953,0.1316322684288025,0.461433619260788,0.2545244991779327,0.129417210817337,0.03106527589261532,0.04501698911190033,XTrueNorthZVertical,-0.6627641031845752,0.1920344148706555,0.06991231037249079,-0.7204018625177168,-0.184013158082962,-0.9817641377449036,-0.04773305356502533,12.19489097595215,-46.14506149291992,-14.69045639038086,2,192.168.1.118,10.97.20.126,1,0
2015-02-21 12:36:41.411,49,1424547399.832528,39.63855789318174,-106.3703861661192,2516.195,-1,-1,10,65,-9999,1424547401.389232,11.74470520019531,-46.02188110351562,-14.23846435546875,296.6639404296875,287.5373840332031,10,16729.83631241667,0.067047119140625,-0.94708251953125,0.0292816162109375,16729.78581120833,0.06884404575909335,0.4010837780747296,0.1194110832730819,16729.78581120833,0.9812481564832447,-1.328525487986216,1.375869884403441,0.05575668811798096,0.4137921333312988,0.1531371623277664,0.2017097622156143,-0.01072885189205408,0.07813082635402679,XTrueNorthZVertical,-0.6653685262643581,0.1845272458389778,0.05864324563322345,-0.7209684023359574,-0.1880378872156143,-0.9810619354248047,-0.04646883904933929,12.04446220397949,-46.46750259399414,-13.76930618286133,2,192.168.1.118,10.97.20.126,1,0
2015-02-21 12:36:41.487,50,1424547399.832528,39.63855789318174,-106.3703861661192,2516.195,-1,-1,10,65,-9999,1424547401.441366,11.57421493530273,-45.78402709960938,-13.97211456298828,298.767578125,289.6410217285156,10,16729.88525679167,0.0078582763671875,-0.9841461181640625,0.079925537109375,16729.88936041667,-0.208109527590934,-1.329549085760107,-0.1837940678901835,16729.837586,0.9843941152910319,-1.336398678815869,1.380652349397001,-0.07583935558795929,-0.5660303831100464,0.0361749529838562,0.250879317522049,0.03489451482892036,0.07317833602428436,XTrueNorthZVertical,-0.6662579127717586,0.1848026861768416,0.0617008046029992,-0.7198204075931511,-0.183832198381424,-0.9819770455360413,-0.04389672353863716,11.98359870910645,-46.53981399536133,-13.57685947418213,2,192.168.1.118,10.97.20.126,1,0
2015-02-21 12:36:41.509,51,1424547399.832528,39.63855789318174,-106.3703861661192,2516.195,-1,-1,10,65,-9999,1424547401.493292,11.02863693237305,-45.85197448730469,-14.57138061523438,302.2485046386719,293.1219482421875,10,16729.93439929167,-0.0814361572265625,-1.081283569335938,0.06561279296875,16729.88936041667,-0.208109527590934,-1.329549085760107,-0.1837940678901835,16729.88936041667,0.9419200818140696,-1.347215319797463,1.385426330867815,-0.2211748212575912,-1.316840887069702,-0.1501211822032928,0.1875811815261841,-0.001277994248084724,0.1207913905382156,XTrueNorthZVertical,-0.6626070735630695,0.2012931720010455,0.0821146554225122,-0.7167218121141343,-0.1797229051589966,-0.9828681349754333,-0.04086584970355034,12.1784086227417,-46.44890594482422,-13.71412372589111,2,192.168.1.118,10.97.20.126,1,0
2015-02-21 12:36:41.588,52,1424547399.832528,39.63855789318174,-106.3703861661192,2516.195,-1,-1,10,65,-9999,1424547401.544994,10.05683135986328,-45.46121215820312,-15.58680725097656,306.3752136230469,297.2486572265625,10,16729.98334220834,-0.1605682373046875,-1.123291015625,0.019317626953125,16729.94113341667,-0.3562870116946157,-1.621697857341799,-0.4073395434753257,16729.94113341667,0.8400733023078411,-1.321714375129591,1.394636721867341,-0.3693521916866302,-1.608989834785461,-0.3736669421195984,0.08840564638376236,-0.09675958752632141,0.1088144779205322,XTrueNorthZVertical,-0.6547712627790473,0.2228760919402177,0.1131056807625837,-0.7133077832778806,-0.1698417961597443,-0.9845239520072937,-0.04320168122649193,11.33480358123779,-46.06172943115234,-15.61189365386963,2,192.168.1.118,10.97.20.126,1,0
2015-02-21 12:36:41.607,53,1424547399.832528,39.63855789318174,-106.3703861661192,2516.195,-1,-1,10,65,-9999,1424547401.598764,9.801097869873047,-44.5947265625,-18.06712341308594,313.9082946777344,304.78173828125,10,16730.03248145833,-0.1737213134765625,-1.111679077148438,0.0558319091796875,16729.99290783333,-0.493793475626459,-1.86566951217174,-0.7740126171051416,16729.99290783333,0.661482127637426,-1.234001505774904,1.416279017883052,-0.5068585276603699,-1.852961540222168,-0.7403403520584106,-0.01531126257032156,-0.1352050751447678,0.07017713785171509,XTrueNorthZVertical,-0.6444628103660043,0.2433884382680119,0.1547462945706635,-0.7081549167481952,-0.145256981253624,-0.988085925579071,-0.05085950717329979,11.09123611450195,-45.74473190307617,-16.68220520019531,2,192.168.1.118,10.97.20.126,1,0
2015-02-21 12:36:41.689,54,1424547399.832528,39.63855789318174,-106.3703861661192,2516.195,-1,-1,10,65,-9999,1424547401.649446,9.357818603515625,-43.64323425292969,-20.06468200683594,322.1891479492188,313.0625915527344,10,16730.08142683333,-0.0991363525390625,-1.210464477539062,0.0425567626953125,16730.04468258334,-0.6476621349796402,-1.414957460867275,-0.8401588806799846,16730.04468258334,0.3505700316226254,-1.009992608585368,1.439668343720023,-0.6607270240783691,-1.402249574661255,-0.8064870238304138,-0.05268119648098946,-0.1121311038732529,0.1367428451776505,XTrueNorthZVertical,-0.6315667531899322,0.2575885688654203,0.1993072948528518,-0.7035966282599807,-0.1107251718640327,-0.9914150238037109,-0.06954313069581985,11.01762962341309,-45.03565979003906,-18.55513763427734,2,192.168.1.118,10.97.20.126,1,0
2015-02-21 12:36:41.704,55,1424547399.832528,39.63855789318174,-106.3703861661192,2516.195,-1,-1,10,65,-9999,1424547401.701594,9.102081298828125,-42.2330322265625,-21.97901916503906,327.9613037109375,318.8347473144531,10,16730.13047075,-0.0228424072265625,-1.160659790039062,-0.1497039794921875,16730.09645529167,-0.6591558056122041,-0.9350116239609008,-0.7605138524878569,16730.09645529167,-0.05246703398712446,-0.6633842122575171,1.444705968158572,-0.6722205877304077,-0.9223039150238037,-0.7268422842025757,-0.02918900363147259,-0.2858777046203613,0.1143137067556381,XTrueNorthZVertical,-0.6184905383941759,0.2606275844628287,0.2338323306254884,-0.7034665627544699,-0.07743941247463226,-0.9920611381530762,-0.09908543527126312,11.54207992553711,-43.37482833862305,-21.89284133911133,2,192.168.1.118,10.97.20.126,1,0
2015-02-21 12:36:41.790,56,1424547399.832528,39.63855789318174,-106.3703861661192,2516.195,-1,-1,10,65,-9999,1424547401.75268,9.579456329345703,-41.07766723632812,-23.97658538818359,332.7915954589844,323.6650390625,10,16730.17952454167,0.011199951171875,-1.00103759765625,-0.1385955810546875,16730.14823008333,-0.4859536620094838,-1.575687754769045,-1.114060471420781,16730.14823008333,-0.4834242033884115,-0.2981143744248891,1.440540554654419,-0.4990183115005493,-1.562980175018311,-1.080389261245728,0.05264635011553764,-0.1557491272687912,-0.04748714342713356,XTrueNorthZVertical,-0.6065938490274357,0.264507873562008,0.2730236229854384,-0.6982389534128511,-0.03815050050616264,-0.9915286898612976,-0.1241589710116386,11.86334800720215,-42.67008209228516,-23.07415580749512,2,192.168.1.118,10.97.20.126,1,0
2015-02-21 12:36:41.803,57,1424547399.832528,39.63855789318174,-106.3703861661192,2516.195,-1,-1,10,65,-9999,1424547401.75268,9.579456329345703,-41.07766723632812,-23.97658538818359,332.7915954589844,323.6650390625,10,16730.22855041667,0.0377349853515625,-0.9181671142578125,-0.143585205078125,16730.2000045,-0.3717120407283547,-1.384405410525777,-1.165576126915056,16730.2000045,-0.9086449075049422,0.04559235450734625,1.426165511081571,-0.3847765326499939,-1.371697902679443,-1.131905198097229,0.01442726328969002,0.04763413220643997,0.007472495548427105,XTrueNorthZVertical,-0.5952219395910169,0.2715180129689252,0.3184415062778759,-0.6859911558961782,0.00656883092597127,-0.9895591735839844,-0.143977627158165,12.27400779724121,-41.53511428833008,-24.86111259460449,2,192.168.1.118,10.97.20.126,1,0
2015-02-21 12:36:41.889,58,1424547399.832528,39.63855789318174,-106.3703861661192,2516.195,-1,-1,10,65,-9999,1424547401.855727,10.07388305664062,-38.036376953125,-26.29041290283203,346.2375793457031,337.1110229492188,10,16730.27760695833,0.125457763671875,-0.90216064453125,-0.161865234375,16730.25177745834,-0.07616827138902926,-0.5067537490713296,-1.114870338708274,16730.25177745834,-1.250787787435639,0.3391841811044611,1.404121930687055,-0.08923265337944031,-0.4940464198589325,-1.081199765205383,0.009986323304474354,0.09220579266548157,0.01756635308265686,XTrueNorthZVertical,-0.5914941287596835,0.2681581056829604,0.3521932617841697,-0.6739331420686769,0.05519922450184822,-0.9861419200897217,-0.1564518511295319,13.17030429840088,-39.79009246826172,-27.15111541748047,2,192.168.1.118,10.97.20.126,1,0
2015-02-21 12:36:41.901,59,1424547399.832528,39.63855789318174,-106.3703861661192,2516.195,-1,-1,10,65,-9999,1424547401.855727,10.07388305664062,-38.036376953125,-26.29041290283203,346.2375793457031,337.1110229492188,10,16730.326637,0.2096099853515625,-0.901336669921875,-0.195068359375,16730.30355191667,0.2301402613925055,-0.3672075700605947,-0.9061040755925267,16730.30355191667,-1.512681923325229,0.5817989069272795,1.385767513730724,0.2170760184526443,-0.3545003533363342,-0.872434139251709,0.061482984572649,0.07317142933607101,-0.02695740386843681,XTrueNorthZVertical,-0.5965252779279619,0.2594306529255184,0.3725785815368274,-0.6618448287332886,0.1010994091629982,-0.9829309582710266,-0.1537066549062729,14.0595588684082,-39.2933349609375,-27.42725563049316,2,192.168.1.118,10.97.20.126,1,0
2015-02-21 12:36:41.988,60,1424547399.832528,39.63855789318174,-106.3703861661192,2516.195,-1,-1,10,65,-9999,1424547401.960563,11.54011917114258,-37.90048217773438,-26.52346038818359,356.5452270507812,347.4186706542969,10,16730.375717875,0.231048583984375,-0.859344482421875,-0.192626953125,16730.35532675,0.4672438900872411,-0.9358766186829586,-0.4689432531788207,16730.35532675,-1.706259115023311,0.7386040933141711,1.380038537560786,0.4541797637939453,-0.9231695532798767,-0.4352735877037048,0.09500467032194138,0.1012303456664085,-0.04765661805868149,XTrueNorthZVertical,-0.6001131707020949,0.2641344639393646,0.3907262917954543,-0.6460883684408042,0.127651572227478,-0.9818608164787292,-0.1401943415403366,15.29182434082031,-38.87577438354492,-27.36285400390625,2,192.168.1.118,10.97.20.126,1,0
2015-02-21 12:36:41.999,61,1424547399.832528,39.63855789318174,-106.3703861661192,2516.195,-1,-1,10,65,-9999,1424547401.960563,11.54011917114258,-37.90048217773438,-26.52346038818359,356.5452270507812,347.4186706542969,10,16730.42472820833,0.1851348876953125,-0.9222412109375,-0.233123779296875,16730.40709941667,0.4946795093211284,-1.378770427975278,-0.2119463437734111,16730.35532675,-1.706259115023311,0.7386040933141711,1.380038537560786,0.4541797637939453,-0.9231695532798767,-0.4352735877037048,0.09500467032194138,0.1012303456664085,-0.04765661805868149,XTrueNorthZVertical,-0.6001131707020949,0.2641344639393646,0.3907262917954543,-0.6460883684408042,0.127651572227478,-0.9818608164787292,-0.1401943415403366,15.29182434082031,-38.87577438354492,-27.36285400390625,2,192.168.1.118,10.97.20.126,1,0
2015-02-21 12:36:42.088,62,1424547399.832528,39.63855789318174,-106.3703861661192,2516.195,-1,-1,10,65,-9999,1424547402.063313,8.965690612792969,-38.5631103515625,-26.10730743408203,3.929383277893066,354.8028259277344,10,16730.47377579167,0.1878509521484375,-0.975555419921875,-0.2979278564453125,16730.45887416667,0.4773125032205037,-1.346536058773177,-0.171139791654563,16730.45887416667,-1.979760134027256,0.879554460889708,1.39749908933552,0.4642486870288849,-1.333829283714294,-0.1374708563089371,0.05104832351207733,0.02663229405879974,-0.154037743806839,XTrueNorthZVertical,-0.5919183002361224,0.3076860428184111,0.4288556432770681,-0.6091345580043239,0.1328506022691727,-0.9850215911865234,-0.1099240481853485,13.86548233032227,-39.52188873291016,-27.19669914245605,2,192.168.1.118,10.97.20.126,1,0
2015-02-21 12:36:42.097,63,1424547399.832528,39.63855789318174,-106.3703861661192,2516.195,-1,-1,10,65,-9999,1424547402.063313,8.965690612792969,-38.5631103515625,-26.10730743408203,3.929383277893066,354.8028259277344,10,16730.52281633333,0.12811279296875,-0.98870849609375,-0.3061370849609375,16730.51064866667,0.235468980417645,-1.772109467283948,-0.2565961036613526,16730.51064866667,-2.092212687374575,0.9140841361241036,1.400947794359959,0.2224049419164658,-1.759402751922607,-0.222927913069725,0.03522287681698799,-0.01623593270778656,-0.217771053314209,XTrueNorthZVertical,-0.5817584785315979,0.3315995837731252,0.4512821461828036,-0.5898671552647412,0.1338750272989273,-0.9856103658676147,-0.1031975746154785,12.4804573059082,-40.01788711547852,-27.14219093322754,2,192.168.1.118,10.97.20.126,1,0
2015-02-21 12:36:42.160,64,1424547399.832528,39.63855789318174,-106.3703861661192,2516.195,-1,-1,10,65,-9999,1424547402.115644,7.482406616210938,-38.68203735351562,-26.29041290283203,8.377839088439941,359.2512817382812,10,16730.57186058334,0.038604736328125,-0.94036865234375,-0.2803192138671875,16730.56242166667,-0.07109867793795444,-1.848320615566528,-0.2516753809152132,16730.51064866667,-2.092212687374575,0.9140841361241036,1.400947794359959,0.2224049419164658,-1.759402751922607,-0.222927913069725,0.03522287681698799,-0.01623593270778656,-0.217771053314209,XTrueNorthZVertical,-0.5817584785315979,0.3315995837731252,0.4512821461828036,-0.5898671552647412,0.1338750272989273,-0.9856103658676147,-0.1031975746154785,12.4804573059082,-40.01788711547852,-27.14219093322754,2,192.168.1.118,10.97.20.126,1,0
2015-02-21 12:36:42.197,65,1424547399.832528,39.63855789318174,-106.3703861661192,2516.195,-1,-1,10,65,-9999,1424547402.167212,5.197811126708984,-38.61407470703125,-26.78981018066406,13.59159278869629,4.465035438537598,10,16730.62088666667,0.0121002197265625,-0.8975067138671875,-0.2621917724609375,16730.614196125,-0.2049222563983271,-1.437908316825469,-0.07464494324550394,16730.56242166667,-2.143590152471084,0.8721280307926799,1.393558339485899,-0.08416309207677841,-1.835613965988159,-0.2180079966783524,-0.08185543864965439,0.04131073877215385,-0.1647947728633881,XTrueNorthZVertical,-0.562796105730324,0.355751053518678,0.4806656429826326,-0.5706683087193554,0.1350017935037613,-0.984334409236908,-0.1134034618735313,9.605526924133301,-40.27888870239258,-27.91480827331543,2,192.168.1.118,10.97.20.126,1,0
2015-02-21 12:36:42.287,66,1424547399.832528,39.63855789318174,-106.3703861661192,2516.195,-1,-1,10,65,-9999,1424547402.270979,0.7820663452148438,-37.9854736328125,-27.505615234375,22.77060127258301,13.64404392242432,10,16730.66993770834,0.0572662353515625,-0.870880126953125,-0.3162078857421875,16730.665970875,-0.083519661262084,-1.194945201100341,0.05355616952149348,16730.665970875,-2.095019094998486,0.6796917898691706,1.376988515715054,-0.09658382833003998,-1.182238817214966,0.08722289651632309,-0.06617163121700287,0.1123357191681862,-0.1579437553882599,XTrueNorthZVertical,-0.5223176805700032,0.3902390160961179,0.5247718922626956,-0.5472771323531809,0.1210574954748154,-0.9812780022621155,-0.1497955024242401,6.491623878479004,-39.83103942871094,-29.41493988037109,2,192.168.1.118,10.97.20.126,1,0
2015-02-21 12:36:42.293,67,1424547399.832528,39.63855789318174,-106.3703861661192,2516.195,-1,-1,10,65,-9999,1424547402.270979,0.7820663452148438,-37.9854736328125,-27.505615234375,22.77060127258301,13.64404392242432,10,16730.71907616667,0.0531158447265625,-0.8727264404296875,-0.3094329833984375,16730.665970875,-0.083519661262084,-1.194945201100341,0.05355616952149348,16730.665970875,-2.095019094998486,0.6796917898691706,1.376988515715054,-0.09658382833003998,-1.182238817214966,0.08722289651632309,-0.06617163121700287,0.1123357191681862,-0.1579437553882599,XTrueNorthZVertical,-0.5223176805700032,0.3902390160961179,0.5247718922626956,-0.5472771323531809,0.1210574954748154,-0.9812780022621155,-0.1497955024242401,6.491623878479004,-39.83103942871094,-29.41493988037109,2,192.168.1.118,10.97.20.126,1,0
2015-02-21 12:36:42.357,68,1424547399.832528,39.63855789318174,-106.3703861661192,2516.195,-1,-1,10,65,-9999,1424547402.32298,-1.349086761474609,-37.59471130371094,-27.52225494384766,25.63615798950195,16.50960159301758,10,16730.7680285,0.0093231201171875,-0.8893890380859375,-0.2313385009765625,16730.76951841667,0.09908663678192417,-1.109157858170054,0.2810266119211945,16730.71774375,-2.056601085319131,0.5827014962401245,1.380252563717717,0.01281469687819481,-1.185112237930298,0.2118662148714066,-0.04763993248343468,0.1112501472234726,-0.1587705463171005,XTrueNorthZVertical,-0.5045370126108093,0.4078881950046707,0.5381989737022395,-0.5379698277904006,0.1042195186018944,-0.9819014072418213,-0.158139243721962,3.520577669143677,-39.62607574462891,-30.1872673034668,2,192.168.1.118,10.97.20.126,1,0
2015-02-21 12:36:42.391,69,1424547399.832528,39.63855789318174,-106.3703861661192,2516.195,-1,-1,10,65,-9999,1424547402.376036,-3.650722503662109,-37.61170959472656,-27.505615234375,32.41129684448242,23.28474044799805,10,16730.81705604167,-0.05816650390625,-1.01287841796875,-0.0986175537109375,16730.76951841667,0.09908663678192417,-1.109157858170054,0.2810266119211945,16730.76951841667,-2.0005099699933,0.470211085209271,1.389200807915111,0.08602224290370941,-1.096451640129089,0.3146923184394836,-0.07250181585550308,0.09416775405406952,-0.0703391507267952,XTrueNorthZVertical,-0.4868146451372709,0.4272140305097666,0.5482985480837562,-0.5290259192233433,0.08182493597269058,-0.9835568070411682,-0.1609993427991867,2.188257217407227,-39.65962982177734,-30.26907920837402,2,192.168.1.118,10.97.20.126,1,0
2015-02-21 12:36:42.459,70,1424547399.832528,39.63855789318174,-106.3703861661192,2516.195,-1,-1,10,65,-9999,1424547402.4266,-6.395637512207031,-38.03645324707031,-26.75652313232422,35.43487930297852,26.30832099914551,10,16730.86610770833,-0.034088134765625,-0.9832763671875,-0.125152587890625,16730.821292875,0.1763787621509669,-0.8849101070054581,0.390208493447282,16730.821292875,-1.914196775931177,0.3362815221620412,1.402208593193033,0.1632667034864426,-0.8723260760307312,0.4239011704921722,-0.1135338768362999,-0.02705570310354233,0.05977471172809601,XTrueNorthZVertical,-0.4707912154712465,0.446272897697772,0.5537169085523168,-0.522105128325887,0.05536737665534019,-0.9858227372169495,-0.1583922654390335,0.1379685401916504,-39.76683807373047,-30.20713996887207,2,192.168.1.118,10.97.20.126,1,0
2015-02-21 12:36:42.491,71,1424547399.832528,39.63855789318174,-106.3703861661192,2516.195,-1,-1,10,65,-9999,1424547402.478135,-8.782527923583984,-38.20635986328125,-26.09066009521484,37.43984222412109,28.31328392028809,10,16730.91514283334,-0.0066986083984375,-0.9148712158203125,-0.197723388671875,16730.87306566667,0.2765711434174919,-0.7977847919435158,0.4208558849558049,16730.87306566667,-1.795124199064577,0.1791862778391392,1.418454085188749,0.2634592056274414,-0.7852008938789368,0.4545482695102692,-0.06113507598638535,0.005141978617757559,0.02417161501944065,XTrueNorthZVertical,-0.4575191536623519,0.4647731946065793,0.5545765470096268,-0.5168239572035572,0.02704694122076035,-0.9884183406829834,-0.1493242084980011,-3.093505382537842,-40.08337783813477,-29.62507438659668,2,192.168.1.118,10.97.20.126,1,0
2015-02-21 12:36:42.589,72,1424547399.832528,39.63855789318174,-106.3703861661192,2516.195,-1,-1,10,65,-9999,1424547402.582011,-13.01073837280273,-38.85195922851562,-24.02649688720703,39.15202331542969,30.02546501159668,10,16730.96420570833,-0.1505126953125,-1.040359497070312,-0.1441192626953125,16730.976615125,0.5002476465282661,-0.8405120158405291,0.2392749039314772,16730.9248405,-1.656442581023969,-0.005747390039705555,1.436622327410689,0.3808978199958801,-1.116055011749268,0.3917431533336639,-0.005929772276431322,0.07614094763994217,-0.06395351141691208,XTrueNorthZVertical,-0.443412479306051,0.4863131025001532,0.5559738426551349,-0.5077184982261381,-0.0007688361220061779,-0.9910121560096741,-0.1337698847055435,-4.347564697265625,-40.2703742980957,-29.21108245849609,2,192.168.1.118,10.97.20.126,1,0
2015-02-21 12:36:42.591,73,1424547399.832528,39.63855789318174,-106.3703861661192,2516.195,-1,-1,10,65,-9999,1424547402.582011,-13.01073837280273,-38.85195922851562,-24.02649688720703,39.15202331542969,30.02546501159668,10,16731.013233125,-0.13226318359375,-1.049957275390625,-0.178466796875,16730.976615125,0.5002476465282661,-0.8405120158405291,0.2392749039314772,16730.976615125,-1.499100296823276,-0.2142908657240775,1.45647884690788,0.487135112285614,-0.8279283046722412,0.2729666531085968,-0.1426891088485718,-0.0620538629591465,-0.03607726097106934,XTrueNorthZVertical,-0.4300120808908264,0.5092736250094554,0.5576772930038776,-0.4946979580015697,-0.02425729855895042,-0.9934728741645813,-0.1114599704742432,-10.98809051513672,-38.65987014770508,-24.87808990478516,2,192.168.1.118,10.97.20.126,1,0
2015-02-21 12:36:42.658,74,1424547399.832528,39.63855789318174,-106.3703861661192,2516.195,-1,-1,10,65,-9999,1424547402.634118,-14.08483505249023,-39.61653137207031,-22.57826232910156,40.48500823974609,31.35845184326172,10,16731.062397125,-0.0602264404296875,-1.063003540039062,-0.1558685302734375,16731.028388,0.5755751579611573,-0.1225016817181188,0.07912118440570913,16731.028388,-1.327755641992491,-0.4048118134490754,1.478335850142638,0.5624561905860901,-0.1099177598953247,0.1128104701638222,-0.07911502569913864,-0.05190936475992203,-0.09919987618923187,XTrueNorthZVertical,-0.4282174185823158,0.523637656823399,0.5527387143245563,-0.486737514571684,-0.03636349365115166,-0.9957285523414612,-0.08486689627170563,-13.1905632019043,-39.28375244140625,-22.73848915100098,2,192.168.1.118,10.97.20.126,1,0
2015-02-21 12:36:42.691,75,1424547399.832528,39.63855789318174,-106.3703861661192,2516.195,-1,-1,10,65,-9999,1424547402.634118,-14.08483505249023,-39.61653137207031,-22.57826232910156,40.48500823974609,31.35845184326172,10,16731.11132470833,-0.0127716064453125,-1.043930053710938,-0.143646240234375,16731.08016245833,0.4028973907770736,-0.01276772689805788,-0.02486513614974282,16731.08016245833,-1.18472994831562,-0.5483039977077919,1.496189177828062,0.3897705972194672,-0.0001832598500186577,0.008815144188702106,-0.004055195022374392,-0.05659957230091095,-0.08343701809644699,XTrueNorthZVertical,-0.4324748793516367,0.5302447678441514,0.5467465877264565,-0.4825703900350198,-0.0388525202870369,-0.9972181916236877,-0.06361193209886551,-13.43079376220703,-39.57309341430664,-22.08680725097656,2,192.168.1.118,10.97.20.126,1,0
2015-02-21 12:36:42.744,76,1424547399.832528,39.63855789318174,-106.3703861661192,2516.195,-1,-1,10,65,-9999,1424547402.737656,-14.39171981811523,-40.02430725097656,-20.98020172119141,41.0224609375,31.89590263366699,10,16731.16049595833,-0.032470703125,-0.97430419921875,-0.09991455078125,16731.13193725,0.2005043384659947,-0.2513877595174847,0.002316417516150921,16731.13193725,-1.113178395499913,-0.6245242078778478,1.5041456935169,0.187372624874115,-0.2388021796941757,0.03597790002822876,0.03634893521666527,-0.02277391962707043,-0.07556261867284775,XTrueNorthZVertical,-0.4334678200271854,0.5339386757313658,0.5453373786218918,-0.4791892430577963,-0.03894292935729027,-0.9977796673774719,-0.05403028056025505,-13.48660755157471,-39.91799926757812,-21.42212867736816,2,192.168.1.118,10.97.20.126,1,0
2015-02-21 12:36:42.790,77,1424547399.832528,39.63855789318174,-106.3703861661192,2516.195,-1,-1,10,65,-9999,1424547402.737656,-14.39171981811523,-40.02430725097656,-20.98020172119141,41.0224609375,31.89590263366699,10,16731.20942341667,-0.067291259765625,-0.994171142578125,-0.0778045654296875,16731.18371,0.01346627405198567,-0.3917738995360306,0.0159813633854565,16731.18371,-1.053152157565471,-0.7009109073913384,1.506051281273423,0.0003347000456415117,-0.3791884779930115,0.04964250698685646,-0.006140542216598988,0.02221202291548252,-0.03360588848590851,XTrueNorthZVertical,-0.429380065144341,0.5393597222958875,0.5473798839020327,-0.4744461612726221,-0.04172628000378609,-0.9979047775268555,-0.04944770038127899,-13.86036014556885,-40.10464477539062,-20.82668495178223,2,192.168.1.118,10.97.20.126,1,0
2015-02-21 12:36:42.843,78,1424547399.832528,39.63855789318174,-106.3703861661192,2516.195,-1,-1,10,65,-9999,1424547402.789431,-15.03957748413086,-40.09226989746094,-20.64727020263672,42.36745452880859,33.24089813232422,10,16731.258612375,-0.093414306640625,-0.986785888671875,-0.0700531005859375,16731.23548479167,-0.1554521749373422,-0.477424622302396,0.08450023717545117,16731.23548479167,-1.055708247479745,-0.7194627421047906,1.496887173551942,-0.1685916483402252,-0.4648392200469971,0.1181584000587463,-0.0253290943801403,0.009660098701715469,-0.01940981112420559,XTrueNorthZVertical,-0.4203256613778422,0.5436503089953296,0.5523934331008696,-0.4718391914720336,-0.0486607737839222,-0.9972699880599976,-0.05554135888814926,-14.15850257873535,-40.07538986206055,-20.68194580078125,2,192.168.1.118,10.97.20.126,1,0
2015-02-21 12:36:42.888,79,1424547399.832528,39.63855789318174,-106.3703861661192,2516.195,-1,-1,10,65,-9999,1424547402.842156,-15.58516311645508,-40.29615783691406,-20.41422271728516,43.28151702880859,34.15496063232422,10,16731.30751533333,-0.0839080810546875,-0.983367919921875,-0.07916259765625,16731.28725925,-0.1789777410587752,-0.4426557226908665,0.1215842227225866,16731.28725925,-1.058054841018892,-0.7399722358582439,1.483190794780681,-0.1921253353357315,-0.4300707280635834,0.1552432179450989,-0.03548805043101311,0.01442985981702805,-0.008674738928675652,XTrueNorthZVertical,-0.4090961661846882,0.5480271108094121,0.5578345974339225,-0.4702416635752271,-0.05899437144398689,-0.9961650967597961,-0.0646132230758667,-14.81887054443359,-39.81439208984375,-20.72338104248047,2,192.168.1.118,10.97.20.126,1,0
2015-02-21 12:36:42.941,80,1424547399.832528,39.63855789318174,-106.3703861661192,2516.195,-1,-1,10,65,-9999,1424547402.893326,-16.57400894165039,-39.88838195800781,-20.54738616943359,43.81084060668945,34.68428421020508,10,16731.35667820833,-0.0713043212890625,-0.9728546142578125,-0.0943450927734375,16731.33903233333,-0.1738088116990404,-0.4818726339550464,0.1470293953577486,16731.33903233333,-1.055533671723497,-0.7642678907857413,1.468055368918993,-0.1869652420282364,-0.469287782907486,0.1806872934103012,0.001759050297550857,0.02252830192446709,-0.01724059320986271,XTrueNorthZVertical,-0.3975425535030558,0.5522147921813328,0.5627529003240342,-0.4693910547216144,-0.07097291946411133,-0.9947267770767212,-0.07403748482465744,-16.1085205078125,-39.25482559204102,-20.82827758789062,2,192.168.1.118,10.97.20.126,1,0
2015-02-21 12:36:42.988,81,1424547399.832528,39.63855789318174,-106.3703861661192,2516.195,-1,-1,10,65,-9999,1424547402.944692,-17.10254287719727,-40.00732421875,-20.56403350830078,44.0560188293457,34.92946243286133,10,16731.40560758334,-0.10687255859375,-0.98004150390625,-0.093292236328125,16731.39080683333,-0.1365003216720113,-0.5604960735530197,0.1171434016048794,16731.33903233333,-1.055533671723497,-0.7642678907857413,1.468055368918993,-0.1869652420282364,-0.469287782907486,0.1806872934103012,0.001759050297550857,0.02252830192446709,-0.01724059320986271,XTrueNorthZVertical,-0.3975425535030558,0.5522147921813328,0.5627529003240342,-0.4693910547216144,-0.07097291946411133,-0.9947267770767212,-0.07403748482465744,-16.1085205078125,-39.25482559204102,-20.82827758789062,2,192.168.1.118,10.97.20.126,1,0
2015-02-21 12:36:43.039,82,1424547399.832528,39.63855789318174,-106.3703861661192,2516.195,-1,-1,10,65,-9999,1424547402.997599,-17.98909378051758,-39.5655517578125,-20.59732055664062,44.69587326049805,35.56931686401367,10,16731.45477645833,-0.15478515625,-1.019424438476562,-0.078399658203125,16731.442581625,0.009168464684815794,-0.2891497858781542,0.04275598603678614,16731.442581625,-1.033131123621846,-0.8344997537429825,1.441545082095778,-0.004015360027551651,-0.2765662670135498,0.07641266286373138,-0.04620446637272835,-0.01726771146059036,-0.0006467548664659262,XTrueNorthZVertical,-0.374248402992382,0.5627250843366672,0.5717807877760168,-0.4651294343207741,-0.09550390392541885,-0.9916586875915527,-0.08655722439289093,-17.45086097717285,-38.66628265380859,-20.84775733947754,2,192.168.1.118,10.97.20.126,1,0
2015-02-21 12:36:43.089,83,1424547399.832528,39.63855789318174,-106.3703861661192,2516.195,-1,-1,10,65,-9999,1424547403.048966,-18.85860824584961,-39.54856872558594,-20.44749450683594,45.35401153564453,36.22745513916016,10,16731.50369908334,-0.151275634765625,-1.020721435546875,-0.0536956787109375,16731.494354375,0.1709176840196504,0.1659056148481213,-0.009388441790856338,16731.442581625,-1.033131123621846,-0.8344997537429825,1.441545082095778,-0.004015360027551651,-0.2765662670135498,0.07641266286373138,-0.04620446637272835,-0.01726771146059036,-0.0006467548664659262,XTrueNorthZVertical,-0.374248402992382,0.5627250843366672,0.5717807877760168,-0.4651294343207741,-0.09550390392541885,-0.9916586875915527,-0.08655722439289093,-17.45086097717285,-38.66628265380859,-20.84775733947754,2,192.168.1.118,10.97.20.126,1,0
2015-02-21 12:36:43.137,84,1424547399.832528,39.63855789318174,-106.3703861661192,2516.195,-1,-1,10,65,-9999,1424547403.100847,-19.08024215698242,-39.53158569335938,-20.66388702392578,44.8269157409668,35.70035934448242,10,16731.55285533334,-0.1365203857421875,-1.013397216796875,-0.0216522216796875,16731.546129125,0.224681313790061,0.407181085390466,-0.04737896737305469,16731.494354375,-0.9801266944618391,-0.8888681304847142,1.441215027005295,0.1577280759811401,0.1784875839948654,0.02427413314580917,-0.05129078030586243,-0.03407971560955048,0.02300462312996387,XTrueNorthZVertical,-0.3735631459412699,0.5654446776321604,0.5696212258826665,-0.4650318259874644,-0.1003205478191376,-0.9916160702705383,-0.08144578337669373,-18.41356086730957,-38.40271759033203,-20.5040283203125,2,192.168.1.118,10.97.20.126,1,0
2015-02-21 12:36:43.196,85,1424547399.832528,39.63855789318174,-106.3703861661192,2516.195,-1,-1,10,65,-9999,1424547403.152364,-18.87565231323242,-39.53157043457031,-20.39754486083984,43.69951629638672,34.57295989990234,10,16731.60178479167,-0.14581298828125,-1.007095336914062,0.0185546875,16731.59790366667,0.1771321704233503,0.3380198571455443,-0.1715382005536389,16731.546129125,-0.8975757081168733,-0.9537102598460135,1.446642756683129,0.2114900946617126,0.4197613894939423,-0.0137103134766221,-0.03549381345510483,-0.02229982055723667,0.04436065256595612,XTrueNorthZVertical,-0.3805297312350515,0.5651263670210235,0.5626642440770692,-0.4682289066326028,-0.1009960547089577,-0.9923028349876404,-0.07165862619876862,-18.32439231872559,-38.49060821533203,-20.4189338684082,2,192.168.1.118,10.97.20.126,1,0
2015-02-21 12:36:43.235,86,1424547399.832528,39.63855789318174,-106.3703861661192,2516.195,-1,-1,10,65,-9999,1424547403.204572,-17.98909378051758,-39.83735656738281,-20.66388702392578,41.39015197753906,32.26359558105469,10,16731.65092025,-0.1389007568359375,-1.01251220703125,0.0312347412109375,16731.64967670833,0.1578085398698443,0.4879755339090719,-0.1410391471178334,16731.59790366667,-0.8098722513452419,-1.02209616872985,1.455787886810492,0.1639443188905716,0.3505953848361969,-0.1378524452447891,-0.04514141753315926,-0.02088841050863266,0.07203051447868347,XTrueNorthZVertical,-0.3895128663675382,0.564227549656798,0.5556190827856294,-0.4703344359200904,-0.09790972620248795,-0.9933938384056091,-0.05985399708151817,-18.07139015197754,-38.69962310791016,-20.24863052368164,2,192.168.1.118,10.97.20.126,1,0
2015-02-21 12:36:43.291,87,1424547399.832528,39.63855789318174,-106.3703861661192,2516.195,-1,-1,10,65,-9999,1424547403.255667,-17.40942764282227,-39.90533447265625,-20.33095550537109,40.70330429077148,31.57674789428711,10,16731.69985941667,-0.116607666015625,-1.036468505859375,0.020751953125,16731.64967670833,0.1578085398698443,0.4879755339090719,-0.1410391471178334,16731.64967670833,-0.7536938859675957,-1.057524769542255,1.465839747815252,0.1446250975131989,0.5005478858947754,-0.1073429360985756,-0.0464763268828392,-0.01778621226549149,0.0859730988740921,XTrueNorthZVertical,-0.3991664125951515,0.5611995599936836,0.5499735030424275,-0.4724938332882644,-0.0912647619843483,-0.9944971203804016,-0.0514424592256546,-17.25701332092285,-39.18255615234375,-20.02912902832031,2,192.168.1.118,10.97.20.126,1,0
2015-02-21 12:36:43.333,88,1424547399.832528,39.63855789318174,-106.3703861661192,2516.195,-1,-1,10,65,-9999,1424547403.307989,-16.64221572875977,-40.16018676757812,-20.54736328125,38.68595504760742,29.55939865112305,10,16731.74902220834,-0.1144256591796875,-1.029617309570312,0.0163421630859375,16731.75322604167,0.138806352859911,0.3920806956936078,-0.04195091243925518,16731.70145120833,-0.6841524194181742,-1.102205024315768,1.471668700717359,0.1277138888835907,0.463068425655365,-0.02562747336924076,-0.02830982580780983,-0.04137762635946274,0.06544787436723709,XTrueNorthZVertical,-0.4084982608184393,0.5574775414786641,0.542938437360504,-0.4770386383901541,-0.08829783648252487,-0.9950909018516541,-0.04469592496752739,-16.84050750732422,-39.31966018676758,-20.11478614807129,2,192.168.1.118,10.97.20.126,1,0
2015-02-21 12:36:43.389,89,1424547399.832528,39.63855789318174,-106.3703861661192,2516.195,-1,-1,10,65,-9999,1424547403.358931,-15.96024703979492,-40.50001525878906,-20.74711608886719,36.85012435913086,27.72356605529785,10,16731.79794991667,-0.1063995361328125,-1.003326416015625,0.0193634033203125,16731.75322604167,0.138806352859911,0.3920806956936078,-0.04195091243925518,16731.75322604167,-0.5666599596752727,-1.199042977710572,1.475218338886668,0.1256369203329086,0.4046452045440674,-0.008230633102357388,-0.02551149390637875,-0.03418140858411789,0.05100816488265991,XTrueNorthZVertical,-0.41636096244259,0.5561569453637829,0.5351497026564089,-0.4805703324692928,-0.0889141634106636,-0.995435893535614,-0.03466600179672241,-16.41364669799805,-39.51861953735352,-20.07770347595215,2,192.168.1.118,10.97.20.126,1,0
2015-02-21 12:36:43.432,90,1424547399.832528,39.63855789318174,-106.3703861661192,2516.195,-1,-1,10,65,-9999,1424547403.411853,-15.02254104614258,-41.0267333984375,-20.79704284667969,34.63054275512695,25.50398635864258,10,16731.84713566667,-0.093414306640625,-1.03863525390625,0.051116943359375,16731.80499875,0.106006061926168,0.5288382787269208,-0.09060313712947675,16731.80499875,-0.4330076660222568,-1.309102675873538,1.478310686465804,0.09288312494754791,0.5412547588348389,-0.05681253969669342,-0.01718955487012863,-0.007600165437906981,0.04325703531503677,XTrueNorthZVertical,-0.4253031972777934,0.5542295319006583,0.5264995914559024,-0.4845049475254245,-0.08920998126268387,-0.9957262277603149,-0.02389363199472427,-15.88121700286865,-39.86207962036133,-19.82534980773926,2,192.168.1.118,10.97.20.126,1,0
2015-02-21 12:36:43.488,91,1424547399.832528,39.63855789318174,-106.3703861661192,2516.195,-1,-1,10,65,-9999,1424547403.462568,-14.34057998657227,-41.128662109375,-21.03009033203125,33.09994506835938,23.97338676452637,10,16731.89604641667,-0.0775604248046875,-1.046768188476562,0.030853271484375,16731.85677358333,0.0451882510603555,0.6355641930957372,-0.06260798775056381,16731.85677358333,-0.3468645356758567,-1.365186766377249,1.481786088693256,0.03207935765385628,0.6479748487472534,-0.02880546078085899,-0.006393415853381157,-0.04259404912590981,0.06926574558019638,XTrueNorthZVertical,-0.4355412041849074,0.5488437480134,0.5181740403969035,-0.4904794707303213,-0.08702088892459869,-0.9960411787033081,-0.01814880035817623,-15.54030609130859,-40.00198364257812,-19.81371688842773,2,192.168.1.118,10.97.20.126,1,0
2015-02-21 12:36:43.529,92,1424547399.832528,39.63855789318174,-106.3703861661192,2516.195,-1,-1,10,65,-9999,1424547403.514708,-13.70975112915039,-41.3155517578125,-20.88027191162109,31.64096832275391,22.5144100189209,10,16731.945092875,-0.063629150390625,-1.01416015625,0.0271453857421875,16731.908548125,0.02959624182626859,0.5823739419080206,0.01582476951335984,16731.908548125,-0.3139378205023858,-1.366283791088093,1.481328290469637,0.01649121940135956,0.5947829484939575,0.04962911456823349,0.01973819546401501,-0.04069698229432106,0.04133928567171097,XTrueNorthZVertical,-0.4440931128337553,0.5419486535223054,0.5101864121980424,-0.498781351408468,-0.08748722076416016,-0.9960004091262817,-0.01814592815935612,-14.92821407318115,-40.14020538330078,-20.00388717651367,2,192.168.1.118,10.97.20.126,1,0
2015-02-21 12:36:43.595,93,1424547399.832528,39.63855789318174,-106.3703861661192,2516.195,-1,-1,10,65,-9999,1424547403.566112,-13.1130256652832,-41.12864685058594,-21.16326141357422,29.94225692749023,20.81570053100586,10,16731.99413591667,-0.098785400390625,-1.009918212890625,0.0393218994140625,16731.960321125,-0.00023089606650987,0.4396191864159582,0.01703570886101887,16731.960321125,-0.2829143484574428,-1.371962796508152,1.479899409640168,-0.0133272297680378,0.4520248174667358,0.05083929374814034,0.02219616807997227,-0.01297837868332863,0.05001912266016006,XTrueNorthZVertical,-0.4505704597590833,0.5366761738896164,0.5033928919364455,-0.5055300081547437,-0.08898388594388962,-0.9958717226982117,-0.01792989112436771,-14.15814304351807,-40.15159606933594,-20.53386116027832,2,192.168.1.118,10.97.20.126,1,0
2015-02-21 12:36:43.628,94,1424547399.832528,39.63855789318174,-106.3703861661192,2516.195,-1,-1,10,65,-9999,1424547403.618347,-12.60155868530273,-40.82279968261719,-21.49619293212891,28.3001594543457,19.1736011505127,10,16732.043264625,-0.11907958984375,-1.002182006835938,0.0518035888671875,16732.01209566667,-0.04329234668032809,0.4479066774121758,-0.02468510646005347,16732.01209566667,-0.2832070539964937,-1.348863934504844,1.477910300024129,-0.05638331547379494,0.4603104889392853,0.009121079929172993,-0.01512792706489563,-0.01197071839123964,0.05691535770893097,XTrueNorthZVertical,-0.4556492349201407,0.5312020404308585,0.4978501044336641,-0.5122045373672081,-0.09047815203666687,-0.9956892132759094,-0.02041633427143097,-13.91725540161133,-40.15773391723633,-20.68597221374512,2,192.168.1.118,10.97.20.126,1,0
2015-02-21 12:36:43.689,95,1424547399.832528,39.63855789318174,-106.3703861661192,2516.195,-1,-1,10,65,-9999,1424547403.670206,-11.98778915405273,-40.38105773925781,-22.16204071044922,26.1431770324707,17.0166187286377,10,16732.09226141667,-0.117431640625,-0.9929656982421875,0.08056640625,16732.06387029167,-0.06933460003188595,0.4882106910333259,-0.03054858823208093,16732.06387029167,-0.2981452074959659,-1.310767480580587,1.476893535937646,-0.08241973072290421,0.5006127953529358,0.003262669779360294,-0.02805440686643124,0.005512584466487169,0.09292499721050262,XTrueNorthZVertical,-0.4608165529091101,0.5249706412958263,0.4927816673718939,-0.5188643428392173,-0.09061319380998611,-0.9955943822860718,-0.02410786040127277,-13.53955745697021,-40.12530899047852,-20.99721717834473,2,192.168.1.118,10.97.20.126,1,0
2015-02-21 12:36:43.726,96,1424547399.832528,39.63855789318174,-106.3703861661192,2516.195,-1,-1,10,65,-9999,1424547403.722015,-11.47629928588867,-40.55097961425781,-22.36180877685547,24.532470703125,15.40591239929199,10,16732.141332875,-0.091888427734375,-1.06365966796875,0.047637939453125,16732.11564341667,-0.1137982049596309,0.5317776096220412,-0.002212021601419815,16732.11564341667,-0.2851852895886923,-1.297143243303787,1.474714361608258,-0.1268652081489563,0.5441741347312927,0.03160924091935158,-0.01063186582177877,-0.004978532902896404,0.0984666645526886,XTrueNorthZVertical,-0.4668328837669312,0.5187522203797269,0.4858365526226647,-0.5262376689729283,-0.09236495941877365,-0.9953876733779907,-0.0259263850748539,-12.84155368804932,-40.06909942626953,-21.5361328125,2,192.168.1.118,10.97.20.126,1,0
2015-02-21 12:36:43.791,97,1424547399.832528,39.63855789318174,-106.3703861661192,2516.195,-1,-1,10,65,-9999,1424547403.773266,-11.15237808227539,-40.66990661621094,-22.7779541015625,23.39868354797363,14.27212619781494,10,16732.190353,-0.0797576904296875,-1.216415405273438,-0.051971435546875,16732.16741804167,-0.08480516912026524,0.410340127075518,-0.001645034605341945,16732.16741804167,-0.3333099854347973,-1.225766549962159,1.472063506830987,-0.09786764532327652,0.4227349460124969,0.0321764312684536,0.006566695403307676,-0.130053237080574,0.05091793462634087,XTrueNorthZVertical,-0.4708321989473549,0.5115145515934394,0.4813970072283078,-0.5337854184965822,-0.09276359528303146,-0.9951298832893372,-0.03333980962634087,-12.54434967041016,-40.02961349487305,-21.7833080291748,2,192.168.1.118,10.97.20.126,1,0
2015-02-21 12:36:43.824,98,1424547399.832528,39.63855789318174,-106.3703861661192,2516.195,-1,-1,10,65,-9999,1424547403.773266,-11.15237808227539,-40.66990661621094,-22.7779541015625,23.39868354797363,14.27212619781494,10,16732.23951895833,0.0032196044921875,-0.9586639404296875,-0.1693267822265625,16732.21919258334,0.1337514067948316,0.4109728941505209,-0.08523100857856891,16732.21919258334,-0.3209866560742261,-1.216884841330008,1.471896951611881,0.1206890642642975,0.4233675897121429,-0.05140987783670425,0.04269253835082054,-0.1577185839414597,-0.08797255903482437,XTrueNorthZVertical,-0.4760384058656656,0.5062386048336154,0.47596182788864,-0.5390457282413772,-0.09261929243803024,-0.9951134324073792,-0.03421982377767563,-12.14678001403809,-39.92737197875977,-22.19242477416992,2,192.168.1.118,10.97.20.126,1,0
2015-02-21 12:36:43.891,99,1424547399.832528,39.63855789318174,-106.3703861661192,2516.195,-1,-1,10,65,-9999,1424547403.877124,-8.918933868408203,-40.82279968261719,-23.02764129638672,20.02969741821289,10.90313911437988,10,16732.28844583334,0.058746337890625,-0.8427734375,-0.0092010498046875,16732.270965625,0.1959513982663952,0.8525897177001475,-0.3876148408616539,16732.21919258334,-0.3209866560742261,-1.216884841330008,1.471896951611881,0.1206890642642975,0.4233675897121429,-0.05140987783670425,0.04269253835082054,-0.1577185839414597,-0.08797255903482437,XTrueNorthZVertical,-0.4760384058656656,0.5062386048336154,0.47596182788864,-0.5390457282413772,-0.09261929243803024,-0.9951134324073792,-0.03421982377767563,-12.14678001403809,-39.92737197875977,-22.19242477416992,2,192.168.1.118,10.97.20.126,1,0
2015-02-21 12:36:43.921,100,1424547399.832528,39.63855789318174,-106.3703861661192,2516.195,-1,-1,10,65,-9999,1424547403.877124,-8.918933868408203,-40.82279968261719,-23.02764129638672,20.02969741821289,10.90313911437988,10,16732.33761520833,0.189788818359375,-1.035263061523438,-0.0512847900390625,16732.32274033333,-0.1221778413295652,0.8589117958118866,-0.3847572690119989,16732.32274033333,-0.3686743642453564,-1.089119921619104,1.502602457559817,-0.135239914059639,0.8713062405586243,-0.3509368598461151,0.1971988081932068,0.04575614258646965,0.03483308106660843,XTrueNorthZVertical,-0.5045726406333712,0.4791895246382438,0.4621958127450145,-0.5496898471934867,-0.06038850918412209,-0.9976757168769836,-0.03156770020723343,-10.09869956970215,-40.40304183959961,-22.3574047088623,2,192.168.1.118,10.97.20.126,1,0
2015-02-21 12:36:43.988,101,1424547399.832528,39.63855789318174,-106.3703861661192,2516.195,-1,-1,10,65,-9999,1424547403.980334,-5.492034912109375,-40.94174194335938,-23.21075439453125,17.12125396728516,7.994697093963623,10,16732.38651545833,0.20849609375,-1.0330810546875,-0.15185546875,16732.374515,-0.04105928610629665,-0.1251142427474866,-0.1141960812264887,16732.374515,-0.5179271841103322,-0.9236071068958647,1.508728564868702,-0.0541212372481823,-0.1127199307084084,-0.08037596195936203,0.259583592414856,-0.05365287885069847,-0.08732538670301437,XTrueNorthZVertical,-0.5095023304051099,0.4708581501411323,0.4620180371169589,-0.5524847135997591,-0.04948532581329346,-0.9980744123458862,-0.03739995509386063,-8.472578048706055,-40.46940994262695,-22.90600967407227,2,192.168.1.118,10.97.20.126,1,0
2015-02-21 12:36:44.020,102,1424547399.832528,39.63855789318174,-106.3703861661192,2516.195,-1,-1,10,65,-9999,1424547403.980334,-5.492034912109375,-40.94174194335938,-23.21075439453125,17.12125396728516,7.994697093963623,10,16732.435679625,0.1893768310546875,-0.9642791748046875,-0.2035675048828125,16732.426287875,-0.0669468097985209,-0.5195963107960188,-0.2142803381527566,16732.374515,-0.5179271841103322,-0.9236071068958647,1.508728564868702,-0.0541212372481823,-0.1127199307084084,-0.08037596195936203,0.259583592414856,-0.05365287885069847,-0.08732538670301437,XTrueNorthZVertical,-0.5095023304051099,0.4708581501411323,0.4620180371169589,-0.5524847135997591,-0.04948532581329346,-0.9980744123458862,-0.03739995509386063,-8.472578048706055,-40.46940994262695,-22.90600967407227,2,192.168.1.118,10.97.20.126,1,0
2015-02-21 12:36:44.090,103,1424547399.832528,39.63855789318174,-106.3703861661192,2516.195,-1,-1,10,65,-9999,1424547404.03261,-4.929416656494141,-41.19659423828125,-23.12752532958984,17.85007476806641,8.723518371582031,10,16732.48459866667,0.23199462890625,-0.9785003662109375,-0.16412353515625,16732.47806241667,-0.0785691111117357,-0.6451110929714533,-0.3970184626707237,16732.426287875,-0.6024989272966997,-0.8586367704094398,1.511477162122608,-0.0800086185336113,-0.5072020888328552,-0.1804606020450592,0.2338103652000427,0.02320451289415359,-0.1465921849012375,XTrueNorthZVertical,-0.5056206822909066,0.4743176060141149,0.4689611457615045,-0.5472166167580773,-0.04487604275345802,-0.998241126537323,-0.03874106705188751,-8.13429069519043,-40.44010543823242,-23.07973670959473,2,192.168.1.118,10.97.20.126,1,0
2015-02-21 12:36:44.118,104,1424547399.832528,39.63855789318174,-106.3703861661192,2516.195,-1,-1,10,65,-9999,1424547404.084019,-5.423839569091797,-40.80581665039062,-23.44380187988281,24.27411270141602,15.14755535125732,10,16732.53376383333,0.2455902099609375,-0.99896240234375,-0.1863250732421875,16732.52983725,-0.02801299255821648,-1.072946856828247,-0.3422731917225098,16732.52983725,-1.188650987925652,-0.3435704808337228,1.523112427683956,-0.04107455536723137,-1.060552954673767,-0.3084540665149689,0.2619214653968811,0.007743953727185726,-0.1371563076972961,XTrueNorthZVertical,-0.494030674015412,0.4832113128395907,0.4970371535525618,-0.5247805597480407,-0.01605660654604435,-0.9988633394241333,-0.04488104209303856,-8.261882781982422,-40.46554565429688,-22.98965072631836,2,192.168.1.118,10.97.20.126,1,0
2015-02-21 12:36:44.160,105,1424547399.832528,39.63855789318174,-106.3703861661192,2516.195,-1,-1,10,65,-9999,1424547404.136528,-5.696624755859375,-40.83982849121094,-23.04430389404297,28.92342376708984,19.79686737060547,10,16732.58268954167,0.2176055908203125,-0.962188720703125,-0.21221923828125,16732.52983725,-0.02801299255821648,-1.072946856828247,-0.3422731917225098,16732.52983725,-1.188650987925652,-0.3435704808337228,1.523112427683956,-0.04107455536723137,-1.060552954673767,-0.3084540665149689,0.2619214653968811,0.007743953727185726,-0.1371563076972961,XTrueNorthZVertical,-0.494030674015412,0.4832113128395907,0.4970371535525618,-0.5247805597480407,-0.01605660654604435,-0.9988633394241333,-0.04488104209303856,-8.261882781982422,-40.46554565429688,-22.98965072631836,2,192.168.1.118,10.97.20.126,1,0
2015-02-21 12:36:44.216,106,1424547399.832528,39.63855789318174,-106.3703861661192,2516.195,-1,-1,10,65,-9999,1424547404.187147,-7.077610015869141,-40.61892700195312,-22.96107482910156,33.57794570922852,24.45138931274414,10,16732.63176083333,0.166046142578125,-0.886138916015625,-0.2432403564453125,16732.63338483333,-0.03785017699275117,-1.671496839197409,-0.3418236501305044,16732.58161,-1.50572032684574,-0.09271852796246417,1.525254020681564,-0.02988754771649837,-1.482386231422424,-0.3063878118991852,0.2234382182359695,0.0078895203769207,-0.1520251631736755,XTrueNorthZVertical,-0.4806675594658852,0.4962788456075375,0.5171831062022737,-0.5051610505214257,-0.00421520322561264,-0.9989631175994873,-0.04533201083540916,-9.113702774047852,-40.58840942382812,-22.44470024108887,2,192.168.1.118,10.97.20.126,1,0
2015-02-21 12:36:44.259,107,1424547399.832528,39.63855789318174,-106.3703861661192,2516.195,-1,-1,10,65,-9999,1424547404.239583,-8.356300354003906,-40.73785400390625,-22.31186676025391,39.42005157470703,30.29349327087402,10,16732.680795625,0.105316162109375,-0.908660888671875,-0.1962738037109375,16732.63338483333,-0.03785017699275117,-1.671496839197409,-0.3418236501305044,16732.63338483333,-1.847469546906463,0.1688645129608947,1.522105593851813,-0.05091146379709244,-1.659103155136108,-0.3080052435398102,0.1578661054372787,0.1126759275794029,-0.195260226726532,XTrueNorthZVertical,-0.4630130178738287,0.5114967097380553,0.5406168313216259,-0.4813767241191264,0.008180039934813976,-0.9988148212432861,-0.04798012226819992,-9.734491348266602,-40.65200042724609,-22.06575965881348,2,192.168.1.118,10.97.20.126,1,0
2015-02-21 12:36:44.314,108,1424547399.832528,39.63855789318174,-106.3703861661192,2516.195,-1,-1,10,65,-9999,1424547404.291354,-10.19761276245117,-40.70387268066406,-22.04551696777344,44.6494026184082,35.52284622192383,10,16732.72995708333,-0.0529022216796875,-1.025436401367188,-0.2112884521484375,16732.68515933333,-0.04256104264499234,-1.688491269061531,-0.1811458205022087,16732.68515933333,-2.044877511503008,0.2833792862318041,1.51664688165778,-0.05562220141291618,-1.676097631454468,-0.1473277658224106,0.09018304944038391,0.08987338840961456,-0.1443086564540863,XTrueNorthZVertical,-0.4423887635501149,0.5275505728495564,0.5627135434279225,-0.4575326115577782,0.01513311453163624,-0.9985342621803284,-0.05196515098214149,-10.74837493896484,-40.74700927734375,-21.41019630432129,2,192.168.1.118,10.97.20.126,1,0
2015-02-21 12:36:44.357,109,1424547399.832528,39.63855789318174,-106.3703861661192,2516.195,-1,-1,10,65,-9999,1424547404.343237,-12.43105697631836,-40.65290832519531,-21.16326141357422,50.19345855712891,41.06690216064453,10,16732.77888795833,-0.21630859375,-0.9945220947265625,-0.1829376220703125,16732.73693241667,0.009253952155807337,-2.131676694493215,-0.2312113847829353,16732.73693241667,-2.156757153771434,0.2999713433915573,1.513383742240505,-0.003807087428867817,-2.119283199310303,-0.1973936259746552,-0.06985814124345779,-0.02708405070006847,-0.156469002366066,XTrueNorthZVertical,-0.4166535075447057,0.5467999011999225,0.5850350046670924,-0.4302834108329162,0.01695591956377029,-0.9983523488044739,-0.05481944605708122,-12.93844890594482,-40.81465148925781,-20.02507781982422,2,192.168.1.118,10.97.20.126,1,0
2015-02-21 12:36:44.412,110,1424547399.832528,39.63855789318174,-106.3703861661192,2516.195,-1,-1,10,65,-9999,1424547404.395193,-14.13598251342773,-40.72087097167969,-20.464111328125,55.91326141357422,46.78670501708984,10,16732.82796745834,-0.14154052734375,-0.9847564697265625,-0.1801300048828125,16732.840481875,0.3234214733141659,-0.2985318360823944,-0.3074092172600645,16732.788707,-2.425776455045776,0.4650916581390726,1.50925581928171,0.09827840328216553,-1.764214992523193,-0.410816490650177,-0.243892714381218,0.00358488573692739,-0.1279679834842682,XTrueNorthZVertical,-0.3907669338914129,0.5655231036963531,0.6086910496150509,-0.3962071128925629,0.02758411876857281,-0.9981069564819336,-0.05496964603662491,-13.93185997009277,-40.90135955810547,-19.16312026977539,2,192.168.1.118,10.97.20.126,1,0
2015-02-21 12:36:44.458,111,1424547399.832528,39.63855789318174,-106.3703861661192,2516.195,-1,-1,10,65,-9999,1424547404.446951,-14.71564865112305,-41.12864685058594,-19.26557159423828,60.42789459228516,51.30133819580078,10,16732.877014625,0.15496826171875,-1.039871215820312,-0.1931610107421875,16732.840481875,0.3234214733141659,-0.2985318360823944,-0.3074092172600645,16732.840481875,-2.754598281622071,0.7460792193767789,1.507035878881214,0.3103132545948029,-0.286222904920578,-0.2735671699047089,-0.1361602693796158,0.002530369209125638,-0.1347421556711197,XTrueNorthZVertical,-0.3833456196363497,0.5741518150101734,0.6185055435374939,-0.3752955761328939,0.04324951022863388,-0.9979680180549622,-0.04679165780544281,-14.83769702911377,-41.20095443725586,-17.79233169555664,2,192.168.1.118,10.97.20.126,1,0
2015-02-21 12:36:44.510,112,1424547399.832528,39.63855789318174,-106.3703861661192,2516.195,-1,-1,10,65,-9999,1424547404.499363,-14.59630966186523,-41.38348388671875,-18.5164794921875,62.18004608154297,53.05348968505859,10,16732.92617641667,0.3053131103515625,-1.11474609375,-0.1221923828125,16732.892254625,0.3172184385031533,-0.06256963823086666,-0.04791825749379573,16732.892254625,-3.040084519861383,1.030344332480712,1.512285953149716,0.3041103184223175,-0.05026083812117577,-0.01407650765031576,0.1530274748802185,-0.05487286299467087,-0.1625845283269882,XTrueNorthZVertical,-0.3882510891954876,0.5781150327336514,0.6151012207451944,-0.3697223776417157,0.05014330893754959,-0.9982887506484985,-0.03008820116519928,-14.55569839477539,-41.85117721557617,-16.45763397216797,2,192.168.1.118,10.97.20.126,1,0
2015-02-21 12:36:44.559,113,1424547399.832528,39.63855789318174,-106.3703861661192,2516.195,-1,-1,10,65,-9999,1424547404.550513,-14.86909866333008,-41.79127502441406,-17.58428192138672,63.01077651977539,53.88422012329102,10,16732.97510616667,0.3318634033203125,-0.9655303955078125,-0.055694580078125,16732.94402945833,0.05801909487624827,-0.8372709487939027,0.1188885710672083,16732.94402945833,3.139010066425975,1.111346669089014,1.521734336512406,0.04491112008690834,-0.8249622583389282,0.1527299880981445,0.2784151136875153,-0.1063058376312256,-0.07776934653520584,XTrueNorthZVertical,-0.3812900599251604,0.5862965573253723,0.6157430249486797,-0.3629529059301203,0.04395731166005135,-0.9987967014312744,-0.02174847386777401,-14.60497188568115,-41.9959716796875,-16.03983306884766,2,192.168.1.118,10.97.20.126,1,0
2015-02-21 12:36:44.608,114,1424547399.832528,39.63855789318174,-106.3703861661192,2516.195,-1,-1,10,65,-9999,1424547404.603069,-16.26713180541992,-41.1456298828125,-17.018310546875,65.54525756835938,56.41869735717773,10,16733.02426616667,0.26373291015625,-0.84576416015625,0.0266265869140625,16732.995804,-0.2489299281474505,-1.655727197118614,0.08628029404806013,16732.995804,-2.951559898865867,0.853678727607073,1.522997191248254,-0.2620377540588379,-1.643418550491333,0.1201213300228119,0.2629826068878174,0.1080039590597153,0.001358423382043839,XTrueNorthZVertical,-0.3578895359468874,0.5968363180385652,0.628789301277098,-0.3468797367312393,0.03601337224245071,-0.998857855796814,-0.03140297904610634,-15.33548164367676,-41.98310852050781,-15.37805843353271,2,192.168.1.118,10.97.20.126,1,0
2015-02-21 12:36:44.659,115,1424547399.832528,39.63855789318174,-106.3703861661192,2516.195,-1,-1,10,65,-9999,1424547404.654321,-18.58581924438477,-40.77186584472656,-16.08611297607422,69.94171905517578,60.81516265869141,10,16733.07329654167,0.2261810302734375,-1.00830078125,0.109527587890625,16733.04757708333,-0.3153046909438224,-2.021520894956485,0.3463917703483174,16733.04757708333,-2.590445935788987,0.4001632040326736,1.516809121446394,-0.3284123837947845,-2.009212493896484,0.3802324533462524,0.2284441143274307,0.1325152069330215,0.1114052459597588,XTrueNorthZVertical,-0.3222415566574031,0.6093529595423063,0.6474149494859323,-0.3251204094909437,0.02102183550596237,-0.9985430240631104,-0.04969869926571846,-17.55588722229004,-41.54006576538086,-14.15828800201416,2,192.168.1.118,10.97.20.126,1,0
2015-02-21 12:36:44.707,116,1424547399.832528,39.63855789318174,-106.3703861661192,2516.195,-1,-1,10,65,-9999,1424547404.654321,-18.58581924438477,-40.77186584472656,-16.08611297607422,69.94171905517578,60.81516265869141,10,16733.12236833333,0.06561279296875,-1.223236083984375,0.131622314453125,16733.099351625,-0.4526167441160899,-2.829945814403195,0.6667332978618066,16733.099351625,-2.095793003314089,-0.2138339337910935,1.499879228551268,-0.4657243192195892,-2.81763744354248,0.7005736827850342,0.2043830156326294,-0.1128040924668312,0.209228590130806,XTrueNorthZVertical,-0.2707898641601005,0.6261394556689132,0.666656069392235,-0.3003197700629642,-0.01503670215606689,-0.997486412525177,-0.06924446672201157,-18.89649391174316,-41.18641662597656,-13.44785308837891,2,192.168.1.118,10.97.20.126,1,0
2015-02-21 12:36:44.746,117,1424547399.832528,39.63855789318174,-106.3703861661192,2516.195,-1,-1,10,65,-9999,1424547404.706547,-21.6035270690918,-39.80342102050781,-15.00408935546875,73.69100952148438,64.564453125,10,16733.17139333333,-0.2303009033203125,-1.248260498046875,0.0608367919921875,16733.1511265,-0.6898391497954431,-3.838554161404544,0.2767296015023517,16733.1511265,-1.93084596622326,-0.5484527165565467,1.461652262008537,-0.7029466032981873,-3.826246023178101,0.3105696737766266,0.003080527763813734,-0.2616723477840424,0.1951855719089508,XTrueNorthZVertical,-0.1998411285169728,0.6431078296504672,0.6922805132989577,-0.2592751074192135,-0.05679146572947502,-0.9940496683120728,-0.09295168519020081,-21.5757007598877,-40.35629653930664,-11.83646488189697,2,192.168.1.118,10.97.20.126,1,0
2015-02-21 12:36:44.804,118,1424547399.832528,39.63855789318174,-106.3703861661192,2516.195,-1,-1,10,65,-9999,1424547404.757969,-25.54189682006836,-39.00483703613281,-12.29073333740234,80.48507690429688,71.3585205078125,10,16733.22046591667,-0.389373779296875,-0.935302734375,-0.0133209228515625,16733.20289929167,-0.616467730183215,-3.671874631943646,-0.587526093352888,16733.20289929167,-2.129684432120762,-0.5459088774145686,1.436926434868047,-0.6295750141143799,-3.659566402435303,-0.5536863803863525,-0.2951283156871796,-0.1100671961903572,0.1357695162296295,XTrueNorthZVertical,-0.1296786702275813,0.6527998809039376,0.7201176782329621,-0.1961283638374707,-0.06929733604192734,-0.9910528063774109,-0.1140715181827545,-25.06233978271484,-39.42244338989258,-7.210647106170654,2,192.168.1.118,10.97.20.126,1,0
2015-02-21 12:36:44.845,119,1424547399.832528,39.63855789318174,-106.3703861661192,2516.195,-1,-1,10,65,-9999,1424547404.809926,-27.74123001098633,-38.64804077148438,-8.778358459472656,89.11888885498047,79.99233245849609,10,16733.269489125,-0.287933349609375,-0.721466064453125,0.00982666015625,16733.254674125,-0.4507312260643138,-2.1231734874487,-1.227516193864228,16733.20289929167,-2.129684432120762,-0.5459088774145686,1.436926434868047,-0.6295750141143799,-3.659566402435303,-0.5536863803863525,-0.2951283156871796,-0.1100671961903572,0.1357695162296295,XTrueNorthZVertical,-0.1296786702275813,0.6527998809039376,0.7201176782329621,-0.1961283638374707,-0.06929733604192734,-0.9910528063774109,-0.1140715181827545,-25.06233978271484,-39.42244338989258,-7.210647106170654,2,192.168.1.118,10.97.20.126,1,0
2015-02-21 12:36:44.902,120,1424547399.832528,39.63855789318174,-106.3703861661192,2516.195,-1,-1,10,65,-9999,1424547404.861008,-28.03107833862305,-38.868896484375,-5.665481567382812,99.46612548828125,90.33956909179688,10,16733.31844825,-0.261199951171875,-0.951385498046875,0.0556640625,16733.30644866667,-0.3912007872694456,-1.222414908796181,-1.285835693311437,16733.30644866667,-2.978043158262034,0.07691577721276853,1.418054695666117,-0.4043078422546387,-1.210107088088989,-1.251996755599976,-0.2927427291870117,0.1338044404983521,0.200267568230629,XTrueNorthZVertical,-0.08222920896855632,0.6460564497735174,0.7538551413240384,-0.08690163648138717,0.01169109810143709,-0.9883576631546021,-0.1516988426446915,-23.51011848449707,-40.85949325561523,-3.466843128204346,2,192.168.1.118,10.97.20.126,1,0
2015-02-21 12:36:44.942,121,1424547399.832528,39.63855789318174,-106.3703861661192,2516.195,-1,-1,10,65,-9999,1424547404.913464,-26.42844772338867,-40.0582275390625,-4.167320251464844,106.2784729003906,97.15191650390625,10,16733.36748345833,-0.1387786865234375,-1.063796997070312,-0.0634002685546875,16733.35822175,-0.1261169228979014,-0.9708159606042531,-1.090833711973655,16733.30644866667,-2.978043158262034,0.07691577721276853,1.418054695666117,-0.4043078422546387,-1.210107088088989,-1.251996755599976,-0.2927427291870117,0.1338044404983521,0.200267568230629,XTrueNorthZVertical,-0.08222920896855632,0.6460564497735174,0.7538551413240384,-0.08690163648138717,0.01169109810143709,-0.9883576631546021,-0.1516988426446915,-23.51011848449707,-40.85949325561523,-3.466843128204346,2,192.168.1.118,10.97.20.126,1,0
2015-02-21 12:36:45.001,122,1424547399.832528,39.63855789318174,-106.3703861661192,2516.195,-1,-1,10,65,-9999,1424547404.964903,-24.5189323425293,-41.34951782226562,-3.201835632324219,111.9819412231445,102.8553848266602,10,16733.41652820833,0.03167724609375,-1.095748901367188,-0.12725830078125,16733.40999633334,0.0525484293650075,-1.055219525032134,-0.9826039105372708,16733.35822175,2.977965199900326,0.34701974569047,1.391570036273216,-0.1392238289117813,-0.9585082530975342,-1.056995034217834,-0.2350670248270035,-0.0749017521739006,0.1324247419834137,XTrueNorthZVertical,-0.08047053998964407,0.6400808371365054,0.7625406389402627,-0.0485060379166018,0.06062854453921318,-0.9839819073677063,-0.1676420271396637,-19.94723129272461,-42.77571487426758,-2.56699275970459,2,192.168.1.118,10.97.20.126,1,0
2015-02-21 12:36:45.040,123,1424547399.832528,39.63855789318174,-106.3703861661192,2516.195,-1,-1,10,65,-9999,1424547405.016678,-22.20023727416992,-42.8106689453125,-2.169754028320312,117.7144088745117,108.5878524780273,10,16733.46566108333,0.147857666015625,-1.048660278320312,-0.1222381591796875,16733.46177116667,0.105902997591982,-0.9483127820253016,-1.02943400040966,16733.40999633334,2.741341874188921,0.5309306480433128,1.37003760261546,0.03944164514541626,-1.042912006378174,-0.9487655758857727,-0.08963275700807571,-0.1156960129737854,0.05265264213085175,XTrueNorthZVertical,-0.07774955136911046,0.6387287763818189,0.7653633824943298,-0.01412437063763534,0.1009700372815132,-0.9799155592918396,-0.1719611138105392,-18.65618324279785,-43.37594223022461,-2.172019481658936,2,192.168.1.118,10.97.20.126,1,0
2015-02-21 12:36:45.098,124,1424547399.832528,39.63855789318174,-106.3703861661192,2516.195,-1,-1,10,65,-9999,1424547405.06811,-19.62581253051758,-43.91506958007812,-1.220916748046875,123.2312240600586,114.1046676635742,10,16733.51462766667,0.2635040283203125,-1.119140625,0.002044677734375,16733.513544125,0.2288675367075566,-0.5379079401352946,-0.6816147757170604,16733.46177116667,2.542272529085925,0.6739970680043579,1.344738552567351,0.09279633313417435,-0.9360052943229675,-0.9955959320068359,-0.0216164942830801,-0.07709343731403351,0.04905799403786659,XTrueNorthZVertical,-0.0736420412319059,0.6379763281597397,0.7662337910006222,0.02118677949133296,0.1398873627185822,-0.9745575785636902,-0.1751261055469513,-16.82529449462891,-44.15213012695312,-1.319920063018799,2,192.168.1.118,10.97.20.126,1,0
2015-02-21 12:36:45.138,125,1424547399.832528,39.63855789318174,-106.3703861661192,2516.195,-1,-1,10,65,-9999,1424547405.120412,-17.75039291381836,-45.17234802246094,-0.3220291137695312,127.0748977661133,117.9483413696289,10,16733.56373704167,0.235382080078125,-1.113998413085938,-0.06097412109375,16733.513544125,0.2288675367075566,-0.5379079401352946,-0.6816147757170604,16733.513544125,2.383342613939084,0.7947925769835005,1.323721018276055,0.2157609909772873,-0.5256006121635437,-0.6477770805358887,0.07564477622509003,-0.1299317479133606,0.1485535055398941,XTrueNorthZVertical,-0.07388300716634275,0.6394443837073336,0.7637571154150763,0.04824207370578172,0.1745535880327225,-0.9696318507194519,-0.1713043600320816,-13.70655059814453,-45.23677062988281,0.08980655670166016,2,192.168.1.118,10.97.20.126,1,0
2015-02-21 12:36:45.198,126,1424547399.832528,39.63855789318174,-106.3703861661192,2516.195,-1,-1,10,65,-9999,1424547405.171561,-15.84088516235352,-45.376220703125,0.4437103271484375,131.0611724853516,121.9346160888672,10,16733.61278379167,0.0109710693359375,-1.004013061523438,-0.04974365234375,16733.617093375,-0.2428203702906997,-3.12507892430243,-0.6558217942435339,16733.565318875,2.295467337533512,0.8310399060952134,1.307373863343945,-0.02627758495509624,-1.699624419212341,-0.5271874070167542,0.04305198416113853,-0.1484939455986023,0.1145545914769173,XTrueNorthZVertical,-0.06377595440611798,0.6388804833934436,0.7630441560665722,0.07435064960434146,0.1923300921916962,-0.9655044674873352,-0.1755287051200867,-12.8301944732666,-45.48933792114258,0.5911664962768555,2,192.168.1.118,10.97.20.126,1,0
2015-02-21 12:36:45.236,127,1424547399.832528,39.63855789318174,-106.3703861661192,2516.195,-1,-1,10,65,-9999,1424547405.224126,-14.54514694213867,-45.74998474121094,1.708831787109375,136.8923187255859,127.765754699707,10,16733.66181754167,-0.2854461669921875,-0.8969268798828125,-0.225341796875,16733.617093375,-0.2428203702906997,-3.12507892430243,-0.6558217942435339,16733.617093375,2.241264057227508,0.751140347600295,1.280676119224265,-0.255926638841629,-3.11277174949646,-0.6219848394393921,-0.184262216091156,-0.04580356553196907,0.1593462824821472,XTrueNorthZVertical,-0.02298803129029294,0.6284318426752089,0.7670371354064618,0.1272754888502644,0.1952332854270935,-0.9582095146179199,-0.2090899348258972,-11.68695259094238,-45.77900695800781,1.393123149871826,2,192.168.1.118,10.97.20.126,1,0
2015-02-21 12:36:45.295,128,1424547399.832528,39.63855789318174,-106.3703861661192,2516.195,-1,-1,10,65,-9999,1424547405.275422,-13.1982536315918,-46.03883361816406,3.223648071289062,144.0479736328125,134.9214172363281,10,16733.71087491667,-0.3212738037109375,-0.8715972900390625,-0.32232666015625,16733.66886645833,-0.2618579773431312,-2.438083764235083,-0.7954515965124974,16733.66886645833,2.188041364204361,0.6569784629350101,1.247154452549948,-0.2749641239643097,-2.425776720046997,-0.7616149187088013,-0.4796705543994904,0.05115663260221481,0.02648078091442585,XTrueNorthZVertical,0.02096343818811172,0.6112685539294551,0.7691518229063661,0.1852479694396841,0.1942243874073029,-0.9480835199356079,-0.2518225908279419,-9.052433013916016,-46.30731964111328,2.815803527832031,2,192.168.1.118,10.97.20.126,1,0
2015-02-21 12:36:45.334,129,1424547399.832528,39.63855789318174,-106.3703861661192,2516.195,-1,-1,10,65,-9999,1424547405.327565,-11.49332809448242,-46.68449401855469,4.422195434570312,150.3494110107422,141.2228546142578,10,16733.75991670834,0.13037109375,-0.7903594970703125,-0.306793212890625,16733.72064116667,0.300774217720241,0.16172897931055,-0.5929869051680954,16733.72064116667,2.102275864188622,0.6828312768495802,1.225367567484117,0.2876681983470917,0.1740358173847198,-0.5591505765914917,-0.5349278450012207,0.06933306902647018,-0.05964420735836029,XTrueNorthZVertical,0.03132604758164192,0.6063641252380993,0.764736280009124,0.2156842507702868,0.2136540561914444,-0.9409303665161133,-0.2626824378967285,-7.793863296508789,-46.52102661132812,3.048410415649414,2,192.168.1.118,10.97.20.126,1,0
2015-02-21 12:36:45.393,130,1424547399.832528,39.63855789318174,-106.3703861661192,2516.195,-1,-1,10,65,-9999,1424547405.379346,-9.720226287841797,-47.09225463867188,4.55535888671875,150.3744812011719,141.2479248046875,10,16733.80887825,0.4447479248046875,-0.87664794921875,-0.4074554443359375,16733.772415875,0.4133990339035831,1.428531592943409,-0.5297589335157612,16733.772415875,2.011144025438859,0.8268416204644706,1.223884386265269,0.4002931714057922,1.440838217735291,-0.4959229528903961,-0.006453971844166517,0.1803715825080872,-0.1064392253756523,XTrueNorthZVertical,0.004065109038407736,0.6203712574448715,0.7566014135445778,0.2065849134678217,0.2501673400402069,-0.9404271245002747,-0.2302459627389908,-6.384064674377441,-46.70283508300781,3.51167106628418,2,192.168.1.118,10.97.20.126,1,0
2015-02-21 12:36:45.432,131,1424547399.832528,39.63855789318174,-106.3703861661192,2516.195,-1,-1,10,65,-9999,1424547405.379346,-9.720226287841797,-47.09225463867188,4.55535888671875,150.3744812011719,141.2479248046875,10,16733.85790166667,0.249847412109375,-0.8594818115234375,-0.3406982421875,16733.82418883334,0.2902968093596514,-0.7074069582422597,-0.3349473681959199,16733.82418883334,1.935759298323495,0.9197062166644742,1.219969672496499,0.2772170901298523,-0.695206880569458,-0.3010643124580383,0.1464636474847794,0.009279363788664341,-0.1803409457206726,XTrueNorthZVertical,-0.008546624037370436,0.6291139604849995,0.7491716596413607,0.2070856150388963,0.2733666896820068,-0.9390889406204224,-0.2082851529121399,-5.137103080749512,-46.78027725219727,4.411251068115234,2,192.168.1.118,10.97.20.126,1,0
2015-02-21 12:36:45.491,132,1424547399.832528,39.63855789318174,-106.3703861661192,2516.195,-1,-1,10,65,-9999,1424547405.482865,-7.7254638671875,-47.27914428710938,5.637367248535156,154.4406890869141,145.3141326904297,10,16733.90695608333,0.0024566650390625,-0.8741607666015625,-0.3017578125,16733.87596354167,0.1451705089168733,-1.882821334856286,-0.41265627827556,16733.87596354167,1.886718892832688,0.885074593617031,1.211498637468394,0.1320909261703491,-1.8706214427948,-0.37877357006073,-0.07047808915376663,0.08755696564912796,-0.1072247326374054,XTrueNorthZVertical,0.01707633186768504,0.6232021207960172,0.7445340557230614,0.2387396134269444,0.272138237953186,-0.9361439943313599,-0.2226550281047821,-4.590606689453125,-46.78928756713867,4.892022132873535,2,192.168.1.118,10.97.20.126,1,0
2015-02-21 12:36:45.530,133,1424547399.832528,39.63855789318174,-106.3703861661192,2516.195,-1,-1,10,65,-9999,1424547405.482865,-7.7254638671875,-47.27914428710938,5.637367248535156,154.4406890869141,145.3141326904297,10,16733.955990375,0.06494140625,-0.8871917724609375,-0.33984375,16733.92773825,0.2933621077743325,-0.6256548369956614,-0.5290606526779423,16733.92773825,1.825487607838309,0.8779588267560104,1.201279962372013,0.2802826762199402,-0.613455057144165,-0.4951783120632172,-0.3040468692779541,0.04270110279321671,-0.08582892268896103,XTrueNorthZVertical,0.03546260426898595,0.6191932939832191,0.7377259074590179,0.2666507106193926,0.2778933048248291,-0.9325021505355835,-0.2306841313838959,-3.398518562316895,-46.82195663452148,5.513419151306152,2,192.168.1.118,10.97.20.126,1,0
2015-02-21 12:36:45.590,134,1424547399.832528,39.63855789318174,-106.3703861661192,2516.195,-1,-1,10,65,-9999,1424547405.535038,-6.7025146484375,-47.9248046875,6.469696044921875,157.9901275634766,148.8635711669922,10,16734.00503195834,0.2041168212890625,-0.900482177734375,-0.3798675537109375,16733.97951104167,0.5063782433576285,0.4851581757918771,-0.5428068249604954,16733.97951104167,1.737674563194527,0.9663204170983249,1.193499198931689,0.4932989180088043,0.4973578453063965,-0.5089247822761536,-0.1673238575458527,0.04140390455722809,-0.1569089144468307,XTrueNorthZVertical,0.02789545352001621,0.6281183673941075,0.7278867393093009,0.2736240168152899,0.3031270802021027,-0.9296637773513794,-0.2093783169984818,-1.454021453857422,-46.76921463012695,6.691009521484375,2,192.168.1.118,10.97.20.126,1,0
2015-02-21 12:36:45.628,135,1424547399.832528,39.63855789318174,-106.3703861661192,2516.195,-1,-1,10,65,-9999,1424547405.586496,-5.048736572265625,-47.77188110351562,7.18548583984375,160.2404174804688,151.1138610839844,10,16734.05416516667,0.22491455078125,-0.8635711669921875,-0.3151397705078125,16734.031286,0.5745485093609318,0.1829469163474293,-0.5499781851438608,16734.031286,1.639702474146816,1.076303164116492,1.18563432070138,0.5614693164825439,0.1951464712619781,-0.5160964727401733,-0.1095725446939468,0.03757742047309875,-0.1864093244075775,XTrueNorthZVertical,0.01657327410630441,0.640759078847509,0.7160023949308805,0.2765750305767305,0.3307029008865356,-0.9267376065254211,-0.1783062517642975,-0.8399276733398438,-46.6812858581543,7.375314712524414,2,192.168.1.118,10.97.20.126,1,0
2015-02-21 12:36:45.690,136,1424547399.832528,39.63855789318174,-106.3703861661192,2516.195,-1,-1,10,65,-9999,1424547405.63841,-3.565460205078125,-47.95880126953125,8.600433349609375,161.7934265136719,152.6668701171875,10,16734.10311679167,0.280426025390625,-0.9985809326171875,-0.2433929443359375,16734.08306045834,0.6079101946524634,0.3666930473379914,-0.3834272863636133,16734.08306045834,1.546127820076996,1.174218554019057,1.178037398422038,0.5948311686515808,0.3788924813270569,-0.3495459258556366,-0.1146915256977081,0.05497540161013603,-0.1388591676950455,XTrueNorthZVertical,0.00940104911212278,0.6526810147875911,0.703698302654457,0.2805848529020325,0.3530338108539581,-0.9238566160202026,-0.147838220000267,0.1355857849121094,-46.49179840087891,8.52863883972168,2,192.168.1.118,10.97.20.126,1,0
2015-02-21 12:36:45.726,137,1424547399.832528,39.63855789318174,-106.3703861661192,2516.195,-1,-1,10,65,-9999,1424547405.690179,-2.457252502441406,-47.53404235839844,10.04866790771484,163.132568359375,154.0060119628906,10,16734.15225770833,0.446563720703125,-1.051025390625,-0.081268310546875,16734.134833625,0.62271843557774,0.5838546594741046,-0.09536540179075645,16734.08306045834,1.546127820076996,1.174218554019057,1.178037398422038,0.5948311686515808,0.3788924813270569,-0.3495459258556366,-0.1146915256977081,0.05497540161013603,-0.1388591676950455,XTrueNorthZVertical,0.00940104911212278,0.6526810147875911,0.703698302654457,0.2805848529020325,0.3530338108539581,-0.9238566160202026,-0.147838220000267,0.1355857849121094,-46.49179840087891,8.52863883972168,2,192.168.1.118,10.97.20.126,1,0
2015-02-21 12:36:45.788,138,1424547399.832528,39.63855789318174,-106.3703861661192,2516.195,-1,-1,10,65,-9999,1424547405.742203,-1.826431274414062,-47.34713745117188,11.76322937011719,164.0946960449219,154.9681396484375,10,16734.20121370833,0.530609130859375,-0.9878082275390625,-0.084869384765625,16734.18660820834,0.2922132200800723,0.2311565236644797,0.1697818458147316,16734.18660820834,1.40561690465442,1.354861091606629,1.188084093451876,0.2791344523429871,0.2433557063341141,0.2036624997854233,0.1909291595220566,-0.04445173591375351,0.004238061606884003,XTrueNorthZVertical,-0.002955816637166019,0.6782216888306667,0.6850468509753955,0.2659275531827556,0.3647654056549072,-0.9276552200317383,-0.080013208091259,0.9164009094238281,-45.84619522094727,11.46863651275635,2,192.168.1.118,10.97.20.126,1,0
2015-02-21 12:36:45.824,139,1424547399.832528,39.63855789318174,-106.3703861661192,2516.195,-1,-1,10,65,-9999,1424547405.794049,-2.048065185546875,-46.6505126953125,12.47902679443359,163.0747528076172,153.9481964111328,10,16734.250239,0.3147125244140625,-0.9518585205078125,-0.068328857421875,16734.23838308334,0.04588120557599412,-1.051855686259255,0.2099527013813778,16734.23838308334,1.395498846768615,1.341210605522967,1.202755106319665,0.03280253708362579,-1.039656639099121,0.2438330501317978,0.05593246221542358,-0.05530840530991554,0.004302904009819031,XTrueNorthZVertical,0.01043027114883389,0.6774598995858228,0.6844833440080959,0.2691131607666387,0.3503480553627014,-0.9330338835716248,-0.08187858760356903,0.4682369232177734,-45.65961837768555,12.2156867980957,2,192.168.1.118,10.97.20.126,1,0
2015-02-21 12:36:45.889,140,1424547399.832528,39.63855789318174,-106.3703861661192,2516.195,-1,-1,10,65,-9999,1424547405.845589,-2.712982177734375,-46.66751098632812,13.02835845947266,163.1073455810547,153.9807891845703,10,16734.29929420833,0.0854644775390625,-0.8461456298828125,-0.0136566162109375,16734.290155875,0.05006077059076448,-0.9529320349360441,0.001948368653501971,16734.23838308334,1.395498846768615,1.341210605522967,1.202755106319665,0.03280253708362579,-1.039656639099121,0.2438330501317978,0.05593246221542358,-0.05530840530991554,0.004302904009819031,XTrueNorthZVertical,0.01043027114883389,0.6774598995858228,0.6844833440080959,0.2691131607666387,0.3503480553627014,-0.9330338835716248,-0.08187858760356903,0.4682369232177734,-45.65961837768555,12.2156867980957,2,192.168.1.118,10.97.20.126,1,0
2015-02-21 12:36:45.923,141,1424547399.832528,39.63855789318174,-106.3703861661192,2516.195,-1,-1,10,65,-9999,1424547405.897945,-2.320850372314453,-46.71844482421875,12.61219787597656,164.4421081542969,155.3155517578125,10,16734.34841904167,0.1659393310546875,-0.9296875,0.056396484375,16734.34193079167,0.04026965884308816,0.2294984395697964,-0.1306336441066758,16734.290155875,1.396930563580697,1.283646010693628,1.210002629265137,0.03698224946856499,-0.9407330751419067,0.03582834079861641,-0.2280738353729248,0.06902452558279037,0.06883843988180161,XTrueNorthZVertical,0.0322670136402354,0.6700507647131266,0.6844153944265303,0.2855983684047566,0.3385627269744873,-0.9356169104576111,-0.09998162835836411,0.481440544128418,-45.59970855712891,12.43695068359375,2,192.168.1.118,10.97.20.126,1,0
2015-02-21 12:36:45.990,142,1424547399.832528,39.63855789318174,-106.3703861661192,2516.195,-1,-1,10,65,-9999,1424547405.948629,-1.707073211669922,-46.61648559570312,12.81195068359375,166.4947357177734,157.3681793212891,10,16734.39734929167,0.3394927978515625,-1.003128051757812,0.00067138671875,16734.39370529167,0.1014746933313982,0.6753691303286066,-0.003777161374059384,16734.39370529167,1.381778922271497,1.312587938375314,1.206452564116851,0.08839642256498337,0.6875678300857544,0.03010216914117336,-0.03168774023652077,-0.06828196346759796,0.1017322242259979,XTrueNorthZVertical,0.02618208964789261,0.6736612506331762,0.6825231042861023,0.2822362083752962,0.3445234298706055,-0.9343578219413757,-0.09099003672599792,1.01884651184082,-45.57344818115234,12.50064754486084,2,192.168.1.118,10.97.20.126,1,0
2015-02-21 12:36:46.021,143,1424547399.832528,39.63855789318174,-106.3703861661192,2516.195,-1,-1,10,65,-9999,1424547406.001632,-1.690036773681641,-46.49755859375,12.69541931152344,164.7899169921875,155.6633605957031,10,16734.44648004167,0.33233642578125,-0.908935546875,0.0067901611328125,16734.39370529167,0.1014746933313982,0.6753691303286066,-0.003777161374059384,16734.39370529167,1.381778922271497,1.312587938375314,1.206452564116851,0.08839642256498337,0.6875678300857544,0.03010216914117336,-0.03168774023652077,-0.06828196346759796,0.1017322242259979,XTrueNorthZVertical,0.02618208964789261,0.6736612506331762,0.6825231042861023,0.2822362083752962,0.3445234298706055,-0.9343578219413757,-0.09099003672599792,1.01884651184082,-45.57344818115234,12.50064754486084,2,192.168.1.118,10.97.20.126,1,0
2015-02-21 12:36:46.089,144,1424547399.832528,39.63855789318174,-106.3703861661192,2516.195,-1,-1,10,65,-9999,1424547406.053254,-1.604789733886719,-46.34468078613281,13.14488220214844,164.6104583740234,155.4839019775391,10,16734.49543791667,0.27252197265625,-0.842132568359375,0.0576934814453125,16734.49725304167,0.1499799115294474,0.1443329447540434,-0.3256172496329363,16734.44547845834,1.37236077966969,1.337921868608926,1.203784185600049,0.0283819492906332,0.04045284911990166,-0.1699620187282562,0.0009704635012894869,0.005089429207146168,0.074446901679039,XTrueNorthZVertical,0.01975915961147986,0.6769085729215002,0.6813520541275572,0.2777837026867706,0.349142462015152,-0.9334036111831665,-0.082808718085289,0.5309829711914062,-45.50969314575195,12.76044845581055,2,192.168.1.118,10.97.20.126,1,0
2015-02-21 12:36:46.120,145,1424547399.832528,39.63855789318174,-106.3703861661192,2516.195,-1,-1,10,65,-9999,1424547406.105448,-1.417251586914062,-46.12380981445312,13.66091156005859,164.6477813720703,155.5212249755859,10,16734.54454825,0.3132476806640625,-0.7176361083984375,0.05023193359375,16734.549027875,0.2450827256367221,0.2511291665756379,-0.3884215123558389,16734.49725304167,1.354556694107721,1.356537793316899,1.192131337891775,0.1369019001722336,0.1565313786268234,-0.2917386293411255,-0.08870550990104675,0.08702642470598221,0.1362960487604141,XTrueNorthZVertical,0.01525279735577464,0.6785765030649599,0.6783128585977903,0.2814124999839853,0.3612274825572968,-0.9291589856147766,-0.07860255986452103,0.7558803558349609,-45.49418258666992,12.80434417724609,2,192.168.1.118,10.97.20.126,1,0
2015-02-21 12:36:46.194,146,1424547399.832528,39.63855789318174,-106.3703861661192,2516.195,-1,-1,10,65,-9999,1424547406.157197,-0.8375740051269531,-46.32768249511719,13.92726135253906,165.0353851318359,155.9088287353516,10,16734.593519375,0.346282958984375,-0.78045654296875,0.0811004638671875,16734.549027875,0.2450827256367221,0.2511291665756379,-0.3884215123558389,16734.549027875,1.320207909736169,1.40177623710382,1.177839014109534,0.232004851102829,0.2633274793624878,-0.3545432388782501,-0.06421782076358795,0.2061445713043213,0.11464574187994,XTrueNorthZVertical,0.006510204501011965,0.6839230306459412,0.6726665192888367,0.2823591805531658,0.3774654865264893,-0.9237806797027588,-0.06441380828619003,1.43452262878418,-45.37569808959961,13.16174125671387,2,192.168.1.118,10.97.20.126,1,0
