loggingTime,loggingSample,locationTimestamp_since1970,locationLatitude,locationLongitude,locationAltitude,locationSpeed,locationCourse,locationVerticalAccuracy,locationHorizontalAccuracy,locationFloor,locationHeadingTimestamp_since1970,locationHeadingX,locationHeadingY,locationHeadingZ,locationTrueHeading,locationMagneticHeading,locationHeadingAccuracy,accelerometerTimestamp_sinceReboot,accelerometerAccelerationX,accelerometerAccelerationY,accelerometerAccelerationZ,gyroTimestamp_sinceReboot,gyroRotationX,gyroRotationY,gyroRotationZ,motionTimestamp_sinceReboot,motionYaw,motionRoll,motionPitch,motionRotationRateX,motionRotationRateY,motionRotationRateZ,motionUserAccelerationX,motionUserAccelerationY,motionUserAccelerationZ,motionAttitudeReferenceFrame,motionQuaternionX,motionQuaternionY,motionQuaternionZ,motionQuaternionW,motionGravityX,motionGravityY,motionGravityZ,motionMagneticFieldX,motionMagneticFieldY,motionMagneticFieldZ,motionMagneticFieldCalibrationAccuracy,activityTimestamp_sinceReboot,activity,activityActivityConfidence,activityActivityStartDate,pedometerStartDate,pedometerNumberofSteps,pedometerDistance,pedometerFloorAscended,pedometerFloorDescended,pedometerEndDate,altimeterTimestamp_sinceReboot,altimeterReset,altimeterRelativeAltitude,altimeterPressure,IP_en0,IP_pdp_ip0,deviceOrientation,state
2015-02-16 17:19:35.990,1,1424135975.473297,37.77934141229023,-122.4386887102898,53.00632,2.831184,41.89895368912357,48.05896443432796,200,-9999,1424135975.983895,-26.44026947021484,-33.18252563476562,20.98974609375,150.2565002441406,136.4755401611328,25,526875.6285792501,-0.475433349609375,-0.846893310546875,-0.1265411376953125,526875.57829125,0.09979610289632128,-0.01000629516375472,-0.1590945803602436,526875.57829125,2.818898005441542,-1.265822326128148,1.040962240818735,0.1153419762849808,-0.01348253805190325,-0.1684721261262894,0.008939607068896294,0.006994937546551228,-0.005443340167403221,XTrueNorthZVertical,0.5709196726004634,0.3133279035937324,0.6431973520113821,0.4027077713137548,-0.4820688664913177,-0.8628909587860107,-0.1517527103424072,-26.25333595275879,-33.66204452514648,18.75017166137695,1,526861.826780375,unknown,2,2015-02-16 17:19:22.123,null,0,0,0,0,null,0,-0.03335571,100.6677,192.168.1.3,10.191.100.224,3,0
2015-02-16 17:19:36.097,2,1424135975.473297,37.77934141229023,-122.4386887102898,53.00632,2.831184,41.89895368912357,48.05896443432796,200,-9999,1424135975.983895,-26.44026947021484,-33.18252563476562,20.98974609375,150.2565002441406,136.4755401611328,25,526875.7278322501,-0.44219970703125,-0.8712921142578125,-0.160552978515625,526875.67823025,0.04775713624784594,0.1196345224885395,-0.09405432758611044,526875.67823025,2.829658980367969,-1.283334974997507,1.04797074622728,0.06331072747707367,0.1161524504423141,-0.1034238710999489,-0.01351421047002077,0.01336914021521807,-0.007859863340854645,XTrueNorthZVertical,0.5741990195890145,0.3154532565856828,0.6386801138585948,0.4035746169144963,-0.4788411259651184,-0.8664117455482483,-0.1415694504976273,-25.85218048095703,-33.75498962402344,19.1364917755127,1,526861.826780375,unknown,2,2015-02-16 17:19:22.123,null,0,0,0,0,null,0,-0.03335571,100.6677,192.168.1.3,10.191.100.224,3,0
2015-02-16 17:19:36.189,3,1424135975.473297,37.77934141229023,-122.4386887102898,53.00632,2.831184,41.89895368912357,48.05896443432796,200,-9999,1424135976.103137,-25.77952575683594,-33.702880859375,21.02325439453125,151.3768310546875,137.5958709716797,25,526875.8270852501,-0.461944580078125,-0.854522705078125,-0.1495819091796875,526875.7781642501,-0.04479596743178683,-0.08694794853334301,0.004484763275693437,526875.7781642501,2.83076852448496,-1.283418714990923,1.052905932691666,-0.02924775891005993,-0.09042558073997498,-0.00488698435947299,-0.00686653470620513,0.006774404551833868,0.002147350460290909,XTrueNorthZVertical,0.5735837536594708,0.3175591831780702,0.6377028756238636,0.4043425720621707,-0.4747466146945953,-0.8688654899597168,-0.1403156816959381,-25.7619514465332,-33.76291656494141,19.2438850402832,1,526861.826780375,unknown,2,2015-02-16 17:19:22.123,null,0,0,0,0,null,0,-0.03335571,100.6677,192.168.1.3,10.191.100.224,3,0
2015-02-16 17:19:36.287,4,1424135975.473297,37.77934141229023,-122.4386887102898,53.00632,2.831184,41.89895368912357,48.05896443432796,200,-9999,1424135976.221556,-25.08400726318359,-33.56413269042969,21.22445678710938,152.3588562011719,138.5778961181641,25,526875.92632825,-0.4334259033203125,-0.888580322265625,-0.15069580078125,526875.8780872501,0.005543369808999934,-0.2075587858775056,-0.2918398448952432,526875.8780872501,2.822086977875547,-1.28625523479181,1.067046958683478,0.02109136059880257,-0.2110363692045212,-0.3012179732322693,0.04573097825050354,0.02110356278717518,0.01329800207167864,XTrueNorthZVertical,0.5745184973114439,0.3196492988915901,0.631719845111299,0.4107102259516789,-0.4633029997348785,-0.87577885389328,-0.1355056464672089,-25.40216064453125,-33.94807434082031,19.39583206176758,1,526861.826780375,unknown,2,2015-02-16 17:19:22.123,null,0,0,0,0,null,0,-0.03335571,100.6677,192.168.1.3,10.191.100.224,1,0
2015-02-16 17:19:36.388,5,1424135975.473297,37.77934141229023,-122.4386887102898,53.00632,2.831184,41.89895368912357,48.05896443432796,200,-9999,1424135976.321969,-24.70147705078125,-34.01509094238281,21.52633666992188,153.0211334228516,139.2401733398438,25,526876.02559825,-0.4644775390625,-0.9018096923828125,-0.0647735595703125,526875.9780322501,0.02562200653154334,-0.2427335512391632,-0.354747438268441,526875.9780322501,2.803614543717746,-1.309900971788387,1.096500428525396,0.04116885736584663,-0.246210440993309,-0.3641283512115479,0.06599742919206619,0.01455347891896963,0.03034358471632004,XTrueNorthZVertical,0.5819602798474206,0.320029297043838,0.6138074470294808,0.4267832355286428,-0.4412568211555481,-0.8896145224571228,-0.11780696362257,-23.31594848632812,-34.82342529296875,20.43613052368164,1,526861.826780375,unknown,2,2015-02-16 17:19:22.123,null,0,0,0,0,null,0,-0.03335571,100.6677,192.168.1.3,10.191.100.224,1,0
2015-02-16 17:19:36.500,6,1424135976.472768,37.77937369340655,-122.4386726476858,57.59465,2.102219,-1,15.18283750448183,200,-9999,1424135976.439277,-22.02373886108398,-34.95170593261719,23.03561401367188,157.9602966308594,144.1793365478516,25,526876.12484225,-0.4126739501953125,-0.914031982421875,-0.0901031494140625,526876.0779582501,0.1401230197028461,0.1054204328024596,-0.2403327115164567,526876.0779582501,2.806297824484066,-1.356110107065361,1.125751365612315,0.1556712687015533,0.1019423231482506,-0.2497089505195618,-0.07187698036432266,0.02563818544149399,0.0004357009602244943,XTrueNorthZVertical,0.5924128219328805,0.3212322521824424,0.5935569183470122,0.4399398864541852,-0.4206157028675079,-0.9025912880897522,-0.09171377867460251,-21.30981063842773,-35.35340881347656,21.67875862121582,1,526861.826780375,unknown,2,2015-02-16 17:19:22.123,null,0,0,0,0,null,0,-0.03335571,100.6677,192.168.1.3,10.191.100.224,1,0
2015-02-16 17:19:36.587,7,1424135976.472768,37.77937369340655,-122.4386726476858,57.59465,2.102219,-1,15.18283750448183,200,-9999,1424135976.557823,-21.32821273803711,-34.88233947753906,23.30392456054688,158.6495819091797,144.8686218261719,25,526876.2240862501,-0.39923095703125,-0.93963623046875,-0.06787109375,526876.1779002501,0.05604595882460856,-0.06196616592785471,-0.1653061372867444,526876.1779002501,2.825783409302229,-1.354890463058219,1.151783945188356,0.07161813229322433,-0.06549346446990967,-0.174687534570694,0.03631315007805824,-0.01830200664699078,0.01591897383332253,XTrueNorthZVertical,0.585889892909941,0.3363805928992619,0.5916940058855605,0.4398628922169093,-0.3974123895168304,-0.9134911894798279,-0.08716226369142532,-20.90612602233887,-35.52639770507812,21.78873252868652,1,526861.826780375,unknown,2,2015-02-16 17:19:22.123,null,0,0,0,0,null,0,-0.03335571,100.6677,192.168.1.3,10.191.100.224,1,0
2015-02-16 17:19:36.687,8,1424135976.472768,37.77937369340655,-122.4386726476858,57.59465,2.102219,-1,15.18283750448183,200,-9999,1424135976.677416,-20.45882415771484,-35.47207641601562,23.33746337890625,160.1761016845703,146.3951416015625,25,526876.32334725,-0.3886260986328125,-0.9317169189453125,-0.0778350830078125,526876.27783225,-0.0237082589722124,0.01148834431038382,-0.09159995832549342,526876.27783225,2.825276360140883,-1.36596507242115,1.165179157271439,-0.008131952024996281,0.007958456873893738,-0.1009847298264503,-0.01721188984811306,-0.02445455268025398,0.005277869757264853,XTrueNorthZVertical,0.5876418198971548,0.3384483886818638,0.5849632098918212,0.4449133097843608,-0.3863373100757599,-0.91885906457901,-0.08025956153869629,-20.1116886138916,-35.74710464477539,22.17215347290039,1,526861.826780375,unknown,2,2015-02-16 17:19:22.123,null,0,0,0,0,null,0,-0.03335571,100.6677,192.168.1.3,10.191.100.224,1,0
2015-02-16 17:19:36.784,9,1424135976.472768,37.77937369340655,-122.4386726476858,57.59465,2.102219,-1,15.18283750448183,200,-9999,1424135976.677416,-20.45882415771484,-35.47207641601562,23.33746337890625,160.1761016845703,146.3951416015625,25,526876.42260325,-0.3311309814453125,-0.9214935302734375,-0.0681915283203125,526876.37777225,-0.08333537051465051,0.1961961427705735,-0.07668519095661365,526876.37777225,2.814180780422729,-1.344796873612574,1.173361407335405,-0.06775086373090744,0.1926612854003906,-0.08607196807861328,0.006911696400493383,-0.008637728169560432,0.01997417770326138,XTrueNorthZVertical,0.5823598580379267,0.3427700483932711,0.5866035251659513,0.4463877511502841,-0.3772119879722595,-0.9220568537712097,-0.08673138171434402,-19.99853134155273,-35.91957855224609,21.99505233764648,1,526861.826780375,unknown,2,2015-02-16 17:19:22.123,null,0,0,0,0,null,0,-0.03335571,100.6677,192.168.1.3,10.191.100.224,1,0
2015-02-16 17:19:36.903,10,1424135976.472768,37.77937369340655,-122.4386726476858,57.59465,2.102219,-1,15.18283750448183,200,-9999,1424135976.796842,-20.56314849853516,-35.8536376953125,23.37094116210938,160.1352386474609,146.3542785644531,25,526876.52185825,-0.317108154296875,-0.910247802734375,-0.0770721435546875,526876.47770325,-0.02166934284164774,-0.09360824810352217,-0.1160142213026858,526876.47770325,2.800617373002291,-1.325405471699229,1.186551174795146,-0.006077420432120562,-0.09714758396148682,-0.1254130154848099,0.04127246141433716,0.01820714771747589,0.01939614675939083,XTrueNorthZVertical,0.577493898107289,0.3478037639103147,0.5857815694456447,0.4498814541632845,-0.3636296391487122,-0.9270816445350647,-0.09106668084859848,-19.73421478271484,-36.28270721435547,21.63482475280762,1,526861.826780375,unknown,2,2015-02-16 17:19:22.123,null,0,0,0,0,null,0,-0.0277977,100.6677,192.168.1.3,10.191.100.224,1,0
2015-02-16 17:19:36.986,11,1424135976.472768,37.77937369340655,-122.4386726476858,57.59465,2.102219,-1,15.18283750448183,200,-9999,1424135976.915873,-18.78958129882812,-36.30462646484375,22.9349365234375,161.0584411621094,147.2774810791016,25,526876.62111225,-0.3153228759765625,-0.925323486328125,-0.058837890625,526876.57764825,0.1209575809180909,-0.2827845645567558,-0.1940560265185858,526876.57764825,2.808905174380111,-1.352376136270164,1.207830026055508,0.136551558971405,-0.2863254249095917,-0.2034733891487122,0.03121413104236126,0.01956455409526825,0.001266368082724512,XTrueNorthZVertical,0.5813546145594342,0.3515102567520096,0.5742972011184424,0.4567823406828678,-0.3466132879257202,-0.9348477721214294,-0.07693470269441605,-18.85091972351074,-36.49149322509766,22.0670223236084,1,526861.826780375,unknown,2,2015-02-16 17:19:22.123,null,0,0,0,0,null,0,-0.0277977,100.6677,192.168.1.3,10.191.100.224,1,0
2015-02-16 17:19:37.080,12,1424135976.472768,37.77937369340655,-122.4386726476858,57.59465,2.102219,-1,15.18283750448183,200,-9999,1424135977.036437,-18.30271911621094,-36.027099609375,24.47775268554688,163.5294799804688,149.7485198974609,25,526876.72035225,-0.3271942138671875,-0.94122314453125,-0.0355682373046875,526876.6775792501,0.2027840043591025,-0.3403788852391365,-0.2912321115344871,526876.6775792501,2.850915430786682,-1.423696531913081,1.239764955237645,0.2183815985918045,-0.3439214825630188,-0.3006622791290283,0.008566063828766346,0.01928551308810711,-0.004135128110647202,XTrueNorthZVertical,0.5897962689275363,0.3582197502645377,0.5548264992406152,0.4647435398836459,-0.3215085566043854,-0.9457076191902161,-0.0476379431784153,-16.79772567749023,-36.5838508605957,23.5244140625,1,526861.826780375,unknown,2,2015-02-16 17:19:22.123,null,0,0,0,0,null,0,-0.0277977,100.6677,192.168.1.3,10.191.100.224,1,0
2015-02-16 17:19:37.182,13,1424135976.472768,37.77937369340655,-122.4386726476858,57.59465,2.102219,-1,15.18283750448183,200,-9999,1424135977.152517,-15.45109176635742,-36.79029846191406,25.48394775390625,168.3312835693359,154.5503234863281,25,526876.81963325,-0.3312835693359375,-0.956634521484375,-0.013946533203125,526876.7775062501,0.1727960115364833,-0.2662010604488324,-0.345572848313118,526876.7775062501,2.909265010560593,-1.513800160461268,1.270957408617172,0.1883912533521652,-0.2697425484657288,-0.3549849689006805,-0.04587248712778091,0.003601853037253022,0.0006665824912488461,XTrueNorthZVertical,0.5989123113417786,0.3645424848603692,0.5338721552192883,0.4726450807743551,-0.2948867976665497,-0.9553840756416321,-0.01682564057409763,-15.0685338973999,-36.53433609008789,24.7410888671875,1,526861.826780375,unknown,2,2015-02-16 17:19:22.123,null,0,0,0,0,null,0,-0.0277977,100.6677,192.168.1.3,10.191.100.224,1,0
2015-02-16 17:19:37.280,14,1424135976.472768,37.77937369340655,-122.4386726476858,57.59465,2.102219,-1,15.18283750448183,200,-9999,1424135977.271727,-13.7470817565918,-35.992431640625,26.9932861328125,170.7550659179688,156.9741058349609,25,526876.9188962501,-0.3020782470703125,-0.950653076171875,-0.014923095703125,526876.87744125,0.04712596706949716,-0.1779018239783832,-0.2962574965114667,526876.87744125,2.948294829025965,-1.570405257855883,1.297248971874886,0.062713623046875,-0.1814394593238831,-0.3056336045265198,-0.04027612507343292,0.01131107471883297,-0.01561090629547834,XTrueNorthZVertical,0.6019929133869344,0.3708796420002617,0.5197723373923988,0.4794680084290487,-0.2701486945152283,-0.9628186225891113,-0.0001056467663147487,-13.49107551574707,-36.57564163208008,25.576416015625,1,526861.826780375,unknown,2,2015-02-16 17:19:22.123,null,0,0,0,0,null,0,-0.0277977,100.6677,192.168.1.3,10.191.100.224,1,0
2015-02-16 17:19:37.382,15,1424135976.472768,37.77937369340655,-122.4386726476858,57.59465,2.102219,-1,15.18283750448183,200,-9999,1424135977.271727,-13.7470817565918,-35.992431640625,26.9932861328125,170.7550659179688,156.9741058349609,25,526877.01816125,-0.3251495361328125,-0.947601318359375,-0.008880615234375,526876.9773752501,-0.1009276800434959,-0.1574628615603521,-0.237214682512192,526876.9773752501,2.927709583999122,-1.568986967942521,1.314168627448058,-0.08535387367010117,-0.1609940379858017,-0.2465540170669556,-0.05610142275691032,0.01908554136753082,-0.01310581155121326,XTrueNorthZVertical,0.6023109488777735,0.3701241616287043,0.5111163277936812,0.4888657850033222,-0.2538198530673981,-0.9672514200210571,-0.0004592516925185919,-12.45517921447754,-36.86225128173828,25.69012641906738,1,526861.826780375,unknown,2,2015-02-16 17:19:22.123,null,0,0,0,0,null,0,-0.0277977,100.6677,192.168.1.3,10.191.100.224,1,0
2015-02-16 17:19:37.479,16,1424135976.472768,37.77937369340655,-122.4386726476858,57.59465,2.102219,-1,15.18283750448183,200,-9999,1424135977.390701,-11.90397262573242,-36.79029846191406,27.56350708007812,173.64599609375,159.8650360107422,25,526877.11742625,-0.308746337890625,-0.88671875,-0.0242919921875,526877.0773032501,-0.1643287571666854,0.1402817441038149,-0.4419585071174838,526877.0773032501,2.87269966901015,-1.516617167247531,1.331677983984264,-0.1487640589475632,0.1367505937814713,-0.4512364268302917,-0.07969388365745544,0.04080681130290031,-0.0001898919581435621,XTrueNorthZVertical,0.5960346911711756,0.3719270349966818,0.5088323223560266,0.4974963575026832,-0.2364987432956696,-0.9715471863746643,-0.01282585505396128,-11.71939468383789,-37.37850189208984,25.2872142791748,1,526861.826780375,unknown,2,2015-02-16 17:19:22.123,null,0,0,0,0,null,0,-0.0277977,100.6677,192.168.1.3,10.191.100.224,1,0
2015-02-16 17:19:37.578,17,1424135976.472768,37.77937369340655,-122.4386726476858,57.59465,2.102219,-1,15.18283750448183,200,-9999,1424135977.509766,-9.46966552734375,-37.76161193847656,26.35610961914062,178.3409271240234,164.5599670410156,25,526877.2167225,-0.2100372314453125,-0.6983184814453125,-0.0462493896484375,526877.1772422501,-0.2594933566112498,0.5339014805913794,-0.9611167279141846,526877.1772422501,2.747619643326255,-1.362287006093522,1.39339787177274,-0.243902787566185,0.5303137898445129,-0.9703883528709412,-0.107549749314785,0.1803052574396133,0.01806638389825821,XTrueNorthZVertical,0.5711675328744138,0.3943385474700107,0.5052157164039184,0.5128565781107608,-0.1726473867893219,-0.9843060970306396,-0.03652951866388321,-10.47635078430176,-38.25860977172852,24.5043773651123,1,526861.826780375,unknown,2,2015-02-16 17:19:22.123,null,0,0,0,0,null,0,-0.0277977,100.6677,192.168.1.3,10.191.100.224,1,0
2015-02-16 17:19:37.677,18,1424135976.472768,37.77937369340655,-122.4386726476858,57.59465,2.102219,-1,15.18283750448183,200,-9999,1424135977.6285,-6.757148742675781,-39.63490295410156,24.67904663085938,181.7054901123047,167.9245300292969,25,526877.3159775001,0.12139892578125,-0.7289886474609375,0.06011962890625,526877.2772225001,-0.3704739371375769,1.24292417866699,-1.832260688928914,526877.2772225001,1.685092373092177,-0.2122581132699616,1.489990839392001,-0.3548836708068848,1.239336609840393,-1.841532230377197,0.004034703131765127,0.4144463539123535,-0.01730023510754108,XTrueNorthZVertical,0.5068091448536458,0.4513216985109628,0.497742228111108,0.5400980651182626,-0.01700467430055141,-0.996737003326416,-0.07890643179416656,-7.018404960632324,-40.20480728149414,22.54451370239258,1,526861.826780375,unknown,2,2015-02-16 17:19:22.123,null,0,0,0,0,null,0,-0.0277977,100.6677,192.168.1.3,10.191.100.224,1,0
2015-02-16 17:19:37.779,19,1424135976.472768,37.77937369340655,-122.4386726476858,57.59465,2.102219,-1,15.18283750448183,200,-9999,1424135977.747327,-2.375404357910156,-41.57752990722656,22.53244018554688,185.106201171875,171.3252410888672,25,526877.4152305,0.22332763671875,-0.82305908203125,-0.0048370361328125,526877.3771755,-0.3112817198011487,0.8576838122332511,-0.4347770269219761,526877.3771755,0.8127053562122333,0.7711040090145557,1.432184478490531,-0.2956917881965637,0.8540962934494019,-0.444048285484314,0.1672410517930984,0.1102360188961029,0.255443274974823,XTrueNorthZVertical,0.4465867996994254,0.5010159630404294,0.5030529316154451,0.5445007011470313,0.09629348665475845,-0.9904087781906128,-0.09908647090196609,-4.19632625579834,-41.45370101928711,20.92656707763672,1,526861.826780375,unknown,2,2015-02-16 17:19:22.123,null,0,0,0,0,null,0,-0.0277977,100.6677,192.168.1.3,10.191.100.224,1,0
2015-02-16 17:19:37.877,20,1424135976.472768,37.77937369340655,-122.4386726476858,57.59465,2.102219,-1,15.18283750448183,200,-9999,1424135977.864386,0.5457687377929688,-41.43879699707031,22.06283569335938,188.5267791748047,174.7458190917969,25,526877.5144655,0.20538330078125,-0.6845245361328125,-0.084686279296875,526877.4771105,-0.2419359344926844,-0.7441434012671398,-0.2745724410193875,526877.4771105,0.6517905017917528,0.9099997055637492,1.389512819585091,-0.2263463139533997,-0.7477307915687561,-0.2838435173034668,0.07997910678386688,0.1652232110500336,0.156597912311554,XTrueNorthZVertical,0.4367116705029016,0.5039405374650076,0.4874595443156554,0.5636577637584921,0.1423414498567581,-0.9836130738258362,-0.1106537058949471,-2.448023319244385,-41.94435882568359,20.21429634094238,1,526861.826780375,unknown,2,2015-02-16 17:19:22.123,null,0,0,0,0,null,0,-0.0277977,100.6677,192.168.1.3,10.191.100.224,1,0
2015-02-16 17:19:37.977,21,1424135976.472768,37.77937369340655,-122.4386726476858,57.59465,2.102219,-1,15.18283750448183,200,-9999,1424135977.864386,0.5457687377929688,-41.43879699707031,22.06283569335938,188.5267791748047,174.7458190917969,25,526877.6137195,0.0515594482421875,-0.7299041748046875,-0.0862274169921875,526877.5770275,-0.5681947396322208,-0.5104134650413166,-0.2812894659207854,526877.5770275,0.6865720688065982,0.7906034081860677,1.319013844392394,-0.5526054501533508,-0.5140008330345154,-0.2905603647232056,-0.08546283841133118,0.3025610744953156,0.04807593673467636,XTrueNorthZVertical,0.4300476984038923,0.4769042202789177,0.4676721042628848,0.6073748225894811,0.1770766079425812,-0.9684699177742004,-0.1752426773309708,1.336733341217041,-42.81099319458008,18.42203712463379,1,526861.826780375,unknown,2,2015-02-16 17:19:22.123,null,0,0,0,0,null,0,-0.0277977,100.6677,192.168.1.3,10.191.100.224,1,0
2015-02-16 17:19:38.076,22,1424135976.472768,37.77937369340655,-122.4386726476858,57.59465,2.102219,-1,15.18283750448183,200,-9999,1424135977.982221,3.67559814453125,-42.82640075683594,19.24539184570312,193.9691925048828,180.188232421875,25,526877.7129625001,0.0816192626953125,-1.073822021484375,-0.0552825927734375,526877.6769785,-0.3043891925839146,1.184429443220054,0.4910618712963648,526877.6769785,0.8297257548216105,0.6986154031487418,1.297745331497908,-0.2888001799583435,1.180842161178589,0.4817911386489868,-0.05681798979640007,0.09945774078369141,0.1220842823386192,XTrueNorthZVertical,0.4097183042857814,0.4784171398851144,0.4910259701613859,0.6017819193595028,0.1734409183263779,-0.9629526138305664,-0.2064958959817886,1.576165676116943,-43.53910064697266,16.60728454589844,1,526861.826780375,unknown,2,2015-02-16 17:19:22.123,null,0,0,0,0,null,0,-0.0277977,100.6677,192.168.1.3,10.191.100.224,1,0
2015-02-16 17:19:38.176,23,1424135976.472768,37.77937369340655,-122.4386726476858,57.59465,2.102219,-1,15.18283750448183,200,-9999,1424135978.100604,0.928314208984375,-43.55488586425781,17.93731689453125,188.8850860595703,175.1041259765625,25,526877.8121865001,0.10650634765625,-1.152435302734375,-0.1845855712890625,526877.7768995001,-0.02756824465617325,1.091329326252519,0.7322638385926233,526877.7768995001,1.085721424571253,0.576514388335457,1.331974112910922,-0.01197935361415148,1.08774209022522,0.7229933142662048,0.03488437086343765,-0.1060041934251785,0.02774504758417606,XTrueNorthZVertical,0.3917111562986748,0.497394053448897,0.5398256628200198,0.554752025529754,0.1289492547512054,-0.9716172814369202,-0.198323056101799,-3.413663864135742,-43.80363464355469,15.60538864135742,1,526861.826780375,unknown,2,2015-02-16 17:19:22.123,null,0,0,0,0,null,0,-0.03335571,100.6677,192.168.1.3,10.191.100.224,1,0
2015-02-16 17:19:38.276,24,1424135976.472768,37.77937369340655,-122.4386726476858,57.59465,2.102219,-1,15.18283750448183,200,-9999,1424135978.220057,-5.053123474121094,-43.624267578125,17.534912109375,177.9328765869141,164.1519165039062,25,526877.9114355,-0.222076416015625,-1.119705200195312,-0.2829742431640625,526877.8768475,-0.2273322243391259,0.905408990548016,1.006961980815463,526877.8768475,1.514595549756881,0.2258099271238665,1.363202269271502,-0.2117436230182648,0.9018217325210571,0.9976916313171387,-0.131137803196907,-0.2416546940803528,-0.09574167430400848,XTrueNorthZVertical,0.3948263532244523,0.4936346697185221,0.5816558522193357,0.5119701785006344,0.04614634066820145,-0.9785296320915222,-0.200873926281929,-8.851461410522461,-43.28174209594727,14.90914154052734,1,526861.826780375,unknown,2,2015-02-16 17:19:22.123,null,0,0,0,0,null,0,-0.03335571,100.6677,192.168.1.3,10.191.100.224,1,0
2015-02-16 17:19:38.374,25,1424135976.472768,37.77937369340655,-122.4386726476858,57.59465,2.102219,-1,15.18283750448183,200,-9999,1424135978.339918,-11.41709136962891,-43.38140869140625,15.82431030273438,166.6317596435547,152.8507995605469,25,526878.0106815001,0.313232421875,-1.135238647460938,-0.5091400146484375,526877.9767805,-0.0929235493872628,1.085650135227925,1.008509810041017,526877.9767805,1.983131031050038,-0.09122814753816565,1.3483204472684,-0.07733526825904846,1.082062959671021,0.9992396235466003,0.2970024049282074,-0.0443449467420578,-0.1233203634619713,XTrueNorthZVertical,0.3711542708253567,0.5023750005388516,0.6375392139749201,0.4510073693073496,-0.020101148635149,-0.9753541350364685,-0.2197277247905731,-15.16508483886719,-42.37423324584961,12.18131160736084,1,526861.826780375,unknown,2,2015-02-16 17:19:22.123,null,0,0,0,0,null,0,-0.03335571,100.6677,192.168.1.3,10.191.100.224,1,0
2015-02-16 17:19:38.473,26,1424135976.472768,37.77937369340655,-122.4386726476858,57.59465,2.102219,-1,15.18283750448183,200,-9999,1424135978.457446,-15.8683967590332,-41.92442321777344,15.82437133789062,161.1766967773438,147.3957366943359,25,526878.1099425,0.287017822265625,-1.156906127929688,-0.3154754638671875,526878.0767065,-0.0821888796653714,0.410539331525056,-0.06731139655175275,526878.0767065,2.292731981085959,-0.4986987696845135,1.316910708298793,-0.06660091131925583,0.4069522321224213,-0.07658132910728455,-0.04719892516732216,-0.1494420766830444,-0.03503895178437233,XTrueNorthZVertical,0.4220515977404166,0.459982942989376,0.6362883763434376,0.4532386496950955,-0.1201289594173431,-0.9679437875747681,-0.220576286315918,-17.93603897094727,-40.90979385375977,13.36514091491699,1,526861.826780375,unknown,2,2015-02-16 17:19:22.123,null,0,0,0,0,null,0,-0.03335571,100.6677,192.168.1.3,10.191.100.224,1,0
2015-02-16 17:19:38.581,27,1424135978.47211,37.77936770442852,-122.4387332243407,58.03012,1.330495,-1,10,200,-9999,1424135978.577198,-13.05155181884766,-42.16726684570312,17.60198974609375,162.6103363037109,148.8293762207031,25,526878.2091875001,-0.4868927001953125,-0.243896484375,-1.002685546875,526878.1766465,0.03174408124541749,3.230420527536623,-1.551955527347022,526878.1766465,2.026431405226123,-0.1232532068486804,1.390853375942333,0.04733174294233322,3.226833581924438,-1.561225175857544,1.544036984443665,-2.534929752349854,-0.7662317752838135,XTrueNorthZVertical,0.3785037897697647,0.5176165965512299,0.6293742964214396,0.438971486035565,-0.02200325950980186,-0.9838538765907288,-0.1776158809661865,-16.7405948638916,-41.14333724975586,14.17455863952637,1,526861.826780375,unknown,2,2015-02-16 17:19:22.123,null,0,0,0,0,null,0,-0.03335571,100.6677,192.168.1.3,10.191.100.224,1,0
2015-02-16 17:19:38.672,28,1424135978.47211,37.77936770442852,-122.4387332243407,58.03012,1.330495,-1,10,200,-9999,1424135978.577198,-13.05155181884766,-42.16726684570312,17.60198974609375,162.6103363037109,148.8293762207031,25,526878.3084415001,0.540618896484375,-1.257781982421875,-0.3828582763671875,526878.2765855,0.7937959092627952,6.983597206502644,-0.0967824698067876,526878.2765855,1.974361758618936,-0.2744405369345881,1.378166575099229,0.8094154000282288,6.979947566986084,-0.1060637384653091,0.1821310967206955,0.1259591430425644,0.2280844897031784,XTrueNorthZVertical,0.4351798837662904,0.4674186756416214,0.5900914012886779,0.4938931250740015,-0.0518820732831955,-0.9815042018890381,-0.1842765063047409,-10.89778900146484,-42.06631469726562,16.8997859954834,1,526861.826780375,unknown,2,2015-02-16 17:19:22.123,null,0,0,0,0,null,0,-0.03335571,100.6677,192.168.1.3,10.191.100.224,1,0
2015-02-16 17:19:38.772,29,1424135978.47211,37.77936770442852,-122.4387332243407,58.03012,1.330495,-1,10,200,-9999,1424135978.694616,-9.74786376953125,-42.41009521484375,18.9771728515625,170.7581329345703,156.9771728515625,25,526878.4076855,-0.232696533203125,-0.9345855712890625,0.1321258544921875,526878.3765135,-0.4167407684394145,-2.377518421040609,-0.09655130742416873,526878.3765135,1.866040477564683,-0.2535069362978006,1.385403286896248,-0.401121586561203,-2.381168127059937,-0.1058323904871941,0.02483795396983624,0.05842540040612221,0.08109042048454285,XTrueNorthZVertical,0.4553453957141051,0.4510430411910478,0.5652243612180676,0.5193671124785734,-0.04623077809810638,-0.9828639030456543,-0.1784414947032928,-11.18320465087891,-42.01645660400391,16.83724212646484,1,526861.826780375,unknown,2,2015-02-16 17:19:22.123,null,0,0,0,0,null,0,-0.03335571,100.6677,192.168.1.3,10.191.100.224,1,0
2015-02-16 17:19:38.870,30,1424135978.47211,37.77936770442852,-122.4387332243407,58.03012,1.330495,-1,10,200,-9999,1424135978.813443,-7.34832763671875,-42.65292358398438,18.943603515625,176.8352508544922,163.0542907714844,25,526878.5069255,0.0142059326171875,-0.989013671875,-0.131683349609375,526878.4764535,-0.2221949865963631,0.3374126564170062,-0.5634849392444156,526878.4764535,1.624077914910377,0.04503832906772214,1.382590603594707,-0.2065761089324951,0.3337630927562714,-0.5727658271789551,0.03251565620303154,-0.04166055470705032,-0.06207064911723137,XTrueNorthZVertical,0.4259370690886222,0.4744724521865258,0.568823049465672,0.5195131125702999,0.008423675782978535,-0.9823415279388428,-0.1869070082902908,-9.983171463012695,-42.53419494628906,16.28244781494141,1,526861.826780375,unknown,2,2015-02-16 17:19:22.123,null,0,0,0,0,null,0,-0.03335571,100.6677,192.168.1.3,10.191.100.224,1,0
2015-02-16 17:19:38.977,31,1424135978.47211,37.77936770442852,-122.4387332243407,58.03012,1.330495,-1,10,200,-9999,1424135978.93141,-4.879249572753906,-44.28338623046875,17.16604614257812,178.2741546630859,164.4931945800781,25,526878.6061745001,0.3863067626953125,-0.84136962890625,-0.26519775390625,526878.5763875,-0.3360504495194306,-1.057894670347119,-1.122358881377468,526878.5763875,1.275943350254219,0.3426079743493702,1.332297691114052,-0.3204318881034851,-1.061544179916382,-1.13163959980011,0.2203329354524612,0.06771732121706009,-0.06883729249238968,XTrueNorthZVertical,0.4093274562045432,0.4703126826771569,0.5460081103298927,0.5595821548331591,0.07936494797468185,-0.971693754196167,-0.2225140333175659,-6.567410945892334,-43.6654052734375,14.97134399414062,1,526861.826780375,unknown,2,2015-02-16 17:19:22.123,null,0,0,0,0,null,0,-0.03335571,100.6677,192.168.1.3,10.191.100.224,1,0
2015-02-16 17:19:39.069,32,1424135978.47211,37.77936770442852,-122.4387332243407,58.03012,1.330495,-1,10,200,-9999,1424135979.031843,1.1717529296875,-44.56088256835938,16.02560424804688,187.1418304443359,173.3608703613281,25,526878.7054115001,-0.26416015625,-0.7779388427734375,0.0283203125,526878.6763215,-0.5640535241371475,-0.5640575188787826,-1.485611390903186,526878.6763215,0.9070318009758155,0.5977579198763768,1.221714810954241,-0.5484352707862854,-0.5677069425582886,-1.494892001152039,-0.3030592203140259,0.1089224889874458,0.1475940644741058,XTrueNorthZVertical,0.387055007575504,0.4569742538854007,0.4947998357683142,0.6297111285056549,0.1924940347671509,-0.9396872520446777,-0.2827259004116058,1.344417572021484,-44.72268295288086,13.11540126800537,1,526861.826780375,unknown,2,2015-02-16 17:19:22.123,null,0,0,0,0,null,0,-0.03335571,100.6677,192.168.1.3,10.191.100.224,1,0
2015-02-16 17:19:39.168,33,1424135978.47211,37.77936770442852,-122.4387332243407,58.03012,1.330495,-1,10,200,-9999,1424135979.150779,7.048843383789062,-45.28938293457031,13.84552001953125,196.2171173095703,182.4361572265625,25,526878.8046565,-0.5276336669921875,-0.7020416259765625,-0.2491607666015625,526878.7762615001,-0.54504707606947,-1.317450611243986,0.8438785177744983,526878.7762615001,0.8787226019027637,0.5671897011221696,1.195707139521291,-0.5294291377067566,-1.321099996566772,0.834598183631897,-0.5492618680000305,0.2098023444414139,-0.08145240694284439,XTrueNorthZVertical,0.3906869282380885,0.4391685116506597,0.4800745095489382,0.6511706674930819,0.1968296319246292,-0.9304749369621277,-0.3089894950389862,4.032039165496826,-44.74531173706055,12.47153949737549,1,526861.826780375,unknown,2,2015-02-16 17:19:22.123,null,0,0,0,0,null,0,-0.03335571,100.6677,192.168.1.3,10.191.100.224,1,0
2015-02-16 17:19:39.268,34,1424135978.47211,37.77936770442852,-122.4387332243407,58.03012,1.330495,-1,10,200,-9999,1424135979.150779,7.048843383789062,-45.28938293457031,13.84552001953125,196.2171173095703,182.4361572265625,25,526878.9039085,0.1428680419921875,-1.106674194335938,0.01971435546875,526878.8761885001,1.829709380604618,5.354984185074345,1.78716058850064,526878.8761885001,1.308749573367804,0.2756989337743245,1.328295050280136,1.845331907272339,5.351333618164062,1.777883410453796,-0.2265318334102631,-0.03351682424545288,0.5162650346755981,XTrueNorthZVertical,0.418560171581718,0.4574667915218954,0.541944076386495,0.5672990092828848,0.06536850333213806,-0.9707403779029846,-0.231063038110733,-3.202233791351318,-44.41844177246094,13.80895709991455,1,526861.826780375,unknown,2,2015-02-16 17:19:22.123,null,0,0,0,0,null,0,-0.03335571,100.6677,192.168.1.3,10.191.100.224,1,0
2015-02-16 17:19:39.377,35,1424135978.47211,37.77936770442852,-122.4387332243407,58.03012,1.330495,-1,10,200,-9999,1424135979.269183,-2.618827819824219,-44.59559631347656,15.99212646484375,185.6011657714844,171.8202056884766,25,526879.0031575001,0.2895050048828125,-0.891998291015625,-0.0503997802734375,526878.9761245,0.5682919450120086,-0.1714676267847517,2.319798665470886,526878.9761245,2.613358562430394,-0.7360032208816017,1.418804220114038,0.5839149951934814,-0.1751185059547424,2.310522079467773,0.5507566332817078,0.02236118912696838,0.0469551682472229,XTrueNorthZVertical,0.4221590175892344,0.5154350190075297,0.6222275345686127,0.4110248541354583,-0.1016447246074677,-0.9884714484214783,-0.1122170090675354,-17.97405433654785,-39.7681884765625,16.41232681274414,1,526861.826780375,unknown,2,2015-02-16 17:19:22.123,null,0,0,0,0,null,0,-0.03335571,100.6677,192.168.1.3,10.191.100.224,1,0
2015-02-16 17:19:39.465,36,1424135978.47211,37.77936770442852,-122.4387332243407,58.03012,1.330495,-1,10,200,-9999,1424135979.388078,-17.39853668212891,-40.32872009277344,19.44674682617188,156.005126953125,142.2241668701172,25,526879.1024135001,1.178604125976562,-1.822738647460938,-1.270126342773438,526879.0760605,0.3184991526713725,2.289457271171613,0.05430185462671567,526879.0760605,-2.989658641762797,-1.398615400431418,1.327953897303439,0.3341218531131744,2.28580641746521,0.04502539709210396,0.6112204790115356,0.01579389721155167,0.2251282632350922,XTrueNorthZVertical,0.4696804659506342,0.5087247258672445,0.6310678326743014,0.3497896999670821,-0.2369071245193481,-0.9706584215164185,-0.04119882732629776,-23.35615158081055,-35.39201354980469,19.38646507263184,1,526861.826780375,unknown,2,2015-02-16 17:19:22.123,null,0,0,0,0,null,0,-0.03335571,100.6677,192.168.1.3,10.191.100.224,1,0
2015-02-16 17:19:39.566,37,1424135979.47317,37.7793682976926,-122.4387234203771,58.4942,2.598226,31.86005881839511,10,200,-9999,1424135979.507737,-21.60640716552734,-36.82501220703125,20.5535888671875,145.4845581054688,131.7035980224609,25,526879.2016655001,-0.62164306640625,-0.917449951171875,0.2021942138671875,526879.1759945001,-0.01590706119104329,-3.806509409272057,-0.7805682544444806,526879.1759945001,-2.907305956917023,-1.573907152438601,1.427955879980106,-0.0002846602874342352,-3.810160160064697,-0.7898445129394531,-0.4448034763336182,-0.07108218967914581,0.1360775381326675,XTrueNorthZVertical,0.4775329535359343,0.5217122764246267,0.5841193708829636,0.3982250242237187,-0.1423547267913818,-0.9898156523704529,0.0004428421671036631,-20.36782836914062,-36.3313102722168,20.95536041259766,1,526861.826780375,unknown,2,2015-02-16 17:19:22.123,null,0,0,0,0,null,0,-0.05003357,100.6679,192.168.1.3,10.191.100.224,1,0
2015-02-16 17:19:39.664,38,1424135979.47317,37.7793682976926,-122.4387234203771,58.4942,2.598226,31.86005881839511,10,200,-9999,1424135979.625569,-15.65974044799805,-37.55349731445312,25.4840087890625,160.5260620117188,146.7451019287109,25,526879.3009125,0.150634765625,-0.99322509765625,0.1412811279296875,526879.2759275,0.2121324987336077,0.8283938339323416,-0.4896072527089635,526879.2759275,-2.639482323914514,-1.822864233597264,1.445168022532424,0.2277896404266357,0.8246746063232422,-0.4988953173160553,0.1586007326841354,0.08182556182146072,0.1521145701408386,XTrueNorthZVertical,0.4736323838614063,0.5397198460829919,0.5749684290090389,0.3921558220763795,-0.121338777244091,-0.9921191334724426,0.03125029429793358,-17.86301803588867,-36.20289993286133,23.32814979553223,1,526861.826780375,unknown,2,2015-02-16 17:19:22.123,null,0,0,0,0,null,0,-0.05003357,100.6679,192.168.1.3,10.191.100.224,1,0
2015-02-16 17:19:39.779,39,1424135979.47317,37.7793682976926,-122.4387234203771,58.4942,2.598226,31.86005881839511,10,200,-9999,1424135979.7445,-16.00749969482422,-37.76162719726562,26.490234375,157.9747619628906,144.1938018798828,25,526879.4001715,-0.3735809326171875,-0.3665618896484375,0.09124755859375,526879.3758625,-0.1424290508907458,-2.197241856318203,-0.01761894113974622,526879.2759275,-2.639482323914514,-1.822864233597264,1.445168022532424,0.2277896404266357,0.8246746063232422,-0.4988953173160553,0.1586007326841354,0.08182556182146072,0.1521145701408386,XTrueNorthZVertical,0.4736323838614063,0.5397198460829919,0.5749684290090389,0.3921558220763795,-0.121338777244091,-0.9921191334724426,0.03125029429793358,-17.86301803588867,-36.20289993286133,23.32814979553223,1,526861.826780375,unknown,2,2015-02-16 17:19:22.123,null,0,0,0,0,null,0,-0.05003357,100.6679,192.168.1.3,10.191.100.224,1,0
2015-02-16 17:19:39.864,40,1424135979.47317,37.7793682976926,-122.4387234203771,58.4942,2.598226,31.86005881839511,10,200,-9999,1424135979.861612,-14.26869964599609,-36.65155029296875,28.36849975585938,160.7560119628906,146.9750518798828,25,526879.4994085,-0.3314208984375,-0.8802337646484375,0.2082366943359375,526879.4757965,-0.6706667867918537,-1.474650618804747,-0.229921882183119,526879.4757965,-2.269889160306956,-2.256966850803028,1.44246034943662,-0.6550102233886719,-1.47836971282959,-0.2392096072435379,0.002949249232187867,0.1743171215057373,0.2933167815208435,XTrueNorthZVertical,0.4959456399875416,0.5427540777450794,0.5433400045114185,0.4052623881013128,-0.09901858866214752,-0.9917762279510498,0.08108813315629959,-16.68319320678711,-35.2298698425293,25.58255386352539,1,526861.826780375,unknown,2,2015-02-16 17:19:22.123,null,0,0,0,0,null,0,-0.05003357,100.6679,192.168.1.3,10.191.100.224,1,0
2015-02-16 17:19:39.960,41,1424135979.47317,37.7793682976926,-122.4387234203771,58.4942,2.598226,31.86005881839511,10,200,-9999,1424135979.861612,-14.26869964599609,-36.65155029296875,28.36849975585938,160.7560119628906,146.9750518798828,25,526879.5986505001,-0.010528564453125,-0.943603515625,0.1544952392578125,526879.5757155,-0.2563231296496195,-0.4307537894631934,-0.1064460161382491,526879.5757155,-2.005637963637616,-2.415196864394471,1.456890160158649,-0.2406669110059738,-0.4344727694988251,-0.1157335489988327,0.3245600759983063,-0.03968342021107674,0.1526099592447281,XTrueNorthZVertical,0.460790803738296,0.5745924879346174,0.5582226150327934,0.3819723164168864,-0.07549084722995758,-0.9935197234153748,0.08496938645839691,-17.73714065551758,-35.53841018676758,24.42038154602051,1,526861.826780375,unknown,2,2015-02-16 17:19:22.123,null,0,0,0,0,null,0,-0.05003357,100.6679,192.168.1.3,10.191.100.224,1,0
2015-02-16 17:19:40.063,42,1424135979.47317,37.7793682976926,-122.4387234203771,58.4942,2.598226,31.86005881839511,10,200,-9999,1424135979.961626,-14.68601608276367,-36.51280212402344,26.95977783203125,157.7862091064453,144.0052490234375,25,526879.6979155,0.0064849853515625,-1.001510620117188,0.127593994140625,526879.6756595001,-0.385166330555435,0.588065916105847,-0.5216812996134418,526879.5757155,-2.005637963637616,-2.415196864394471,1.456890160158649,-0.2406669110059738,-0.4344727694988251,-0.1157335489988327,0.3245600759983063,-0.03968342021107674,0.1526099592447281,XTrueNorthZVertical,0.460790803738296,0.5745924879346174,0.5582226150327934,0.3819723164168864,-0.07549084722995758,-0.9935197234153748,0.08496938645839691,-17.73714065551758,-35.53841018676758,24.42038154602051,1,526861.826780375,unknown,2,2015-02-16 17:19:22.123,null,0,0,0,0,null,0,-0.05003357,100.6679,192.168.1.3,10.191.100.224,1,0
2015-02-16 17:19:40.163,43,1424135979.47317,37.7793682976926,-122.4387234203771,58.4942,2.598226,31.86005881839511,10,200,-9999,1424135980.063796,-13.53840255737305,-37.24128723144531,25.65170288085938,160.7669677734375,146.9860076904297,25,526879.7971705,0.0429534912109375,-1.00189208984375,0.0615386962890625,526879.7756005001,-0.8557053498594311,-0.172282820394425,-0.5546794634161776,526879.6756595001,-1.971944269634678,-2.470335320671053,1.499265624055216,-0.3695104122161865,0.5843470096588135,-0.5309686660766602,-0.02264052256941795,0.01083998661488295,0.1130575835704803,XTrueNorthZVertical,0.452354423892877,0.5686453067781841,0.5561736640528699,0.4033470913757838,-0.04445237293839455,-0.9974427819252014,0.05596401914954185,-15.82198429107666,-36.82248687744141,23.82663917541504,1,526861.826780375,unknown,2,2015-02-16 17:19:22.123,null,0,0,0,0,null,0,-0.05003357,100.6679,192.168.1.3,10.191.100.224,1,0
2015-02-16 17:19:40.260,44,1424135979.47317,37.7793682976926,-122.4387234203771,58.4942,2.598226,31.86005881839511,10,200,-9999,1424135980.183631,-11.48662185668945,-40.3287353515625,23.270263671875,163.94287109375,150.1619110107422,25,526879.8964375,0.0770111083984375,-1.018218994140625,-0.0757293701171875,526879.8755225,-1.239221852119562,-0.4558934975213234,-0.3955055208554497,526879.8755225,1.338758027679043,0.4872455672166793,1.443950575916895,-1.22356653213501,-0.4596122205257416,-0.4047924876213074,0.03281165286898613,-0.02399483509361744,0.101285994052887,XTrueNorthZVertical,0.3906211302803146,0.5399288026164186,0.5769483122967431,0.4722527883086356,0.05922936275601387,-0.9919658303260803,-0.111784040927887,-12.07296848297119,-41.1187629699707,18.36928558349609,1,526861.826780375,unknown,2,2015-02-16 17:19:22.123,null,0,0,0,0,null,0,-0.05003357,100.6679,192.168.1.3,10.191.100.224,1,0
2015-02-16 17:19:40.360,45,1424135979.47317,37.7793682976926,-122.4387234203771,58.4942,2.598226,31.86005881839511,10,200,-9999,1424135980.301033,-8.49591064453125,-43.03457641601562,18.37332153320312,169.3286285400391,155.5476684570312,25,526879.9956855,-0.0936737060546875,-1.046035766601562,0.0355377197265625,526879.9754715001,0.09098370284924907,-0.03394012388029684,0.516678285189619,526879.8755225,1.338758027679043,0.4872455672166793,1.443950575916895,-1.22356653213501,-0.4596122205257416,-0.4047924876213074,0.03281165286898613,-0.02399483509361744,0.101285994052887,XTrueNorthZVertical,0.3906211302803146,0.5399288026164186,0.5769483122967431,0.4722527883086356,0.05922936275601387,-0.9919658303260803,-0.111784040927887,-12.07296848297119,-41.1187629699707,18.36928558349609,1,526861.826780375,unknown,2,2015-02-16 17:19:22.123,null,0,0,0,0,null,0,-0.05003357,100.6679,192.168.1.3,10.191.100.224,1,0
2015-02-16 17:19:40.458,46,1424135979.47317,37.7793682976926,-122.4387234203771,58.4942,2.598226,31.86005881839511,10,200,-9999,1424135980.419919,-9.121871948242188,-43.03457641601562,16.29385375976562,169.3477172851562,155.5667572021484,25,526880.0949275,0.083221435546875,-0.826904296875,-0.2298126220703125,526880.0753875,0.4923950497380584,0.2324894357900644,0.2743348870501524,526879.9754715001,1.504414620022138,0.2696972418755604,1.357596457077787,0.1066386699676514,-0.03765879571437836,0.5073914527893066,-0.1454868912696838,-0.1387910395860672,0.1779084354639053,XTrueNorthZVertical,0.3827944802356466,0.5014961830108372,0.5886006610893062,0.5054891260309409,0.05637556686997414,-0.977358877658844,-0.2039399296045303,-10.1872615814209,-43.29467010498047,13.99038791656494,1,526861.826780375,unknown,2,2015-02-16 17:19:22.123,null,0,0,0,0,null,0,-0.05003357,100.6679,192.168.1.3,10.191.100.224,1,0
2015-02-16 17:19:40.559,47,1424135979.47317,37.7793682976926,-122.4387234203771,58.4942,2.598226,31.86005881839511,10,200,-9999,1424135980.536353,-11.06931686401367,-42.06324768066406,18.77587890625,166.1149597167969,152.3339996337891,25,526880.1941675,0.0296630859375,-0.5972900390625,-0.2044677734375,526880.1753335,0.474868520288138,-0.6633643990828564,0.5758441372312554,526880.1753335,1.890704834337298,-0.07421848116543453,1.446870619875526,0.4905228316783905,-0.6670829057693481,0.5665577054023743,0.08869446069002151,0.3732056617736816,-0.02712194435298443,XTrueNorthZVertical,0.4098287816306215,0.5200057978150617,0.5928546466725605,0.4584296438367013,-0.009165649302303791,-0.9923310279846191,-0.1232686787843704,-13.82868671417236,-41.28001022338867,16.69334411621094,1,526861.826780375,unknown,2,2015-02-16 17:19:22.123,null,0,0,0,0,null,0,-0.05003357,100.6679,192.168.1.3,10.191.100.224,1,0
2015-02-16 17:19:40.663,48,1424135979.47317,37.7793682976926,-122.4387234203771,58.4942,2.598226,31.86005881839511,10,200,-9999,1424135980.65703,-12.87765502929688,-41.30006408691406,19.58087158203125,165.7351684570312,151.9542083740234,25,526880.2933895,-0.301025390625,-0.616241455078125,-0.198394775390625,526880.2752715,-0.08286878469166863,-0.5003581677135044,0.1574242457245459,526880.2752715,2.129974001674165,-0.2309884455640298,1.44002036121957,-0.06717681884765625,-0.5041499137878418,0.1481259316205978,0.1905601769685745,-1.75766921043396,-0.630612850189209,XTrueNorthZVertical,0.3931446997788872,0.5310057498118749,0.6164626084266319,0.4283036557840014,-0.02985460683703423,-0.9914609789848328,-0.1269402801990509,-15.75896072387695,-40.26399993896484,17.44721221923828,1,526861.826780375,unknown,2,2015-02-16 17:19:22.123,null,0,0,0,0,null,0,-0.05003357,100.6679,192.168.1.3,10.191.100.224,1,0
2015-02-16 17:19:40.757,49,1424135979.47317,37.7793682976926,-122.4387234203771,58.4942,2.598226,31.86005881839511,10,200,-9999,1424135980.65703,-12.87765502929688,-41.30006408691406,19.58087158203125,165.7351684570312,151.9542083740234,25,526880.3926395001,-0.24542236328125,-1.01531982421875,-0.0070343017578125,526880.3751925001,-0.3176717085206848,-2.096778098936599,0.2290073526647858,526880.2752715,2.129974001674165,-0.2309884455640298,1.44002036121957,-0.06717681884765625,-0.5041499137878418,0.1481259316205978,0.1905601769685745,-1.75766921043396,-0.630612850189209,XTrueNorthZVertical,0.3931446997788872,0.5310057498118749,0.6164626084266319,0.4283036557840014,-0.02985460683703423,-0.9914609789848328,-0.1269402801990509,-15.75896072387695,-40.26399993896484,17.44721221923828,1,526861.826780375,unknown,2,2015-02-16 17:19:22.123,null,0,0,0,0,null,0,-0.05003357,100.6679,192.168.1.3,10.191.100.224,1,0
2015-02-16 17:19:40.856,50,1424135979.47317,37.7793682976926,-122.4387234203771,58.4942,2.598226,31.86005881839511,10,200,-9999,1424135980.773953,-14.9294319152832,-41.1265869140625,18.20565795898438,165.9835968017578,152.20263671875,25,526880.4918825,0.2011260986328125,-0.93017578125,-0.1879119873046875,526880.4751405,0.2512261056393169,1.492984618697179,-0.2942824962470639,526880.3751925001,2.301475988764886,-0.5114921003319153,1.365375355021097,-0.3019800782203674,-2.1005699634552,0.2197092324495316,-0.3098243474960327,0.08795347064733505,0.1123976781964302,XTrueNorthZVertical,0.4281229598836115,0.4772569125854343,0.6203033344677125,0.4518410940825998,-0.09984362870454788,-0.9789751768112183,-0.1778731346130371,-17.1497802734375,-40.68468475341797,14.98604011535645,1,526861.826780375,unknown,2,2015-02-16 17:19:22.123,null,0,0,0,0,null,0,-0.4331131,100.6725,192.168.1.3,10.191.100.224,1,0
2015-02-16 17:19:40.956,51,1424135979.47317,37.7793682976926,-122.4387234203771,58.4942,2.598226,31.86005881839511,10,200,-9999,1424135980.891733,-15.93793869018555,-40.12059020996094,16.76339721679688,161.2618103027344,147.4808502197266,25,526880.5911365,0.0299072265625,-0.98712158203125,-0.13226318359375,526880.5750755001,-0.01854305803800372,0.9586282701916145,-0.2396472138518703,526880.5750755001,2.221946424415889,-0.391354585879654,1.398336115992895,-0.002852036152034998,0.9548366665840149,-0.248944953083992,-0.05655144527554512,-0.003405606606975198,0.157396137714386,XTrueNorthZVertical,0.4135200918131369,0.4996849860433425,0.61725740407165,0.4453194089101165,-0.06545782834291458,-0.985165536403656,-0.1586320996284485,-16.81116485595703,-40.68651962280273,15.36006164550781,1,526861.826780375,unknown,2,2015-02-16 17:19:22.123,null,0,0,0,0,null,0,-0.4331131,100.6725,192.168.1.3,10.191.100.224,1,0
2015-02-16 17:19:41.060,52,1424135979.47317,37.7793682976926,-122.4387234203771,58.4942,2.598226,31.86005881839511,10,200,-9999,1424135980.993543,-13.95572280883789,-40.71031188964844,18.27276611328125,165.0572662353516,151.2763061523438,25,526880.6903685001,0.0212860107421875,-0.99615478515625,-0.096099853515625,526880.6750095,0.03482163020111306,0.1704508318805595,-0.1494885583083278,526880.5750755001,2.221946424415889,-0.391354585879654,1.398336115992895,-0.002852036152034998,0.9548366665840149,-0.248944953083992,-0.05655144527554512,-0.003405606606975198,0.157396137714386,XTrueNorthZVertical,0.4135200918131369,0.4996849860433425,0.61725740407165,0.4453194089101165,-0.06545782834291458,-0.985165536403656,-0.1586320996284485,-16.81116485595703,-40.68651962280273,15.36006164550781,1,526861.826780375,unknown,2,2015-02-16 17:19:22.123,null,0,0,0,0,null,0,-0.4331131,100.6725,192.168.1.3,10.191.100.224,1,0
2015-02-16 17:19:41.153,53,1424135979.47317,37.7793682976926,-122.4387234203771,58.4942,2.598226,31.86005881839511,10,200,-9999,1424135981.113001,-13.26020431518555,-41.40414428710938,17.66897583007812,165.427001953125,151.6460418701172,25,526880.7896175,0.01751708984375,-0.996307373046875,-0.0637969970703125,526880.7749445001,0.0605712021488712,0.2267758899874084,-0.09739766001859591,526880.6750095,2.075932884939285,-0.2305868727150528,1.41226193450365,0.05051233619451523,0.1666593551635742,-0.1587861180305481,0.02140235900878906,-0.02203124575316906,0.1069704294204712,XTrueNorthZVertical,0.4028286863719525,0.5107667065239665,0.6131297995546571,0.4482391106141698,-0.03608131408691406,-0.9874597191810608,-0.1536928415298462,-15.76796913146973,-41.12060546875,15.31034851074219,1,526861.826780375,unknown,2,2015-02-16 17:19:22.123,null,0,0,0,0,null,0,-0.4331131,100.6725,192.168.1.3,10.191.100.224,1,0
2015-02-16 17:19:41.253,54,1424135979.47317,37.7793682976926,-122.4387234203771,58.4942,2.598226,31.86005881839511,10,200,-9999,1424135981.230127,-12.18214416503906,-40.67561340332031,18.44039916992188,167.2865753173828,153.505615234375,25,526880.8888645,0.0092620849609375,-0.97027587890625,-0.0982513427734375,526880.8748785,0.03943928521520145,-0.07112424428441919,0.001018925433064317,526880.7749445001,1.989955451702877,-0.1527504282118182,1.418229665878266,0.07626160979270935,0.2229844778776169,-0.1066950485110283,0.003989653661847115,0.003780382685363293,0.05889749899506569,XTrueNorthZVertical,0.4021082057724121,0.5130360074093062,0.607647492437459,0.4537263507116228,-0.02312417514622211,-0.9883842468261719,-0.1502060890197754,-14.97970390319824,-41.3111686706543,15.58639144897461,1,526861.826780375,unknown,2,2015-02-16 17:19:22.123,null,0,0,0,0,null,0,-0.4331131,100.6725,192.168.1.3,10.191.100.224,1,0
2015-02-16 17:19:41.353,55,1424135979.47317,37.7793682976926,-122.4387234203771,58.4942,2.598226,31.86005881839511,10,200,-9999,1424135981.348807,-12.94721984863281,-39.98184204101562,18.44039916992188,166.3163909912109,152.5354309082031,25,526880.9881175,-0.016571044921875,-0.9865875244140625,-0.1099395751953125,526880.9748115001,-0.03454332986719978,-0.1585544912911755,0.2496617648150043,526880.8748785,1.943125418226524,-0.1158154581809722,1.419760421463554,0.05512937903404236,-0.0749155655503273,-0.008278274908661842,0.003287831787019968,-0.008439309895038605,0.05520099028944969,XTrueNorthZVertical,0.4032203316419056,0.5125291195409463,0.6039713909241398,0.4581984888254683,-0.01738695241510868,-0.9886157512664795,-0.1494545340538025,-14.61713695526123,-41.41839981079102,15.64593029022217,1,526861.826780375,unknown,2,2015-02-16 17:19:22.123,null,0,0,0,0,null,0,-0.4331131,100.6725,192.168.1.3,10.191.100.224,1,0
2015-02-16 17:19:41.462,56,1424135979.47317,37.7793682976926,-122.4387234203771,58.4942,2.598226,31.86005881839511,10,200,-9999,1424135981.348807,-12.94721984863281,-39.98184204101562,18.44039916992188,166.3163909912109,152.5354309082031,25,526881.0873415,-0.0355682373046875,-0.993194580078125,-0.0952301025390625,526881.0747545001,-0.03694869696375935,-0.06648714819437322,0.1419299745024649,526880.9748115001,1.943091249050636,-0.1098172627505392,1.431078868333916,-0.01882586069405079,-0.1623416393995285,0.2403087764978409,0.04039404168725014,0.009664563462138176,-0.001178044592961669,XTrueNorthZVertical,0.403659585935762,0.517539013395009,0.6019865315795696,0.4547796769169642,-0.01526281796395779,-0.9902553558349609,-0.1384246200323105,-14.44190788269043,-41.29051971435547,16.13890075683594,1,526861.826780375,unknown,2,2015-02-16 17:19:22.123,null,0,0,0,0,null,0,-0.4331131,100.6725,192.168.1.3,10.191.100.224,1,0
2015-02-16 17:19:41.550,57,1424135979.47317,37.7793682976926,-122.4387234203771,58.4942,2.598226,31.86005881839511,10,200,-9999,1424135981.467572,-13.71229934692383,-40.81440734863281,18.17208862304688,165.3058624267578,151.52490234375,25,526881.1866085001,-0.0441436767578125,-0.9811553955078125,-0.1121978759765625,526881.1746785,-0.01523035195805415,0.186466283727969,-0.1269725965561439,526881.0747545001,2.090730163278029,-0.2688769250037867,1.428293271853427,-0.02121615037322044,-0.07027475535869598,0.1325764805078506,0.0006794928922317922,0.0005600216099992394,0.044068843126297,XTrueNorthZVertical,0.4131816309653755,0.5107070129218538,0.6037886104594931,0.451551360432269,-0.03772783279418945,-0.9898636341094971,-0.1369185745716095,-15.09336853027344,-40.9791374206543,16.33524513244629,1,526861.826780375,unknown,2,2015-02-16 17:19:22.123,null,0,0,0,0,null,0,-0.4331131,100.6725,192.168.1.3,10.191.100.224,1,0
2015-02-16 17:19:41.649,58,1424135979.47317,37.7793682976926,-122.4387234203771,58.4942,2.598226,31.86005881839511,10,200,-9999,1424135981.586312,-13.53840255737305,-40.36341857910156,17.534912109375,164.6585083007812,150.8775482177734,25,526881.2858535,-0.0292510986328125,-0.9761505126953125,-0.1287994384765625,526881.2746115,0.006013950373616936,-0.01305002197360628,-0.1385600104590786,526881.1746785,2.131220928088545,-0.310519018804234,1.429499851509673,0.0005246239597909153,0.1826766282320023,-0.1363123208284378,-0.03889435157179832,0.004392770584672689,0.02894362434744835,XTrueNorthZVertical,0.4155936770042742,0.5101332428964807,0.6039121689907814,0.4498178439262335,-0.04303008690476418,-0.9900342226028442,-0.1340919435024261,-15.34760665893555,-40.83905792236328,16.44877815246582,1,526861.826780375,unknown,2,2015-02-16 17:19:22.123,null,0,0,0,0,null,0,-0.4331131,100.6725,192.168.1.3,10.191.100.224,1,0
2015-02-16 17:19:41.749,59,1424135979.47317,37.7793682976926,-122.4387234203771,58.4942,2.598226,31.86005881839511,10,200,-9999,1424135981.705103,-13.60795974731445,-40.71034240722656,18.67520141601562,165.1652374267578,151.38427734375,25,526881.3851055,0.013916015625,-0.9846343994140625,-0.1290283203125,526881.3745505001,0.0158000021152221,0.04013437025971214,-0.07469421172567041,526881.2746115,2.006294426283013,-0.1798745730392332,1.432327275975712,0.02180018834769726,-0.01691662706434727,-0.1479205638170242,-0.0002236896398244426,0.01244690176099539,0.007229704409837723,XTrueNorthZVertical,0.4086645945932172,0.5148719439566773,0.6017536636692766,0.4536437910480483,-0.02469391375780106,-0.9904284477233887,-0.1358002573251724,-14.87606620788574,-41.06488800048828,16.31923866271973,1,526861.826780375,unknown,2,2015-02-16 17:19:22.123,null,0,0,0,0,null,0,-0.4331131,100.6725,192.168.1.3,10.191.100.224,1,0
2015-02-16 17:19:41.859,60,1424135979.47317,37.7793682976926,-122.4387234203771,58.4942,2.598226,31.86005881839511,10,200,-9999,1424135981.823824,-12.73856735229492,-41.09193420410156,18.3062744140625,165.7470245361328,151.966064453125,25,526881.4843415,0.002655029296875,-0.9846038818359375,-0.1280975341796875,526881.4744845,-0.002177134191139777,-0.02549310953478351,-0.01382340395416529,526881.3745505001,1.889597310648591,-0.05478227727015449,1.439938387848314,0.03158982470631599,0.03626848012208939,-0.08406480401754379,0.03033804893493652,0.01702404022216797,0.01308648847043514,XTrueNorthZVertical,0.4028653469538906,0.5220678966017758,0.5984549744921051,0.4549684577097423,-0.007144690491259098,-0.991450309753418,-0.1302892416715622,-14.36411285400391,-41.21297836303711,16.40434646606445,1,526861.826780375,unknown,2,2015-02-16 17:19:22.123,null,0,0,0,0,null,0,-0.4331131,100.6725,192.168.1.3,10.191.100.224,1,0
2015-02-16 17:19:41.947,61,1424135979.47317,37.7793682976926,-122.4387234203771,58.4942,2.598226,31.86005881839511,10,200,-9999,1424135981.924102,-12.8428955078125,-40.98786926269531,18.80938720703125,165.7381744384766,151.9572143554688,25,526881.5835965,0.024200439453125,-0.9869384765625,-0.104736328125,526881.5744195001,-0.002161954172926325,-0.0350277588694852,-0.007419034164742742,526881.4744845,1.79554478049123,0.04450607831391757,1.447080600648558,0.01362605486065149,-0.02935746498405933,-0.02321952022612095,0.00413803244009614,0.01112527586519718,-0.01170084998011589,XTrueNorthZVertical,0.3995439925170701,0.5279445035316265,0.5950757945427054,0.4555480528190634,0.00549026345834136,-0.9923569560050964,-0.1232784017920494,-13.935133934021,-41.24654769897461,16.68754577636719,1,526861.826780375,unknown,2,2015-02-16 17:19:22.123,null,0,0,0,0,null,0,-0.4331131,100.6725,192.168.1.3,10.191.100.224,1,0
2015-02-16 17:19:42.046,62,1424135979.47317,37.7793682976926,-122.4387234203771,58.4942,2.598226,31.86005881839511,10,200,-9999,1424135982.042703,-12.84290313720703,-40.36344909667969,18.809326171875,165.5488739013672,151.7679138183594,25,526881.6828385,0.025238037109375,-0.98199462890625,-0.1237030029296875,526881.6743535,-0.01919526618896412,0.08806328039786819,-0.008557269214642609,526881.5744195001,1.763760363457019,0.07781415717355175,1.451682667820766,0.01365188136696815,-0.03889181092381477,-0.01681842282414436,0.02044082991778851,0.001840743352659047,0.006549615412950516,XTrueNorthZVertical,0.399178836051839,0.5304901887462287,0.5933383798622852,0.4551769039816237,0.009237515740096569,-0.9929143786430359,-0.1184728294610977,-13.81223964691162,-41.23945617675781,16.80681991577148,1,526861.826780375,unknown,2,2015-02-16 17:19:22.123,null,0,0,0,0,null,0,-0.4331131,100.6725,192.168.1.3,10.191.100.224,1,0
2015-02-16 17:19:42.146,63,1424135979.47317,37.7793682976926,-122.4387234203771,58.4942,2.598226,31.86005881839511,10,200,-9999,1424135982.042703,-12.84290313720703,-40.36344909667969,18.809326171875,165.5488739013672,151.7679138183594,25,526881.7820915,0.0089874267578125,-0.98504638671875,-0.1076812744140625,526881.7742885001,-0.004324707294179675,0.008441954339442177,-0.02237747737549981,526881.6743535,1.759540257903532,0.08421266430098925,1.454289093796875,-0.003332204185426235,0.08412622660398483,-0.01796828024089336,0.01126421429216862,0.009349246509373188,-0.00224038795568049,XTrueNorthZVertical,0.3990484923708914,0.5318310256768323,0.5930138842845371,0.4541482405045975,0.009777655825018883,-0.9932206869125366,-0.11583212018013,-13.766357421875,-41.21204376220703,16.91136932373047,1,526861.826780375,unknown,2,2015-02-16 17:19:22.123,null,0,0,0,0,null,0,-1.034492,100.6797,192.168.1.3,10.191.100.224,1,0
2015-02-16 17:19:42.257,64,1424135979.47317,37.7793682976926,-122.4387234203771,58.4942,2.598226,31.86005881839511,10,200,-9999,1424135982.158896,-12.42559432983398,-41.12660217285156,18.94351196289062,165.275146484375,151.4941864013672,25,526881.8813355,-9.1552734375e-05,-0.9885101318359375,-0.09869384765625,526881.8742155001,-0.02237827632382683,3.435477806202217e-05,0.005396097000718553,526881.7742885001,1.749167910106231,0.0926640629098025,1.45378191693663,0.01153611484915018,0.004504846408963203,-0.0317869670689106,-0.01383934821933508,0.01313537731766701,-0.001261022058315575,XTrueNorthZVertical,0.3991744204691502,0.5315414619538871,0.5924667953295513,0.4550896429744173,0.01080284919589758,-0.9931616187095642,-0.1162469089031219,-13.69147205352783,-41.24058532714844,16.90259552001953,1,526861.826780375,unknown,2,2015-02-16 17:19:22.123,null,0,0,0,0,null,0,-1.034492,100.6797,192.168.1.3,10.191.100.224,1,0
2015-02-16 17:19:42.343,65,1424135979.47317,37.7793682976926,-122.4387234203771,58.4942,2.598226,31.86005881839511,10,200,-9999,1424135982.27872,-12.94723129272461,-41.02253723144531,19.17831420898438,165.7058868408203,151.9249267578125,25,526881.9805605001,0.0070343017578125,-0.985076904296875,-0.1037139892578125,526881.9741565001,-0.0191776893257696,-0.01694010137788503,0.007535147988270196,526881.8742155001,1.735760907014452,0.105718835409217,1.454909615950982,-0.006475095637142658,-0.003929955419152975,-0.004051093943417072,-0.01787754148244858,0.01186259277164936,0.01741747930645943,XTrueNorthZVertical,0.3991598330615541,0.5321469151910656,0.5917478117551651,0.4553302604148851,0.012201271019876,-0.9932926297187805,-0.1149821802973747,-13.61783504486084,-41.25389862060547,16.9295597076416,1,526861.826780375,unknown,2,2015-02-16 17:19:22.123,null,0,0,0,0,null,0,-1.034492,100.6797,192.168.1.3,10.191.100.224,1,0
2015-02-16 17:19:42.443,66,1424135979.47317,37.7793682976926,-122.4387234203771,58.4942,2.598226,31.86005881839511,10,200,-9999,1424135982.397453,-12.42559051513672,-40.22467041015625,18.33978271484375,165.6042175292969,151.8232574462891,25,526882.0798115,0.00543212890625,-0.985870361328125,-0.10296630859375,526882.0740925,-0.03941664834593578,-0.03705735393623458,0.01720828169965601,526881.9741565001,1.734539121210516,0.1085520681238397,1.455586250404221,-0.003226580331102014,-0.02093774825334549,-0.001921527553349733,-0.00982966460287571,0.009804372675716877,0.00868816114962101,XTrueNorthZVertical,0.3988190615982219,0.5327324520109838,0.5918723975097964,0.4547819105790074,0.01245417632162571,-0.9933706521987915,-0.1142789795994759,-13.65751361846924,-41.23546981811523,16.94249534606934,1,526861.826780375,unknown,2,2015-02-16 17:19:22.123,null,0,0,0,0,null,0,-1.034492,100.6797,192.168.1.3,10.191.100.224,1,0
2015-02-16 17:19:42.542,67,1424135979.47317,37.7793682976926,-122.4387234203771,58.4942,2.598226,31.86005881839511,10,200,-9999,1424135982.515115,-12.49514389038086,-40.22467041015625,18.4068603515625,166.0287933349609,152.2478332519531,25,526882.1790465,0.0037384033203125,-0.9816436767578125,-0.1189422607421875,526882.1740285,-0.02875095449627744,-0.0158503358598246,0.01608922140960471,526882.0740925,1.734256402598697,0.108224325953574,1.455661064950085,-0.02346218004822731,-0.04105471074581146,0.007750143297016621,-0.003650149330496788,0.009339948184788227,0.01061725430190563,XTrueNorthZVertical,0.3990104098305187,0.5326219168573089,0.591724759960336,0.4549356277800389,0.01240869425237179,-0.9933792352676392,-0.1142091751098633,-13.64619255065918,-41.22741317749023,16.97120475769043,1,526861.826780375,unknown,2,2015-02-16 17:19:22.123,null,0,0,0,0,null,0,-1.034492,100.6797,192.168.1.3,10.191.100.224,1,0
2015-02-16 17:19:42.658,68,1424135979.47317,37.7793682976926,-122.4387234203771,58.4942,2.598226,31.86005881839511,10,200,-9999,1424135982.634925,-12.49514389038086,-39.73899841308594,19.01055908203125,166.0282287597656,152.2472686767578,25,526882.2783220001,0.006805419921875,-0.98431396484375,-0.1262054443359375,526882.274003,0.002322542786658104,-0.07198018425877066,0.07573763824076346,526882.1740285,1.735804649419188,0.1054222653483607,1.45489430482455,-0.01275038626044989,-0.01989949494600296,0.006661720108240843,-0.003562813857570291,0.01038071978837252,0.0003158554609399289,XTrueNorthZVertical,0.3992320430721745,0.5320839395721676,0.5917022599895537,0.455399739789827,0.01216877065598965,-0.993290901184082,-0.1150009110569954,-13.63758945465088,-41.23383331298828,16.96251678466797,1,526861.826780375,unknown,2,2015-02-16 17:19:22.123,null,0,0,0,0,null,0,-1.034492,100.6797,192.168.1.3,10.191.100.224,1,0
2015-02-16 17:19:42.742,69,1424135979.47317,37.7793682976926,-122.4387234203771,58.4942,2.598226,31.86005881839511,10,200,-9999,1424135982.634925,-12.49514389038086,-39.73899841308594,19.01055908203125,166.0282287597656,152.2472686767578,25,526882.377575,0.0074615478515625,-0.9887847900390625,-0.0749969482421875,526882.274003,0.002322542786658104,-0.07198018425877066,0.07573763824076346,526882.274003,1.754955305638551,0.0856018253089854,1.455109874122765,0.01832063868641853,-0.07602923363447189,0.06630685925483704,0.006870037410408258,0.01069554314017296,-0.01315241027623415,XTrueNorthZVertical,0.4000600905469349,0.531459165302776,0.5920477833265223,0.4549533297702241,0.009868853725492954,-0.9933157563209534,-0.1150061562657356,-13.6935510635376,-41.21158981323242,16.97148895263672,1,526861.826780375,unknown,2,2015-02-16 17:19:22.123,null,0,0,0,0,null,0,-1.034492,100.6797,192.168.1.3,10.191.100.224,1,0
2015-02-16 17:19:42.840,70,1424135979.47317,37.7793682976926,-122.4387234203771,58.4942,2.598226,31.86005881839511,10,200,-9999,1424135982.753019,-12.98200225830078,-39.60025024414062,18.20562744140625,165.9046173095703,152.1236572265625,25,526882.476819,-0.0075225830078125,-0.9833984375,-0.1179046630859375,526882.373935,0.01505271911334587,0.004329767300250825,0.04471447470243041,526882.373935,1.806526684821929,0.03337512444987941,1.45856974148982,0.03108825162053108,0.000240122972172685,0.0353533923625946,-0.005964816082268953,0.0005756586324423552,0.0250302255153656,XTrueNorthZVertical,0.4026667503835468,0.530937824839317,0.5923997530425873,0.4527991578273298,0.003737032879143953,-0.9937092065811157,-0.1119290292263031,-13.88597393035889,-41.11609649658203,17.04658889770508,1,526882.4427230001,stationary,1,2015-02-16 17:19:42.768,null,0,0,0,0,null,0,-1.034492,100.6797,192.168.1.3,10.191.100.224,1,0
2015-02-16 17:19:42.941,71,1424135979.47317,37.7793682976926,-122.4387234203771,58.4942,2.598226,31.86005881839511,10,200,-9999,1424135982.872423,-12.70380783081055,-38.90643310546875,19.14474487304688,165.0274810791016,151.2465209960938,25,526882.576067,-0.000640869140625,-0.986541748046875,-0.101104736328125,526882.473872,0.0001123853980013439,0.1793646983651637,0.024333302880054,526882.473872,1.837902112908514,0.005270366669437839,1.461401472642313,0.01617887988686562,0.1751879155635834,0.01506481971591711,-0.008937216363847256,0.01692578941583633,-0.004258313216269016,XTrueNorthZVertical,0.4033145917675957,0.531742021873441,0.5930813534901898,0.4503801736612472,0.0005754003650508821,-0.9940223693847656,-0.1091755256056786,-14.0707426071167,-40.98163223266602,17.21800231933594,1,526882.4427230001,stationary,1,2015-02-16 17:19:42.768,null,0,0,0,0,null,0,-1.034492,100.6797,192.168.1.3,10.191.100.224,1,0
2015-02-16 17:19:43.039,72,1424135979.47317,37.7793682976926,-122.4387234203771,58.4942,2.598226,31.86005881839511,10,200,-9999,1424135982.972853,-13.39933395385742,-39.32272338867188,18.74227905273438,163.3749542236328,149.593994140625,25,526882.675305,-0.0002899169921875,-0.9871063232421875,-0.11334228515625,526882.6737500001,-0.005317001116343199,0.05836051212799643,-4.261057744126781e-05,526882.5737900001,1.838056883807588,0.004694471827265343,1.461986090527773,-0.00635081110522151,-0.0222082044929266,-0.01664210110902786,-0.004767000675201416,0.006598211824893951,-0.0007345198537223041,XTrueNorthZVertical,0.4035766033580805,0.5318162966038811,0.5928452489518357,0.4503686191636037,0.000509798526763916,-0.9940860271453857,-0.1085947006940842,-14.13449668884277,-40.95953369140625,17.21837425231934,1,526882.4427230001,stationary,1,2015-02-16 17:19:42.768,null,0,0,0,0,null,0,-1.034492,100.6797,192.168.1.3,10.191.100.224,1,0
2015-02-16 17:19:43.158,73,1424135979.47317,37.7793682976926,-122.4387234203771,58.4942,2.598226,31.86005881839511,10,200,-9999,1424135983.089871,-12.49516296386719,-38.975830078125,19.41302490234375,163.2095489501953,149.4285888671875,25,526882.7745480001,0.007598876953125,-0.9862060546875,-0.0931854248046875,526882.7736750001,-0.02873550816195498,-0.0359926221324209,0.02357004091163729,526882.6737500001,1.825216776446737,0.01836087450967437,1.462112480855504,0.01075094565749168,0.05418394133448601,-0.009310431778430939,0.0002057687524938956,0.006444082595407963,0.001487862318754196,XTrueNorthZVertical,0.4029709769545444,0.532342375632097,0.592675746763497,0.4505124598505721,0.00199149688705802,-0.9940997362136841,-0.1084519773721695,-14.1018762588501,-40.97856521606445,17.19983291625977,1,526882.4427230001,stationary,1,2015-02-16 17:19:42.768,null,0,0,0,0,null,0,-1.034492,100.6797,192.168.1.3,10.191.100.224,1,0
2015-02-16 17:19:43.238,74,1424135979.47317,37.7793682976926,-122.4387234203771,58.4942,2.598226,31.86005881839511,10,200,-9999,1424135983.190822,-12.9124755859375,-40.15530395507812,18.94351196289062,163.3107757568359,149.5298156738281,25,526882.873796,0.001190185546875,-0.98883056640625,-0.095977783203125,526882.7736750001,-0.02873550816195498,-0.0359926221324209,0.02357004091163729,526882.7736750001,1.821403418473852,0.02272668950137574,1.462006191247902,-0.01266810391098261,-0.04016902670264244,0.0143009340390563,0.003880297532305121,0.005791678559035063,0.007656766567379236,XTrueNorthZVertical,0.4026678316750475,0.5325266916945576,0.5927238891993581,0.4505023435931924,0.002467358717694879,-0.9940881729125977,-0.1085478812456131,-14.0884370803833,-40.9879035949707,17.18858337402344,1,526882.4427230001,stationary,1,2015-02-16 17:19:42.768,null,0,0,0,0,null,0,-1.034492,100.6797,192.168.1.3,10.191.100.224,1,0
2015-02-16 17:19:43.337,75,1424135979.47317,37.7793682976926,-122.4387234203771,58.4942,2.598226,31.86005881839511,10,200,-9999,1424135983.308696,-12.87770462036133,-39.56556701660156,18.84295654296875,163.4160919189453,149.6351318359375,25,526882.973046,-0.0066375732421875,-0.9854583740234375,-0.1037445068359375,526882.873594,-0.02654079710762068,0.09453263131788867,0.03409059248188631,526882.873594,1.84464357296448,0.0006727629321332659,1.461500364294932,-0.01047165971249342,0.09035630524158478,0.0248218085616827,-0.006649922113865614,0.005584042984992266,0.01343662571161985,XTrueNorthZVertical,0.4029079893352066,0.5320956629069507,0.5936452124581623,0.4495828620116474,7.338412979152054e-05,-0.99403315782547,-0.1090787127614021,-14.17255210876465,-40.96769332885742,17.1676025390625,1,526882.4427230001,stationary,1,2015-02-16 17:19:42.768,null,0,0,0,0,null,0,-1.034492,100.6797,192.168.1.3,10.191.100.224,1,0
2015-02-16 17:19:43.439,76,1424135979.47317,37.7793682976926,-122.4387234203771,58.4942,2.598226,31.86005881839511,10,200,-9999,1424135983.408769,-13.5384407043457,-39.32273864746094,19.01065063476562,163.5378265380859,149.7568664550781,25,526883.072286,-0.02264404296875,-0.9848175048828125,-0.109375,526882.9735440001,-0.03076909797033949,0.1603358797443296,0.0414979087378327,526882.9735440001,1.888795578187173,-0.0421494554841819,1.459567065026878,-0.01469746604561806,0.1561596393585205,0.03222953900694847,-0.001960356486961246,0.008362026885151863,0.007157200947403908,XTrueNorthZVertical,0.4034825172916908,0.5308022270478414,0.5954451402645723,0.4482142003327467,-0.004677216522395611,-0.9938204288482666,-0.1109017059206963,-14.34137344360352,-40.93381500244141,17.10812187194824,1,526882.4427230001,stationary,1,2015-02-16 17:19:42.768,null,0,0,0,0,null,0,-1.034492,100.6797,192.168.1.3,10.191.100.224,1,0
2015-02-16 17:19:43.563,77,1424135979.47317,37.7793682976926,-122.4387234203771,58.4942,2.598226,31.86005881839511,10,200,-9999,1424135983.527922,-12.9124870300293,-39.39212036132812,18.13861083984375,163.9505615234375,150.1696014404297,25,526883.171544,-0.0157012939453125,-0.9820556640625,-0.09490966796875,526883.073476,-0.04686764044375948,-0.1240234119649901,0.0301075687555638,526883.073476,1.924058277891654,-0.08105097200387695,1.455677109889996,-0.03079906664788723,-0.1281996220350266,0.02083952911198139,-0.01334428414702415,0.008563593029975891,0.005113267805427313,XTrueNorthZVertical,0.4049340408282814,0.5280002732572677,0.5965717456444635,0.4487162987468324,-0.009299758821725845,-0.9933810830116272,-0.1144882664084435,-14.52059745788574,-40.92576599121094,16.97567558288574,1,526882.4427230001,stationary,1,2015-02-16 17:19:42.768,null,0,0,0,0,null,0,-1.13657,100.6809,192.168.1.3,10.191.100.224,1,0
2015-02-16 17:19:43.634,78,1424135979.47317,37.7793682976926,-122.4387234203771,58.4942,2.598226,31.86005881839511,10,200,-9999,1424135983.527922,-12.9124870300293,-39.39212036132812,18.13861083984375,163.9505615234375,150.1696014404297,25,526883.270798,-0.019775390625,-0.98681640625,-0.1160736083984375,526883.1734120001,-0.03197790678912645,0.01277118900747499,0.003280481830759606,526883.1734120001,1.935492022193631,-0.09696822242479496,1.453162147774577,-0.01590798608958721,0.008594675920903683,-0.005983998067677021,-0.004338609986007214,0.01103341113775969,0.02190228551626205,XTrueNorthZVertical,0.4061655975869138,0.5259501213624902,0.5966231690374298,0.4499408869918246,-0.01136268395930529,-0.9930890798568726,-0.1168119534850121,-14.51398658752441,-40.94434356689453,16.93648910522461,1,526882.4427230001,stationary,1,2015-02-16 17:19:42.768,null,0,0,0,0,null,0,-1.13657,100.6809,192.168.1.3,10.191.100.224,1,0
2015-02-16 17:19:43.735,79,1424135979.47317,37.7793682976926,-122.4387234203771,58.4942,2.598226,31.86005881839511,10,200,-9999,1424135983.647759,-13.5732307434082,-39.63496398925781,18.84292602539062,163.8114318847656,150.0304718017578,25,526883.3700550001,-0.0138397216796875,-0.9963531494140625,-0.0830078125,526883.273348,-0.01593529069859813,0.06265113096022308,0.01597204232164122,526883.273348,1.938736183936556,-0.1000160547343269,1.452096402579769,0.0001876118330983445,0.05831791460514069,0.006856644526124001,-0.007951064966619015,0.006147025618702173,0.00175619381479919,XTrueNorthZVertical,0.4060112237348771,0.5255853737474936,0.5970365656232622,0.449958076776498,-0.01182432565838099,-0.992963433265686,-0.1178297996520996,-14.49979019165039,-40.95920181274414,16.91269874572754,1,526882.4427230001,stationary,1,2015-02-16 17:19:42.768,null,0,0,0,0,null,0,-1.13657,100.6809,192.168.1.3,10.191.100.224,1,0
2015-02-16 17:19:43.833,80,1424135979.47317,37.7793682976926,-122.4387234203771,58.4942,2.598226,31.86005881839511,10,200,-9999,1424135983.765026,-14.37307357788086,-39.39212036132812,18.87643432617188,162.5156860351562,148.7347259521484,25,526883.4693,-0.0061798095703125,-0.9769744873046875,-0.1142730712890625,526883.373293,-0.001046622308401141,0.1251898765224448,-0.004385693683142489,526883.373293,1.943445321553174,-0.1047495996805845,1.452453352902076,0.01507661119103432,0.1208563968539238,-0.01349848695099354,-0.001494838390499353,-0.003347510471940041,0.0344121977686882,XTrueNorthZVertical,0.4062570152896341,0.5255903662825443,0.5970330148322029,0.4497350487152615,-0.01234488375484943,-0.993005633354187,-0.1174200102686882,-14.53512191772461,-40.95772933959961,16.88592529296875,1,526883.394719,unknown,1,2015-02-16 17:19:43.721,null,0,0,0,0,null,0,-1.13657,100.6809,192.168.1.3,10.191.100.224,1,0
2015-02-16 17:19:43.937,81,1424135979.47317,37.7793682976926,-122.4387234203771,58.4942,2.598226,31.86005881839511,10,200,-9999,1424135983.884806,-13.01681900024414,-39.49618530273438,19.11111450195312,164.853271484375,151.0723114013672,25,526883.568554,-0.0119171142578125,-0.9835662841796875,-0.1097564697265625,526883.473216,-0.008461129099290747,0.1602440006867218,0.01052268209912109,526883.473216,1.931440851178864,-0.08809232289088526,1.453075031907146,0.007683301344513893,0.1558171063661575,0.001484673004597425,0.004153240472078323,0.01610435917973518,0.002721312223002315,XTrueNorthZVertical,0.404564932283426,0.5270958393228121,0.5975365366305423,0.4488288198971537,-0.01033305004239082,-0.9930788278579712,-0.1169943809509277,-14.54962825775146,-40.95079040527344,16.89026260375977,1,526883.394719,unknown,1,2015-02-16 17:19:43.721,null,0,0,0,0,null,0,-1.13657,100.6809,192.168.1.3,10.191.100.224,1,0
2015-02-16 17:19:44.032,82,1424135979.47317,37.7793682976926,-122.4387234203771,58.4942,2.598226,31.86005881839511,10,200,-9999,1424135984.00569,-13.78188705444336,-39.21867370605469,18.5074462890625,162.9275817871094,149.1466217041016,25,526883.6678180001,-0.0229339599609375,-0.977752685546875,-0.13092041015625,526883.5731510001,0.007508250061260396,0.1633894602502144,0.0008793757919441645,526883.5731510001,1.930990266827323,-0.08688513645197245,1.454619414797152,0.02367292903363705,0.1588716953992844,-0.008106449618935585,-0.00185840530321002,0.009692765772342682,0.005722258239984512,XTrueNorthZVertical,0.4046326722779649,0.5277622917096758,0.5972436969582016,0.4483741304556404,-0.01005870848894119,-0.993259072303772,-0.1154787242412567,-14.51186084747314,-40.9583854675293,16.90433311462402,1,526883.394719,unknown,1,2015-02-16 17:19:43.721,null,0,0,0,0,null,0,-1.13657,100.6809,192.168.1.3,10.191.100.224,1,0
2015-02-16 17:19:44.132,83,1424135979.47317,37.7793682976926,-122.4387234203771,58.4942,2.598226,31.86005881839511,10,200,-9999,1424135984.121045,-13.32981491088867,-39.94718933105469,18.74221801757812,163.3727264404297,149.5917663574219,25,526883.767047,0.0047454833984375,-0.986968994140625,-0.1059417724609375,526883.673086,0.01488973365463302,0.05511411875918983,-0.01928448208548178,526883.673086,1.923439808064662,-0.07812556874473088,1.455451099634302,0.03105185367166996,0.05059639364480972,-0.02826941944658756,-0.01395164337009192,0.0156024256721139,-0.01618160121142864,XTrueNorthZVertical,0.4041786338615698,0.5284602417255704,0.5970883494384421,0.4481684262123244,-0.008982316590845585,-0.9933550953865051,-0.1147388070821762,-14.5427360534668,-40.92472839355469,16.95922470092773,1,526883.394719,unknown,1,2015-02-16 17:19:43.721,null,0,0,0,0,null,0,-1.13657,100.6809,192.168.1.3,10.191.100.224,1,0
2015-02-16 17:19:44.233,84,1424135979.47317,37.7793682976926,-122.4387234203771,58.4942,2.598226,31.86005881839511,10,200,-9999,1424135984.121045,-13.32981491088867,-39.94718933105469,18.74221801757812,163.3727264404297,149.5917663574219,25,526883.866319,-0.01129150390625,-0.9874725341796875,-0.1088409423828125,526883.773008,-0.01919420092452809,-0.02437910925080336,0.002213619498073863,526883.773008,1.889576569072456,-0.04082814921680719,1.458094949003153,-0.002995477523654699,-0.02898304536938667,-0.006749076303094625,0.009335871785879135,0.006686924956738949,0.006427694112062454,XTrueNorthZVertical,0.402568268449562,0.5308051016108366,0.5962904111944632,0.4479090413271161,-0.004590388387441635,-0.9936559200286865,-0.1123694702982903,-14.50192737579346,-40.93527603149414,16.96870422363281,1,526883.394719,unknown,1,2015-02-16 17:19:43.721,null,0,0,0,0,null,0,-1.13657,100.6809,192.168.1.3,10.191.100.224,1,0
2015-02-16 17:19:44.337,85,1424135979.47317,37.7793682976926,-122.4387234203771,58.4942,2.598226,31.86005881839511,10,200,-9999,1424135984.239849,-12.91250610351562,-39.60028076171875,19.14468383789062,163.4803771972656,149.6994171142578,25,526883.9655500001,-0.0071258544921875,-0.9838104248046875,-0.110107421875,526883.872954,-0.03620860449682633,-0.04766099613249408,0.02147253523709088,526883.872954,1.893600158510514,-0.0463052638043121,1.457348662461451,-0.020008634775877,-0.05226472392678261,0.01250879280269146,-0.006051403004676104,0.006099178455770016,0.004242421127855778,XTrueNorthZVertical,0.4029755986281092,0.5301593960825093,0.5962939356736517,0.4483026370412965,-0.005240100901573896,-0.9935716986656189,-0.1130833625793457,-14.45633411407471,-40.95058822631836,16.97066879272461,1,526883.394719,unknown,1,2015-02-16 17:19:43.721,null,0,0,0,0,null,0,-1.13657,100.6809,192.168.1.3,10.191.100.224,1,0
2015-02-16 17:19:44.430,86,1424135979.47317,37.7793682976926,-122.4387234203771,58.4942,2.598226,31.86005881839511,10,200,-9999,1424135984.358657,-13.50370407104492,-39.91250610351562,18.64157104492188,163.5257415771484,149.7447814941406,25,526884.0647860001,-0.0085906982421875,-0.987396240234375,-0.1207733154296875,526883.9728890001,-0.04362737234546006,0.01709163524391053,0.03208789534214673,526883.9728890001,1.90557004268764,-0.05754362207493747,1.455690875007132,-0.02738423831760883,0.01242118515074253,0.02312770113348961,-0.0005205196794122458,0.009572253562510014,0.004554155748337507,XTrueNorthZVertical,0.4028094342876517,0.5295410944929527,0.597170108910556,0.4480163840301269,-0.006605334579944611,-0.9933826923370361,-0.1146615743637085,-14.50320816040039,-40.95559692382812,16.91850090026855,1,526883.394719,unknown,1,2015-02-16 17:19:43.721,null,0,0,0,0,null,0,-1.13657,100.6809,192.168.1.3,10.191.100.224,1,0
2015-02-16 17:19:44.531,87,1424135979.47317,37.7793682976926,-122.4387234203771,58.4942,2.598226,31.86005881839511,10,200,-9999,1424135984.477401,-13.81668472290039,-39.60028076171875,18.54098510742188,163.5386505126953,149.7576904296875,25,526884.1640390001,-0.0062408447265625,-0.9883880615234375,-0.1099090576171875,526884.072822,-0.03093554553846944,-0.01270833840574912,-0.003091930025581995,526884.072822,1.911698985698982,-0.06510768255295951,1.45246276073851,-0.01464542839676142,-0.01744079031050205,-0.01205863524228334,-0.0009096565772779286,0.005610509309917688,-0.002965631894767284,XTrueNorthZVertical,0.4027787698769281,0.5280770973711163,0.5979171125609286,0.4487749978763675,-0.007681041490286589,-0.9930067658424377,-0.1178076863288879,-14.54565048217773,-40.98266983032227,16.81619453430176,1,526883.394719,unknown,1,2015-02-16 17:19:43.721,null,0,0,0,0,null,0,-1.13657,100.6809,192.168.1.3,10.191.100.224,1,0
2015-02-16 17:19:44.629,88,1424135979.47317,37.7793682976926,-122.4387234203771,58.4942,2.598226,31.86005881839511,10,200,-9999,1424135984.596186,-13.85146713256836,-40.12062072753906,18.3062744140625,163.4983520507812,149.7173919677734,25,526884.263286,0.0048980712890625,-0.9849395751953125,-0.1059417724609375,526884.17276,-0.01174001303339631,0.1336621908983139,-0.01608602561629661,526884.17276,1.900317610263465,-0.05269035387166816,1.451424351210937,0.004550277255475521,0.128929540514946,-0.02505003288388252,3.108856253675185e-05,0.004495560657233,0.009014570154249668,XTrueNorthZVertical,0.4018548603640109,0.5282526454927415,0.5981477014058992,0.4490892689412517,-0.006271933205425739,-0.9928836226463318,-0.1189236268401146,-14.48978805541992,-41.03478622436523,16.73715591430664,1,526883.394719,unknown,1,2015-02-16 17:19:43.721,null,0,0,0,0,null,0,-1.13657,100.6809,192.168.1.3,10.191.100.224,1,0
2015-02-16 17:19:44.738,89,1424135979.47317,37.7793682976926,-122.4387234203771,58.4942,2.598226,31.86005881839511,10,200,-9999,1424135984.714397,-12.66908645629883,-39.56558227539062,18.3062744140625,163.5450134277344,149.7640533447266,25,526884.36253,-0.003936767578125,-0.9821319580078125,-0.1161651611328125,526884.272692,-0.009563145158365536,0.1114197357900811,0.00204850351048895,526884.272692,1.879591548438943,-0.02967083875834775,1.451970469211222,0.006775683723390102,0.10662642121315,-0.00693576131016016,0.008414933457970619,0.008008935488760471,0.01255270186811686,XTrueNorthZVertical,0.4005683589110535,0.5294315371001913,0.5979622191841922,0.4490973750034147,-0.003516862634569407,-0.9929485321044922,-0.1184944733977318,-14.41351795196533,-41.07390213012695,16.70703125,1,526883.394719,unknown,1,2015-02-16 17:19:43.721,null,0,0,0,0,null,0,-1.13657,100.6809,192.168.1.3,10.191.100.224,1,0
2015-02-16 17:19:44.827,90,1424135979.47317,37.7793682976926,-122.4387234203771,58.4942,2.598226,31.86005881839511,10,200,-9999,1424135984.815487,-12.7038688659668,-39.53086853027344,18.406982421875,164.5968780517578,150.81591796875,25,526884.4617740001,-0.0106048583984375,-0.9793243408203125,-0.107086181640625,526884.372618,-0.01490890841448159,0.0901978040115667,-0.001111603438999074,526884.372618,1.879736154094846,-0.02952812665982033,1.452632432109314,0.001475222175940871,0.08536332100629807,-0.01011514011770487,0.009797683916985989,0.006301912944763899,-0.0005550019559450448,XTrueNorthZVertical,0.4006307621974818,0.5296942714293376,0.5978436711615598,0.448889681872599,-0.003480545245110989,-0.9930267930030823,-0.117837943136692,-14.4161491394043,-41.05013275146484,16.76308441162109,1,526883.394719,unknown,1,2015-02-16 17:19:43.721,null,0,0,0,0,null,0,-1.13657,100.6809,192.168.1.3,10.191.100.224,1,0
2015-02-16 17:19:44.926,91,1424135979.47317,37.7793682976926,-122.4387234203771,58.4942,2.598226,31.86005881839511,10,200,-9999,1424135984.815487,-12.7038688659668,-39.53086853027344,18.406982421875,164.5968780517578,150.81591796875,25,526884.561017,0.00152587890625,-0.9850616455078125,-0.1309814453125,526884.47256,-0.03515638955013602,0.07113436429656149,0.00536307380320157,526884.47256,1.885729706299778,-0.03624893474150857,1.452079466144932,-0.01877005770802498,0.06630004197359085,-0.003640702227130532,-0.0001022047072183341,0.005992431659251451,0.01406679581850767,XTrueNorthZVertical,0.4009341043761672,0.529217851488933,0.5979926306045188,0.4489823535505725,-0.004292326513677835,-0.9929614067077637,-0.1183606162667274,-14.44515132904053,-41.05253219604492,16.73222160339355,1,526883.394719,unknown,1,2015-02-16 17:19:43.721,null,0,0,0,0,null,0,-1.13657,100.6809,192.168.1.3,10.191.100.224,1,0
2015-02-16 17:19:45.024,92,1424135979.47317,37.7793682976926,-122.4387234203771,58.4942,2.598226,31.86005881839511,10,200,-9999,1424135984.932585,-13.6080436706543,-39.94715881347656,18.47402954101562,164.8114624023438,151.0305023193359,25,526884.6602470001,0.0192413330078125,-0.9810028076171875,-0.1353302001953125,526884.5725,-0.03090145707651643,-0.02859223009530872,0.01077941082820472,526884.5725,1.882248931121509,-0.03202581686245329,1.449613854408302,-0.01448298431932926,-0.03347951546311378,0.001759692328050733,0.005396699998527765,0.0112210726365447,-0.01795436069369316,XTrueNorthZVertical,0.4000600683958703,0.5287152155108864,0.5987271917556414,0.4493750581178017,-0.003870821092277765,-0.9926663637161255,-0.120824322104454,-14.45078086853027,-41.07688140869141,16.66746139526367,1,526883.394719,unknown,1,2015-02-16 17:19:43.721,null,0,0,0,0,null,0,-1.13657,100.6809,192.168.1.3,10.191.100.224,1,0
2015-02-16 17:19:45.141,93,1424135979.47317,37.7793682976926,-122.4387234203771,58.4942,2.598226,31.86005881839511,10,200,-9999,1424135985.062311,-13.26028442382812,-40.22470092773438,18.87652587890625,164.7392272949219,150.9582672119141,25,526884.759511,0.0038604736328125,-0.9842071533203125,-0.13232421875,526884.67241,-0.001049551785600228,-0.04984212506526897,0.0107112339042987,526884.67241,1.874937898280767,-0.02358602448361242,1.44983729962851,0.01536592282354832,-0.05472928285598755,0.001691389712505043,0.01737209968268871,0.009767957031726837,-0.009969032369554043,XTrueNorthZVertical,0.3995157194559252,0.5292180253523474,0.5987112426923321,0.4492887154905919,-0.002845732029527426,-0.9926933646202087,-0.1206309422850609,-14.47487640380859,-41.08713912963867,16.62121772766113,1,526884.69135,unknown,2,2015-02-16 17:19:44.991,null,0,0,0,0,null,0,-1.13657,100.6809,192.168.1.3,10.191.100.224,1,0
2015-02-16 17:19:45.224,94,1424135979.47317,37.7793682976926,-122.4387234203771,58.4942,2.598226,31.86005881839511,10,200,-9999,1424135985.171142,-12.87776565551758,-40.32878112792969,18.50762939453125,164.644287109375,150.8633270263672,25,526884.858746,-0.0022735595703125,-0.9839630126953125,-0.1047210693359375,526884.772351,-0.01172696354405492,-0.1060646514701498,0.01079965085248933,526884.772351,1.875058033519517,-0.02507147116484826,1.451156350523449,0.004713071044534445,-0.111025832593441,0.001762239262461662,0.0003065448254346848,0.01015513762831688,-0.003927759826183319,XTrueNorthZVertical,0.4002161443207118,0.5293092650709733,0.5980850752564122,0.4493918256201672,-0.002992091700434685,-0.9928516745567322,-0.1193174794316292,-14.44014453887939,-41.07465362548828,16.68217086791992,1,526884.69135,unknown,2,2015-02-16 17:19:44.991,null,0,0,0,0,null,0,-1.13657,100.6809,192.168.1.3,10.191.100.224,1,0
2015-02-16 17:19:45.324,95,1424135979.47317,37.7793682976926,-122.4387234203771,58.4942,2.598226,31.86005881839511,10,200,-9999,1424135985.289936,-13.22552490234375,-40.12062072753906,18.10516357421875,164.15380859375,150.3728485107422,25,526884.957988,-0.0220489501953125,-0.980377197265625,-0.1087646484375,526884.8723040001,-0.01274349213213816,0.01066356332078628,0.01814624703558191,526884.8723040001,1.88034491112215,-0.03086449357447433,1.452790347477808,0.003753649536520243,0.005630917381495237,0.009097236208617687,-0.003385865362361073,0.007632772903889418,0.01910466700792313,XTrueNorthZVertical,0.4009031355868029,0.5295643995270248,0.5976696698545749,0.4490314229647845,-0.003633177606388927,-0.9930453896522522,-0.1176764443516731,-14.43738460540771,-41.05960464477539,16.7215518951416,1,526884.69135,unknown,2,2015-02-16 17:19:44.991,null,0,0,0,0,null,0,-1.13657,100.6809,192.168.1.3,10.191.100.224,1,0
2015-02-16 17:19:45.423,96,1424135979.47317,37.7793682976926,-122.4387234203771,58.4942,2.598226,31.86005881839511,10,200,-9999,1424135985.408666,-13.3994140625,-40.43283081054688,18.943603515625,163.9986724853516,150.2177124023438,25,526885.05723,0.008209228515625,-0.9879150390625,-0.1085357666015625,526884.9722150001,-0.0288335124900699,0.02863510698885899,-0.01806102588069938,526884.9722150001,1.88823525468209,-0.03889261434798403,1.452446729789359,-0.01233561802655458,0.02360215038061142,-0.02710601314902306,-0.01613039709627628,0.01043039374053478,0.004748974461108446,XTrueNorthZVertical,0.4011402338377103,0.5292393492237514,0.5979247117562607,0.4488633350415746,-0.004591038916260004,-0.9930048584938049,-0.11798445135355,-14.47029113769531,-41.03823852539062,16.74554824829102,1,526884.69135,unknown,2,2015-02-16 17:19:44.991,null,0,0,0,0,null,0,-1.13657,100.6809,192.168.1.3,10.191.100.224,1,0
2015-02-16 17:19:45.523,97,1424135979.47317,37.7793682976926,-122.4387234203771,58.4942,2.598226,31.86005881839511,10,200,-9999,1424135985.408666,-13.3994140625,-40.43283081054688,18.943603515625,163.9986724853516,150.2177124023438,25,526885.156476,0.008941650390625,-0.9809722900390625,-0.1196746826171875,526885.072175,-0.02984391580764596,0.01807407537004077,0.003268763921963257,526885.072175,1.85993758684574,-0.008837722627890699,1.452136385455804,-0.01329060457646847,0.01297054719179869,-0.005786204244941473,0.00577643746510148,0.004290187265723944,0.01422078814357519,XTrueNorthZVertical,0.3995842057747728,0.5302299703803081,0.5976700923087673,0.4494208853725833,-0.00104621285572648,-0.9929681420326233,-0.1183772832155228,-14.39486312866211,-41.08953475952148,16.68465614318848,1,526884.69135,unknown,2,2015-02-16 17:19:44.991,null,0,0,0,0,null,0,-1.13657,100.6809,192.168.1.3,10.191.100.224,1,0
2015-02-16 17:19:45.621,98,1424135979.47317,37.7793682976926,-122.4387234203771,58.4942,2.598226,31.86005881839511,10,200,-9999,1424135985.527406,-12.73866653442383,-40.53691101074219,18.2392578125,164.0407257080078,150.259765625,25,526885.255719,0.009185791015625,-0.9840087890625,-0.125030517578125,526885.172109,-0.01810523435479469,0.0191305513744752,0.006429936135887312,526885.172109,1.846207529416437,0.006764820792959797,1.451518373779368,-0.001489775720983744,0.01396629773080349,-0.002631856128573418,0.009677810594439507,0.006032632198184729,-0.004603367298841476,XTrueNorthZVertical,0.3984241877963933,0.5308123533194076,0.5978613175174777,0.4495089405141663,0.0008049774332903326,-0.9928948283195496,-0.1189928278326988,-14.33850574493408,-41.12156677246094,16.65424156188965,1,526884.69135,unknown,2,2015-02-16 17:19:44.991,null,0,0,0,0,null,0,-1.13657,100.6809,192.168.1.3,10.191.100.224,1,0
2015-02-16 17:19:45.720,99,1424135979.47317,37.7793682976926,-122.4387234203771,58.4942,2.598226,31.86005881839511,10,200,-9999,1424135985.646073,-12.63433456420898,-40.29405212402344,18.47412109375,164.0593719482422,150.2784118652344,25,526885.354971,0.0063629150390625,-0.988067626953125,-0.1139068603515625,526885.272037,-0.01386361768662549,-0.05196572971849816,0.004356931543369634,526885.272037,1.838511356582596,0.0148245441743717,1.451600509038172,0.002750577637925744,-0.05712977051734924,-0.004705804400146008,0.005118932574987411,0.009460370987653732,0.001591358450241387,XTrueNorthZVertical,0.3980770780987975,0.531115971834168,0.5977145795518866,0.4496529508295126,0.001762781175784767,-0.9929046034812927,-0.1189009323716164,-14.3316535949707,-41.13489151000977,16.62721061706543,1,526884.69135,unknown,2,2015-02-16 17:19:44.991,null,0,0,0,0,null,0,-1.13657,100.6809,192.168.1.3,10.191.100.224,1,0
2015-02-16 17:19:45.821,100,1424135979.47317,37.7793682976926,-122.4387234203771,58.4942,2.598226,31.86005881839511,10,200,-9999,1424135985.764876,-12.91253662109375,-39.87779235839844,18.4071044921875,164.1073150634766,150.3263549804688,25,526885.454208,-0.0013427734375,-0.9783477783203125,-0.1131439208984375,526885.371973,-0.01062601274941616,-0.003141198505748461,0.01389051561363529,526885.371973,1.839707571606029,0.01520400979056405,1.452677091617417,0.00604994548484683,-0.008376643061637878,0.004825335461646318,0.003899881150573492,0.009618334472179413,-0.0009277906501665711,XTrueNorthZVertical,0.3978919394837925,0.5317577664504847,0.597776424253386,0.4489755665555303,0.00179164728615433,-0.9930320382118225,-0.117831364274025,-14.3414421081543,-41.11943435668945,16.656982421875,1,526884.69135,unknown,2,2015-02-16 17:19:44.991,null,0,0,0,0,null,0,-1.13657,100.6809,192.168.1.3,10.191.100.224,1,0
2015-02-16 17:19:45.919,101,1424135979.47317,37.7793682976926,-122.4387234203771,58.4942,2.598226,31.86005881839511,10,200,-9999,1424135985.86521,-12.87776565551758,-39.91246032714844,18.30642700195312,164.1106719970703,150.3297119140625,25,526885.5534570001,-0.0135498046875,-0.982513427734375,-0.113616943359375,526885.4719080001,-0.009606022051915812,0.04561595473142223,-0.007477623708724485,526885.4719080001,1.841099227667859,0.01476119366231656,1.453288226172282,0.007070510648190975,0.0403803251683712,-0.01653996668756008,0.002389361849054694,0.010529400780797,0.001426365575753152,XTrueNorthZVertical,0.397793709946953,0.5321160648346596,0.5978401317162755,0.4485530796066257,0.001730511314235628,-0.9931038618087769,-0.11722531914711,-14.36656284332275,-41.10212326049805,16.67803955078125,1,526884.69135,unknown,2,2015-02-16 17:19:44.991,null,0,0,0,0,null,0,-1.13657,100.6809,192.168.1.3,10.191.100.224,1,0
2015-02-16 17:19:46.028,102,1424135979.47317,37.7793682976926,-122.4387234203771,58.4942,2.598226,31.86005881839511,10,200,-9999,1424135985.980855,-13.12119293212891,-40.08589172363281,18.40704345703125,164.1275634765625,150.3466033935547,25,526885.652691,0.002655029296875,-0.990142822265625,-0.1027069091796875,526885.571831,-0.02453330627791895,-0.01907595657212858,-0.0009731190623149536,526885.571831,1.842914687219296,0.01206406126930596,1.453673389881742,-0.007796429097652435,-0.02438433282077312,-0.01003926247358322,-0.02615947462618351,0.01074232999235392,0.01021865103393793,XTrueNorthZVertical,0.3982045813952969,0.5319864441437184,0.5976093171038952,0.4486498291065546,0.001409718650393188,-0.9931489229202271,-0.1168470680713654,-14.34549427032471,-41.10904312133789,16.67912101745605,1,526884.69135,unknown,2,2015-02-16 17:19:44.991,null,0,0,0,0,null,0,-1.13657,100.6809,192.168.1.3,10.191.100.224,1,0
2015-02-16 17:19:46.117,103,1424135979.47317,37.7793682976926,-122.4387234203771,58.4942,2.598226,31.86005881839511,10,200,-9999,1424135986.099961,-12.7734375,-40.502197265625,18.54119873046875,164.6665802001953,150.8856201171875,25,526885.751958,0.0023193359375,-0.98297119140625,-0.108673095703125,526885.671766,-0.0266220235208681,0.0159680475800061,0.01178768361690872,526885.671766,1.828131191874454,0.02744991874876277,1.453307167810821,-0.009826752357184887,0.01062480639666319,0.002721870550885797,-0.003186737885698676,0.003039556089788675,0.02557660639286041,XTrueNorthZVertical,0.3974575321093527,0.5323907881521455,0.5974478281074795,0.4490475275441811,0.003217255463823676,-0.9931060671806335,-0.1171751171350479,-14.31713390350342,-41.13683700561523,16.63490295410156,1,526884.69135,unknown,2,2015-02-16 17:19:44.991,null,0,0,0,0,null,0,-1.114841,100.6807,192.168.1.3,10.191.100.224,1,0
2015-02-16 17:19:46.217,104,1424135979.47317,37.7793682976926,-122.4387234203771,58.4942,2.598226,31.86005881839511,10,200,-9999,1424135986.099961,-12.7734375,-40.502197265625,18.54119873046875,164.6665802001953,150.8856201171875,25,526885.851195,-0.0323944091796875,-0.981201171875,-0.1090240478515625,526885.77171,-0.03404824822055405,0.06268122468054098,0.0213553561491274,526885.77171,1.829294585235357,0.02853925369807906,1.45316600964008,-0.01725078746676445,0.05733798816800117,0.01229091081768274,0.009254862554371357,0.009324879385530949,0.01077480521053076,XTrueNorthZVertical,0.3967894538286567,0.5328248251798227,0.5979618505322997,0.4484389487478125,0.003348896745592356,-0.9930895566940308,-0.1173116713762283,-14.32743740081787,-41.12604522705078,16.6526985168457,1,526884.69135,unknown,2,2015-02-16 17:19:44.991,null,0,0,0,0,null,0,-1.114841,100.6807,192.168.1.3,10.191.100.224,1,0
2015-02-16 17:19:46.316,105,1424135979.47317,37.7793682976926,-122.4387234203771,58.4942,2.598226,31.86005881839511,10,200,-9999,1424135986.218362,-12.98208999633789,-39.53086853027344,18.47415161132812,164.0594482421875,150.2784881591797,25,526885.95045,-0.01324462890625,-0.9775390625,-0.118988037109375,526885.871641,-0.0138439102945589,0.096560362171875,-0.00218698788717307,526885.871641,1.864537411938126,-0.01054197331353733,1.452283223652794,0.003009868552908301,0.09115813672542572,-0.01124034821987152,-0.01451591029763222,0.01387482043355703,-0.007106164935976267,XTrueNorthZVertical,0.3989062064170661,0.5308098286501365,0.5983231515946053,0.4484687291215119,-0.001246418687514961,-0.9929855465888977,-0.1182295307517052,-14.35447120666504,-41.10454177856445,16.68249320983887,1,526885.936436,stationary,1,2015-02-16 17:19:46.262,null,0,0,0,0,null,0,-1.114841,100.6807,192.168.1.3,10.191.100.224,1,0
2015-02-16 17:19:46.446,106,1424135979.47317,37.7793682976926,-122.4387234203771,58.4942,2.598226,31.86005881839511,10,200,-9999,1424135986.337322,-13.0864143371582,-40.6756591796875,18.5076904296875,164.2789154052734,150.4979553222656,25,526886.049709,0.0063018798828125,-0.9850921630859375,-0.1061859130859375,526885.971581,-0.01918487986071282,-0.02224991195928501,0.005408880173950933,526885.971581,1.869017506648179,-0.01615919918063708,1.451941428795517,-0.002284984337165952,-0.02769376896321774,-0.003631380153819919,-0.02609913609921932,0.009882323443889618,0.01101606246083975,XTrueNorthZVertical,0.399322672616244,0.5303408333001043,0.5982987178016993,0.4486855005341938,-0.001916001550853252,-0.9929450750350952,-0.1185600087046623,-14.42949390411377,-41.09576416015625,16.63934707641602,1,526885.936436,stationary,1,2015-02-16 17:19:46.262,null,0,0,0,0,null,0,-1.114841,100.6807,192.168.1.3,10.191.100.224,1,0
2015-02-16 17:19:46.516,107,1424135979.47317,37.7793682976926,-122.4387234203771,58.4942,2.598226,31.86005881839511,10,200,-9999,1424135986.457055,-12.49522399902344,-40.3634033203125,18.8095703125,164.7900695800781,151.0091094970703,25,526886.148972,-0.0128173828125,-0.979705810546875,-0.1214599609375,526886.0715140001,-0.01165638977516782,0.04674620029805186,0.02237002052444758,526886.0715140001,1.862176424602005,-0.007231467485546799,1.451981438925041,0.005243422463536263,0.04130258038640022,0.01332904491573572,0.00247461162507534,0.01107725221663713,0.005739692132920027,XTrueNorthZVertical,0.3984754324738088,0.5309905829909627,0.598534444621651,0.4483557510892284,-0.0008571800426580012,-0.9929497838020325,-0.118532657623291,-14.43438529968262,-41.09599685668945,16.634521484375,1,526885.936436,stationary,1,2015-02-16 17:19:46.262,null,0,0,0,0,null,0,-1.114841,100.6807,192.168.1.3,10.191.100.224,1,0
2015-02-16 17:19:46.616,108,1424135979.47317,37.7793682976926,-122.4387234203771,58.4942,2.598226,31.86005881839511,10,200,-9999,1424135986.57525,-12.84297943115234,-40.502197265625,18.47415161132812,164.9378204345703,151.1568603515625,25,526886.2482230001,-0.0081939697265625,-0.981719970703125,-0.11761474609375,526886.171449,-0.03309856497583179,0.01803173110870851,-0.01697179299485697,526886.171449,1.858791185620924,-0.004667984922850317,1.451106886446611,-0.01615265570580959,0.01254346780478954,-0.02598889730870724,5.383447569329292e-05,0.01088165398687124,0.00964632909744978,XTrueNorthZVertical,0.3984119531475036,0.5306284162915493,0.5985190962130107,0.4488611381319173,-0.0005573745002038777,-0.9928457736968994,-0.1194027960300446,-14.43274116516113,-41.10463714599609,16.61458587646484,1,526885.936436,stationary,1,2015-02-16 17:19:46.262,null,0,0,0,0,null,0,-1.114841,100.6807,192.168.1.3,10.191.100.224,1,0
2015-02-16 17:19:46.713,109,1424135979.47317,37.7793682976926,-122.4387234203771,58.4942,2.598226,31.86005881839511,10,200,-9999,1424135986.676055,-12.39090347290039,-40.32875061035156,18.77603149414062,164.9691009521484,151.1881408691406,25,526886.3474900001,0.026092529296875,-0.982208251953125,-0.1298065185546875,526886.2713840001,-0.03204901319023157,-0.04881254698784434,-0.01690787712869507,526886.2713840001,1.854550301830181,-0.003502560908648102,1.449776061549304,-0.01510355807840824,-0.05430053547024727,-0.0259260144084692,-0.01752148941159248,0.01386518031358719,-0.007327203638851643,XTrueNorthZVertical,0.3988897794509578,0.5296457936870428,0.5981522923514755,0.4500845950235012,-0.0004228468460496515,-0.9926859736442566,-0.1207245513796806,-14.34504318237305,-41.13687896728516,16.61073684692383,1,526885.936436,stationary,1,2015-02-16 17:19:46.262,null,0,0,0,0,null,0,-1.114841,100.6807,192.168.1.3,10.191.100.224,1,0
2015-02-16 17:19:46.818,110,1424135979.47317,37.7793682976926,-122.4387234203771,58.4942,2.598226,31.86005881839511,10,200,-9999,1424135986.794073,-12.80820846557617,-40.53691101074219,19.1114501953125,164.9567718505859,151.1758117675781,25,526886.446754,0.0140533447265625,-0.9779815673828125,-0.1248931884765625,526886.371317,-0.01923175149589821,-0.0572941824275287,-0.008411327986906266,526886.371317,1.816916516004639,0.03588174944805613,1.448874938996288,-0.00224659126251936,-0.06288006901741028,-0.0174055602401495,0.0134745305404067,0.005058479495346546,-0.006586560513824224,XTrueNorthZVertical,0.3968846577103756,0.5307653181206508,0.597744486439404,0.4510790451010791,0.004362993873655796,-0.9925767779350281,-0.1215414926409721,-14.23111820220947,-41.20443344116211,16.54115104675293,1,526885.936436,stationary,1,2015-02-16 17:19:46.262,null,0,0,0,0,null,0,-1.114841,100.6807,192.168.1.3,10.191.100.224,1,0
2015-02-16 17:19:46.911,111,1424135979.47317,37.7793682976926,-122.4387234203771,58.4942,2.598226,31.86005881839511,10,200,-9999,1424135986.794073,-12.80820846557617,-40.53691101074219,19.1114501953125,164.9567718505859,151.1758117675781,25,526886.5459980001,0.0121002197265625,-0.978668212890625,-0.1148223876953125,526886.4712520001,0.009474461894065898,0.02534903251981022,-0.04694939948922491,526886.4712520001,1.780444087545305,0.07498402552975335,1.449664003670001,0.02649548463523388,0.01967768557369709,-0.05591792613267899,0.01565165817737579,0.004391196649521589,-0.01010299194604158,XTrueNorthZVertical,0.3950898718749535,0.5325931857755934,0.5970577591150668,0.4514095195400044,0.009052321314811707,-0.9926724433898926,-0.1204969808459282,-14.08446311950684,-41.25534439086914,16.53977203369141,1,526885.936436,stationary,1,2015-02-16 17:19:46.262,null,0,0,0,0,null,0,-1.114841,100.6807,192.168.1.3,10.191.100.224,1,0
2015-02-16 17:19:47.010,112,1424135979.47317,37.7793682976926,-122.4387234203771,58.4942,2.598226,31.86005881839511,10,200,-9999,1424135986.913129,-11.59104919433594,-41.54292297363281,18.00460815429688,165.0296325683594,151.2486724853516,25,526886.645263,0.0141754150390625,-0.9847869873046875,-0.1177215576171875,526886.571168,0.004259193531363725,0.01059858219018834,-0.003220827022341831,526886.571168,1.752428572798127,0.102870191114106,1.450854305306137,0.02128065004944801,0.004927892703562975,-0.01219332404434681,-0.003376088570803404,0.008822044357657433,-0.006069235503673553,XTrueNorthZVertical,0.3945369122687999,0.5336941691517105,0.5959425889243228,0.4520659463182864,0.01228722184896469,-0.9928155541419983,-0.1190223172307014,-13.92356586456299,-41.28630065917969,16.59865379333496,1,526885.936436,stationary,1,2015-02-16 17:19:46.262,null,0,0,0,0,null,0,-1.114841,100.6807,192.168.1.3,10.191.100.224,1,0
2015-02-16 17:19:47.111,113,1424135979.47317,37.7793682976926,-122.4387234203771,58.4942,2.598226,31.86005881839511,10,200,-9999,1424135987.03297,-11.86925506591797,-39.66966247558594,18.87673950195312,165.0686798095703,151.2877197265625,25,526886.7445180001,0.009124755859375,-0.9822540283203125,-0.1310272216796875,526886.6711330001,-0.01909087027423302,-0.009443569225420979,0.03843580611645959,526886.6711330001,1.759009773303691,0.09535348424793075,1.451784060992648,-0.002028226386755705,-0.01520128082484007,0.02947658859193325,-0.01148744206875563,0.003119266359135509,0.01402062829583883,XTrueNorthZVertical,0.3952539492464904,0.5335523637782754,0.5957196676809382,0.4519007619969079,0.01130433660000563,-0.9929264187812805,-0.1181923821568489,-13.92022800445557,-41.28032302856445,16.61631393432617,1,526885.936436,stationary,1,2015-02-16 17:19:46.262,null,0,0,0,0,null,0,-1.114841,100.6807,192.168.1.3,10.191.100.224,1,0
2015-02-16 17:19:47.217,114,1424135979.47317,37.7793682976926,-122.4387234203771,58.4942,2.598226,31.86005881839511,10,200,-9999,1424135987.15138,-12.53000259399414,-40.53689575195312,18.50778198242188,165.1101989746094,151.3292388916016,25,526886.843764,0.013397216796875,-0.988037109375,-0.1122589111328125,526886.771057,-0.03831516491907901,-0.03702965706089776,0.02999465072534445,526886.771057,1.786302129639157,0.06719017203029164,1.451139827077253,-0.02121527679264545,-0.0428624339401722,0.02104859054088593,-0.0154150640591979,0.009374966844916344,0.02146105282008648,XTrueNorthZVertical,0.3962158783613249,0.5324114534347999,0.5964698351389869,0.4514142091235973,0.008014551363885403,-0.9928497076034546,-0.1191020458936691,-14.04732894897461,-41.23989486694336,16.6097297668457,1,526885.936436,stationary,1,2015-02-16 17:19:46.262,null,0,0,0,0,null,0,-1.114841,100.6807,192.168.1.3,10.191.100.224,1,0
2015-02-16 17:19:47.308,115,1424135979.47317,37.7793682976926,-122.4387234203771,58.4942,2.598226,31.86005881839511,10,200,-9999,1424135987.269426,-12.59955978393555,-40.60627746582031,18.84317016601562,165.1086120605469,151.3276519775391,25,526886.94302,0.00738525390625,-0.985595703125,-0.119110107421875,526886.870992,-0.03087322756896159,-0.009474994526283914,0.01928661261435384,526886.870992,1.797973180996917,0.05724137464874024,1.450212432149177,-0.01377339661121368,-0.01530776172876358,0.01034198142588139,-0.002365324180573225,0.009904704988002777,-0.001761603518389165,XTrueNorthZVertical,0.3958547451592698,0.5322137519516751,0.5973655405405783,0.4507793078510567,0.006881925743073225,-0.9927385449409485,-0.1200950890779495,-14.12990570068359,-41.22986602783203,16.56453323364258,1,526886.8895310001,unknown,1,2015-02-16 17:19:47.215,null,0,0,0,0,null,0,-1.114841,100.6807,192.168.1.3,10.191.100.224,1,0
2015-02-16 17:19:47.401,116,1424135979.47317,37.7793682976926,-122.4387234203771,58.4942,2.598226,31.86005881839511,10,200,-9999,1424135987.386609,-12.49523162841797,-40.36344909667969,18.47427368164062,165.0672149658203,151.2862548828125,25,526887.0422820001,0.020965576171875,-0.9801177978515625,-0.13311767578125,526886.970926,-0.02242355006235818,0.02969930616045466,-0.01381807763198514,526886.970926,1.791289778755913,0.0647157450928043,1.44938651240497,-0.0052825384773314,0.02380118891596794,-0.02274351008236408,0.009333754889667034,0.01139192935079336,0.004876401275396347,XTrueNorthZVertical,0.3952014126377292,0.5323406944227599,0.5975450765705212,0.4509646775752747,0.007832382805645466,-0.992638885974884,-0.1208584606647491,-14.13000583648682,-41.24648284912109,16.52301597595215,1,526886.8895310001,unknown,1,2015-02-16 17:19:47.215,null,0,0,0,0,null,0,-1.114841,100.6807,192.168.1.3,10.191.100.224,1,0
2015-02-16 17:19:47.500,117,1424135987.478273,37.77933807782904,-122.4387510703374,56.18643,-1,-1,10,65,-9999,1424135987.386609,-12.49523162841797,-40.36344909667969,18.47427368164062,165.0672149658203,151.2862548828125,25,526887.14154,0.0196685791015625,-0.98687744140625,-0.1293487548828125,526887.07086,-0.01282365328094955,-0.1220002084848569,0.001226651998090497,526887.07086,1.77657943691178,0.07900638826330748,1.449148387967708,0.004313885699957609,-0.1278979331254959,-0.007701367605477571,-0.003077080007642508,0.01269057579338551,-0.01394839212298393,XTrueNorthZVertical,0.3947915540747796,0.5325924506848885,0.5971075432111315,0.4516054944181451,0.009577324613928795,-0.9926100373268127,-0.1209698170423508,-14.05836772918701,-41.27656936645508,16.50899887084961,1,526886.8895310001,unknown,1,2015-02-16 17:19:47.215,null,0,0,0,0,null,0,-1.114841,100.6807,192.168.1.3,10.191.100.224,1,0
2015-02-16 17:19:47.597,118,1424135987.478273,37.77933807782904,-122.4387510703374,56.18643,-1,-1,10,65,-9999,1424135987.505358,-12.53000259399414,-40.05122375488281,19.2457275390625,165.5001983642578,151.71923828125,25,526887.2408130417,0.0137939453125,-0.9861907958984375,-0.097625732421875,526887.170796,-0.01381781131587613,-0.009496832447222563,0.0171038857849249,526887.170796,1.775100262055132,0.07993821047196506,1.450578436256086,0.003365007229149342,-0.01545524410903454,0.008199123665690422,-0.003915672190487385,0.008758480660617352,0.01557238772511482,XTrueNorthZVertical,0.3952595779886769,0.5329136683668503,0.5966035361273652,0.4514832656920173,0.009576682932674885,-0.9927825331687927,-0.1195457726716995,-14.03836822509766,-41.26712417602539,16.5495719909668,1,526886.8895310001,unknown,1,2015-02-16 17:19:47.215,null,0,0,0,0,null,0,-1.114841,100.6807,192.168.1.3,10.191.100.224,1,0
2015-02-16 17:19:47.701,119,1424135987.478273,37.77933807782904,-122.4387510703374,56.18643,-1,-1,10,65,-9999,1424135987.624319,-12.39089202880859,-39.84309387207031,18.17242431640625,164.8638305664062,151.0828704833984,25,526887.3400480417,0.012176513671875,-0.9834442138671875,-0.113067626953125,526887.2707600417,-0.009551427249569188,0.01808020064054795,0.01493181159985627,526887.2707600417,1.781325769358711,0.0766772898908958,1.45200006276077,0.007670386228710413,0.01206392049789429,0.006076204124838114,-0.002166449092328548,0.008546500466763973,-0.01160696800798178,XTrueNorthZVertical,0.3949215587119142,0.5338093723296012,0.5970097974494909,0.4501820172669623,0.009078680537641048,-0.9929519891738892,-0.1181690320372581,-14.09209442138672,-41.22323608398438,16.61316680908203,1,526887.2505830417,unknown,2,2015-02-16 17:19:47.532,null,0,0,0,0,null,0,-1.114841,100.6807,192.168.1.3,10.191.100.224,1,0
2015-02-16 17:19:47.797,120,1424135987.478273,37.77933807782904,-122.4387510703374,56.18643,-1,-1,10,65,-9999,1424135987.725798,-12.77342987060547,-40.91848754882812,18.2730712890625,164.8141784667969,151.0332183837891,25,526887.4393070417,-0.0132293701171875,-0.98480224609375,-0.1063690185546875,526887.3706970417,-0.006385195029573982,0.02759727311205511,0.002123072021011169,526887.3706970417,1.762716678773361,0.09680987669268733,1.453385222342771,0.01083897519856691,0.02158113941550255,-0.006732658483088017,0.02639695256948471,0.008328243158757687,0.002442253055050969,XTrueNorthZVertical,0.3942299846841924,0.5350570924005631,0.5964518308285867,0.4500465209204362,0.01132277399301529,-0.993115246295929,-0.1165932565927505,-14.0972146987915,-41.20940399169922,16.64311981201172,1,526887.2505830417,unknown,2,2015-02-16 17:19:47.532,null,0,0,0,0,null,0,-1.114841,100.6807,192.168.1.3,10.191.100.224,1,0
2015-02-16 17:19:47.896,121,1424135987.478273,37.77933807782904,-122.4387510703374,56.18643,-1,-1,10,65,-9999,1424135987.843419,-12.11269760131836,-40.12062072753906,19.11154174804688,164.8705444335938,151.0895843505859,25,526887.5385580417,-0.016448974609375,-0.977569580078125,-0.1169281005859375,526887.4706430417,-0.02131940347441133,0.1220175190319424,-0.008584966089979433,526887.4706430417,1.771583664510092,0.08731291446192517,1.453139296914412,-0.004057799000293016,0.1159465610980988,-0.01739036850631237,0.003725496819242835,0.007490689400583506,-0.00229335343465209,XTrueNorthZVertical,0.3946303524856132,0.5346002924631057,0.5966344550032925,0.4499964108100996,0.01023629494011402,-0.9930863976478577,-0.1169388219714165,-14.05974197387695,-41.21227645874023,16.66768455505371,1,526887.5274080416,stationary,1,2015-02-16 17:19:47.850,null,0,0,0,0,null,0,-1.114841,100.6807,192.168.1.3,10.191.100.224,1,0
2015-02-16 17:19:47.996,122,1424135987.478273,37.77933807782904,-122.4387510703374,56.18643,-1,-1,10,65,-9999,1424135987.960631,-12.66910934448242,-40.32876586914062,18.30661010742188,164.91845703125,151.1374969482422,25,526887.6378100417,-0.0083465576171875,-0.9829559326171875,-0.119354248046875,526887.5705630417,-0.006339921291042635,0.161293286156213,0.006252036975070019,526887.5705630417,1.78164433580648,0.07754436455434634,1.453115207297492,0.01096038892865181,0.1551793366670609,-0.0025134461466223,-0.006623431574553251,0.008052436634898186,0.01586079970002174,XTrueNorthZVertical,0.3948507126811317,0.5343822326457419,0.5969750681759972,0.4496102117919729,0.009095354937016964,-0.9930835366249084,-0.1170570850372314,-14.09151649475098,-41.2203254699707,16.62087249755859,1,526887.5274080416,stationary,1,2015-02-16 17:19:47.850,null,0,0,0,0,null,0,-1.114841,100.6807,192.168.1.3,10.191.100.224,1,0
2015-02-16 17:19:48.101,123,1424135987.478273,37.77933807782904,-122.4387510703374,56.18643,-1,-1,10,65,-9999,1424135988.080361,-12.73865509033203,-41.02256774902344,18.10540771484375,164.2906494140625,150.5096893310547,25,526887.7370520417,0.017333984375,-0.9869232177734375,-0.106475830078125,526887.6704980417,-0.02668780359979306,0.0689535016798956,-0.01704210044763506,526887.6704980417,1.786521750346225,0.0726136376312361,1.453140925325795,-0.009386548772454262,0.06283949315547943,-0.02580590359866619,-0.009035016410052776,0.005736120045185089,0.01714522950351238,XTrueNorthZVertical,0.3950258622870303,0.5342443716361158,0.5970912761971198,0.4494658583612548,0.008516217581927776,-0.993086576461792,-0.11707504093647,-14.15174293518066,-41.19723510742188,16.62695693969727,1,526887.5274080416,stationary,1,2015-02-16 17:19:47.850,null,0,0,0,0,null,0,-1.114841,100.6807,192.168.1.3,10.191.100.224,1,0
2015-02-16 17:19:48.194,124,1424135987.478273,37.77933807782904,-122.4387510703374,56.18643,-1,-1,10,65,-9999,1424135988.080361,-12.73865509033203,-41.02256774902344,18.10540771484375,164.2906494140625,150.5096893310547,25,526887.8362930417,0.021209716796875,-0.9873809814453125,-0.1279296875,526887.7704330417,-0.01922828938648111,0.00317342275493842,-0.01273523633275892,526887.7704330417,1.771982355281295,0.08757380003448753,1.451896435877101,-0.001889056293293834,-0.002994269598275423,-0.0214490033686161,-0.01011534593999386,0.01344754360616207,-0.00372161203995347,XTrueNorthZVertical,0.3941383397423536,0.5343895317084827,0.5970820714109274,0.4500842454349741,0.01037474535405636,-0.9929397106170654,-0.118165597319603,-14.08276081085205,-41.24077224731445,16.57752227783203,1,526887.5274080416,stationary,1,2015-02-16 17:19:47.850,null,0,0,0,0,null,0,-1.114841,100.6807,192.168.1.3,10.191.100.224,1,0
2015-02-16 17:19:48.294,125,1424135987.478273,37.77933807782904,-122.4387510703374,56.18643,-1,-1,10,65,-9999,1424135988.198005,-12.07792282104492,-40.84913635253906,18.4072265625,164.9570617675781,151.1761016845703,25,526887.9355290417,0.021453857421875,-0.985626220703125,-0.106231689453125,526887.8703680417,-0.03085565070576706,0.01387666717596688,0.02352636506975999,526887.8703680417,1.760089398256116,0.09961256903768277,1.451637941503645,-0.01351621933281422,0.007709530647844076,0.01480928901582956,0.008502654731273651,0.00841196533292532,0.01597734726965427,XTrueNorthZVertical,0.3936592173714009,0.534685567692189,0.5968388658945821,0.4504743753883133,0.01182205229997635,-0.9929090142250061,-0.1182875260710716,-14.07270812988281,-41.26275634765625,16.53129005432129,1,526887.5274080416,stationary,1,2015-02-16 17:19:47.850,null,0,0,0,0,null,0,-1.114841,100.6807,192.168.1.3,10.191.100.224,1,0
2015-02-16 17:19:48.393,126,1424135987.478273,37.77933807782904,-122.4387510703374,56.18643,-1,-1,10,65,-9999,1424135988.317837,-12.4604606628418,-40.74505615234375,18.84326171875,164.9605255126953,151.1795654296875,25,526888.0347890417,0.0264434814453125,-0.9815826416015625,-0.1316680908203125,526887.9703030417,-0.0373100879236831,-0.09436325427255964,0.01299622611958668,526887.9703030417,1.773557612371484,0.08707785400005137,1.451126626326727,-0.01994227059185505,-0.1005557999014854,0.004326918628066778,-0.00853629969060421,0.01164695061743259,-0.007380088325589895,XTrueNorthZVertical,0.3936750751517717,0.5343723902390095,0.597528622509751,0.4499173918395441,0.01038261316716671,-0.9928480982780457,-0.1189321652054787,-14.11264991760254,-41.24409484863281,16.54380416870117,1,526887.5274080416,stationary,1,2015-02-16 17:19:47.850,null,0,0,0,0,null,0,-1.114841,100.6807,192.168.1.3,10.191.100.224,1,0
2015-02-16 17:19:48.500,127,1424135987.478273,37.77933807782904,-122.4387510703374,56.18643,-1,-1,10,65,-9999,1424135988.418091,-12.98208999633789,-41.12664794921875,18.60848999023438,164.9576873779297,151.1767272949219,25,526888.1340140417,0.0162200927734375,-0.9774627685546875,-0.1280975341796875,526888.0702270417,-0.02443024194373289,-0.05187598118976249,0.03956019272869105,526888.0702270417,1.781326432706208,0.0794989470328509,1.450478096218194,-0.00703607639297843,-0.05810519307851791,0.03094170615077019,-0.0002547370095271617,0.007418926805257797,0.00349936936981976,XTrueNorthZVertical,0.3937053706377983,0.5340144616757634,0.5979446034513889,0.4497631793500484,0.009532080963253975,-0.9927704930305481,-0.1196492686867714,-14.15349197387695,-41.25321578979492,16.4860725402832,1,526887.5274080416,stationary,1,2015-02-16 17:19:47.850,null,0,0,0,0,null,0,-1.114841,100.6807,192.168.1.3,10.191.100.224,1,0
2015-02-16 17:19:48.593,128,1424135987.478273,37.77933807782904,-122.4387510703374,56.18643,-1,-1,10,65,-9999,1424135988.535431,-12.4256706237793,-40.98786926269531,18.07177734375,164.9441223144531,151.1631622314453,25,526888.2332840418,0.0193939208984375,-0.9781951904296875,-0.116058349609375,526888.1701550417,-0.009554090410659266,-0.05087303472323865,0.02033003912944689,526888.1701550417,1.791984324876878,0.06864637166495581,1.450523331824543,0.007839282974600792,-0.0571022741496563,0.0117129860445857,0.00986696220934391,0.008461953140795231,0.00347467209212482,XTrueNorthZVertical,0.3941168373004307,0.5336866911640952,0.5981918070622628,0.4494630425717053,0.00822996161878109,-0.9927759170532227,-0.1197008714079857,-14.21505165100098,-41.23584747314453,16.47655296325684,1,526887.5274080416,stationary,1,2015-02-16 17:19:47.850,null,0,0,0,0,null,0,-1.114841,100.6807,192.168.1.3,10.191.100.224,1,0
2015-02-16 17:19:48.690,129,1424135987.478273,37.77933807782904,-122.4387510703374,56.18643,-1,-1,10,65,-9999,1424135988.654214,-12.56477355957031,-40.84912109375,18.74270629882812,165.1275482177734,151.3465881347656,25,526888.3325110417,-0.0092620849609375,-0.9922332763671875,-0.109649658203125,526888.2701050417,0.02034548546376935,-0.05723292972245687,0.03623390452718208,526888.2701050417,1.801677121966265,0.06248709990646226,1.452025248414316,0.03775938972830772,-0.06352464854717255,0.02766499109566212,0.009858270175755024,0.0004775860579684377,-0.01108775474131107,XTrueNorthZVertical,0.3937336680145836,0.5346431506187114,0.5987749102848813,0.4478829505855485,0.007399420253932476,-0.9929550290107727,-0.1182610020041466,-14.27952003479004,-41.20393753051758,16.50063133239746,1,526887.5274080416,stationary,1,2015-02-16 17:19:47.850,null,0,0,0,0,null,0,-1.114841,100.6807,192.168.1.3,10.191.100.224,1,0
