loggingTime,loggingSample,locationTimestamp_since1970,locationLatitude,locationLongitude,locationAltitude,locationSpeed,locationCourse,locationVerticalAccuracy,locationHorizontalAccuracy,locationFloor,locationHeadingTimestamp_since1970,locationHeadingX,locationHeadingY,locationHeadingZ,locationTrueHeading,locationMagneticHeading,locationHeadingAccuracy,accelerometerTimestamp_sinceReboot,accelerometerAccelerationX,accelerometerAccelerationY,accelerometerAccelerationZ,gyroTimestamp_sinceReboot,gyroRotationX,gyroRotationY,gyroRotationZ,motionTimestamp_sinceReboot,motionYaw,motionRoll,motionPitch,motionRotationRateX,motionRotationRateY,motionRotationRateZ,motionUserAccelerationX,motionUserAccelerationY,motionUserAccelerationZ,motionAttitudeReferenceFrame,motionQuaternionX,motionQuaternionY,motionQuaternionZ,motionQuaternionW,motionGravityX,motionGravityY,motionGravityZ,motionMagneticFieldX,motionMagneticFieldY,motionMagneticFieldZ,motionMagneticFieldCalibrationAccuracy,IP_en0,IP_pdp_ip0,deviceOrientation,state
2015-02-21 18:56:37.723,1,1424570192.424981,39.63826271919505,-106.3701782135017,2518.648,-1,-1,10,65,-9999,1424570197.706992,17.70442199707031,-45.46334838867188,-3.516258239746094,200.0602416992188,190.9341888427734,10,22065.22354208333,0.434173583984375,-0.72509765625,-0.4738311767578125,22065.196238875,0.001570998727037743,-0.06102287426974864,-0.05106078758008924,22065.196238875,2.096809307193607,0.6793384359684874,0.8696156264796565,-0.009441123344004154,-0.04879852756857872,-0.01738825812935829,0.0277292262762785,0.03757956251502037,0.009952852502465248,XTrueNorthZVertical,-0.06370315806227862,0.4949684857479868,0.811107838777439,0.305044618969108,0.4053152203559875,-0.7640810012817383,-0.5018962025642395,19.33675956726074,-44.77785873413086,-5.473033905029297,2,192.168.1.118,10.97.20.126,1,0
2015-02-21 18:56:37.744,2,1424570192.424981,39.63826271919505,-106.3701782135017,2518.648,-1,-1,10,65,-9999,1424570197.706992,17.70442199707031,-45.46334838867188,-3.516258239746094,200.0602416992188,190.9341888427734,10,22065.27261491667,0.4501190185546875,-0.7568206787109375,-0.4935455322265625,22065.248016625,0.02833124030848095,-0.2188095762186544,-0.04957181421462593,22065.248016625,2.092950740338498,0.6750470110989715,0.8692093273054904,0.01731922850012779,-0.2065853476524353,-0.01589961908757687,0.05702131614089012,-0.001790889771655202,0.03027098625898361,XTrueNorthZVertical,-0.06112038852152884,0.4942951120725098,0.810689922464599,0.3077637565106128,0.4033516049385071,-0.7638188600540161,-0.5038732886314392,19.41435623168945,-44.73756408691406,-5.527565002441406,2,192.168.1.118,10.97.20.126,1,0
2015-02-21 18:56:37.794,3,1424570192.424981,39.63826271919505,-106.3701782135017,2518.648,-1,-1,10,65,-9999,1424570197.758054,17.94321060180664,-45.56524658203125,-3.416419982910156,200.7493591308594,191.623291015625,10,22065.32163395833,0.3707275390625,-0.7396240234375,-0.4754638671875,22065.29979433334,-0.04375041038782172,-0.2758907057589767,-0.001519333401890205,22065.29979433334,2.0905907855802,0.6675103922147444,0.8670121704267709,-0.0547248050570488,-0.263714075088501,0.03212530538439751,0.01635055243968964,0.006219086702913046,0.006857615429908037,XTrueNorthZVertical,-0.058086440129422,0.4924613098324612,0.8107623966972292,0.3110823039196094,0.4005806148052216,-0.762398898601532,-0.5082156658172607,19.57634925842285,-44.65554809570312,-5.618709564208984,2,192.168.1.118,10.97.20.126,1,0
2015-02-21 18:56:37.842,4,1424570192.424981,39.63826271919505,-106.3701782135017,2518.648,-1,-1,10,65,-9999,1424570197.810967,17.55092239379883,-45.71807861328125,-3.666030883789062,200.3357238769531,191.2096710205078,10,22065.370796125,0.4516754150390625,-0.7534942626953125,-0.5099639892578125,22065.35157125,-0.03520805487528356,0.1231232635165433,-0.1057948732517248,22065.35157125,2.089449660409566,0.6674534292694628,0.8667238154284646,-0.04617643728852272,0.1353055685758591,-0.07215308398008347,0.01360366865992546,0.008214465342462063,0.0122410636395216,XTrueNorthZVertical,-0.05786159487004452,0.4923885478806206,0.8106143732625758,0.3116246645151979,0.4006877243518829,-0.7622122764587402,-0.5084111094474792,19.49060249328613,-44.66026306152344,-5.873523712158203,2,192.168.1.118,10.97.20.126,1,0
2015-02-21 18:56:37.891,5,1424570192.424981,39.63826271919505,-106.3701782135017,2518.648,-1,-1,10,65,-9999,1424570197.863093,17.51680755615234,-45.81997680664062,-4.131973266601562,199.9176330566406,190.7915649414062,10,22065.419728625,0.4192962646484375,-0.7384033203125,-0.4873504638671875,22065.403349,-0.09230010337607525,0.02893764208869199,-0.01768978122474233,22065.403349,2.088764855398967,0.6721177033310127,0.8611444619344532,-0.1032690331339836,0.04112318158149719,0.01594087295234203,0.0231977254152298,0.01930042542517185,0.02697684615850449,XTrueNorthZVertical,-0.06111773552488547,0.4912599918243654,0.8109044286441577,0.3120293100997183,0.405696302652359,-0.7585887312889099,-0.5098564624786377,19.59414672851562,-44.62133026123047,-5.824697494506836,2,192.168.1.118,10.97.20.126,1,0
2015-02-21 18:56:37.940,6,1424570192.424981,39.63826271919505,-106.3701782135017,2518.648,-1,-1,10,65,-9999,1424570197.914082,17.85792922973633,-45.85394287109375,-4.131973266601562,200.2691650390625,191.1430969238281,10,22065.46881020833,0.4450225830078125,-0.7476654052734375,-0.50921630859375,22065.45512691667,-0.07869774179238653,0.01736034819789953,0.01805037323633906,22065.45512691667,2.094570346857481,0.6715742327803758,0.8580971751815486,-0.08966656774282455,0.02954577840864658,0.05168072506785393,0.04709335044026375,0.005928330589085817,0.001462419633753598,XTrueNorthZVertical,-0.06315782199451327,0.4899683696135532,0.8121147132736748,0.3105025260807753,0.4068556129932404,-0.7565997242927551,-0.5118841528892517,19.74143600463867,-44.53487396240234,-5.986812591552734,2,192.168.1.118,10.97.20.126,1,0
2015-02-21 18:56:37.995,7,1424570192.424981,39.63826271919505,-106.3701782135017,2518.648,-1,-1,10,65,-9999,1424570197.965306,18.01144027709961,-45.53125,-4.181892395019531,200.7238159179688,191.5977478027344,10,22065.51784870834,0.425506591796875,-0.7234954833984375,-0.496856689453125,22065.50690370833,-0.06293023024246339,-0.15110935814775,0.01126650299158022,22065.45512691667,2.094570346857481,0.6715742327803758,0.8580971751815486,-0.08966656774282455,0.02954577840864658,0.05168072506785393,0.04709335044026375,0.005928330589085817,0.001462419633753598,XTrueNorthZVertical,-0.06315782199451327,0.4899683696135532,0.8121147132736748,0.3105025260807753,0.4068556129932404,-0.7565997242927551,-0.5118841528892517,19.74143600463867,-44.53487396240234,-5.986812591552734,2,192.168.1.118,10.97.20.126,1,0
2015-02-21 18:56:38.037,8,1424570192.424981,39.63826271919505,-106.3701782135017,2518.648,-1,-1,10,65,-9999,1424570198.018557,17.44858169555664,-45.44635009765625,-4.165252685546875,200.5904846191406,191.4644165039062,10,22065.56692445833,0.43109130859375,-0.7321319580078125,-0.5185394287109375,22065.558681625,-0.08894558566701144,-0.3187090097652707,-0.02849129628999472,22065.558681625,2.101849485265499,0.6568904385600189,0.8450926121484431,-0.09992709755897522,-0.3065225183963776,0.005106000695377588,0.009280672296881676,0.01384068373590708,-0.005745171569287777,XTrueNorthZVertical,-0.06250459998001547,0.483029887934613,0.8149516944301923,0.314052667569553,0.4052700996398926,-0.7480325698852539,-0.5255506038665771,19.7342529296875,-44.47684478759766,-6.42579460144043,2,192.168.1.118,10.97.20.126,1,0
2015-02-21 18:56:38.097,9,1424570192.424981,39.63826271919505,-106.3701782135017,2518.648,-1,-1,10,65,-9999,1424570198.068923,17.1927375793457,-45.56524658203125,-4.614547729492188,200.0549926757812,190.9289245605469,10,22065.61597341667,0.4010009765625,-0.71539306640625,-0.50836181640625,22065.61045916667,-0.01984481117883445,-0.1693581368853,-0.007921572662440694,22065.558681625,2.101849485265499,0.6568904385600189,0.8450926121484431,-0.09992709755897522,-0.3065225183963776,0.005106000695377588,0.009280672296881676,0.01384068373590708,-0.005745171569287777,XTrueNorthZVertical,-0.06250459998001547,0.483029887934613,0.8149516944301923,0.314052667569553,0.4052700996398926,-0.7480325698852539,-0.5255506038665771,19.7342529296875,-44.47684478759766,-6.42579460144043,2,192.168.1.118,10.97.20.126,1,0
2015-02-21 18:56:38.135,10,1424570192.424981,39.63826271919505,-106.3701782135017,2518.648,-1,-1,10,65,-9999,1424570198.120793,17.02217483520508,-45.66712951660156,-4.914077758789062,199.7668151855469,190.6407623291016,10,22065.66505166667,0.4126129150390625,-0.7608642578125,-0.5110321044921875,22065.662236125,0.02930995200908507,0.02229092464007223,-0.04709747124583331,22065.61045916667,2.102264377958934,0.647007986670657,0.8428233210685765,-0.03082248382270336,-0.1571633517742157,0.02566501311957836,-0.02003642171621323,0.01485041715204716,0.01672284118831158,XTrueNorthZVertical,-0.05919245953386005,0.4806815520208881,0.8155352561642246,0.3167708701147501,0.4010789096355438,-0.7465246319770813,-0.5308830142021179,19.9017219543457,-44.31932830810547,-6.974210739135742,2,192.168.1.118,10.97.20.126,1,0
2015-02-21 18:56:38.199,11,1424570192.424981,39.63826271919505,-106.3701782135017,2518.648,-1,-1,10,65,-9999,1424570198.17181,16.90278244018555,-45.88789367675781,-5.429954528808594,199.1442565917969,190.0181884765625,10,22065.71410225,0.420989990234375,-0.74957275390625,-0.51141357421875,22065.662236125,0.02930995200908507,0.02229092464007223,-0.04709747124583331,22065.662236125,2.100857040100356,0.6462675327699442,0.8429185294273978,0.01833519153296947,0.03448974713683128,-0.0135143818333745,0.004355885554105043,-0.008874691091477871,0.021265909075737,XTrueNorthZVertical,-0.05852650454470332,0.4806382265403184,0.8153247226990227,0.3175014644512676,0.4006429016590118,-0.7465879321098328,-0.5311231017112732,19.83777236938477,-44.31893920898438,-7.156473159790039,2,192.168.1.118,10.97.20.126,1,0
2015-02-21 18:56:38.234,12,1424570192.424981,39.63826271919505,-106.3701782135017,2518.648,-1,-1,10,65,-9999,1424570198.224311,17.0562858581543,-45.73506164550781,-5.280181884765625,199.5068969726562,190.3808288574219,10,22065.76317016667,0.422515869140625,-0.7656097412109375,-0.48919677734375,22065.76579175,0.02186774834285864,-0.1634456529492151,-0.02160063328552369,22065.714013875,2.097528307892045,0.6478880191794943,0.8426657443179799,0.01807218603789806,-0.1209230199456215,0.006304448470473289,0.04114735126495361,-0.014505535364151,0.01258773077279329,XTrueNorthZVertical,-0.05845541332296792,0.4809065969197127,0.8147722909752023,0.3185246669731298,0.4016169309616089,-0.7464197278022766,-0.5306236147880554,19.86123657226562,-44.32025146484375,-7.082912445068359,2,192.168.1.118,10.97.20.126,1,0
2015-02-21 18:56:38.296,13,1424570192.424981,39.63826271919505,-106.3701782135017,2518.648,-1,-1,10,65,-9999,1424570198.275372,17.1927375793457,-45.46333312988281,-5.479866027832031,200.124755859375,190.9986877441406,10,22065.81222104167,0.435455322265625,-0.7489013671875,-0.5144195556640625,22065.76579175,0.02186774834285864,-0.1634456529492151,-0.02160063328552369,22065.76579175,2.094187129490398,0.6425846601700284,0.8411001231456604,0.01089233811944723,-0.1512434631586075,0.01197177451103926,0.0230188425630331,-0.0202327799052,0.04448416456580162,XTrueNorthZVertical,-0.05591912657781768,0.4796171177555656,0.8145390345943451,0.3215068781219327,0.3994970321655273,-0.7453769445419312,-0.5336809158325195,19.97150039672852,-44.262939453125,-7.131067276000977,2,192.168.1.118,10.97.20.126,1,0
2015-02-21 18:56:38.332,14,1424570192.424981,39.63826271919505,-106.3701782135017,2518.648,-1,-1,10,65,-9999,1424570198.327606,17.53385925292969,-45.49729919433594,-5.246894836425781,200.8935852050781,191.7675170898438,10,22065.86130408333,0.428253173828125,-0.7406768798828125,-0.51251220703125,22065.8693465,0.05004346004367897,-0.1526430726195266,-0.03048653657868208,22065.81756858333,2.089943718946381,0.6467190953968761,0.8435454992511607,0.04788024351000786,0.02341170236468315,-0.01819494366645813,0.03485476970672607,-0.001896443543955684,0.01614889316260815,XTrueNorthZVertical,-0.05591527203730808,0.4812372161233989,0.8135078638257855,0.3216974037560504,0.4006005525588989,-0.7470049262046814,-0.5305684208869934,19.92739105224609,-44.27839660644531,-7.158485412597656,2,192.168.1.118,10.97.20.126,1,0
2015-02-21 18:56:38.394,15,1424570192.424981,39.63826271919505,-106.3701782135017,2518.648,-1,-1,10,65,-9999,1424570198.378903,17.31212997436523,-45.14065551757812,-5.130409240722656,200.9195556640625,191.7934875488281,10,22065.91041420833,0.4039459228515625,-0.7399444580078125,-0.5224151611328125,22065.8693465,0.05004346004367897,-0.1526430726195266,-0.03048653657868208,22065.8693465,2.086529095128751,0.6459835287227428,0.8447840171629288,0.03907355293631554,-0.1404318511486053,0.003075999673455954,0.02860024757683277,0.007150860503315926,0.01761159673333168,XTrueNorthZVertical,-0.05445532584990611,0.4816354594402422,0.8128600476288167,0.3229868179728506,0.3996529281139374,-0.7478277683258057,-0.5301238298416138,20.03425216674805,-44.25373077392578,-7.011211395263672,2,192.168.1.118,10.97.20.126,1,0
2015-02-21 18:56:38.431,16,1424570192.424981,39.63826271919505,-106.3701782135017,2518.648,-1,-1,10,65,-9999,1424570198.378903,17.31212997436523,-45.14065551757812,-5.130409240722656,200.9195556640625,191.7934875488281,10,22065.95943975,0.418731689453125,-0.713775634765625,-0.534881591796875,22065.92112408334,0.05441104423140892,-0.06416593698826016,-0.03395130915687517,22065.92112408334,2.083596417228804,0.6435830487233672,0.84684251798049,0.04344236105680466,-0.05195304751396179,-0.0003907666250597686,0.0100008063018322,0.008699004538357258,0.0001401998597430065,XTrueNorthZVertical,-0.05220923965663928,0.4820266218920254,0.8122533381583615,0.3242978347929852,0.3974546492099762,-0.7491927742958069,-0.5298490524291992,20.0490550994873,-44.25002670288086,-6.992252349853516,2,192.168.1.118,10.97.20.126,1,0
2015-02-21 18:56:38.490,17,1424570192.424981,39.63826271919505,-106.3701782135017,2518.648,-1,-1,10,65,-9999,1424570198.483067,17.20978927612305,-45.14067077636719,-4.93072509765625,200.3709411621094,191.244873046875,10,22066.00848183333,0.4141998291015625,-0.7098846435546875,-0.5290069580078125,22065.97290116667,0.04819176413774687,-0.05399665636579259,-0.06110703016019514,22065.97290116667,2.079488353226252,0.6455615704977294,0.8457800538279697,0.0372195728123188,-0.0417836531996727,-0.02755454182624817,0.02402329258620739,0.03250047191977501,-0.008968610316514969,XTrueNorthZVertical,-0.05231418266190734,0.4820940216452877,0.8116350148719433,0.3257256869500649,0.3989808559417725,-0.7484886050224304,-0.5296971797943115,20.07367324829102,-44.24515533447266,-6.952312469482422,2,192.168.1.118,10.97.20.126,1,0
2015-02-21 18:56:38.528,18,1424570192.424981,39.63826271919505,-106.3701782135017,2518.648,-1,-1,10,65,-9999,1424570198.483067,17.20978927612305,-45.14067077636719,-4.93072509765625,200.3709411621094,191.244873046875,10,22066.05754758334,0.427947998046875,-0.6875152587890625,-0.5447998046875,22066.02467879167,0.04484923065358842,-0.1086718861773374,-0.04993560201953075,22066.02467879167,2.073810598067867,0.6474296940130891,0.8403690820568174,0.03386441990733147,-0.09646023064851761,-0.01640518568456173,0.01846134662628174,0.05012623593211174,-0.0002208077348768711,XTrueNorthZVertical,-0.05319672736893052,0.4807112516652525,0.8111629406572586,0.3287879625882197,0.4024065732955933,-0.7448894381523132,-0.5321735739707947,20.22553253173828,-44.17059326171875,-6.986246109008789,2,192.168.1.118,10.97.20.126,1,0
2015-02-21 18:56:38.590,19,1424570192.424981,39.63826271919505,-106.3701782135017,2518.648,-1,-1,10,65,-9999,1424570198.53469,17.51679992675781,-45.344482421875,-4.864166259765625,200.4210510253906,191.2949981689453,10,22066.10657766667,0.442626953125,-0.6961517333984375,-0.5166168212890625,22066.07645670834,0.056430252969907,-0.1947852000250495,-0.05145173962811286,22066.07645670834,2.068821956208282,0.6458730224422089,0.8336820515700647,0.04542764276266098,-0.1825772970914841,-0.01794767938554287,0.01805591210722923,0.05062247067689896,-0.006417165510356426,XTrueNorthZVertical,-0.05321792148836104,0.4783150103502176,0.8109927031367021,0.33267623763073,0.404566764831543,-0.7404112815856934,-0.5367652177810669,20.58610153198242,-43.96413421630859,-7.231037139892578,2,192.168.1.118,10.97.20.126,1,0
2015-02-21 18:56:38.627,20,1424570192.424981,39.63826271919505,-106.3701782135017,2518.648,-1,-1,10,65,-9999,1424570198.587098,17.48268508911133,-45.07275390625,-5.097137451171875,201.4420776367188,192.3160247802734,10,22066.15567245834,0.46044921875,-0.6986083984375,-0.54034423828125,22066.12823366667,0.03074406425609274,-0.2073910067288306,-0.005828860677856429,22066.12823366667,2.062131259645791,0.6451607092840942,0.827313386910833,0.01972729712724686,-0.1951743811368942,0.02764060348272324,0.06083811074495316,0.04118454828858376,-0.0006786708836443722,XTrueNorthZVertical,-0.05309854069988244,0.4762095722196789,0.810464055387526,0.3369763243103012,0.4070116281509399,-0.736115574836731,-0.5408099889755249,20.80494117736816,-43.82028961181641,-7.473794937133789,2,192.168.1.118,10.97.20.126,1,0
2015-02-21 18:56:38.690,21,1424570192.424981,39.63826271919505,-106.3701782135017,2518.648,-1,-1,10,65,-9999,1424570198.639116,17.44857406616211,-45.71810913085938,-4.830894470214844,201.599853515625,192.4737854003906,10,22066.204685875,0.4503326416015625,-0.6957855224609375,-0.544586181640625,22066.18001145833,-0.08206930373242684,-0.425092707934012,0.1075118132064988,22066.18001145833,2.063860342327618,0.6311077637476997,0.8238103431877851,-0.0930943489074707,-0.4128627181053162,0.1409519612789154,0.05510289594531059,0.02518288418650627,0.0344555526971817,XTrueNorthZVertical,-0.04878203097398249,0.4725917647931657,0.8114288313877586,0.3403830618808964,0.4008907675743103,-0.7337400317192078,-0.5485546588897705,20.97860717773438,-43.70556640625,-7.657857894897461,2,192.168.1.118,10.97.20.126,1,0
2015-02-21 18:56:38.725,22,1424570192.424981,39.63826271919505,-106.3701782135017,2518.648,-1,-1,10,65,-9999,1424570198.69021,17.43152236938477,-45.73507690429688,-5.08050537109375,202.3830871582031,193.2570343017578,10,22066.25387079167,0.3604278564453125,-0.7293853759765625,-0.50994873046875,22066.23178904167,-0.09155974459303322,-0.4753793145852152,0.1516105650649029,22066.23178904167,2.073791994853085,0.6017627263970939,0.8220453074647291,-0.1025886088609695,-0.4631401300430298,0.1850335747003555,0.01401263568550348,-0.001347067183814943,0.01997946575284004,XTrueNorthZVertical,-0.03967597491965767,0.4667461602459365,0.8139399353435464,0.3436213911877088,0.3853556513786316,-0.7325396537780762,-0.5611476898193359,20.78059196472168,-43.67604064941406,-8.336147308349609,2,192.168.1.118,10.97.20.126,1,0
2015-02-21 18:56:38.795,23,1424570192.424981,39.63826271919505,-106.3701782135017,2518.648,-1,-1,10,65,-9999,1424570198.743069,16.88572311401367,-45.39543151855469,-5.7794189453125,202.4410400390625,193.3149719238281,10,22066.30279245833,0.385284423828125,-0.7334747314453125,-0.4831390380859375,22066.283566125,-0.2118960100288086,-0.06142607685878664,0.3273043621835015,22066.23178904167,2.073791994853085,0.6017627263970939,0.8220453074647291,-0.1025886088609695,-0.4631401300430298,0.1850335747003555,0.01401263568550348,-0.001347067183814943,0.01997946575284004,XTrueNorthZVertical,-0.03967597491965767,0.4667461602459365,0.8139399353435464,0.3436213911877088,0.3853556513786316,-0.7325396537780762,-0.5611476898193359,20.78059196472168,-43.67604064941406,-8.336147308349609,2,192.168.1.118,10.97.20.126,1,0
2015-02-21 18:56:38.822,24,1424570192.424981,39.63826271919505,-106.3701782135017,2518.648,-1,-1,10,65,-9999,1424570198.794486,15.87940979003906,-45.31051635742188,-6.594818115234375,201.1802062988281,192.0541381835938,10,22066.35185991667,0.40850830078125,-0.687713623046875,-0.478057861328125,22066.33534379167,-0.2193776284791683,-0.2127751195046438,0.6357178574906348,22066.33534379167,2.13970258052731,0.5378800583916641,0.8257933282851412,-0.2302786409854889,-0.2006365060806274,0.6691775321960449,0.05291597917675972,0.0403989814221859,0.1059997975826263,XTrueNorthZVertical,-0.02769401864310471,0.4561930626742592,0.8257415205809454,0.3305630227459299,0.3473373055458069,-0.7350858449935913,-0.5822418332099915,19.56501960754395,-44.00518417358398,-9.469673156738281,2,192.168.1.118,10.97.20.126,1,0
2015-02-21 18:56:38.891,25,1424570192.424981,39.63826271919505,-106.3701782135017,2518.648,-1,-1,10,65,-9999,1424570198.846706,14.36140441894531,-45.76905822753906,-7.343635559082031,199.1214599609375,189.9954071044922,10,22066.40089741667,0.4473724365234375,-0.6617584228515625,-0.47991943359375,22066.38712166667,-0.1135241656834617,-0.6312213763061451,0.8356887647902866,22066.38712166667,2.196325359359383,0.4751753409622145,0.8375305146371423,-0.1244250386953354,-0.619082510471344,0.8691478371620178,0.140973225235939,0.05125061795115471,0.1081806719303131,XTrueNorthZVertical,-0.01153701533705952,0.4497688988633196,0.8341541671977444,0.3190010974244613,0.3062008321285248,-0.7429925799369812,-0.5951496958732605,17.74055480957031,-44.59496307373047,-10.2704963684082,2,192.168.1.118,10.97.20.126,1,0
2015-02-21 18:56:38.921,26,1424570192.424981,39.63826271919505,-106.3701782135017,2518.648,-1,-1,10,65,-9999,1424570198.898674,11.93942642211914,-45.83697509765625,-7.743011474609375,197.5296325683594,188.4035797119141,10,22066.45007791667,0.3739776611328125,-0.6999053955078125,-0.493499755859375,22066.4388985,-0.1428873809143484,-1.030306984614988,1.03419093874876,22066.38712166667,2.196325359359383,0.4751753409622145,0.8375305146371423,-0.1244250386953354,-0.619082510471344,0.8691478371620178,0.140973225235939,0.05125061795115471,0.1081806719303131,XTrueNorthZVertical,-0.01153701533705952,0.4497688988633196,0.8341541671977444,0.3190010974244613,0.3062008321285248,-0.7429925799369812,-0.5951496958732605,17.74055480957031,-44.59496307373047,-10.2704963684082,2,192.168.1.118,10.97.20.126,1,0
2015-02-21 18:56:38.992,27,1424570192.424981,39.63826271919505,-106.3701782135017,2518.648,-1,-1,10,65,-9999,1424570198.950707,9.056934356689453,-46.09173583984375,-8.2255859375,195.0598449707031,185.9337768554688,10,22066.49900754167,0.266326904296875,-0.7030792236328125,-0.4967803955078125,22066.49067645834,-0.09921393588202995,-1.327522686486665,1.187177559148907,22066.4388985,2.267455654489139,0.3785310017512389,0.8513991487878062,-0.153788149356842,-1.018168091773987,1.067649483680725,0.1694976985454559,0.0806027427315712,0.1409253925085068,XTrueNorthZVertical,0.01643852075446175,0.4399857439351806,0.8432878634647646,0.3082335793213114,0.2435119450092316,-0.752203106880188,-0.6122846603393555,15.68764686584473,-45.18345642089844,-11.01243019104004,2,192.168.1.118,10.97.20.126,1,0
2015-02-21 18:56:39.019,28,1424570192.424981,39.63826271919505,-106.3701782135017,2518.648,-1,-1,10,65,-9999,1424570199.00189,5.6798095703125,-45.85397338867188,-9.124183654785156,194.1984252929688,185.0723724365234,10,22066.548188,0.097015380859375,-0.69818115234375,-0.533721923828125,22066.54245416667,-0.1597079063592889,-1.456214087210346,1.392364267443479,22066.54245416667,2.456453641696095,0.1051156178553978,0.8680852365952897,-0.1706084161996841,-1.444075226783752,1.425822019577026,0.06126407533884048,0.05358967185020447,0.1143708303570747,XTrueNorthZVertical,0.09617563076645083,0.4115694546262514,0.8607967634586129,0.2835309577515053,0.06781002134084702,-0.7630928754806519,-0.6427216529846191,8.684144973754883,-46.48614120483398,-13.13565254211426,2,192.168.1.118,10.97.20.126,1,0
2015-02-21 18:56:39.061,29,1424570192.424981,39.63826271919505,-106.3701782135017,2518.648,-1,-1,10,65,-9999,1424570199.0532,1.671607971191406,-46.07475280761719,-9.440361022949219,190.9302062988281,181.8041381835938,10,22066.59711866667,-0.02264404296875,-0.7354278564453125,-0.5412750244140625,22066.54245416667,-0.1597079063592889,-1.456214087210346,1.392364267443479,22066.54245416667,2.456453641696095,0.1051156178553978,0.8680852365952897,-0.1706084161996841,-1.444075226783752,1.425822019577026,0.06126407533884048,0.05358967185020447,0.1143708303570747,XTrueNorthZVertical,0.09617563076645083,0.4115694546262514,0.8607967634586129,0.2835309577515053,0.06781002134084702,-0.7630928754806519,-0.6427216529846191,8.684144973754883,-46.48614120483398,-13.13565254211426,2,192.168.1.118,10.97.20.126,1,0
2015-02-21 18:56:39.117,30,1424570192.424981,39.63826271919505,-106.3701782135017,2518.648,-1,-1,10,65,-9999,1424570199.10822,-3.121181488037109,-45.65020751953125,-9.723251342773438,186.3480834960938,177.2220306396484,10,22066.64629533334,-0.1357269287109375,-0.72735595703125,-0.536956787109375,22066.64600895833,-0.3235884535145139,-1.316424495275978,1.92367209544923,22066.59423104167,2.573927923483248,-0.05296752405194703,0.8611677179149549,-0.1899100989103317,-1.280999898910522,1.626015782356262,0.03707370162010193,0.04293618351221085,0.1123692840337753,XTrueNorthZVertical,0.1399475136252999,0.3938216972058832,0.8689624205639375,0.2649971996203354,-0.03449496626853943,-0.7586039304733276,-0.6506383419036865,4.852517127990723,-46.81498718261719,-13.91873645782471,2,192.168.1.118,10.97.20.126,1,0
2015-02-21 18:56:39.194,31,1424570192.424981,39.63826271919505,-106.3701782135017,2518.648,-1,-1,10,65,-9999,1424570199.183743,-11.32521438598633,-43.49339294433594,-9.80645751953125,179.5538940429688,170.4278259277344,10,22066.69522795833,-0.3473663330078125,-0.6913909912109375,-0.5683746337890625,22066.69778670833,-0.2044604642653074,-1.518263343764211,1.90164349217653,22066.64600895833,2.708627687653065,-0.2194957885469662,0.8346853412499066,-0.3344887495040894,-1.304285883903503,1.957129120826721,0.03440547361969948,0.01972603052854538,0.1076030284166336,XTrueNorthZVertical,0.1843296603860624,0.3719832983086614,0.8779243149495173,0.2385370814376075,-0.1461913585662842,-0.7410852909088135,-0.6553019881248474,0.6242482662200928,-46.888671875,-14.49081611633301,2,192.168.1.118,10.97.20.126,1,0
2015-02-21 18:56:39.215,32,1424570192.424981,39.63826271919505,-106.3701782135017,2518.648,-1,-1,10,65,-9999,1424570199.183743,-11.32521438598633,-43.49339294433594,-9.80645751953125,179.5538940429688,170.4278259277344,10,22066.74429833333,-0.4311370849609375,-0.6191253662109375,-0.5400238037109375,22066.69778670833,-0.2044604642653074,-1.518263343764211,1.90164349217653,22066.69778670833,2.840579692443415,-0.3856307342887386,0.7913271785120459,-0.2153606414794922,-1.506124973297119,1.935100197792053,-0.08297424763441086,0.01989578455686569,0.08290716260671616,XTrueNorthZVertical,0.2315379937648112,0.3474899427768087,0.8843295509762041,0.2088113557772757,-0.264392077922821,-0.7112867832183838,-0.6512817740440369,-5.980791568756104,-46.29613494873047,-15.15977096557617,2,192.168.1.118,10.97.20.126,1,0
2015-02-21 18:56:39.260,33,1424570192.424981,39.63826271919505,-106.3701782135017,2518.648,-1,-1,10,65,-9999,1424570199.235439,-16.25445175170898,-41.71017456054688,-9.224029541015625,176.6314697265625,167.5054016113281,10,22066.793342125,-0.5093994140625,-0.5614471435546875,-0.5418548583984375,22066.74956379167,-0.2909442238206496,-1.046627368407212,1.777356959895841,22066.74956379167,2.94709250879152,-0.522383005810712,0.7388426029295516,-0.3018442988395691,-1.034489035606384,1.810813426971436,-0.06229145079851151,0.05430739372968674,0.1006330847740173,XTrueNorthZVertical,0.2735429610372661,0.3237990191291537,0.8875973465115541,0.1802759941384128,-0.3688456416130066,-0.6734327673912048,-0.6406568884849548,-10.95241355895996,-45.39595794677734,-15.10537624359131,2,192.168.1.118,10.97.20.126,1,0
2015-02-21 18:56:39.314,34,1424570192.424981,39.63826271919505,-106.3701782135017,2518.648,-1,-1,10,65,-9999,1424570199.287096,-20.70611953735352,-39.21368408203125,-8.841300964355469,170.8276062011719,161.7015380859375,10,22066.84253825,-0.6117706298828125,-0.4532470703125,-0.5609893798828125,22066.85311929167,-0.1872127677815182,-0.97410256770552,1.41938549881175,22066.801341375,3.033651897053871,-0.6221150497378977,0.6779316782461871,-0.2785308659076691,-0.8425769805908203,1.69094443321228,-0.05550788715481758,0.06573626399040222,0.09109338372945786,XTrueNorthZVertical,0.3053061551412938,0.3005229260705755,0.8910429286200841,0.1500555291015465,-0.4538915157318115,-0.6271834373474121,-0.6329482197761536,-15.34535789489746,-44.11637878417969,-15.07269477844238,2,192.168.1.118,10.97.20.126,1,0
2015-02-21 18:56:39.362,35,1424570192.424981,39.63826271919505,-106.3701782135017,2518.648,-1,-1,10,65,-9999,1424570199.339417,-24.61198806762695,-37.19273376464844,-8.025917053222656,167.4837646484375,158.3577117919922,10,22066.89146291667,-0.7400054931640625,-0.505645751953125,-0.527740478515625,22066.85311929167,-0.1872127677815182,-0.97410256770552,1.41938549881175,22066.85311929167,3.101499075329416,-0.7086119058414989,0.6201590646546192,-0.1981126219034195,-0.96196448802948,1.45284116268158,-0.1181853115558624,0.1285736709833145,0.07256142795085907,XTrueNorthZVertical,0.3360639726177733,0.2795013221783962,0.8908574899555329,0.1237456654513531,-0.5295960307121277,-0.5811645984649658,-0.6178800463676453,-20.50441741943359,-42.03357696533203,-14.88852310180664,2,192.168.1.118,10.97.20.126,1,0
2015-02-21 18:56:39.411,36,1424570192.424981,39.63826271919505,-106.3701782135017,2518.648,-1,-1,10,65,-9999,1424570199.39116,-27.9720573425293,-34.492431640625,-7.343650817871094,163.8272705078125,154.7012176513672,10,22066.94051775,-0.7840576171875,-0.4204254150390625,-0.58599853515625,22066.90489616667,-0.09059195185289842,-0.7135506045609635,1.364929447157918,22066.90489616667,-3.125223406616676,-0.7837658576847011,0.5677259911178417,-0.1014915183186531,-0.701413631439209,1.398386120796204,-0.1445704847574234,0.02253367006778717,0.06367464363574982,XTrueNorthZVertical,0.3645140114708285,0.2618268938507555,0.8880518361290021,0.0997004983177139,-0.5952061414718628,-0.5377161502838135,-0.5971524119377136,-23.8479118347168,-40.43829345703125,-14.31580924987793,2,192.168.1.118,10.97.20.126,1,0
2015-02-21 18:56:39.461,37,1424570192.424981,39.63826271919505,-106.3701782135017,2518.648,-1,-1,10,65,-9999,1424570199.443185,-30.66692733764648,-32.08085632324219,-6.511619567871094,159.5817260742188,150.4556579589844,10,22066.98955283334,-0.8297119140625,-0.3605804443359375,-0.5341339111328125,22066.95667391667,-0.1248689656110903,-0.73984825506106,1.28247664822852,22066.95667391667,-3.075734006581096,-0.8442263450909232,0.5141690389281872,-0.1357684731483459,-0.7277116179466248,1.315933227539062,-0.1444603949785233,0.1101586669683456,0.01667858473956585,XTrueNorthZVertical,0.3883735888230292,0.2448634982051844,0.8851966177129695,0.07506537590621898,-0.6508124470710754,-0.4918115139007568,-0.5784156322479248,-26.80290412902832,-38.78365707397461,-13.65113067626953,2,192.168.1.118,10.97.20.126,1,0
2015-02-21 18:56:39.510,38,1424570192.424981,39.63826271919505,-106.3701782135017,2518.648,-1,-1,10,65,-9999,1424570199.495413,-33.46414566040039,-29.22773742675781,-6.01239013671875,149.5838928222656,140.4578247070312,10,22067.03862391667,-0.8513946533203125,-0.3037261962890625,-0.5349578857421875,22067.00845170833,-0.3248497266067754,-0.5513795405094605,1.50804133255216,22067.00845170833,-3.034677983093671,-0.8932614021369563,0.4514284339267817,-0.3357492089271545,-0.5392435193061829,1.541498064994812,-0.136650875210762,0.07866159826517105,0.04311155527830124,XTrueNorthZVertical,0.4095865525816941,0.224054214015917,0.8829396133877218,0.04956051004252626,-0.7010719180107117,-0.436251312494278,-0.5640771389007568,-30.3953685760498,-36.33861541748047,-12.82761001586914,2,192.168.1.118,10.97.20.126,1,0
2015-02-21 18:56:39.548,39,1424570192.424981,39.63826271919505,-106.3701782135017,2518.648,-1,-1,10,65,-9999,1424570199.495413,-33.46414566040039,-29.22773742675781,-6.01239013671875,149.5838928222656,140.4578247070312,10,22067.087654875,-0.876678466796875,-0.291595458984375,-0.5233917236328125,22067.06022891667,-0.3701351830469188,-0.5691601355273744,1.585633596176055,22067.06022891667,-2.998128748990543,-0.9342535043497192,0.3772611922167948,-0.3810345530509949,-0.5570250153541565,1.619091033935547,-0.1249841302633286,0.08074747025966644,0.03725200146436691,XTrueNorthZVertical,0.4291979294104726,0.1986965951992044,0.880824763950857,0.02136762915967898,-0.7476049661636353,-0.3683756589889526,-0.552617609500885,-33.12512969970703,-33.95997619628906,-12.58438968658447,2,192.168.1.118,10.97.20.126,1,0
2015-02-21 18:56:39.608,40,1424570192.424981,39.63826271919505,-106.3701782135017,2518.648,-1,-1,10,65,-9999,1424570199.599742,-38.81980514526367,-22.84219360351562,-5.280204772949219,140.0282592773438,130.9022064208984,10,22067.136715625,-0.842681884765625,-0.2296295166015625,-0.482666015625,22067.11200654167,-0.4466294253533737,-0.5053752968911046,1.656330136789407,22067.11200654167,-2.965157724636387,-0.97209040035643,0.2975457912257976,-0.4575286507606506,-0.4932404458522797,1.689787268638611,-0.08086860924959183,0.02098844386637211,0.02944099903106689,XTrueNorthZVertical,0.4486295852064692,0.1712499559566384,0.877120230594334,-0.008067766942943156,-0.7897673845291138,-0.2931747138500214,-0.5388098955154419,-35.78453063964844,-31.25518798828125,-12.30860614776611,2,192.168.1.118,10.97.20.126,3,0
2015-02-21 18:56:39.647,41,1424570192.424981,39.63826271919505,-106.3701782135017,2518.648,-1,-1,10,65,-9999,1424570199.599742,-38.81980514526367,-22.84219360351562,-5.280204772949219,140.0282592773438,130.9022064208984,10,22067.18585008333,-0.823974609375,-0.2770538330078125,-0.5492706298828125,22067.1637845,-0.8455427271396888,-0.3422444295827369,1.672498986715606,22067.1637845,-2.945274244800297,-0.9971161915619383,0.2088596810295855,-0.8564408421516418,-0.3301118016242981,1.705958724021912,-0.009520300664007664,-0.01418260205537081,0.05163834244012833,XTrueNorthZVertical,0.4642933291635047,0.1377157287279243,0.8741682541076645,-0.03599980534039372,-0.8216564655303955,-0.2073445022106171,-0.5309321880340576,-38.18717956542969,-20.27163505554199,-7.896597862243652,2,192.168.1.118,10.97.20.126,3,0
2015-02-21 18:56:39.705,42,1424570192.424981,39.63826271919505,-106.3701782135017,2518.648,-1,-1,10,65,-9999,1424570199.702206,-42.75978469848633,-15.114990234375,-3.399787902832031,132.5380554199219,123.4120025634766,10,22067.23480508334,-1.100753784179688,-0.11126708984375,-0.7331085205078125,22067.21556141667,-1.026070694268999,-1.153617202040055,1.581993587598135,22067.21556141667,-2.941865863375055,-1.029169808342165,0.1108504780228983,-1.036964416503906,-1.141480445861816,1.615449547767639,-0.0906180664896965,-0.1120326519012451,-0.2123346626758575,XTrueNorthZVertical,0.4841617337054619,0.0969756765192594,0.867548302414103,-0.05952408484255649,-0.8516121506690979,-0.1106235980987549,-0.5123662948608398,-39.72748947143555,-17.02850151062012,-7.956945419311523,2,192.168.1.118,10.97.20.126,3,0
2015-02-21 18:56:39.745,43,1424570192.424981,39.63826271919505,-106.3701782135017,2518.648,-1,-1,10,65,-9999,1424570199.702206,-42.75978469848633,-15.114990234375,-3.399787902832031,132.5380554199219,123.4120025634766,10,22067.28385670833,-1.321929931640625,-0.0677947998046875,-0.40478515625,22067.26733933334,-1.016867342173903,-1.737749629215855,0.7209054565434354,22067.21556141667,-2.941865863375055,-1.029169808342165,0.1108504780228983,-1.036964416503906,-1.141480445861816,1.615449547767639,-0.0906180664896965,-0.1120326519012451,-0.2123346626758575,XTrueNorthZVertical,0.4841617337054619,0.0969756765192594,0.867548302414103,-0.05952408484255649,-0.8516121506690979,-0.1106235980987549,-0.5123662948608398,-39.72748947143555,-17.02850151062012,-7.956945419311523,2,192.168.1.118,10.97.20.126,3,0
2015-02-21 18:56:39.803,44,1424570192.424981,39.63826271919505,-106.3701782135017,2518.648,-1,-1,10,65,-9999,1424570199.75402,-44.1242790222168,-11.71841430664062,-1.902122497558594,129.7205505371094,120.5944900512695,10,22067.33288870833,-0.8823394775390625,0.007598876953125,-0.320892333984375,22067.31911695833,-1.636943655634176,0.2163674574990517,0.472080190626825,22067.31911695833,-3.008933431588328,-1.14613392510066,-0.01643990806315528,-1.647811412811279,0.228460818529129,0.505553126335144,-0.1791704446077347,-0.04276057705283165,0.0824287161231041,XTrueNorthZVertical,0.5414587599401124,0.02904561966253114,0.8380705873307849,-0.06013729152987898,-0.911054790019989,0.0164391677826643,-0.4119575321674347,-42.31520462036133,-11.27343463897705,-3.726888656616211,2,192.168.1.118,10.97.20.126,3,0
2015-02-21 18:56:39.843,45,1424570192.424981,39.63826271919505,-106.3701782135017,2518.648,-1,-1,10,65,-9999,1424570199.8071,-45.01120376586914,-9.204925537109375,-0.637420654296875,129.4863586425781,120.3602905273438,10,22067.38201895833,-0.6638336181640625,0.0275421142578125,-0.3269195556640625,22067.37089420834,-1.779422507637306,0.04496108341937174,0.742099691446613,22067.31911695833,-3.008933431588328,-1.14613392510066,-0.01643990806315528,-1.647811412811279,0.228460818529129,0.505553126335144,-0.1791704446077347,-0.04276057705283165,0.0824287161231041,XTrueNorthZVertical,0.5414587599401124,0.02904561966253114,0.8380705873307849,-0.06013729152987898,-0.911054790019989,0.0164391677826643,-0.4119575321674347,-42.31520462036133,-11.27343463897705,-3.726888656616211,2,192.168.1.118,10.97.20.126,3,0
2015-02-21 18:56:39.901,46,1424570192.424981,39.63826271919505,-106.3701782135017,2518.648,-1,-1,10,65,-9999,1424570199.857721,-45.65932846069336,-7.09906005859375,-0.3711700439453125,128.2998962402344,119.1738433837891,10,22067.43097266667,-0.800872802734375,0.2335968017578125,-0.2022552490234375,22067.42267183333,-1.90149062672996,-1.505612529638008,0.4634281128773756,22067.42267183333,3.139152393076189,-1.181293853874146,-0.1513617307176868,-1.912357926368713,-1.493519425392151,0.4969004392623901,0.1402596980333328,0.02588182687759399,0.146199643611908,XTrueNorthZVertical,0.5552273408237308,-0.06347656536876757,0.8282538873045111,-0.04109578731136435,-0.9145211577415466,0.150784432888031,-0.375386655330658,-42.81468963623047,-8.122782707214355,-5.699057579040527,2,192.168.1.118,10.97.20.126,3,0
2015-02-21 18:56:39.941,47,1424570192.424981,39.63826271919505,-106.3701782135017,2518.648,-1,-1,10,65,-9999,1424570199.910504,-45.88106918334961,-5.621490478515625,-0.4543838500976562,129.1075439453125,119.9814910888672,10,22067.480018875,-0.9607086181640625,0.3061676025390625,-0.045440673828125,22067.47444979167,-2.290208548915125,-1.608318934973568,0.4251294595570551,22067.42267183333,3.139152393076189,-1.181293853874146,-0.1513617307176868,-1.912357926368713,-1.493519425392151,0.4969004392623901,0.1402596980333328,0.02588182687759399,0.146199643611908,XTrueNorthZVertical,0.5552273408237308,-0.06347656536876757,0.8282538873045111,-0.04109578731136435,-0.9145211577415466,0.150784432888031,-0.375386655330658,-42.81468963623047,-8.122782707214355,-5.699057579040527,2,192.168.1.118,10.97.20.126,3,0
2015-02-21 18:56:40.000,48,1424570192.424981,39.63826271919505,-106.3701782135017,2518.648,-1,-1,10,65,-9999,1424570199.961215,-46.39275741577148,-3.75341796875,1.409378051757812,132.5076293945312,123.3815765380859,10,22067.529083125,-0.94122314453125,0.3785858154296875,0.012481689453125,22067.52622666667,-2.391919198319104,-0.8775922729621384,0.09005372699659341,22067.47444979167,3.045099441614216,-1.282532612818848,-0.208060685311751,-2.30107593536377,-1.59622597694397,0.4586014449596405,0.01472231838852167,0.100840762257576,0.2128187417984009,XTrueNorthZVertical,0.5902710243246262,-0.1118109103960024,0.7990751299697216,-0.02360963239924579,-0.9380621910095215,0.206562802195549,-0.2781568765640259,-43.4068603515625,-6.177907466888428,-3.038804054260254,2,192.168.1.118,10.97.20.126,3,0
2015-02-21 18:56:40.041,49,1424570192.424981,39.63826271919505,-106.3701782135017,2518.648,-1,-1,10,65,-9999,1424570200.013879,-46.3074836730957,-2.751434326171875,3.855567932128906,136.86376953125,127.7377166748047,10,22067.578172375,-0.892059326171875,0.295166015625,0.085296630859375,22067.52622666667,-2.391919198319104,-0.8775922729621384,0.09005372699659341,22067.52622666667,2.929344783678489,-1.366140149713732,-0.2492675841703761,-2.402786254882812,-0.8654994368553162,0.1235254183411598,0.01022489834576845,0.1132911071181297,0.1956676244735718,XTrueNorthZVertical,0.6125446600028547,-0.1622170147759058,0.7736035563104131,0.003501028712261253,-0.9488692879676819,0.2466942518949509,-0.1969493627548218,-43.63858795166016,-5.185917854309082,-0.5800580978393555,2,192.168.1.118,10.97.20.126,3,0
2015-02-21 18:56:40.098,50,1424570192.424981,39.63826271919505,-106.3701782135017,2518.648,-1,-1,10,65,-9999,1424570200.065077,-46.10280227661133,-2.58160400390625,5.785896301269531,139.5374145507812,130.4113616943359,10,22067.62717925,-0.92437744140625,0.285919189453125,0.1486358642578125,22067.62978229167,-2.016946116835947,-1.127636734025787,0.2216836596670679,22067.57800458333,2.809072489591284,-1.441004023701159,-0.2675191706813416,-2.298204660415649,-0.9133824110031128,-0.05037268623709679,0.03674674406647682,0.05781914666295052,0.175010547041893,XTrueNorthZVertical,0.6282667253331647,-0.207047639870306,0.7490536396557922,0.03648124861719718,-0.956317663192749,0.2643396556377411,-0.1248243898153305,-43.66702270507812,-4.921748161315918,0.7236833572387695,2,192.168.1.118,10.97.20.126,3,0
2015-02-21 18:56:40.137,51,1424570192.424981,39.63826271919505,-106.3701782135017,2518.648,-1,-1,10,65,-9999,1424570200.117648,-45.84696578979492,-3.243927001953125,7.400047302246094,146.0452575683594,136.9192047119141,10,22067.676324125,-0.9391632080078125,0.3256378173828125,0.21307373046875,22067.62978229167,-2.016946116835947,-1.127636734025787,0.2216836596670679,22067.62978229167,2.697316262251779,-1.519777683584022,-0.2829593841253015,-2.027812957763672,-1.115544080734253,0.2551546394824982,0.03460656106472015,0.006720623001456261,0.1976044178009033,XTrueNorthZVertical,0.6426812259399256,-0.2499531224319181,0.721435208799711,0.06336842931608523,-0.9589840173721313,0.279198557138443,-0.04896855726838112,-43.57597351074219,-5.192925453186035,2.392585515975952,2,192.168.1.118,10.97.20.126,3,0
2015-02-21 18:56:40.196,52,1424570192.424981,39.63826271919505,-106.3701782135017,2518.648,-1,-1,10,65,-9999,1424570200.16871,-45.55701065063477,-3.4647216796875,9.213897705078125,149.9168701171875,140.7908020019531,10,22067.725291125,-1.004226684570312,0.33673095703125,0.2967376708984375,22067.733337125,-1.902930864247475,-0.8685154210188213,0.484043909191788,22067.68155958334,2.593398655068713,-1.614428939871293,-0.2967201308463686,-1.971844792366028,-1.221551060676575,0.339684933423996,0.01622729189693928,0.03325257450342178,0.1713610738515854,XTrueNorthZVertical,0.6600909710842997,-0.2917811492071403,0.6872885141152029,0.0823298800232659,-0.9553905129432678,0.2923852503299713,0.04171265661716461,-43.46397399902344,-5.045293807983398,4.121213912963867,2,192.168.1.118,10.97.20.126,3,0
2015-02-21 18:56:40.235,53,1424570192.424981,39.63826271919505,-106.3701782135017,2518.648,-1,-1,10,65,-9999,1424570200.22072,-45.16471481323242,-3.481689453125,10.89461517333984,153.1817321777344,144.0556793212891,10,22067.77432720834,-0.8304443359375,0.3012542724609375,0.32830810546875,22067.733337125,-1.902930864247475,-0.8685154210188213,0.484043909191788,22067.733337125,2.490848135573057,-1.691374665551605,-0.3135332446866378,-1.913797616958618,-0.8564230799674988,0.5175142288208008,-0.05988365784287453,0.0283094048500061,0.1823152899742126,XTrueNorthZVertical,0.6673629408507544,-0.3344217368790577,0.6580650391380521,0.09868764494627613,-0.9443430304527283,0.3084215521812439,0.1144223883748055,-43.20458602905273,-4.71898078918457,6.530807018280029,2,192.168.1.118,10.97.20.126,3,0
2015-02-21 18:56:40.294,54,1424570192.424981,39.63826271919505,-106.3701782135017,2518.648,-1,-1,10,65,-9999,1424570200.272589,-44.46541213989258,-3.226959228515625,12.40892791748047,157.893798828125,148.7677307128906,10,22067.82353041667,-0.89697265625,0.3242950439453125,0.410858154296875,22067.78511508333,-1.873281359199405,-1.080941666420665,0.6471473459409278,22067.78511508333,2.384323912956006,-1.774556431490892,-0.3282150873051867,-1.884148001670837,-1.068849444389343,0.6806173324584961,0.09798043221235275,-0.01260049175471067,0.1706618219614029,XTrueNorthZVertical,0.6726198862782613,-0.3786266592363569,0.6257345086509859,0.1126086413239425,-0.9270362257957458,0.3223538994789124,0.1915513128042221,-43.02664566040039,-4.288818359375,7.865748405456543,2,192.168.1.118,10.97.20.126,3,0
2015-02-21 18:56:40.335,55,1424570192.424981,39.63826271919505,-106.3701782135017,2518.648,-1,-1,10,65,-9999,1424570200.324549,-43.85139846801758,-2.95526123046875,14.00643920898438,162.7885131835938,153.6624450683594,10,22067.87253483334,-0.8027191162109375,0.3300628662109375,0.4536285400390625,22067.836892,-1.643498760341297,-1.119799317253793,0.4471093269818061,22067.836892,2.285630886647735,-1.859757208127994,-0.3376411754988781,-1.654365301132202,-1.107707142829895,0.4805789589881897,0.009171673096716404,0.008489823900163174,0.1444627344608307,XTrueNorthZVertical,0.6771887817088462,-0.4193435665596138,0.592162674644511,0.1221054208034625,-0.9044200778007507,0.3312623798847198,0.2688673436641693,-42.73685836791992,-3.712141990661621,9.557055473327637,2,192.168.1.118,10.97.20.126,3,0
2015-02-21 18:56:40.398,56,1424570192.424981,39.63826271919505,-106.3701782135017,2518.648,-1,-1,10,65,-9999,1424570200.375759,-43.06679916381836,-2.95526123046875,15.73706817626953,165.1214599609375,155.9954071044922,10,22067.92150316667,-0.8786163330078125,0.2949066162109375,0.5670013427734375,22067.88867,-1.197287184962956,-0.8009403715191508,0.2682330523605628,22067.88867,2.207792870739168,-1.932886768718569,-0.3299130273081219,-1.208153605461121,-0.7888484001159668,0.3017024099826813,0.08281542360782623,0.0005936960224062204,0.1452659666538239,XTrueNorthZVertical,0.6828219091577328,-0.4486841692638021,0.5613447418852648,0.1316391936430276,-0.88472580909729,0.3239607512950897,0.3351264894008636,-42.31903839111328,-3.500504493713379,11.33144283294678,2,192.168.1.118,10.97.20.126,3,0
2015-02-21 18:56:40.431,57,1424570192.424981,39.63826271919505,-106.3701782135017,2518.648,-1,-1,10,65,-9999,1424570200.428239,-42.43571853637695,-3.10809326171875,16.95184326171875,168.9477844238281,159.8217163085938,10,22067.97054879167,-0.7956390380859375,0.3316192626953125,0.61328125,22067.94044766667,-0.8182951270787611,-0.5433093634581934,0.01151417697295759,22067.94044766667,2.156173785242467,-1.980945297337038,-0.3197020449016086,-0.8291614055633545,-0.5312174558639526,0.04498318582773209,0.02037343196570873,-0.005628931801766157,0.200362041592598,XTrueNorthZVertical,0.6861379603280223,-0.4674240871418122,0.5398828979219324,0.1387656967947807,-0.8705931305885315,0.3142837285995483,0.3785411417484283,-41.78861999511719,-3.695307731628418,13.10008335113525,2,192.168.1.118,10.97.20.126,3,0
2015-02-21 18:56:40.498,58,1424570192.424981,39.63826271919505,-106.3701782135017,2518.648,-1,-1,10,65,-9999,1424570200.485047,-42.02637100219727,-3.719451904296875,17.75060272216797,170.5997924804688,161.4737243652344,10,22068.019609125,-0.8359375,0.2861480712890625,0.6319122314453125,22067.99222466667,-0.5814929682194224,-0.3043601641280327,0.02218173503537898,22067.99222466667,2.121682561474023,-2.011153570994362,-0.3074882655369059,-0.5923591256141663,-0.2922684252262115,0.05565037578344345,0.08841294050216675,-0.007728533819317818,0.2469744235277176,XTrueNorthZVertical,0.6882946693755821,-0.4789417972065387,0.5250677831516033,0.1454959312591566,-0.8621708750724792,0.3026656806468964,0.4062695801258087,-41.48274993896484,-4.063612937927246,13.93646812438965,2,192.168.1.118,10.97.20.126,3,0
2015-02-21 18:56:40.529,59,1424570192.424981,39.63826271919505,-106.3701782135017,2518.648,-1,-1,10,65,-9999,1424570200.485047,-42.02637100219727,-3.719451904296875,17.75060272216797,170.5997924804688,161.4737243652344,10,22068.06864775,-0.8158111572265625,0.3160552978515625,0.601837158203125,22068.04400270834,-0.3310687403843284,-0.3046211539148606,-0.1776442963009725,22068.04400270834,2.100592397013832,-2.031618383578321,-0.2954962700047425,-0.3419348001480103,-0.2925295531749725,-0.1441759914159775,0.05419284850358963,0.01270991377532482,0.1636698544025421,XTrueNorthZVertical,0.6907442514234774,-0.4853636333925179,0.5143922806506479,0.1506490757735933,-0.856866180896759,0.291214644908905,0.4254109561443329,-41.28365707397461,-4.369800567626953,14.42639255523682,2,192.168.1.118,10.97.20.126,3,0
2015-02-21 18:56:40.592,60,1424570192.424981,39.63826271919505,-106.3701782135017,2518.648,-1,-1,10,65,-9999,1424570200.557268,-41.65114974975586,-4.568572998046875,18.51607513427734,173.7850952148438,164.6590423583984,10,22068.11771304167,-0.8194732666015625,0.246917724609375,0.532684326171875,22068.0957805,-0.1373866216827897,-0.2487325879106757,-0.2160987445450627,22068.0957805,2.093259501704093,-2.044649512372752,-0.2826896419465097,-0.1482526063919067,-0.2366410791873932,-0.1826307326555252,0.02289465814828873,0.01460904348641634,0.116404764354229,XTrueNorthZVertical,0.6946282396505262,-0.4864101435322377,0.5070467665930184,0.154273774036625,-0.8544986844062805,0.2789395451545715,0.4382064342498779,-41.01791000366211,-4.974884033203125,14.97791194915771,2,192.168.1.118,10.97.20.126,3,0
2015-02-21 18:56:40.628,61,1424570192.424981,39.63826271919505,-106.3701782135017,2518.648,-1,-1,10,65,-9999,1424570200.608853,-41.48058700561523,-5.078094482421875,18.91545867919922,175.1960144042969,166.0699462890625,10,22068.16686545833,-0.7890472412109375,0.19561767578125,0.5295562744140625,22068.14755754167,-0.04231230339917894,-0.5245077124783429,-0.1457004779737991,22068.0957805,2.093259501704093,-2.044649512372752,-0.2826896419465097,-0.1482526063919067,-0.2366410791873932,-0.1826307326555252,0.02289465814828873,0.01460904348641634,0.116404764354229,XTrueNorthZVertical,0.6946282396505262,-0.4864101435322377,0.5070467665930184,0.154273774036625,-0.8544986844062805,0.2789395451545715,0.4382064342498779,-41.01791000366211,-4.974884033203125,14.97791194915771,2,192.168.1.118,10.97.20.126,3,0
2015-02-21 18:56:40.693,62,1424570192.424981,39.63826271919505,-106.3701782135017,2518.648,-1,-1,10,65,-9999,1424570200.660172,-40.90068435668945,-5.112030029296875,19.58108520507812,175.5948486328125,166.4687805175781,10,22068.215836,-0.763214111328125,0.1595916748046875,0.5608367919921875,22068.19933520833,-0.2749551372680318,-0.4368814568153567,-0.1193612821606974,22068.19933520833,2.088836432689864,-2.090271625661222,-0.2673938248177466,-0.285820871591568,-0.4247902035713196,-0.08589398115873337,0.04647445306181908,-0.0957312285900116,0.05644934996962547,XTrueNorthZVertical,0.7076218000915228,-0.4885314582090685,0.4879159205386425,0.1501549092745984,-0.8372306823730469,0.2642187774181366,0.4787831902503967,-40.44784927368164,-5.679889678955078,16.22550201416016,2,192.168.1.118,10.97.20.126,3,0
2015-02-21 18:56:40.726,63,1424570192.424981,39.63826271919505,-106.3701782135017,2518.648,-1,-1,10,65,-9999,1424570200.712688,-40.13315200805664,-5.4007568359375,20.59617614746094,176.8919982910156,167.7659301757812,10,22068.26492633333,-0.801544189453125,0.2061614990234375,0.6551513671875,22068.25111316667,-0.644800302072241,-0.2073436024614272,-0.1036976338932874,22068.25111316667,2.069419342245419,-2.109109343397587,-0.2500244664242793,-0.6556659936904907,-0.19525246322155,-0.070230633020401,0.1044769138097763,-0.07167693227529526,0.1242094114422798,XTrueNorthZVertical,0.7104049530753309,-0.4936580879271042,0.4764434951114958,0.1569335233629631,-0.831878662109375,0.2474276721477509,0.4967470169067383,-39.98666381835938,-6.163294792175293,17.16498184204102,2,192.168.1.118,10.97.20.126,3,0
2015-02-21 18:56:40.793,64,1424570192.424981,39.63826271919505,-106.3701782135017,2518.648,-1,-1,10,65,-9999,1424570200.764406,-39.26327896118164,-5.961212158203125,21.2784423828125,179.9448547363281,170.8188018798828,10,22068.313942375,-0.80230712890625,0.1767578125,0.7242584228515625,22068.30289016667,-0.6531658236883979,-0.06059996428864406,-0.2627346899739852,22068.25111316667,2.069419342245419,-2.109109343397587,-0.2500244664242793,-0.6556659936904907,-0.19525246322155,-0.070230633020401,0.1044769138097763,-0.07167693227529526,0.1242094114422798,XTrueNorthZVertical,0.7104049530753309,-0.4936580879271042,0.4764434951114958,0.1569335233629631,-0.831878662109375,0.2474276721477509,0.4967470169067383,-39.98666381835938,-6.163294792175293,17.16498184204102,2,192.168.1.118,10.97.20.126,3,0
2015-02-21 18:56:40.824,65,1424570192.424981,39.63826271919505,-106.3701782135017,2518.648,-1,-1,10,65,-9999,1424570200.817203,-39.33150100708008,-7.048095703125,20.81250762939453,185.4718627929688,176.3458099365234,10,22068.363101875,-0.8056793212890625,0.1806182861328125,0.737213134765625,22068.354668125,-0.409162477241485,0.01973934999966731,-0.1086300745482231,22068.30289016667,2.042617618902588,-2.120037399787977,-0.2243930814697492,-0.6640083193778992,-0.04854575544595718,-0.2292432934045792,0.04468774050474167,-0.03548772260546684,0.1695756167173386,XTrueNorthZVertical,0.7106840196480874,-0.4994039764553842,0.465280003594679,0.1704067213794752,-0.8315377235412598,0.2225147038698196,0.5089522004127502,-39.8067626953125,-6.851897239685059,17.32135963439941,2,192.168.1.118,10.97.20.126,3,0
2015-02-21 18:56:40.891,66,1424570192.424981,39.63826271919505,-106.3701782135017,2518.648,-1,-1,10,65,-9999,1424570200.867943,-39.29738998413086,-7.86322021484375,20.64609527587891,188.1207580566406,178.9947052001953,10,22068.412040375,-0.768035888671875,0.183380126953125,0.6590118408203125,22068.40644575,0.0502562466147763,-0.1782957055036059,0.06067772859247437,22068.40644575,2.015759377600352,-2.128838946238083,-0.1996031219548967,0.03941395506262779,-0.1662417501211166,0.09416840970516205,0.05027700215578079,-0.02373505942523479,0.1521445959806442,XTrueNorthZVertical,0.7101041192262063,-0.5052313941751964,0.4546333163851661,0.1838531091642604,-0.8314507007598877,0.1982803493738174,0.5190132260322571,-39.66279983520508,-8.403375625610352,16.9647216796875,2,192.168.1.118,10.97.20.126,3,0
2015-02-21 18:56:40.922,67,1424570192.424981,39.63826271919505,-106.3701782135017,2518.648,-1,-1,10,65,-9999,1424570200.867943,-39.29738998413086,-7.86322021484375,20.64609527587891,188.1207580566406,178.9947052001953,10,22068.461082625,-0.7384796142578125,0.129730224609375,0.6424407958984375,22068.40644575,0.0502562466147763,-0.1782957055036059,0.06067772859247437,22068.40644575,2.015759377600352,-2.128838946238083,-0.1996031219548967,0.03941395506262779,-0.1662417501211166,0.09416840970516205,0.05027700215578079,-0.02373505942523479,0.1521445959806442,XTrueNorthZVertical,0.7101041192262063,-0.5052313941751964,0.4546333163851661,0.1838531091642604,-0.8314507007598877,0.1982803493738174,0.5190132260322571,-39.66279983520508,-8.403375625610352,16.9647216796875,2,192.168.1.118,10.97.20.126,3,0
2015-02-21 18:56:40.993,68,1424570192.424981,39.63826271919505,-106.3701782135017,2518.648,-1,-1,10,65,-9999,1424570200.971595,-39.17799758911133,-7.88018798828125,20.96227264404297,189.50341796875,180.3773651123047,10,22068.510146,-0.7176513671875,0.1096038818359375,0.615081787109375,22068.51000066667,0.006706904889255553,-0.4764293990030334,0.1649162505031568,22068.458223,2.01849279990873,-2.146311468279669,-0.2109955588271667,0.1887819766998291,-0.4794759452342987,0.2057806551456451,0.06952925026416779,-0.04421131685376167,0.09591600298881531,XTrueNorthZVertical,0.7128663450998721,-0.507858216938091,0.4510726662750978,0.1744565710165876,-0.8203074336051941,0.2094334810972214,0.5321967601776123,-39.56033325195312,-8.209427833557129,17.29571151733398,2,192.168.1.118,10.97.20.126,3,0
2015-02-21 18:56:41.020,69,1424570192.424981,39.63826271919505,-106.3701782135017,2518.648,-1,-1,10,65,-9999,1424570200.971595,-39.17799758911133,-7.88018798828125,20.96227264404297,189.50341796875,180.3773651123047,10,22068.55917691667,-0.673309326171875,0.1491546630859375,0.6805572509765625,22068.561778625,-0.1684350852514785,-0.5591431877192594,0.1257294329592949,22068.51000066667,2.015299330118582,-2.170762497177031,-0.2222327034103321,-0.004135177470743656,-0.4643756747245789,0.1984062939882278,0.07989876717329025,-0.1190133169293404,0.06639700382947922,XTrueNorthZVertical,0.7156668465358266,-0.5130162715352238,0.4444526428678084,0.1646121443769007,-0.8050574660301208,0.2204079627990723,0.5507294535636902,-39.16522216796875,-7.560900688171387,18.45194625854492,2,192.168.1.118,10.97.20.126,3,0
2015-02-21 18:56:41.091,70,1424570192.424981,39.63826271919505,-106.3701782135017,2518.648,-1,-1,10,65,-9999,1424570201.075215,-37.91583633422852,-7.200927734375,22.92588043212891,189.1140441894531,179.9879913330078,10,22068.60823470834,-0.6857452392578125,0.1493072509765625,0.7400360107421875,22068.561778625,-0.1684350852514785,-0.5591431877192594,0.1257294329592949,22068.561778625,2.006528907773603,-2.197222085068596,-0.2264156336904251,-0.1792770475149155,-0.5470895767211914,0.1592191010713577,0.1161421537399292,-0.0753314271569252,0.1092670559883118,XTrueNorthZVertical,0.7185341576891749,-0.5189930251809181,0.4351548630067444,0.1580986690899914,-0.7894514799118042,0.2244860827922821,0.5712901949882507,-38.83146667480469,-7.246105194091797,19.26571273803711,2,192.168.1.118,10.97.20.126,3,0
2015-02-21 18:56:41.118,71,1424570192.424981,39.63826271919505,-106.3701782135017,2518.648,-1,-1,10,65,-9999,1424570201.075215,-37.91583633422852,-7.200927734375,22.92588043212891,189.1140441894531,179.9879913330078,10,22068.65737754167,-0.7135162353515625,0.1459503173828125,0.7799224853515625,22068.613555625,-0.1585994987135979,-0.7657094134584925,0.07832809503308354,22068.613555625,1.994657935666049,-2.233355312548409,-0.2261235978442609,-0.169441357254982,-0.7536559104919434,0.1118174716830254,0.08260452747344971,-0.0748942494392395,0.140559196472168,XTrueNorthZVertical,0.7232155155090351,-0.5260206521382308,0.4211483922921179,0.1513131297667652,-0.7683497667312622,0.224201500415802,0.5994768142700195,-38.39540863037109,-7.117267608642578,20.16664886474609,2,192.168.1.118,10.97.20.126,3,0
2015-02-21 18:56:41.194,72,1424570192.424981,39.63826271919505,-106.3701782135017,2518.648,-1,-1,10,65,-9999,1424570201.17887,-36.55134201049805,-7.57452392578125,24.92276763916016,189.2584838867188,180.1324157714844,10,22068.706329875,-0.682037353515625,0.1494140625,0.7797698974609375,22068.71711133334,0.03463440997648049,-0.4203371011754575,0.2050389028540726,22068.66533358334,1.988053467353683,-2.266142127105647,-0.2241948834254929,-0.0850166529417038,-0.5085123181343079,0.04187054187059402,0.0350998118519783,-0.07637114822864532,0.1553047597408295,XTrueNorthZVertical,0.7285768577270617,-0.5305512496543904,0.408328214723735,0.1447730736505629,-0.7486160397529602,0.2223214656114578,0.6246177554130554,-37.55242156982422,-7.103409767150879,21.70054244995117,2,192.168.1.118,10.97.20.126,3,0
2015-02-21 18:56:41.216,73,1424570192.424981,39.63826271919505,-106.3701782135017,2518.648,-1,-1,10,65,-9999,1424570201.17887,-36.55134201049805,-7.57452392578125,24.92276763916016,189.2584838867188,180.1324157714844,10,22068.75547791667,-0.64654541015625,0.18994140625,0.780364990234375,22068.71711133334,0.03463440997648049,-0.4203371011754575,0.2050389028540726,22068.71711133334,1.982185565325495,-2.289717839612515,-0.2286949943456674,0.02379277348518372,-0.4082838892936707,0.2385275810956955,0.05608916282653809,-0.05972976237535477,0.1248548328876495,XTrueNorthZVertical,0.7310751118780381,-0.5350161938372338,0.4003309276012746,0.1379204170865024,-0.7329232692718506,0.2267066836357117,0.6414262652397156,-37.072021484375,-7.078505516052246,22.51924324035645,2,192.168.1.118,10.97.20.126,3,0
2015-02-21 18:56:41.293,74,1424570192.424981,39.63826271919505,-106.3701782135017,2518.648,-1,-1,10,65,-9999,1424570201.282274,-35.74969100952148,-6.742401123046875,26.53691864013672,216.0885009765625,206.9624481201172,10,22068.80443741667,-0.637237548828125,0.181915283203125,0.7822113037109375,22068.7688885,0.1165979862136312,-0.3541042848651868,0.3426654753510785,22068.7688885,1.973732889376177,-2.310240225368957,-0.2436995054370935,0.1057564616203308,-0.3420511782169342,0.3761537969112396,0.08290258795022964,-0.04372366145253181,0.1325946301221848,XTrueNorthZVertical,0.7305376341578266,-0.5415694613179811,0.3957047769649342,0.1281992708752555,-0.7170121073722839,0.2412944585084915,0.6539654135704041,-36.73064041137695,-6.654951095581055,23.19758605957031,2,192.168.1.118,10.97.20.126,3,0
2015-02-21 18:56:41.314,75,1424570192.424981,39.63826271919505,-106.3701782135017,2518.648,-1,-1,10,65,-9999,1424570201.282274,-35.74969100952148,-6.742401123046875,26.53691864013672,216.0885009765625,206.9624481201172,10,22068.8535105,-0.59429931640625,0.1851654052734375,0.76348876953125,22068.82066616667,0.08672743879508443,-0.104323476749456,0.1932983571884583,22068.82066616667,1.966235696214052,-2.323146370112904,-0.2587154853913379,0.07588601112365723,-0.09227047115564346,0.2267863899469376,0.07195251435041428,-0.07825721055269241,0.1163788810372353,XTrueNorthZVertical,0.7286762074996339,-0.5471178509653559,0.3939895545966597,0.1202718278180925,-0.7057873606681824,0.2558389902114868,0.6606138944625854,-36.41017913818359,-5.728144645690918,23.93832778930664,2,192.168.1.118,10.97.20.126,3,0
2015-02-21 18:56:41.392,76,1424570192.424981,39.63826271919505,-106.3701782135017,2518.648,-1,-1,10,65,-9999,1424570201.385984,-35.51092147827148,-5.485626220703125,27.23582458496094,217.9431457519531,208.8170776367188,10,22068.90254054167,-0.6136016845703125,0.1912689208984375,0.7581024169921875,22068.87244416667,-0.01919127144732901,-0.07181560090340376,0.03120399217634942,22068.87244416667,1.956585568328815,-2.350970285036011,-0.2518657151395472,-0.03005977906286716,-0.05985859036445618,0.06474020332098007,0.08582610636949539,-0.07150738686323166,0.08644425868988037,XTrueNorthZVertical,0.732494764880075,-0.5514131847581333,0.3816549900917743,0.1171939740566982,-0.6883651614189148,0.2492112368345261,0.6812101602554321,-36.06782531738281,-5.56761360168457,24.48816108703613,2,192.168.1.118,10.97.20.126,3,0
2015-02-21 18:56:41.414,77,1424570192.424981,39.63826271919505,-106.3701782135017,2518.648,-1,-1,10,65,-9999,1424570201.385984,-35.51092147827148,-5.485626220703125,27.23582458496094,217.9431457519531,208.8170776367188,10,22068.95163733334,-0.6266632080078125,0.1893310546875,0.7836761474609375,22068.92422116667,-0.1174717693672862,-0.0767475089261215,-0.0651286697223238,22068.92422116667,1.951263357061351,-2.361886988812449,-0.2447109286564383,-0.1283503323793411,-0.06482463330030441,-0.03157572448253632,0.07290149480104446,-0.04896227642893791,0.07453090697526932,XTrueNorthZVertical,0.7341910688869582,-0.5531100147566845,0.3756444513729283,0.1180003051445036,-0.6821238994598389,0.2422758787870407,0.6899344325065613,-35.75374603271484,-5.727096557617188,24.90836334228516,2,192.168.1.118,10.97.20.126,3,0
2015-02-21 18:56:41.493,78,1424570192.424981,39.63826271919505,-106.3701782135017,2518.648,-1,-1,10,65,-9999,1424570201.438104,-35.22096633911133,-6.114013671875,27.25247192382812,218.4204711914062,209.2944183349609,10,22069.000649625,-0.6286773681640625,0.1760101318359375,0.794403076171875,22068.975999125,-0.07567345605849254,-0.08634793833974815,-0.09431824685013729,22068.975999125,1.942420575610879,-2.395160975847274,-0.2241550696040197,-0.08658877015113831,-0.07454477995634079,-0.06070680916309357,0.02971172519028187,-0.0309526938945055,0.07758432626724243,XTrueNorthZVertical,0.7409018621282693,-0.555823486067611,0.3578920901660101,0.1184819595807479,-0.6620359420776367,0.2222826480865479,0.7157506346702576,-34.95588684082031,-6.523165702819824,25.82809448242188,2,192.168.1.118,10.97.20.126,3,0
2015-02-21 18:56:41.511,79,1424570192.424981,39.63826271919505,-106.3701782135017,2518.648,-1,-1,10,65,-9999,1424570201.489355,-35.15273666381836,-6.215911865234375,27.11934661865234,219.2569274902344,210.1308746337891,10,22069.04968516667,-0.6222991943359375,0.1735076904296875,0.7967529296875,22069.02777679167,-0.02788755767087375,-0.06327138117810253,-0.04605803947237538,22069.02777679167,1.938201861556516,-2.414707930442137,-0.2107626110599274,-0.03882332518696785,-0.051540557295084,-0.01241532620042562,0.0187514889985323,-0.03005225397646427,0.06300348043441772,XTrueNorthZVertical,0.7450871802693956,-0.556957422369061,0.3470858226507939,0.1190587884198911,-0.6498397588729858,0.2092057019472122,0.7307129502296448,-34.32089996337891,-7.153176307678223,26.50404357910156,2,192.168.1.118,10.97.20.126,3,0
2015-02-21 18:56:41.591,80,1424570192.424981,39.63826271919505,-106.3701782135017,2518.648,-1,-1,10,65,-9999,1424570201.541772,-35.10156631469727,-6.30084228515625,27.40224456787109,219.3448181152344,210.21875,10,22069.09875229167,-0.6136016845703125,0.17926025390625,0.8137359619140625,22069.07955408334,0.03722912782654469,-0.06116029338199673,0.01615526780463868,22069.07955408334,1.934440343163363,-2.430838740222185,-0.203885285344088,0.02627506479620934,-0.04948854446411133,0.04982266202569008,0.02422249317169189,-0.0159979984164238,0.05586192384362221,XTrueNorthZVertical,0.7477618069063868,-0.5585146847592501,0.3391310568174549,0.1179143471390328,-0.6388922929763794,0.2024756669998169,0.7421727180480957,-33.96809005737305,-7.472395896911621,26.86798477172852,2,192.168.1.118,10.97.20.126,3,0
2015-02-21 18:56:41.610,81,1424570192.424981,39.63826271919505,-106.3701782135017,2518.648,-1,-1,10,65,-9999,1424570201.593049,-35.03334426879883,-6.538604736328125,27.13599395751953,220.1347351074219,211.0086822509766,10,22069.14778775,-0.621734619140625,0.207305908203125,0.810638427734375,22069.13133175,0.02915016234368032,0.06248122128267603,0.09622640177117907,22069.13133175,1.929420345576025,-2.440790750135356,-0.2009344244180989,0.01818236708641052,0.07410683482885361,0.1299105286598206,0.01329639647156,-0.03640755265951157,0.06607013940811157,XTrueNorthZVertical,0.7484364860205951,-0.5606394612826775,0.334372646475339,0.1171375006301062,-0.6318572163581848,0.199585035443306,0.7489475607872009,-33.53326797485352,-7.654642105102539,27.35841369628906,2,192.168.1.118,10.97.20.126,3,0
2015-02-21 18:56:41.690,82,1424570192.424981,39.63826271919505,-106.3701782135017,2518.648,-1,-1,10,65,-9999,1424570201.645385,-35.23801803588867,-6.57257080078125,27.46880340576172,219.99072265625,210.8646697998047,10,22069.19684154167,-0.629669189453125,0.1939697265625,0.9057159423828125,22069.18310975,0.2275940130742807,-0.03222930919602993,0.3111000922148053,22069.18310975,1.922858399174594,-2.448403369496452,-0.2097845011870379,0.2166122794151306,-0.0206315815448761,0.3447990417480469,0.0005793865420855582,-0.02740196324884892,0.1084005832672119,XTrueNorthZVertical,0.7466532462290055,-0.5645199583328296,0.3333855147251309,0.1126067716881449,-0.6249842643737793,0.2082491368055344,0.7523477077484131,-33.46243667602539,-7.543990135192871,27.47562599182129,2,192.168.1.118,10.97.20.126,3,0
2015-02-21 18:56:41.707,83,1424570192.424981,39.63826271919505,-106.3701782135017,2518.648,-1,-1,10,65,-9999,1424570201.697025,-35.15272903442383,-5.468658447265625,27.41888427734375,220.8437194824219,211.7176666259766,10,22069.24587316667,-0.7657318115234375,0.2799224853515625,1.061752319335938,22069.23488670833,0.7361443306169778,-0.02342809442553606,0.5558304816393098,22069.18310975,1.922858399174594,-2.448403369496452,-0.2097845011870379,0.2166122794151306,-0.0206315815448761,0.3447990417480469,0.0005793865420855582,-0.02740196324884892,0.1084005832672119,XTrueNorthZVertical,0.7466532462290055,-0.5645199583328296,0.3333855147251309,0.1126067716881449,-0.6249842643737793,0.2082491368055344,0.7523477077484131,-33.46243667602539,-7.543990135192871,27.47562599182129,2,192.168.1.118,10.97.20.126,3,0
2015-02-21 18:56:41.795,84,1424570192.424981,39.63826271919505,-106.3701782135017,2518.648,-1,-1,10,65,-9999,1424570201.749416,-35.5450325012207,-3.447723388671875,27.60194396972656,220.062744140625,210.9366912841797,10,22069.29494141667,-0.69268798828125,0.52587890625,1.147598266601562,22069.28666470834,1.545617203952633,1.142671077327611,0.3977257982562487,22069.28666470834,1.93559313437809,-2.416319717110552,-0.3038091197400726,1.534635663032532,1.154268622398376,0.4314240515232086,-0.06764592230319977,0.1866217702627182,0.4285602569580078,XTrueNorthZVertical,0.7307624138614008,-0.5683401141018589,0.3690487044988816,0.08233409267624352,-0.6329613924026489,0.299157053232193,0.7140483856201172,-33.85274505615234,-4.393836975097656,27.68108177185059,2,192.168.1.118,10.97.20.126,3,0
2015-02-21 18:56:41.805,85,1424570192.424981,39.63826271919505,-106.3701782135017,2518.648,-1,-1,10,65,-9999,1424570201.800422,-36.60251998901367,-0.2889404296875,25.97115325927734,219.7529296875,210.6268615722656,10,22069.34397625,-0.775390625,0.5776214599609375,1.033340454101562,22069.33844241667,2.634742764403112,1.996516209165622,0.5283405339191849,22069.28666470834,1.93559313437809,-2.416319717110552,-0.3038091197400726,1.534635663032532,1.154268622398376,0.4314240515232086,-0.06764592230319977,0.1866217702627182,0.4285602569580078,XTrueNorthZVertical,0.7307624138614008,-0.5683401141018589,0.3690487044988816,0.08233409267624352,-0.6329613924026489,0.299157053232193,0.7140483856201172,-33.85274505615234,-4.393836975097656,27.68108177185059,2,192.168.1.118,10.97.20.126,3,0
2015-02-21 18:56:41.892,86,1424570192.424981,39.63826271919505,-106.3701782135017,2518.648,-1,-1,10,65,-9999,1424570201.852101,-39.05861282348633,3.617156982421875,23.24208068847656,168.8411560058594,159.715087890625,10,22069.39310045834,-0.6884307861328125,0.5000762939453125,0.980987548828125,22069.3902195,4.189291411703544,2.129746169019016,1.390666502248553,22069.33844241667,1.995892958223661,-2.314811554042886,-0.3948969713912738,2.62379002571106,2.00810694694519,0.5620582699775696,-0.0949496328830719,0.2054510861635208,0.4461649656295776,XTrueNorthZVertical,0.7119046121862102,-0.5529501501954881,0.4283993105336451,0.06254618453642848,-0.6791287064552307,0.3847130835056305,0.6251240968704224,-35.40125274658203,-1.743954658508301,25.98588562011719,2,192.168.1.118,10.97.20.126,3,0
2015-02-21 18:56:41.903,87,1424570192.424981,39.63826271919505,-106.3701782135017,2518.648,-1,-1,10,65,-9999,1424570201.852101,-39.05861282348633,3.617156982421875,23.24208068847656,168.8411560058594,159.715087890625,10,22069.44207341667,-0.759429931640625,0.896148681640625,0.7630157470703125,22069.3902195,4.189291411703544,2.129746169019016,1.390666502248553,22069.3902195,2.117184681103295,-2.152384803219825,-0.5418802896349926,4.178339004516602,2.141336917877197,1.424383878707886,0.02899507246911526,-0.01136855036020279,0.4694571793079376,XTrueNorthZVertical,0.6769516522260308,-0.526367261200731,0.5141203216926467,0.01882290163913908,-0.7158847451210022,0.5157478451728821,0.4706520736217499,-37.5621337890625,2.159024238586426,22.7152156829834,2,192.168.1.118,10.97.20.126,3,0
2015-02-21 18:56:41.997,88,1424570192.424981,39.63826271919505,-106.3701782135017,2518.648,-1,-1,10,65,-9999,1424570201.955804,-42.4016227722168,15.64105224609375,13.62371826171875,133.8871154785156,124.7610626220703,10,22069.49114616667,-0.8973236083984375,0.88360595703125,0.525726318359375,22069.49377533334,5.043125890897194,0.8600385792690991,1.136179622170543,22069.44199733334,2.318551854483669,-1.93018312511505,-0.7218517168307143,4.641173362731934,1.607919812202454,1.807651281356812,-0.03331592306494713,0.118963710963726,0.6526760458946228,XTrueNorthZVertical,0.6244975081840997,-0.4919279174421213,0.6043172230047282,-0.0530143396803218,-0.7026307582855225,0.6607756614685059,0.2639804184436798,-39.54298400878906,10.32269859313965,16.16633605957031,2,192.168.1.118,10.97.20.126,3,0
2015-02-21 18:56:42.001,89,1424570192.424981,39.63826271919505,-106.3701782135017,2518.648,-1,-1,10,65,-9999,1424570201.955804,-42.4016227722168,15.64105224609375,13.62371826171875,133.8871154785156,124.7610626220703,10,22069.54019425,-0.51092529296875,0.4685211181640625,-0.0946502685546875,22069.49377533334,5.043125890897194,0.8600385792690991,1.136179622170543,22069.49377533334,2.640259608120031,-1.660700086537209,-0.8517069406675971,5.032173156738281,0.871628999710083,1.169896245002747,-0.2412839829921722,0.1312000900506973,0.4665864706039429,XTrueNorthZVertical,0.5821026483008014,-0.4367223741354111,0.6708036464946943,-0.1430125258119866,-0.6560395956039429,0.7524058818817139,0.05913985148072243,-39.32573699951172,16.31602478027344,10.90093421936035,2,192.168.1.118,10.97.20.126,3,0
2015-02-21 18:56:42.092,90,1424570192.424981,39.63826271919505,-106.3701782135017,2518.648,-1,-1,10,65,-9999,1424570202.059562,-42.11166000366211,22.99468994140625,0.8269805908203125,105.9432678222656,96.81720733642578,10,22069.58925795833,-0.2964324951171875,0.4095916748046875,-0.3695068359375,22069.59733016667,3.492354671286931,0.8629291743162711,-0.2225425291186184,22069.54555254167,3.009131957001808,-1.311473961726807,-0.8700401976150974,4.26057767868042,1.636069178581238,0.2822804152965546,0.1123111620545387,-0.2958337366580963,0.07069192081689835,XTrueNorthZVertical,0.5296343253264284,-0.3698869911716983,0.7342078763001456,-0.2088299056547611,-0.6232364773750305,0.7643548846244812,-0.1653421968221664,-38.65159225463867,20.26614379882812,5.185966491699219,2,192.168.1.118,10.97.20.126,3,0
2015-02-21 18:56:42.100,91,1424570192.424981,39.63826271919505,-106.3701782135017,2518.648,-1,-1,10,65,-9999,1424570202.059562,-42.11166000366211,22.99468994140625,0.8269805908203125,105.9432678222656,96.81720733642578,10,22069.63841983334,-0.5146636962890625,0.4422760009765625,-0.5257568359375,22069.59733016667,3.492354671286931,0.8629291743162711,-0.2225425291186184,22069.59733016667,-3.006626047261489,-1.04264914512489,-0.7963292882876255,3.481402635574341,0.8745193481445312,-0.1888264417648315,0.3076129257678986,-0.3052021861076355,-0.01708812825381756,XTrueNorthZVertical,0.4806976584699597,-0.3045002590513893,0.7844854869156662,-0.2465601632802923,-0.6040453910827637,0.714793860912323,-0.3524187207221985,-38.28263092041016,21.24237632751465,-3.841582298278809,2,192.168.1.118,10.97.20.126,3,0
2015-02-21 18:56:42.166,92,1424570192.424981,39.63826271919505,-106.3701782135017,2518.648,-1,-1,10,65,-9999,1424570202.163122,-42.57218551635742,19.20748901367188,-8.741447448730469,106.0056991577148,96.879638671875,10,22069.6873555,-0.7211456298828125,0.307708740234375,-0.44744873046875,22069.64910804167,2.444700654279493,0.007762581945362963,-0.8375897291763852,22069.64910804167,-2.861496499604808,-0.9291270437422665,-0.6917955865081815,2.433748722076416,0.01935262978076935,-0.8038740158081055,0.04275388270616531,-0.2300230413675308,-0.04027366638183594,XTrueNorthZVertical,0.4596807304631859,-0.2413042425944354,0.8116271954436796,-0.2678193870539703,-0.6169268488883972,0.6379209756851196,-0.4609317779541016,-38.31893157958984,19.8449821472168,-8.330202102661133,2,192.168.1.118,10.97.20.126,3,0
2015-02-21 18:56:42.202,93,1424570192.424981,39.63826271919505,-106.3701782135017,2518.648,-1,-1,10,65,-9999,1424570202.163122,-42.57218551635742,19.20748901367188,-8.741447448730469,106.0056991577148,96.879638671875,10,22069.73638983334,-0.61285400390625,0.2769317626953125,-0.514251708984375,22069.70088516667,2.181776347235894,0.2485368455705548,-0.5899913815739742,22069.70088516667,-2.782117094115732,-0.8768481873006735,-0.5937784977194843,2.170824527740479,0.2601267695426941,-0.5562760233879089,-0.08522046357393265,-0.2496365159749985,0.07442919164896011,XTrueNorthZVertical,0.4467544316552594,-0.1880406120845834,0.8296613158657522,-0.2769717438262055,-0.6371458768844604,0.5594967603683472,-0.5301024317741394,-38.93223571777344,17.4611644744873,-10.53305435180664,2,192.168.1.118,10.97.20.126,3,0
2015-02-21 18:56:42.262,94,1424570192.424981,39.63826271919505,-106.3701782135017,2518.648,-1,-1,10,65,-9999,1424570202.216623,-42.98152542114258,16.11660766601562,-11.20426940917969,105.1486740112305,96.02261352539062,10,22069.78545766667,-0.4837493896484375,0.194732666015625,-0.532012939453125,22069.75266316667,1.977535327444409,0.546121128937099,-0.2093795891147928,22069.75266316667,-2.702455422199022,-0.8092764671175279,-0.5126794792188376,1.966583609580994,0.5577109456062317,-0.1756645143032074,0.05919988080859184,-0.2405292540788651,0.0514579676091671,XTrueNorthZVertical,0.4224433156273825,-0.1445248398565654,0.8461188016372364,-0.2910965976804325,-0.6307330727577209,0.4905139803886414,-0.6013084053993225,-39.23109817504883,14.66867828369141,-13.31566905975342,2,192.168.1.118,10.97.20.126,3,0
2015-02-21 18:56:42.303,95,1424570192.424981,39.63826271919505,-106.3701782135017,2518.648,-1,-1,10,65,-9999,1424570202.267097,-43.03269577026367,13.58615112304688,-13.15125274658203,105.4693069458008,96.34324645996094,10,22069.8345055,-0.466796875,0.181915283203125,-0.6101226806640625,22069.80444083333,1.748617723308359,0.4181810059569293,-0.2717923671574538,22069.80444083333,-2.635927663503113,-0.757222255896172,-0.441200465488387,1.737666130065918,0.4297707080841064,-0.2380776256322861,0.134127601981163,-0.2224201858043671,0.08690189570188522,XTrueNorthZVertical,0.4000658215894874,-0.1066332828058654,0.8576045546515209,-0.3051084219649112,-0.6211271286010742,0.4270252883434296,-0.6571533679962158,-39.01845550537109,13.09372997283936,-15.41656303405762,2,192.168.1.118,10.97.20.126,3,0
2015-02-21 18:56:42.362,96,1424570192.424981,39.63826271919505,-106.3701782135017,2518.648,-1,-1,10,65,-9999,1424570202.318597,-43.08386611938477,10.68206787109375,-15.09822082519531,104.8524780273438,95.72641754150391,10,22069.88357645833,-0.50262451171875,0.1859588623046875,-0.6432952880859375,22069.856218125,1.359846804217502,0.2936089828073829,-0.6190113153403497,22069.856218125,-2.597952891035019,-0.723094772158264,-0.3698348695018363,1.348895311355591,0.3051985800266266,-0.5852969288825989,0.1576022952795029,-0.2066000252962112,0.06878836452960968,XTrueNorthZVertical,0.3810993242514568,-0.07231425195939363,0.8681857636128552,-0.309495514987825,-0.6169681549072266,0.3614614605903625,-0.6990678906440735,-38.85320281982422,11.37693786621094,-17.10409927368164,2,192.168.1.118,10.97.20.126,3,0
2015-02-21 18:56:42.398,97,1424570192.424981,39.63826271919505,-106.3701782135017,2518.648,-1,-1,10,65,-9999,1424570202.372992,-43.33970260620117,8.287506103515625,-16.51268005371094,104.8640747070312,95.73801422119141,10,22069.9326285,-0.519775390625,0.1420440673828125,-0.686676025390625,22069.907995875,1.119147375418941,0.08034410797827352,-0.7208380785678564,22069.907995875,-2.581614355556679,-0.7107064598694679,-0.3011688940875967,1.108196020126343,0.09193357825279236,-0.6871240735054016,0.09389271587133408,-0.1183224841952324,0.1067229434847832,XTrueNorthZVertical,0.3694551961910073,-0.04010823355791295,0.8763952562068327,-0.3063096185650516,-0.6230064630508423,0.296636700630188,-0.7237883806228638,-38.91646957397461,8.547126770019531,-18.54753684997559,2,192.168.1.118,10.97.20.126,3,0
2015-02-21 18:56:42.461,98,1424570192.424981,39.63826271919505,-106.3701782135017,2518.648,-1,-1,10,65,-9999,1424570202.448484,-43.01564407348633,4.228546142578125,-17.2947998046875,107.1148910522461,97.98883056640625,10,22069.9816985,-0.5613250732421875,0.0901641845703125,-0.6641082763671875,22069.959773875,1.061034270956213,-0.04669666550177639,-0.6233394847439465,22069.959773875,-2.570454347850886,-0.7067772959928627,-0.2392392492093314,1.050083041191101,-0.03510730341076851,-0.5896257758140564,0.08374127745628357,-0.09346996247768402,0.05914264544844627,XTrueNorthZVertical,0.3612300746782434,-0.01063104647083753,0.8821425119844611,-0.3020338432487478,-0.630890965461731,0.236963614821434,-0.7387996315956116,-39.07944488525391,6.411986827850342,-19.0588436126709,2,192.168.1.118,10.97.20.126,3,0
2015-02-21 18:56:42.494,99,1424570192.424981,39.63826271919505,-106.3701782135017,2518.648,-1,-1,10,65,-9999,1424570202.448484,-43.01564407348633,4.228546142578125,-17.2947998046875,107.1148910522461,97.98883056640625,10,22070.030731875,-0.6050872802734375,0.125946044921875,-0.794158935546875,22070.011550875,0.9420897735061134,-0.07089201663736427,-0.5601314867997879,22069.959773875,-2.570454347850886,-0.7067772959928627,-0.2392392492093314,1.050083041191101,-0.03510730341076851,-0.5896257758140564,0.08374127745628357,-0.09346996247768402,0.05914264544844627,XTrueNorthZVertical,0.3612300746782434,-0.01063104647083753,0.8821425119844611,-0.3020338432487478,-0.630890965461731,0.236963614821434,-0.7387996315956116,-39.07944488525391,6.411986827850342,-19.0588436126709,2,192.168.1.118,10.97.20.126,3,0
2015-02-21 18:56:42.562,100,1424570192.424981,39.63826271919505,-106.3701782135017,2518.648,-1,-1,10,65,-9999,1424570202.552,-42.7768440246582,-0.764434814453125,-17.2947998046875,109.4135971069336,100.2875366210938,10,22070.07989608333,-0.657989501953125,0.11004638671875,-0.788482666015625,22070.06332883333,0.6565166129719356,-0.176013909081626,-0.6560452334589916,22070.06332883333,-2.555189964158488,-0.7099588888285517,-0.1351002167719023,0.6455660462379456,-0.1644235104322433,-0.6223320960998535,0.004658435005694628,-0.002792642684653401,-0.05868728458881378,XTrueNorthZVertical,0.350271229110628,0.03963591775617203,0.8888101712249101,-0.2928405360039484,-0.6458632946014404,0.1346896141767502,-0.7514781355857849,-39.40637969970703,2.120991230010986,-19.34411239624023,2,192.168.1.118,10.97.20.126,3,0
2015-02-21 18:56:42.600,101,1424570192.424981,39.63826271919505,-106.3701782135017,2518.648,-1,-1,10,65,-9999,1424570202.552,-42.7768440246582,-0.764434814453125,-17.2947998046875,109.4135971069336,100.2875366210938,10,22070.128817625,-0.710418701171875,0.0620880126953125,-0.723602294921875,22070.11510654167,0.4916275267118976,-0.120657442663239,-0.6180038414999728,22070.11510654167,-2.561525839663545,-0.7181319837368217,-0.09505272146022177,0.4806773960590363,-0.1090669706463814,-0.584291398525238,-0.0487111397087574,-0.01861570775508881,-0.004864464979618788,XTrueNorthZVertical,0.349063455100986,0.0577604139306942,0.8913360151195021,-0.2834406233506098,-0.6550089716911316,0.09490965306758881,-0.7496368885040283,-39.56986236572266,0.4813122749328613,-19.11936950683594,2,192.168.1.118,10.97.20.126,3,0
2015-02-21 18:56:42.649,102,1424570192.424981,39.63826271919505,-106.3701782135017,2518.648,-1,-1,10,65,-9999,1424570202.603838,-42.58922958374023,-2.8873291015625,-16.74565887451172,110.7492294311523,101.6231689453125,10,22070.177876,-0.7100372314453125,0.1152496337890625,-0.7523345947265625,22070.16688383334,0.4577715587220473,0.01123161558130018,-0.4304520533116875,22070.11510654167,-2.561525839663545,-0.7181319837368217,-0.09505272146022177,0.4806773960590363,-0.1090669706463814,-0.584291398525238,-0.0487111397087574,-0.01861570775508881,-0.004864464979618788,XTrueNorthZVertical,0.349063455100986,0.0577604139306942,0.8913360151195021,-0.2834406233506098,-0.6550089716911316,0.09490965306758881,-0.7496368885040283,-39.56986236572266,0.4813122749328613,-19.11936950683594,2,192.168.1.118,10.97.20.126,3,0
2015-02-21 18:56:42.696,103,1424570192.424981,39.63826271919505,-106.3701782135017,2518.648,-1,-1,10,65,-9999,1424570202.655119,-42.38454818725586,-4.551605224609375,-16.87877655029297,112.1145248413086,102.9884643554688,10,22070.22690420834,-0.632965087890625,0.0182037353515625,-0.702362060546875,22070.21866158333,0.6096676146558067,0.272237381375606,-0.4666707778206561,22070.16688383334,-2.565429116775862,-0.7184443835184517,-0.06191812339363391,0.4468207061290741,0.0228206068277359,-0.396739661693573,-0.02540477365255356,0.06000864133238792,-0.007904686965048313,XTrueNorthZVertical,0.3451307983636061,0.07204702656353122,0.8940697807040262,-0.2762846813254158,-0.6569530367851257,0.06187856569886208,-0.751387894153595,-39.64710235595703,-0.9831066131591797,-18.93929481506348,2,192.168.1.118,10.97.20.126,3,0
2015-02-21 18:56:42.748,104,1424570192.424981,39.63826271919505,-106.3701782135017,2518.648,-1,-1,10,65,-9999,1424570202.708612,-42.24809646606445,-5.9102783203125,-17.14503479003906,113.1981964111328,104.072135925293,10,22070.27607483333,-0.5498809814453125,-0.035736083984375,-0.7061309814453125,22070.27043958334,0.7065427624685291,0.2957677411870011,-0.4747779728110753,22070.27043958334,-2.558869787694369,-0.6961034007550257,0.009380625310633849,0.6955897808074951,0.3073513209819794,-0.4410665929317474,0.08575387299060822,-0.01790222711861134,0.06194483488798141,XTrueNorthZVertical,0.3254221301784371,0.1021958809452063,0.9008694561841664,-0.2684971171938071,-0.641204297542572,-0.009380487725138664,-0.7673128843307495,-39.26228332519531,-3.763921737670898,-19.38716506958008,2,192.168.1.118,10.97.20.126,3,0
2015-02-21 18:56:42.794,105,1424570192.424981,39.63826271919505,-106.3701782135017,2518.648,-1,-1,10,65,-9999,1424570202.758917,-42.14575576782227,-7.744415283203125,-17.7108154296875,113.9121856689453,104.7861251831055,10,22070.32500675,-0.527099609375,-0.1578826904296875,-0.6842041015625,22070.27043958334,0.7065427624685291,0.2957677411870011,-0.4747779728110753,22070.27043958334,-2.558869787694369,-0.6961034007550257,0.009380625310633849,0.6955897808074951,0.3073513209819794,-0.4410665929317474,0.08575387299060822,-0.01790222711861134,0.06194483488798141,XTrueNorthZVertical,0.3254221301784371,0.1021958809452063,0.9008694561841664,-0.2684971171938071,-0.641204297542572,-0.009380487725138664,-0.7673128843307495,-39.26228332519531,-3.763921737670898,-19.38716506958008,2,192.168.1.118,10.97.20.126,3,0
2015-02-21 18:56:42.845,106,1424570192.424981,39.63826271919505,-106.3701782135017,2518.648,-1,-1,10,65,-9999,1424570202.81148,-41.51467514038086,-9.799346923828125,-17.660888671875,114.7870330810547,105.6609725952148,10,22070.37417804167,-0.462982177734375,-0.2501068115234375,-0.677947998046875,22070.37399458333,0.8466865548278778,0.2613873967785142,-0.6013753299696269,22070.32221658334,-2.555285173387612,-0.6825195983406958,0.05225047320402012,0.7573453783988953,0.2463607639074326,-0.5276833176612854,0.09928026050329208,-0.07655747979879379,0.09633806347846985,XTrueNorthZVertical,0.3131737236692119,0.1202445580894456,0.9043497840588971,-0.2638464952290237,-0.6298893690109253,-0.05222669988870621,-0.7749269008636475,-38.90090560913086,-5.155404090881348,-19.79134559631348,2,192.168.1.118,10.97.20.126,3,0
2015-02-21 18:56:42.895,107,1424570192.424981,39.63826271919505,-106.3701782135017,2518.648,-1,-1,10,65,-9999,1424570202.872232,-40.52541732788086,-11.701416015625,-17.96041870117188,116.2535552978516,107.1274948120117,10,22070.42310795833,-0.4814605712890625,-0.3373870849609375,-0.688018798828125,22070.42577225,0.8178312044168693,0.155713697356388,-0.6475841043597008,22070.37399458333,-2.551350492086233,-0.6694408668909182,0.1020920930481207,0.8357598781585693,0.2729672491550446,-0.5676387548446655,0.1474678963422775,-0.1251969784498215,0.1056014448404312,XTrueNorthZVertical,0.2998764738165725,0.1415318053232638,0.9073665980422049,-0.2583190763563004,-0.6173165440559387,-0.1019148379564285,-0.7800856828689575,-38.38681793212891,-7.311223983764648,-20.11353492736816,2,192.168.1.118,10.97.20.126,3,0
2015-02-21 18:56:42.943,108,1424570192.424981,39.63826271919505,-106.3701782135017,2518.648,-1,-1,10,65,-9999,1424570202.872232,-40.52541732788086,-11.701416015625,-17.96041870117188,116.2535552978516,107.1274948120117,10,22070.4721745,-0.453399658203125,-0.4736175537109375,-0.7310333251953125,22070.42577225,0.8178312044168693,0.155713697356388,-0.6475841043597008,22070.42577225,-2.54911551494665,-0.6589295220186665,0.1533318198992446,0.806904673576355,0.1672933995723724,-0.6138478517532349,0.1236269176006317,-0.1846553832292557,0.09335318952798843,XTrueNorthZVertical,0.2873786235719954,0.1634855781403446,0.9095752875440076,-0.2517117968276383,-0.6050874590873718,-0.1527317017316818,-0.7813720107078552,-37.93948745727539,-9.064628601074219,-20.2480640411377,2,192.168.1.118,10.97.20.126,3,0
2015-02-21 18:56:42.992,109,1424570192.424981,39.63826271919505,-106.3701782135017,2518.648,-1,-1,10,65,-9999,1424570202.941273,-39.63849258422852,-15.0980224609375,-17.66087341308594,118.5765380859375,109.4504776000977,10,22070.52119191667,-0.5101318359375,-0.5822906494140625,-0.7639312744140625,22070.47754954167,0.6123046767672031,0.03368579199619427,-0.5572866981233652,22070.47754954167,-2.550867961326559,-0.6520728962610687,0.1987892955929536,0.6013782620429993,0.04526539891958237,-0.523550808429718,0.141484871506691,-0.2761349380016327,0.04814125597476959,XTrueNorthZVertical,0.2775456389318229,0.1827050277447851,0.9110757078120697,-0.2439843964281732,-0.5948845148086548,-0.1974826157093048,-0.7791745662689209,-37.50543212890625,-10.83307456970215,-20.18770217895508,2,192.168.1.118,10.97.20.126,3,0
2015-02-21 18:56:43.041,110,1424570192.424981,39.63826271919505,-106.3701782135017,2518.648,-1,-1,10,65,-9999,1424570202.992644,-39.16092300415039,-17.10197448730469,-17.49446105957031,120.3277053833008,111.2016448974609,10,22070.57029679167,-0.4898529052734375,-0.6881866455078125,-0.771728515625,22070.58110529167,-0.2059542313207328,0.1251166395924677,-0.1397887929860412,22070.52932725,-2.554300608869421,-0.6528067819591078,0.2292717031014914,0.2961449325084686,-0.03227052465081215,-0.3559125959873199,0.08139180392026901,-0.3550223112106323,0.009663519449532032,XTrueNorthZVertical,0.2735390157826356,0.1959056151429024,0.9113215265372686,-0.2372562159120618,-0.5915236473083496,-0.2272683382034302,-0.7735947966575623,-37.09379577636719,-12.66677284240723,-19.87862014770508,2,192.168.1.118,10.97.20.126,3,0
2015-02-21 18:56:43.094,111,1424570192.424981,39.63826271919505,-106.3701782135017,2518.648,-1,-1,10,65,-9999,1424570203.044527,-38.10343551635742,-18.46063232421875,-17.42790985107422,122.9782409667969,113.852180480957,10,22070.61927625,-0.4374542236328125,-0.671051025390625,-0.7724456787109375,22070.58110529167,-0.2059542313207328,0.1251166395924677,-0.1397887929860412,22070.58110529167,-2.562871017680097,-0.6471616652810228,0.237229483725516,-0.2168804258108139,0.136695995926857,-0.1060536056756973,0.1057983338832855,-0.4645285606384277,0.002016725717112422,XTrueNorthZVertical,0.2705896087176569,0.1976212306038577,0.913038486490342,-0.2325680007547215,-0.5860382318496704,-0.2350106090307236,-0.7754542231559753,-36.90543365478516,-13.43837738037109,-19.72194480895996,2,192.168.1.118,10.97.20.126,3,0
2015-02-21 18:56:43.139,112,1424570192.424981,39.63826271919505,-106.3701782135017,2518.648,-1,-1,10,65,-9999,1424570203.096438,-37.74525833129883,-18.98709106445312,-17.67751312255859,129.6921691894531,120.5661087036133,10,22070.66846129167,-0.4400787353515625,-0.61181640625,-0.703582763671875,22070.63288225,-0.6677109442979747,-0.05219449525613597,0.1407379435985454,22070.63288225,-2.575907202541707,-0.6414308624951036,0.2173745054046972,-0.6786370277404785,-0.04061524942517281,0.1744727790355682,0.143328532576561,-0.436036229133606,0.01784325949847698,XTrueNorthZVertical,0.2722035369332593,0.1863136920441454,0.9154684344918993,-0.2304561303281705,-0.5842617750167847,-0.2156666666269302,-0.7823848724365234,-36.73203277587891,-13.43411159515381,-20.04591178894043,2,192.168.1.118,10.97.20.126,3,0
2015-02-21 18:56:43.198,113,1424570192.424981,39.63826271919505,-106.3701782135017,2518.648,-1,-1,10,65,-9999,1424570203.148343,-37.72820663452148,-18.22286987304688,-18.12680816650391,131.0499725341797,121.9239120483398,10,22070.71739666667,-0.3686676025390625,-0.53057861328125,-0.66455078125,22070.68466029167,-1.010509311387448,-0.009830526531809491,0.3335508065202823,22070.68466029167,-2.590632018299321,-0.6410876993087204,0.1730009315855709,-1.021435260772705,0.001748615643009543,0.3672853708267212,0.1617260128259659,-0.4218243658542633,0.0928574874997139,XTrueNorthZVertical,0.2797662035354611,0.1642855776209978,0.9172691456596309,-0.2309945338853743,-0.5891399383544922,-0.1721392571926117,-0.7894822359085083,-36.90039825439453,-12.19973278045654,-20.52031326293945,2,192.168.1.118,10.97.20.126,3,0
2015-02-21 18:56:43.240,114,1424570192.424981,39.63826271919505,-106.3701782135017,2518.648,-1,-1,10,65,-9999,1424570203.200013,-38.35927963256836,-16.71141052246094,-18.77577972412109,130.1740417480469,121.0479736328125,10,22070.76661820833,-0.3462066650390625,-0.3852691650390625,-0.6467437744140625,22070.736438,-1.160961401378167,-0.08297504481916279,0.601103953854548,22070.736438,-2.603738389114235,-0.6395959408475561,0.1124239465176416,-1.171887278556824,-0.07139601558446884,0.6348381638526917,0.2345522791147232,-0.4012099504470825,0.1418306231498718,XTrueNorthZVertical,0.2884256830919103,0.1348134591109944,0.9184251802707902,-0.2348003082175134,-0.593103289604187,-0.1121872738003731,-0.7972719073295593,-37.10602951049805,-10.54488945007324,-21.05953407287598,2,192.168.1.118,10.97.20.126,3,0
2015-02-21 18:56:43.294,115,1424570192.424981,39.63826271919505,-106.3701782135017,2518.648,-1,-1,10,65,-9999,1424570203.252395,-39.09269332885742,-14.45266723632812,-19.79087829589844,130.0491027832031,120.9230422973633,10,22070.81552754167,-0.435028076171875,-0.1792449951171875,-0.636932373046875,22070.78821533333,-1.147408574590753,-0.2703944739012712,0.8015246690623141,22070.78821533333,-2.608905083102155,-0.6483468802378479,0.04223318235357905,-1.158334374427795,-0.258815586566925,0.8352584838867188,0.2171921879053116,-0.2655796706676483,0.1393136978149414,XTrueNorthZVertical,0.3019574362783548,0.103128562141937,0.9160569404583757,-0.242952522324342,-0.6033310890197754,-0.04222062975168228,-0.7963724136352539,-37.06064605712891,-14.38675212860107,-22.31304740905762,2,192.168.1.118,10.97.20.126,3,0
2015-02-21 18:56:43.335,116,1424570192.424981,39.63826271919505,-106.3701782135017,2518.648,-1,-1,10,65,-9999,1424570203.304774,-40.45718765258789,-10.78436279296875,-20.29009246826172,127.8177719116211,118.6917114257812,10,22070.864769375,-0.48480224609375,0.00775146484375,-0.66949462890625,22070.839993,-1.03279224654425,-0.3271813241411398,0.8834845168739387,22070.839993,-2.606659398868093,-0.6623696267201731,-0.02833765141446606,-1.043717861175537,-0.3156025409698486,0.9172179698944092,0.1683290749788284,-0.1406538039445877,0.1308414340019226,XTrueNorthZVertical,0.3171115812874609,0.07300654723356023,0.9107243855011793,-0.2543450857533506,-0.6147401928901672,0.02833385951817036,-0.7882205843925476,-38.03340148925781,-10.94644832611084,-22.62692832946777,2,192.168.1.118,10.97.20.126,3,0
2015-02-21 18:56:43.400,117,1424570192.424981,39.63826271919505,-106.3701782135017,2518.648,-1,-1,10,65,-9999,1424570203.355111,-41.51467514038086,-7.421783447265625,-19.957275390625,124.420280456543,115.2942199707031,10,22070.91359666667,-0.5029296875,0.031341552734375,-0.6039886474609375,22070.891771,-0.9140613346135744,-0.4479716585427737,1.026990017477295,22070.891771,-2.598349903451434,-0.6819348519825126,-0.09718899480349552,-0.9249868392944336,-0.4363929629325867,1.060723304748535,0.1202265471220016,-0.05652397871017456,0.1269084513187408,XTrueNorthZVertical,0.3340408894708417,0.04551065926637853,0.9024496215726874,-0.2681980322391669,-0.6273218989372253,0.09703606367111206,-0.7726909518241882,-38.78385543823242,-8.288185119628906,-22.48245811462402,2,192.168.1.118,10.97.20.126,3,0
2015-02-21 18:56:43.434,118,1424570192.424981,39.63826271919505,-106.3701782135017,2518.648,-1,-1,10,65,-9999,1424570203.407787,-41.95813369750977,-4.025177001953125,-18.82569122314453,121.0193481445312,111.8932876586914,10,22070.96275195833,-0.520843505859375,0.0766754150390625,-0.6018218994140625,22070.94354820834,-0.7113612198288094,-0.4485924413928712,1.111043109905721,22070.94354820834,-2.581430120732718,-0.7005000331489954,-0.1646541476567617,-0.7222866415977478,-0.4370138645172119,1.144775867462158,0.1155572012066841,-0.08812075853347778,0.09735008329153061,XTrueNorthZVertical,0.3499970379800731,0.02030062990013709,0.891828207788249,-0.2858888692184638,-0.6358819007873535,0.1639111638069153,-0.7541798949241638,-39.53591537475586,-5.513722896575928,-22.01936912536621,2,192.168.1.118,10.97.20.126,3,0
2015-02-21 18:56:43.496,119,1424570192.424981,39.63826271919505,-106.3701782135017,2518.648,-1,-1,10,65,-9999,1424570203.459548,-42.41865921020508,-0.883331298828125,-18.34310913085938,120.6207962036133,111.4947357177734,10,22071.011675375,-0.3998260498046875,0.0218658447265625,-0.680999755859375,22070.995325875,-0.711044836291308,-0.1038166771940139,1.07053536446118,22070.995325875,-2.560795399014904,-0.7093680061547919,-0.2283878892095377,-0.7219702005386353,-0.09223823994398117,1.104267835617065,0.162348747253418,-0.1653876751661301,0.1170000359416008,XTrueNorthZVertical,0.3611813572861768,-0.003585033045099393,0.8813093168410971,-0.3046786875628787,-0.6344404220581055,0.2264075726270676,-0.7390703558921814,-40.2782096862793,-1.808581352233887,-21.27762794494629,2,192.168.1.118,10.97.20.126,3,0
2015-02-21 18:56:43.531,120,1424570192.424981,39.63826271919505,-106.3701782135017,2518.648,-1,-1,10,65,-9999,1424570203.512516,-42.7768440246582,2.462310791015625,-17.99365997314453,115.7419052124023,106.6158447265625,10,22071.06072379167,-0.3817138671875,0.082366943359375,-0.5951690673828125,22071.04710375,-0.9825972526345457,-0.2821395469407386,1.076747454019899,22071.04710375,-2.544830820612342,-0.7160455875362601,-0.2948028022531143,-0.9935224652290344,-0.2705612182617188,1.110479593276978,0.2321537882089615,-0.228356346487999,0.1079244092106819,XTrueNorthZVertical,0.3717447412282348,-0.02957959090865661,0.8703698436676176,-0.3215389095021247,-0.6280888319015503,0.2905511558055878,-0.7218617796897888,-40.43181610107422,0.8984556198120117,-21.04289627075195,2,192.168.1.118,10.97.20.126,3,0
2015-02-21 18:56:43.593,121,1424570192.424981,39.63826271919505,-106.3701782135017,2518.648,-1,-1,10,65,-9999,1424570203.563467,-43.0667839050293,5.94378662109375,-17.14497375488281,113.4522171020508,104.3261566162109,10,22071.10974879167,-0.4534454345703125,0.0845489501953125,-0.6632537841796875,22071.098880875,-1.602523363809338,-0.5384331155022583,0.9901430532671761,22071.04710375,-2.544830820612342,-0.7160455875362601,-0.2948028022531143,-0.9935224652290344,-0.2705612182617188,1.110479593276978,0.2321537882089615,-0.228356346487999,0.1079244092106819,XTrueNorthZVertical,0.3717447412282348,-0.02957959090865661,0.8703698436676176,-0.3215389095021247,-0.6280888319015503,0.2905511558055878,-0.7218617796897888,-40.43181610107422,0.8984556198120117,-21.04289627075195,2,192.168.1.118,10.97.20.126,3,0
2015-02-21 18:56:43.630,122,1424570192.424981,39.63826271919505,-106.3701782135017,2518.648,-1,-1,10,65,-9999,1424570203.615865,-43.11794662475586,9.798919677734375,-15.13143157958984,112.0498275756836,102.9237670898438,10,22071.15879816667,-0.500885009765625,0.2264556884765625,-0.8306121826171875,22071.150658875,-2.354588604055027,-0.6896950727804698,0.7677944022759156,22071.150658875,-2.589630639949661,-0.7824014410428062,-0.4870072682608429,-2.365513563156128,-0.6781169772148132,0.8015258312225342,0.1626483201980591,-0.2880057692527771,-0.06468550115823746,XTrueNorthZVertical,0.4167821088699917,-0.1136195861005393,0.8381782172763368,-0.3329272884319731,-0.6230212450027466,0.4679831862449646,-0.6267665028572083,-40.78082275390625,8.323513984680176,-18.6007080078125,2,192.168.1.118,10.97.20.126,3,0
2015-02-21 18:56:43.694,123,1424570192.424981,39.63826271919505,-106.3701782135017,2518.648,-1,-1,10,65,-9999,1424570203.667012,-43.3226203918457,13.50119018554688,-12.03624725341797,109.5273208618164,100.4012603759766,10,22071.20783833334,-0.6962127685546875,0.4807586669921875,-0.556396484375,22071.20243658333,-3.097175653981125,-1.413389391617436,0.2577465892522668,22071.150658875,-2.589630639949661,-0.7824014410428062,-0.4870072682608429,-2.365513563156128,-0.6781169772148132,0.8015258312225342,0.1626483201980591,-0.2880057692527771,-0.06468550115823746,XTrueNorthZVertical,0.4167821088699917,-0.1136195861005393,0.8381782172763368,-0.3329272884319731,-0.6230212450027466,0.4679831862449646,-0.6267665028572083,-40.78082275390625,8.323513984680176,-18.6007080078125,2,192.168.1.118,10.97.20.126,3,0
2015-02-21 18:56:43.728,124,1424570192.424981,39.63826271919505,-106.3701782135017,2518.648,-1,-1,10,65,-9999,1424570203.719359,-43.74902725219727,16.26937866210938,-7.826133728027344,109.3879470825195,100.2618865966797,10,22071.25702720834,-0.6656494140625,0.522918701171875,-0.28662109375,22071.25421391667,-3.97314206709777,-1.176350477737189,0.1481386019517666,22071.20243658333,-2.686019436063395,-0.8917325968074197,-0.5958833499468184,-3.108100414276123,-1.401811361312866,0.2914777100086212,-0.06255657970905304,-0.06369674205780029,-0.1309676468372345,XTrueNorthZVertical,0.4614016406874827,-0.1649202039347394,0.8116209069975679,-0.3180902317715019,-0.6440474390983582,0.5612400770187378,-0.5198196768760681,-41.09941864013672,11.52705478668213,-16.00960731506348,2,192.168.1.118,10.97.20.126,3,0
2015-02-21 18:56:43.794,125,1424570192.424981,39.63826271919505,-106.3701782135017,2518.648,-1,-1,10,65,-9999,1424570203.770567,-43.91959762573242,18.20541381835938,-2.833915710449219,115.4756774902344,106.3496170043945,10,22071.305938375,-0.7772674560546875,0.824462890625,0.00079345703125,22071.25421391667,-3.97314206709777,-1.176350477737189,0.1481386019517666,22071.25421391667,-2.86600728482961,-1.064620773541705,-0.703844585949687,-3.984065055847168,-1.164771556854248,0.181867778301239,0.03221181035041809,-0.1521277874708176,0.01656156592071056,XTrueNorthZVertical,0.5127006417875366,-0.228753882334541,0.7771322785246401,-0.2843856093785398,-0.6667637825012207,0.6471534371376038,-0.3696194291114807,-41.78121185302734,14.01571273803711,-11.67187309265137,2,192.168.1.118,10.97.20.126,3,0
2015-02-21 18:56:43.826,126,1424570192.424981,39.63826271919505,-106.3701782135017,2518.648,-1,-1,10,65,-9999,1424570203.770567,-43.91959762573242,18.20541381835938,-2.833915710449219,115.4756774902344,106.3496170043945,10,22071.3549995,-0.685546875,0.79559326171875,0.4854888916015625,22071.357769625,-4.322282752323267,-1.398566769622273,-0.6443808542005536,22071.30599158334,3.137304052821133,-1.307036415634875,-0.7885076909278462,-4.641594886779785,-0.9265661239624023,-0.2021616846323013,-0.09674084931612015,0.1151607632637024,0.1845707446336746,XTrueNorthZVertical,0.5606857960727426,-0.3061744507360094,0.733539735989349,-0.2319658152453369,-0.6805266141891479,0.7093021273612976,-0.1837772876024246,-42.23019027709961,16.40250396728516,-5.090324401855469,2,192.168.1.118,10.97.20.126,3,0
2015-02-21 18:56:43.894,127,1424570192.424981,39.63826271919505,-106.3701782135017,2518.648,-1,-1,10,65,-9999,1424570203.874588,-43.23734664916992,17.08450317382812,8.814620971679688,130.8599243164062,121.7338562011719,10,22071.40403,-0.8264923095703125,1.0732421875,0.7239990234375,22071.357769625,-4.322282752323267,-1.398566769622273,-0.6443808542005536,22071.357769625,2.820204528299819,-1.599611809496561,-0.7910911172005729,-4.333182811737061,-1.386993646621704,-0.6106221675872803,0.01723113097250462,0.08447243273258209,0.4652324020862579,XTrueNorthZVertical,0.6103534866188616,-0.3709405188542864,0.6789729234385541,-0.1699045673329431,-0.7027779817581177,0.7111208438873291,0.02025649510324001,-42.54199981689453,16.38195419311523,0.3899261951446533,2,192.168.1.118,10.97.20.126,3,0
2015-02-21 18:56:43.924,128,1424570192.424981,39.63826271919505,-106.3701782135017,2518.648,-1,-1,10,65,-9999,1424570203.874588,-43.23734664916992,17.08450317382812,8.814620971679688,130.8599243164062,121.7338562011719,10,22071.45321308334,-0.747467041015625,0.4971923828125,0.612701416015625,22071.46132466667,-3.796668496411996,-1.390149050048751,-0.6186256896145063,22071.40954666667,2.4988307719648,-1.878105483638901,-0.71593730505196,-5.100227355957031,-1.489867925643921,-0.7412020564079285,-0.1073604226112366,0.4169172942638397,0.4957731068134308,XTrueNorthZVertical,0.6517854685009596,-0.4350731743786255,0.6141126380867192,-0.09355609893662807,-0.7191318869590759,0.6563248634338379,0.2282259315252304,-42.78195571899414,14.55295753479004,6.021470069885254,2,192.168.1.118,10.97.20.126,3,0
2015-02-21 18:56:43.993,129,1424570192.424981,39.63826271919505,-106.3701782135017,2518.648,-1,-1,10,65,-9999,1424570203.979123,-41.54877853393555,8.644012451171875,19.61447143554688,154.7022399902344,145.5761871337891,10,22071.502124625,-0.754486083984375,0.3931884765625,0.8282012939453125,22071.46132466667,-3.796668496411996,-1.390149050048751,-0.6186256896145063,22071.46132466667,2.259854049866012,-2.112864993511657,-0.5940163505148751,-3.807568311691284,-1.378576040267944,-0.5848676562309265,-0.03756717965006828,-0.06250149011611938,0.1851677149534225,XTrueNorthZVertical,0.6914445104434823,-0.4854599276921907,0.5341837511481481,-0.02968008610060041,-0.7098998427391052,0.5596938729286194,0.4275337159633636,-42.38382720947266,9.938392639160156,13.5344877243042,2,192.168.1.118,10.97.20.126,3,0
2015-02-21 18:56:44.022,130,1424570192.424981,39.63826271919505,-106.3701782135017,2518.648,-1,-1,10,65,-9999,1424570203.979123,-41.54877853393555,8.644012451171875,19.61447143554688,154.7022399902344,145.5761871337891,10,22071.55128670833,-0.738067626953125,0.582977294921875,0.950469970703125,22071.51310241667,-3.091942808755228,-1.585964627099552,-0.9623388525384219,22071.51310241667,2.123701724249584,-2.238346715730251,-0.4694320656132552,-3.102842330932617,-1.574391841888428,-0.928581178188324,0.03965052962303162,0.001569114509038627,0.1812861114740372,XTrueNorthZVertical,0.7147064387562604,-0.5150177118755657,0.4726215093164548,0.02409173520559231,-0.7003865838050842,0.4523798525333405,0.5520970821380615,-41.72246551513672,6.191770553588867,17.29856491088867,2,192.168.1.118,10.97.20.126,3,0
2015-02-21 18:56:44.063,131,1424570192.424981,39.63826271919505,-106.3701782135017,2518.648,-1,-1,10,65,-9999,1424570204.031337,-39.62143325805664,3.93975830078125,23.39192962646484,163.292236328125,154.1661682128906,10,22071.60021358333,-0.78125,0.4004669189453125,1.075027465820312,22071.56487970833,-1.881159522336077,-1.726073532048621,-0.6466099200329498,22071.56487970833,2.052623714613024,-2.360922751340687,-0.3643273639618904,-1.892059087753296,-1.714500784873962,-0.6128525733947754,-0.2120500355958939,0.1730675399303436,0.3696968257427216,XTrueNorthZVertical,0.7422600552171383,-0.5300525836943228,0.406868220227774,0.05052286844278393,-0.6575636267662048,0.3563208878040314,0.6638114452362061,-40.57331085205078,2.091073989868164,20.6827564239502,2,192.168.1.118,10.97.20.126,3,0
2015-02-21 18:56:44.120,132,1424570192.424981,39.63826271919505,-106.3701782135017,2518.648,-1,-1,10,65,-9999,1424570204.082081,-37.59175491333008,0.050689697265625,25.50530242919922,216.00048828125,206.8744201660156,10,22071.64927354167,-0.770599365234375,0.4618682861328125,1.137115478515625,22071.61665741667,-1.190927023647629,-0.1075104816259538,-0.4562990969553425,22071.61665741667,2.022212347431652,-2.414149352129436,-0.2845140332209676,-1.201826453208923,-0.09593792259693146,-0.4225420653820038,-0.0673367828130722,0.1795292794704437,0.3761816620826721,XTrueNorthZVertical,0.7572019158208514,-0.5339202665292326,0.3687770608088464,0.07468552073028401,-0.6382296085357666,0.2806910574436188,0.7168511748313904,-38.46697235107422,-2.111147880554199,24.37575721740723,2,192.168.1.118,10.97.20.126,3,0
2015-02-21 18:56:44.162,133,1424570192.424981,39.63826271919505,-106.3701782135017,2518.648,-1,-1,10,65,-9999,1424570204.134295,-36.38075637817383,-2.106170654296875,26.68679046630859,222.8723449707031,213.7462768554688,10,22071.69830041667,-0.8171234130859375,0.5077972412109375,1.26666259765625,22071.66843554167,0.1279819346092839,-0.01391128827013791,0.2790127295048766,22071.66843554167,2.002940758666947,-2.417815545907529,-0.2646881201716653,0.1170826032757759,-0.002338847378268838,0.3127694427967072,-0.1829404830932617,0.1936071962118149,0.4175173044204712,XTrueNorthZVertical,0.7556383197137541,-0.5390899547081225,0.3621151797439509,0.08523723969577508,-0.6391572952270508,0.2616082727909088,0.7232145071029663,-38.29789733886719,-3.897677421569824,24.4217472076416,2,192.168.1.118,10.97.20.126,3,0
2015-02-21 18:56:44.218,134,1424570192.424981,39.63826271919505,-106.3701782135017,2518.648,-1,-1,10,65,-9999,1424570204.186451,-36.61954116821289,-1.800445556640625,26.5203857421875,224.1262817382812,215.0002136230469,10,22071.74735916667,-0.8154144287109375,0.5605621337890625,1.3267822265625,22071.72021245833,1.827775126704894,0.4293780004440585,0.7589484463991083,22071.72021245833,2.018678283823688,-2.404876939838265,-0.3261282994003541,1.81687593460083,0.4409503042697906,0.7927047610282898,-0.2054432332515717,0.1539111286401749,0.6874459981918335,XTrueNorthZVertical,0.7480988071442972,-0.5395990267377326,0.3813969252447527,0.06097122621203503,-0.6364452242851257,0.3203778266906738,0.701637864112854,-38.37221527099609,-3.194354057312012,24.40720558166504,2,192.168.1.118,10.97.20.126,3,0
2015-02-21 18:56:44.261,135,1424570192.424981,39.63826271919505,-106.3701782135017,2518.648,-1,-1,10,65,-9999,1424570204.238022,-37.60880661010742,0.84881591796875,26.15428924560547,220.1757202148438,211.0496520996094,10,22071.79638820833,-0.7172088623046875,0.7271575927734375,1.280471801757812,22071.77199045834,3.988826754337791,1.72167931624999,0.8569991135169917,22071.77199045834,2.094744772691469,-2.318444124241251,-0.4606293723241239,3.977927684783936,1.733251571655273,0.8907551169395447,-0.114424467086792,0.1596292704343796,0.6426587700843811,XTrueNorthZVertical,0.7271764252308116,-0.5251090808450584,0.4419200237337263,0.01347710446492091,-0.6568615436553955,0.4445119798183441,0.6090502142906189,-39.21132659912109,1.445468902587891,23.21044731140137,2,192.168.1.118,10.97.20.126,3,0
2015-02-21 18:56:44.317,136,1424570192.424981,39.63826271919505,-106.3701782135017,2518.648,-1,-1,10,65,-9999,1424570204.289466,-39.34853744506836,6.45318603515625,22.92597961425781,164.1246948242188,154.9986267089844,10,22071.845443625,-0.4175872802734375,0.807830810546875,0.8697357177734375,22071.82376820833,7.321851155508006,1.751354653960634,0.84904558292147,22071.82376820833,2.346577117256857,-2.079100464295632,-0.669893101078018,7.310952186584473,1.762926816940308,0.8828012943267822,0.1255321502685547,0.1368950456380844,0.8717192411422729,XTrueNorthZVertical,0.6863062995749147,-0.4687658908910022,0.5508645673502376,-0.07609514477263421,-0.6847820281982422,0.6209021806716919,0.3815155923366547,-40.78755950927734,7.247713088989258,19.0312385559082,2,192.168.1.118,10.97.20.126,3,0
2015-02-21 18:56:44.362,137,1424570192.424981,39.63826271919505,-106.3701782135017,2518.648,-1,-1,10,65,-9999,1424570204.341444,-41.07120895385742,14.0784912109375,17.15163421630859,140.5114440917969,131.3853912353516,10,22071.89447283333,-0.624725341796875,0.53466796875,0.608734130859375,22071.8755455,8.637098000949951,0.800611204808417,1.181381455352458,22071.82376820833,2.346577117256857,-2.079100464295632,-0.669893101078018,7.310952186584473,1.762926816940308,0.8828012943267822,0.1255321502685547,0.1368950456380844,0.8717192411422729,XTrueNorthZVertical,0.6863062995749147,-0.4687658908910022,0.5508645673502376,-0.07609514477263421,-0.6847820281982422,0.6209021806716919,0.3815155923366547,-40.78755950927734,7.247713088989258,19.0312385559082,2,192.168.1.118,10.97.20.126,3,0
2015-02-21 18:56:44.415,138,1424570192.424981,39.63826271919505,-106.3701782135017,2518.648,-1,-1,10,65,-9999,1424570204.39305,-41.94108963012695,20.68487548828125,9.513534545898438,114.1453323364258,105.0192718505859,10,22071.94365316667,-0.71868896484375,0.57330322265625,-0.3389892578125,22071.92732325,6.00360878647194,0.131111148890127,-0.05689683879288888,22071.92732325,-2.858927162529663,-1.209175381309123,-0.8362189756703707,5.992710113525391,0.1426829993724823,-0.02314185351133347,-0.4831077456474304,0.1498384028673172,-0.09742756932973862,XTrueNorthZVertical,0.5613348729948142,-0.2575555085137247,0.7118568814821126,-0.3344071479494339,-0.6269233822822571,0.7421141266822815,-0.237136647105217,-40.74608612060547,20.38302612304688,1.622063636779785,2,192.168.1.118,10.97.20.126,3,0
2015-02-21 18:56:44.499,139,1424570192.424981,39.63826271919505,-106.3701782135017,2518.648,-1,-1,10,65,-9999,1424570204.446769,-42.04341506958008,23.402099609375,1.592529296875,105.5702743530273,96.4442138671875,10,22071.99254554167,-0.3095245361328125,-0.1183624267578125,-0.729583740234375,22071.97910129167,4.604917647226761,1.253656984176119,-0.5597770200586983,22071.97910129167,-2.54232489912096,-0.9491405186969472,-0.7012891270386257,4.594018936157227,1.265228748321533,-0.5260223150253296,0.1243416666984558,-1.000748157501221,-0.1682433933019638,XTrueNorthZVertical,0.5002172175387927,-0.1652561107935434,0.7518134099291859,-0.3965473360051364,-0.6210762858390808,0.6452031135559082,-0.4449463188648224,-40.64877319335938,20.11183166503906,-4.640445709228516,2,192.168.1.118,10.97.20.126,3,0
2015-02-21 18:56:44.514,140,1424570192.424981,39.63826271919505,-106.3701782135017,2518.648,-1,-1,10,65,-9999,1424570204.497193,-42.12869644165039,22.16232299804688,-4.847434997558594,98.92786407470703,89.80180358886719,10,22072.041643125,-0.51983642578125,0.1148529052734375,-0.6546630859375,22072.03087829167,2.007889771233024,0.5358296092205967,-0.8905024789785155,22071.97910129167,-2.54232489912096,-0.9491405186969472,-0.7012891270386257,4.594018936157227,1.265228748321533,-0.5260223150253296,0.1243416666984558,-1.000748157501221,-0.1682433933019638,XTrueNorthZVertical,0.5002172175387927,-0.1652561107935434,0.7518134099291859,-0.3965473360051364,-0.6210762858390808,0.6452031135559082,-0.4449463188648224,-40.64877319335938,20.11183166503906,-4.640445709228516,2,192.168.1.118,10.97.20.126,3,0
2015-02-21 18:56:44.560,141,1424570192.424981,39.63826271919505,-106.3701782135017,2518.648,-1,-1,10,65,-9999,1424570204.548197,-42.5209846496582,18.74874877929688,-9.32379150390625,99.78755950927734,90.6614990234375,10,22072.09062070834,-0.747222900390625,0.2263336181640625,-0.4936981201171875,22072.08265633334,1.294316796118903,0.08705394234472816,-1.406319231555494,22072.03087829167,-2.423284350979024,-0.8228230696614762,-0.5740682708426635,1.996991157531738,0.5474012494087219,-0.856748104095459,0.3438742160797119,-0.3070296943187714,-0.1569483578205109,XTrueNorthZVertical,0.4502750148092504,-0.1081204581489445,0.7831765111182798,-0.4149662274448019,-0.6155569553375244,0.5430526733398438,-0.5711247324943542,-40.62838745117188,17.67619895935059,-10.734450340271,2,192.168.1.118,10.97.20.126,3,0
2015-02-21 18:56:44.610,142,1424570192.424981,39.63826271919505,-106.3701782135017,2518.648,-1,-1,10,65,-9999,1424570204.600138,-43.16912460327148,15.14837646484375,-11.32069396972656,102.5647430419922,93.43868255615234,10,22072.13973783333,-0.8228607177734375,0.1661376953125,-0.54412841796875,22072.13443408333,1.5497789257881,0.09654997584362369,-1.300598127865964,22072.13443408333,-2.404613134214513,-0.8029607251896849,-0.3779402816658983,1.538880586624146,0.108121357858181,-1.266844511032104,-0.103221707046032,-0.1964605152606964,0.1225049272179604,XTrueNorthZVertical,0.4203431384536744,-0.02304704804567426,0.8169655789103391,-0.3941418048443606,-0.66864413022995,0.3690069019794464,-0.6455609798431396,-41.81557464599609,10.22401237487793,-15.00898551940918,2,192.168.1.118,10.97.20.126,3,0
2015-02-21 18:56:44.649,143,1424570192.424981,39.63826271919505,-106.3701782135017,2518.648,-1,-1,10,65,-9999,1424570204.600138,-43.16912460327148,15.14837646484375,-11.32069396972656,102.5647430419922,93.43868255615234,10,22072.18870683333,-0.624542236328125,0.1427001953125,-0.6041259765625,22072.13443408333,1.5497789257881,0.09654997584362369,-1.300598127865964,22072.13443408333,-2.404613134214513,-0.8029607251896849,-0.3779402816658983,1.538880586624146,0.108121357858181,-1.266844511032104,-0.103221707046032,-0.1964605152606964,0.1225049272179604,XTrueNorthZVertical,0.4203431384536744,-0.02304704804567426,0.8169655789103391,-0.3941418048443606,-0.66864413022995,0.3690069019794464,-0.6455609798431396,-41.81557464599609,10.22401237487793,-15.00898551940918,2,192.168.1.118,10.97.20.126,3,0
2015-02-21 18:56:44.709,144,1424570192.424981,39.63826271919505,-106.3701782135017,2518.648,-1,-1,10,65,-9999,1424570204.703698,-44.27776718139648,7.31927490234375,-13.50064849853516,106.9343643188477,97.80830383300781,10,22072.23775420833,-0.666595458984375,0.115020751953125,-0.6753997802734375,22072.23798929167,1.198200915532963,0.1828145572412524,-0.9645391562310454,22072.18621120834,-2.396719224576225,-0.7812122564618167,-0.2816954779008993,1.369548916816711,0.4891796708106995,-1.208884358406067,0.001353799249045551,-0.09548958390951157,0.06500836461782455,XTrueNorthZVertical,0.3983697535239077,0.01626783858252728,0.8333067672549288,-0.382931806554736,-0.6763873696327209,0.2779847085475922,-0.6820737719535828,-42.22787475585938,6.716494083404541,-15.81258392333984,2,192.168.1.118,10.97.20.126,3,0
2015-02-21 18:56:44.748,145,1424570192.424981,39.63826271919505,-106.3701782135017,2518.648,-1,-1,10,65,-9999,1424570204.703698,-44.27776718139648,7.31927490234375,-13.50064849853516,106.9343643188477,97.80830383300781,10,22072.28677258333,-0.47662353515625,0.0243682861328125,-0.5753326416015625,22072.28976716667,1.00516940708573,0.4339226848442787,-0.7968359076471206,22072.23798929167,-2.391070824359369,-0.7656261604002054,-0.2013493755995567,1.187302827835083,0.1943857073783875,-0.9307861924171448,0.01239308528602123,-0.0849708765745163,0.03098391741514206,XTrueNorthZVertical,0.3799485717122028,0.04946952294163967,0.8449368640163488,-0.3731937632101873,-0.678988516330719,0.1999916285276413,-0.7063837051391602,-42.14529037475586,2.407382965087891,-17.21399116516113,2,192.168.1.118,10.97.20.126,3,0
2015-02-21 18:56:44.809,146,1424570192.424981,39.63826271919505,-106.3701782135017,2518.648,-1,-1,10,65,-9999,1424570204.754953,-44.32893753051758,3.49810791015625,-14.18292236328125,109.3518981933594,100.2258377075195,10,22072.33582416667,-0.4926910400390625,-0.0240020751953125,-0.672088623046875,22072.28976716667,1.00516940708573,0.4339226848442787,-0.7968359076471206,22072.28976716667,-2.384850052592737,-0.7453026156591506,-0.1331152709081711,0.9942713975906372,0.4454937279224396,-0.763083279132843,0.1955708712339401,-0.1083542034029961,0.1530487388372421,XTrueNorthZVertical,0.3604666828434672,0.0766360296113794,0.8546261094203084,-0.3657935791417316,-0.6721944212913513,0.1327224969863892,-0.7283813953399658,-41.98426055908203,-0.2543220520019531,-17.76512336730957,2,192.168.1.118,10.97.20.126,3,0
2015-02-21 18:56:44.847,147,1424570192.424981,39.63826271919505,-106.3701782135017,2518.648,-1,-1,10,65,-9999,1424570204.808987,-44.1754264831543,0.22039794921875,-14.89846801757812,110.9367141723633,101.8106536865234,10,22072.38496045833,-0.5058746337890625,-0.1368865966796875,-0.6724700927734375,22072.34154433334,1.085593143580597,-0.07402016565377136,-0.9064785160417919,22072.34154433334,-2.378860746652122,-0.7367466890290917,-0.06867091511201744,1.074716687202454,-0.06244812905788422,-0.8726906180381775,0.1776072680950165,-0.09261903166770935,0.06682402640581131,XTrueNorthZVertical,0.3459504876623916,0.104220608167311,0.8607798412121315,-0.3584890930017079,-0.6702983379364014,0.06861695647239685,-0.7389126420021057,-41.60542297363281,-2.536163806915283,-18.46346092224121,2,192.168.1.118,10.97.20.126,3,0
