loggingTime,loggingSample,locationTimestamp_since1970,locationLatitude,locationLongitude,locationAltitude,locationSpeed,locationCourse,locationVerticalAccuracy,locationHorizontalAccuracy,locationFloor,locationHeadingTimestamp_since1970,locationHeadingX,locationHeadingY,locationHeadingZ,locationTrueHeading,locationMagneticHeading,locationHeadingAccuracy,accelerometerTimestamp_sinceReboot,accelerometerAccelerationX,accelerometerAccelerationY,accelerometerAccelerationZ,gyroTimestamp_sinceReboot,gyroRotationX,gyroRotationY,gyroRotationZ,motionTimestamp_sinceReboot,motionYaw,motionRoll,motionPitch,motionRotationRateX,motionRotationRateY,motionRotationRateZ,motionUserAccelerationX,motionUserAccelerationY,motionUserAccelerationZ,motionAttitudeReferenceFrame,motionQuaternionX,motionQuaternionY,motionQuaternionZ,motionQuaternionW,motionGravityX,motionGravityY,motionGravityZ,motionMagneticFieldX,motionMagneticFieldY,motionMagneticFieldZ,motionMagneticFieldCalibrationAccuracy,IP_en0,IP_pdp_ip0,deviceOrientation,state
2015-03-03 08:09:44.812,100,1425398976.594292,37.77903829604779,-122.4388452243697,58.41788,-1,-1,10,65,-9999,1425398984.776399,17.62040710449219,-29.11277770996094,-12.16445922851562,15.94384765625,2.166614532470703,25,220178.8855884584,0.693267822265625,-0.746429443359375,-0.3155059814453125,220178.8467119584,-0.9599859497153369,1.06235067148304,-0.6929688967085043,220178.8467119584,-2.43495461733863,1.225415965237086,1.13238824686528,-0.9792525172233582,1.077063798904419,-0.660846471786499,0.3998705148696899,-0.2147496491670609,-0.03401839733123779,XTrueNorthZVertical,-0.6072087263897288,0.2438023262490329,0.5410393634747059,-0.5283317246623489,0.3994306325912476,-0.9054285883903503,-0.1437159776687622,17.43346786499023,-31.2003173828125,-14.1404857635498,1,192.168.1.8,10.83.46.32,1,0
2015-03-03 08:09:44.858,101,1425398976.594292,37.77903829604779,-122.4388452243697,58.41788,-1,-1,10,65,-9999,1425398984.82798,18.98455429077148,-26.56381225585938,-11.998046875,10.9349479675293,357.15771484375,25,220178.934548875,0.6974334716796875,-0.570892333984375,-0.20654296875,220178.8984821667,-0.9783982465438177,-1.759402460458744,-0.8724592962771197,220178.8984821667,-2.339651519563491,1.110505644872185,1.091443631226696,-0.9976646304130554,-1.744689345359802,-0.8403371572494507,0.3053015470504761,0.3126171231269836,0.02512264996767044,XTrueNorthZVertical,-0.5870010241275571,0.2302047035177974,0.5619347673520785,-0.5354109871813716,0.4132043123245239,-0.8872936367988586,-0.2048711776733398,19.34197235107422,-29.23255920410156,-15.76972961425781,1,192.168.1.8,10.83.46.32,1,0
2015-03-03 08:09:44.910,102,1425398976.594292,37.77903829604779,-122.4388452243697,58.41788,-1,-1,10,65,-9999,1425398984.880654,19.25738906860352,-23.98081970214844,-14.56085205078125,12.01420211791992,358.2369689941406,25,220178.983676125,0.2583770751953125,-0.840118408203125,-0.180206298828125,220178.9502550417,-0.439245811231129,-2.137007544047226,-0.6547251045066393,220178.9502550417,-2.354959510873601,1.04368947350443,1.027757947641899,-0.4585120379924774,-2.122294664382935,-0.6226032376289368,0.1680845022201538,0.1837182641029358,-0.1410017907619476,XTrueNorthZVertical,-0.5642692894399668,0.2272247693792013,0.6033817019236986,-0.5156545459522567,0.4466005563735962,-0.8561425805091858,-0.2599381506443024,19.70016098022461,-27.71070671081543,-17.9264965057373,1,192.168.1.8,10.83.46.32,1,0
2015-03-03 08:09:44.958,103,1425398976.594292,37.77903829604779,-122.4388452243697,58.41788,-1,-1,10,65,-9999,1425398984.932162,17.51810073852539,-22.75730895996094,-19.28707885742188,22.87283325195312,9.095601081848145,25,220179.0327471667,-0.264739990234375,-0.8086700439453125,-0.424957275390625,220179.0020277917,-0.5549218110753749,-2.920483171453746,1.169495234775217,220179.0020277917,-2.279471689009954,0.8070142813574934,1.035447682461182,-0.5741794109344482,-2.905769824981689,1.201618432998657,-0.02195538207888603,-0.08966198563575745,0.2392413318157196,XTrueNorthZVertical,-0.5001587880826618,0.2709606650978628,0.6448630607959545,-0.5104636650109025,0.3684366941452026,-0.8600908517837524,-0.3528430163860321,18.75806617736816,-27.17696952819824,-19.6694221496582,1,192.168.1.8,10.83.46.32,1,0
2015-03-03 08:09:45.008,104,1425398976.594292,37.77903829604779,-122.4388452243697,58.41788,-1,-1,10,65,-9999,1425398984.984038,15.18199920654297,-23.25010681152344,-22.89832305908203,21.8996467590332,8.12241268157959,25,220179.0819991667,0.08563232421875,-0.4149322509765625,-0.25872802734375,220179.0537979167,-0.309105650874445,0.2355331625999159,1.001309954033987,220179.0537979167,-2.185687500888738,0.6949751133497929,1.055231089737295,-0.3283630013465881,0.2502463459968567,1.033432841300964,-0.3629741668701172,0.2538032531738281,0.2155318707227707,XTrueNorthZVertical,-0.4789935791123803,0.2850012753272606,0.6424727437237577,-0.5258975314689134,0.3157176971435547,-0.8700141906738281,-0.3786788582801819,13.45486068725586,-27.54085159301758,-23.19066619873047,1,192.168.1.8,10.83.46.32,1,0
2015-03-03 08:09:45.058,105,1425398976.594292,37.77903829604779,-122.4388452243697,58.41788,-1,-1,10,65,-9999,1425398985.036056,14.34645843505859,-25.20433044433594,-22.21602630615234,19.64102363586426,5.863790512084961,25,220179.1309426667,1.283050537109375,-1.830596923828125,-0.5984039306640625,220179.105570625,1.340282423901453,4.29874759882191,1.56854036303549,220179.105570625,-2.081269760684446,0.7543363532773005,1.113314072658572,1.321025252342224,4.313460350036621,1.60066294670105,0.1235990822315216,0.3153650462627411,0.4955471158027649,XTrueNorthZVertical,-0.5181565037017802,0.2656653030720141,0.5825948456413081,-0.5670264950154139,0.3024720847606659,-0.8971673846244812,-0.3218715786933899,13.77523231506348,-28.18887519836426,-22.20291137695312,1,192.168.1.8,10.83.46.32,1,0
2015-03-03 08:09:45.107,106,1425398976.594292,37.77903829604779,-122.4388452243697,58.41788,-1,-1,10,65,-9999,1425398985.08831,16.13689804077148,-27.12457275390625,-17.24017333984375,9.514781951904297,355.737548828125,25,220179.1801528333,1.069503784179688,-0.5869903564453125,-0.0423583984375,220179.1573435417,-0.2170990278504965,0.7460054835013232,-0.08449677506603406,220179.1573435417,-2.081738808272818,0.9393611660776918,1.140615854818709,-0.2363560348749161,0.7607183456420898,-0.05237447842955589,1.328797817230225,-0.2330009788274765,-0.5152363181114197,XTrueNorthZVertical,-0.5720655814930213,0.2228280437086391,0.5241239463276002,-0.5902395599213064,0.3366226851940155,-0.9088904857635498,-0.2461772710084915,15.29229736328125,-29.52232551574707,-19.2851448059082,1,192.168.1.8,10.83.46.32,1,0
2015-03-03 08:09:45.156,107,1425398976.594292,37.77903829604779,-122.4388452243697,58.41788,-1,-1,10,65,-9999,1425398985.138311,16.44383239746094,-28.89186096191406,-14.91033935546875,4.849773406982422,351.0725402832031,25,220179.2291135,0.0258026123046875,-0.90093994140625,-0.0463714599609375,220179.20911375,0.3791992518170035,-3.649132567814914,1.066338488899324,220179.1573435417,-2.081738808272818,0.9393611660776918,1.140615854818709,-0.2363560348749161,0.7607183456420898,-0.05237447842955589,1.328797817230225,-0.2330009788274765,-0.5152363181114197,XTrueNorthZVertical,-0.5720655814930213,0.2228280437086391,0.5241239463276002,-0.5902395599213064,0.3366226851940155,-0.9088904857635498,-0.2461772710084915,15.29229736328125,-29.52232551574707,-19.2851448059082,1,192.168.1.8,10.83.46.32,1,0
2015-03-03 08:09:45.205,108,1425398976.594292,37.77903829604779,-122.4388452243697,58.41788,-1,-1,10,65,-9999,1425398985.190884,14.19298934936523,-30.18333435058594,-17.07376098632812,5.521862030029297,351.74462890625,25,220179.2782215417,-0.1254730224609375,-0.9754486083984375,-0.0634307861328125,220179.2608864167,0.1783468381965354,-0.84060842227199,0.03313265343778481,220179.2608864167,-2.003926550676028,0.6185624724105784,1.211287784813315,0.1590902507305145,-0.8258958458900452,0.06525427848100662,-0.2799781560897827,-0.2137257009744644,0.2318790704011917,XTrueNorthZVertical,-0.5029308049303195,0.3220974995545259,0.5664726828200192,-0.5678226146021625,0.204004630446434,-0.9360698461532593,-0.2866276204586029,10.96975994110107,-31.02677345275879,-19.85806083679199,1,192.168.1.8,10.83.46.32,1,0
2015-03-03 08:09:45.260,109,1425398976.594292,37.77903829604779,-122.4388452243697,58.41788,-1,-1,10,65,-9999,1425398985.241354,12.65832138061523,-31.33888244628906,-18.67135620117188,9.749431610107422,355.9721984863281,25,220179.3273398333,0.4316864013671875,-0.9066009521484375,-0.104217529296875,220179.312659125,0.4209983640741242,1.453748266357042,0.1056598509844577,220179.312659125,-2.011421934518261,0.6659272284746481,1.222471731014086,0.4017419517040253,1.46846067905426,0.1377811431884766,0.01844332367181778,0.002537439344450831,0.2120318412780762,XTrueNorthZVertical,-0.5164837423863144,0.3147151701912334,0.5532022350738558,-0.5728579303924347,0.2108657658100128,-0.9399458765983582,-0.2683978080749512,10.49685001373291,-31.14910507202148,-19.92205429077148,1,192.168.1.8,10.83.46.32,1,0
2015-03-03 08:09:45.304,110,1425398976.594292,37.77903829604779,-122.4388452243697,58.41788,-1,-1,10,65,-9999,1425398985.293996,12.93115615844727,-31.54278564453125,-17.972412109375,7.988201141357422,354.2109680175781,25,220179.3763882084,0.453125,-0.8441009521484375,-0.1406097412109375,220179.3644297083,0.3701018935332928,-0.2603626123910517,0.096425606220717,220179.3644297083,-2.038183437192511,0.7268166523028843,1.240709446489248,0.3508456647396088,-0.2456503212451935,0.1285466253757477,0.3257431089878082,0.02009560726583004,0.04121267050504684,XTrueNorthZVertical,-0.5311127562518373,0.3111444861761571,0.5393861324322425,-0.5746050511530701,0.2153793275356293,-0.9460141658782959,-0.2422166913747787,11.75192356109619,-31.7098388671875,-18.26792907714844,1,192.168.1.8,10.83.46.32,1,0
2015-03-03 08:09:45.360,111,1425398976.594292,37.77903829604779,-122.4388452243697,58.41788,-1,-1,10,65,-9999,1425398985.346144,12.89704895019531,-31.98460388183594,-17.87255859375,10.37775802612305,356.6005249023438,25,220179.425452,0.1817169189453125,-0.8921966552734375,-0.0587158203125,220179.41620225,0.4616206254455388,-1.562935740521419,0.1169122392222605,220179.3644297083,-2.038183437192511,0.7268166523028843,1.240709446489248,0.3508456647396088,-0.2456503212451935,0.1285466253757477,0.3257431089878082,0.02009560726583004,0.04121267050504684,XTrueNorthZVertical,-0.5311127562518373,0.3111444861761571,0.5393861324322425,-0.5746050511530701,0.2153793275356293,-0.9460141658782959,-0.2422166913747787,11.75192356109619,-31.7098388671875,-18.26792907714844,1,192.168.1.8,10.83.46.32,1,0
2015-03-03 08:09:45.401,112,1425398976.594292,37.77903829604779,-122.4388452243697,58.41788,-1,-1,10,65,-9999,1425398985.346144,12.89704895019531,-31.98460388183594,-17.87255859375,10.37775802612305,356.6005249023438,25,220179.4745595834,-0.0576629638671875,-0.964691162109375,-0.1485748291015625,220179.467975125,0.456652232115887,-0.9617364454998459,0.03202131631489474,220179.467975125,-2.082565613067727,0.6420079823550801,1.280349485300695,0.4373964071273804,-0.9470244646072388,0.0641416534781456,-0.1946335583925247,-0.05251936987042427,0.08687406778335571,XTrueNorthZVertical,-0.5047002938454928,0.3613824727382984,0.5616055705678855,-0.5470644575358828,0.1714859753847122,-0.9581159949302673,-0.2293606400489807,9.808088302612305,-32.33890533447266,-18.31216812133789,1,192.168.1.8,10.83.46.32,1,0
2015-03-03 08:09:45.459,113,1425398976.594292,37.77903829604779,-122.4388452243697,58.41788,-1,-1,10,65,-9999,1425398985.450184,11.14072036743164,-32.44345092773438,-19.15396881103516,15.52307796478271,1.745844602584839,25,220179.523621,-0.026458740234375,-1.056930541992188,-0.1837310791015625,220179.467975125,0.456652232115887,-0.9617364454998459,0.03202131631489474,220179.467975125,-2.082565613067727,0.6420079823550801,1.280349485300695,0.4373964071273804,-0.9470244646072388,0.0641416534781456,-0.1946335583925247,-0.05251936987042427,0.08687406778335571,XTrueNorthZVertical,-0.5047002938454928,0.3613824727382984,0.5616055705678855,-0.5470644575358828,0.1714859753847122,-0.9581159949302673,-0.2293606400489807,9.808088302612305,-32.33890533447266,-18.31216812133789,1,192.168.1.8,10.83.46.32,1,0
2015-03-03 08:09:45.499,114,1425398976.594292,37.77903829604779,-122.4388452243697,58.41788,-1,-1,10,65,-9999,1425398985.450184,11.14072036743164,-32.44345092773438,-19.15396881103516,15.52307796478271,1.745844602584839,25,220179.5728286667,0.1619873046875,-0.91650390625,-0.1165313720703125,220179.5715181667,-0.6443896426321508,1.898490842078095,-0.3990549819563072,220179.5197452917,-2.102313584172222,0.6619019582899932,1.274766643789338,-0.287375271320343,0.6606906056404114,-0.1378311663866043,-0.1697779893875122,-0.2273051142692566,0.02763570286333561,XTrueNorthZVertical,-0.5061393045709237,0.3588357394172698,0.5636951438052467,-0.5452593118304259,0.1792994737625122,-0.9565022587776184,-0.2301198393106461,9.026185989379883,-32.62819290161133,-18.20076751708984,1,192.168.1.8,10.83.46.32,1,0
2015-03-03 08:09:45.559,115,1425398976.594292,37.77903829604779,-122.4388452243697,58.41788,-1,-1,10,65,-9999,1425398985.557475,13.18694305419922,-31.25389099121094,-17.55638122558594,11.2537956237793,357.4765625,25,220179.62179025,0.576263427734375,-0.989288330078125,-0.1640167236328125,220179.6232907917,-0.3723788962653106,1.387147401184122,-0.551768095712503,220179.5715181667,-2.077781214531826,0.7045551491690872,1.24759235759029,-0.6636450886726379,1.913202524185181,-0.3669352531433105,-0.03752962872385979,-0.04153866693377495,0.1427867710590363,XTrueNorthZVertical,-0.5194221505302562,0.3304671672776862,0.5543523147173384,-0.5600764303732111,0.2057120054960251,-0.9482226967811584,-0.2419841587543488,10.1094970703125,-32.21027374267578,-18.37485122680664,1,192.168.1.8,10.83.46.32,1,0
2015-03-03 08:09:45.598,116,1425398976.594292,37.77903829604779,-122.4388452243697,58.41788,-1,-1,10,65,-9999,1425398985.557475,13.18694305419922,-31.25389099121094,-17.55638122558594,11.2537956237793,357.4765625,25,220179.67103375,0.50054931640625,-0.9922943115234375,-0.0586395263671875,220179.6232907917,-0.3723788962653106,1.387147401184122,-0.551768095712503,220179.6232907917,-2.08447612758514,0.796947143137728,1.210366142373967,-0.3916341364383698,1.401858925819397,-0.5196486711502075,0.3240198493003845,-0.05354313552379608,0.08246681094169617,XTrueNorthZVertical,-0.5399734654812027,0.2918679321965035,0.5432115587373653,-0.5728551169255308,0.2522435784339905,-0.9357451796531677,-0.2464835345745087,11.51885604858398,-31.72734260559082,-18.38560676574707,1,192.168.1.8,10.83.46.32,1,0
2015-03-03 08:09:45.662,117,1425398985.596324,37.77904080624525,-122.4388487258731,58.41788,-1,-1,10,75.65068897437159,-9999,1425398985.631756,14.80685806274414,-29.63954162597656,-16.40811157226562,8.552654266357422,354.7754211425781,25,220179.7199717917,0.25250244140625,-0.79974365234375,-0.1782684326171875,220179.6750612917,-0.1047431909372525,-0.7442704340511366,-0.00548744342610827,220179.6750612917,-2.083157402313457,0.8000060364295264,1.191785912088228,-0.1239982470870018,-0.729559063911438,0.02663160860538483,0.2351250499486923,-0.06326307356357574,0.1991412788629532,XTrueNorthZVertical,-0.5391960007726577,0.2835088542511741,0.5476876436945186,-0.5735230274874654,0.2654242515563965,-0.9290312528610229,-0.2577807903289795,13.79908180236816,-30.789306640625,-18.410400390625,1,192.168.1.8,10.83.46.32,1,0
2015-03-03 08:09:45.696,118,1425398985.596324,37.77904080624525,-122.4388487258731,58.41788,-1,-1,10,75.65068897437159,-9999,1425398985.683906,13.83490371704102,-29.55458068847656,-17.42325592041016,9.893230438232422,356.1159973144531,25,220179.7691882084,0.1859130859375,-1.0712890625,-0.2795867919921875,220179.778606625,0.1573379593052273,-0.4124810422758327,0.09942432560814622,220179.7268339167,-2.052542357640424,0.7236031249495355,1.195896171394656,0.06150255352258682,-1.100133657455444,0.2179849147796631,0.01005883514881134,0.1308005303144455,0.09615575522184372,XTrueNorthZVertical,-0.522970056266601,0.2988147011784277,0.5579720599003328,-0.5708583806696876,0.2424436062574387,-0.9305441975593567,-0.2744241952896118,12.85432624816895,-30.76620292663574,-19.11925506591797,1,192.168.1.8,10.83.46.32,1,0
2015-03-03 08:09:45.758,119,1425398985.596324,37.77904080624525,-122.4388487258731,58.41788,-1,-1,10,75.65068897437159,-9999,1425398985.737018,12.72653579711914,-29.53758239746094,-18.87107849121094,12.18503952026367,358.4078063964844,25,220179.8181645417,0.21905517578125,-0.912322998046875,-0.30303955078125,220179.778606625,0.1573379593052273,-0.4124810422758327,0.09942432560814622,220179.778606625,-2.044537877259182,0.67904753500909,1.203124850320934,0.138199657201767,-0.3978222608566284,0.1316172182559967,-0.03983619436621666,-0.1381222158670425,0.0001218430625158362,XTrueNorthZVertical,-0.5125405157247781,0.312166465547497,0.5650616799433417,-0.5661798576334679,0.225749284029007,-0.9331668615341187,-0.2797086238861084,12.03933715820312,-30.87029838562012,-19.4786491394043,1,192.168.1.8,10.83.46.32,1,0
2015-03-03 08:09:45.794,120,1425398985.596324,37.77904080624525,-122.4388487258731,58.41788,-1,-1,10,75.65068897437159,-9999,1425398985.787817,12.77769470214844,-30.06439208984375,-19.12069702148438,12.03843307495117,358.2611999511719,25,220179.8673892083,0.254608154296875,-0.8288116455078125,-0.1998748779296875,220179.830377,-0.03219415546964088,0.02488724038679048,-0.180382558533792,220179.830377,-2.047553669150906,0.6635363499247513,1.2085670396436,-0.05133224651217461,0.03954585641622543,-0.1481900215148926,0.03353272005915642,-0.01764961145818233,0.02007715776562691,XTrueNorthZVertical,-0.508337848219851,0.3193852438593955,0.5682434164322149,-0.5627478418933426,0.2182525545358658,-0.9351091980934143,-0.2791714072227478,11.02371406555176,-31.11466217041016,-19.68995666503906,1,192.168.1.8,10.83.46.32,1,0
2015-03-03 08:09:45.860,121,1425398985.596324,37.77904080624525,-122.4388487258731,58.41788,-1,-1,10,75.65068897437159,-9999,1425398985.843,13.42566680908203,-29.96241760253906,-18.75457763671875,11.8170280456543,358.039794921875,25,220179.9163213334,0.459320068359375,-0.964874267578125,-0.1997833251953125,220179.882149875,0.2463887398352969,0.446233679615388,-0.3113938388830411,220179.882149875,-2.079104287773455,0.7201661909304736,1.200825957802387,0.2272508293390274,0.4608921706676483,-0.2792016267776489,0.0509733185172081,0.08477336168289185,0.05470212921500206,XTrueNorthZVertical,-0.5185257008246144,0.3085919757587847,0.5649101451811753,-0.5628309104474448,0.238470658659935,-0.9323380589485168,-0.2718041837215424,11.70512199401855,-30.96056365966797,-19.53899765014648,1,192.168.1.8,10.83.46.32,1,0
2015-03-03 08:09:45.892,122,1425398985.596324,37.77904080624525,-122.4388487258731,58.41788,-1,-1,10,75.65068897437159,-9999,1425398985.843,13.42566680908203,-29.96241760253906,-18.75457763671875,11.8170280456543,358.039794921875,25,220179.9655331667,0.155242919921875,-0.90655517578125,-0.157135009765625,220179.9339225,0.3383173322393061,-0.5125919308130014,-0.1870505812711324,220179.9339225,-2.1267472451562,0.7612959250199054,1.204202604260094,0.3191795945167542,-0.497933566570282,-0.1548586636781693,0.1706511378288269,0.0002498639514669776,0.01987949199974537,XTrueNorthZVertical,-0.5231269569419654,0.3107958463932461,0.5664990197530105,-0.5557184585797988,0.2472718358039856,-0.9335536956787109,-0.2594882547855377,12.19459533691406,-30.9878044128418,-19.19339752197266,1,192.168.1.8,10.83.46.32,1,0
2015-03-03 08:09:45.958,123,1425398985.596324,37.77904080624525,-122.4388487258731,58.41788,-1,-1,10,75.65068897437159,-9999,1425398985.916955,14.17595672607422,-29.69052124023438,-18.18876647949219,13.70945358276367,359.9322204589844,25,220180.014487875,0.345611572265625,-0.945098876953125,-0.0479888916015625,220179.985693,-0.03117443108824955,0.02216522343662049,-0.552171298301541,220179.985693,-2.170504945081902,0.7764838740401864,1.200805490663252,-0.05031194537878036,0.03682340309023857,-0.51997971534729,-0.08455148339271545,0.0325809046626091,0.1563708335161209,XTrueNorthZVertical,-0.5202974514915049,0.3167153857059439,0.5756182722635849,-0.545569012011267,0.2534052431583405,-0.9323306679725647,-0.2579638659954071,12.06403255462646,-31.16531944274902,-18.98738479614258,1,192.168.1.8,10.83.46.32,1,0
2015-03-03 08:09:45.990,124,1425398985.596324,37.77904080624525,-122.4388487258731,58.41788,-1,-1,10,75.65068897437159,-9999,1425398985.971714,14.46583557128906,-29.36764526367188,-18.33853149414062,15.8386869430542,2.061453819274902,25,220180.06359775,0.5328521728515625,-0.9430084228515625,-0.1397857666015625,220180.037465625,-0.001122522399468399,0.5431405190450823,-0.4063600328263946,220180.037465625,-2.210068538049784,0.844183686358483,1.18063955912513,-0.02025984600186348,0.5577985644340515,-0.3741687834262848,0.1258382201194763,0.04884236678481102,0.1893321126699448,XTrueNorthZVertical,-0.5321284076420091,0.3008383086803887,0.5747129893539165,-0.5440961913859279,0.2842722535133362,-0.9248494505882263,-0.2526713311672211,13.19260787963867,-30.80587196350098,-18.82265281677246,1,192.168.1.8,10.83.46.32,1,0
2015-03-03 08:09:46.056,125,1425398985.596324,37.77904080624525,-122.4388487258731,58.41788,-1,-1,10,75.65068897437159,-9999,1425398986.046191,15.28432846069336,-28.17811584472656,-17.87255859375,19.25141906738281,5.474186420440674,25,220180.11264825,0.30194091796875,-0.9341583251953125,-0.1152191162109375,220180.0892385833,-0.2116680434394979,-0.1471015670232898,-0.1647098555186757,220180.0892385833,-2.22957171001571,0.864658151690029,1.168164145052227,-0.2308052033185959,-0.1324436664581299,-0.1325189024209976,0.224197119474411,-0.01348467171192169,0.1107723489403725,XTrueNorthZVertical,-0.5343028168302882,0.2956137694913397,0.5783192578630389,-0.5409989380776717,0.298141747713089,-0.920032799243927,-0.2542659938335419,13.82458591461182,-30.63413238525391,-18.64858627319336,1,192.168.1.8,10.83.46.32,1,0
2015-03-03 08:09:46.089,126,1425398985.596324,37.77904080624525,-122.4388487258731,58.41788,-1,-1,10,75.65068897437159,-9999,1425398986.046191,15.28432846069336,-28.17811584472656,-17.87255859375,19.25141906738281,5.474186420440674,25,220180.1617551667,0.55291748046875,-1.107437133789062,-0.1719818115234375,220180.1410089167,-0.3067817765072418,0.3284726909537192,-0.3037585560377838,220180.1410089167,-2.214097438680439,0.8539319108790258,1.145320166644354,-0.3259187340736389,0.3431304395198822,-0.2715679407119751,0.02605612576007843,0.01750123500823975,0.1231794357299805,XTrueNorthZVertical,-0.5319057970153207,0.285449432714906,0.5838403683332969,-0.5428860696046263,0.3111630976200104,-0.9108422994613647,-0.2711896896362305,14.35982131958008,-30.01728630065918,-19.23790168762207,1,192.168.1.8,10.83.46.32,1,0
2015-03-03 08:09:46.155,127,1425398985.596324,37.77904080624525,-122.4388487258731,58.41788,-1,-1,10,75.65068897437159,-9999,1425398986.149573,16.52910995483398,-26.69969177246094,-17.38995361328125,15.66290950775146,1.885676145553589,25,220180.2108137917,0.4813385009765625,-1.024032592773438,-0.260345458984375,220180.1927816667,-0.3643366824054893,0.5324822820464762,0.01289822179147177,220180.1927816667,-2.184181287990672,0.854898744654934,1.128909686204012,-0.3834734261035919,0.5471398830413818,0.0450884997844696,0.07126032561063766,-0.09008735418319702,0.01518926676362753,XTrueNorthZVertical,-0.5351212727346618,0.2707662900275668,0.5802843425037056,-0.5509999431022377,0.3226605653762817,-0.9039464592933655,-0.2806616723537445,15.01684761047363,-29.56913566589355,-19.42934036254883,1,192.168.1.8,10.83.46.32,1,0
2015-03-03 08:09:46.187,128,1425398985.596324,37.77904080624525,-122.4388487258731,58.41788,-1,-1,10,75.65068897437159,-9999,1425398986.149573,16.52910995483398,-26.69969177246094,-17.38995361328125,15.66290950775146,1.885676145553589,25,220180.260028125,0.5262451171875,-0.843353271484375,-0.119293212890625,220180.2445543334,-0.1507189387319444,0.5421144030770748,-0.02320092678455231,220180.2445543334,-2.154967250935592,0.8625198187360756,1.121539884868548,-0.1698555052280426,0.5567718148231506,0.008989029563963413,0.1885154545307159,-0.00113096961285919,0.06660881638526917,XTrueNorthZVertical,-0.5405782959608445,0.2579045679712442,0.5723058101713561,-0.5601128593433892,0.3298408687114716,-0.9007702469825745,-0.2825206816196442,15.32827758789062,-29.35549163818359,-19.50994491577148,1,192.168.1.8,10.83.46.32,1,0
2015-03-03 08:09:46.261,129,1425398985.596324,37.77904080624525,-122.4388487258731,58.41788,-1,-1,10,75.65068897437159,-9999,1425398986.255606,17.48401260375977,-24.96636962890625,-17.58965301513672,11.64109420776367,357.8638610839844,25,220180.308986375,0.709075927734375,-0.702850341796875,-0.3459625244140625,220180.2963248334,-0.5272763347475893,-0.1862098213149944,-0.5154407142310591,220180.2445543334,-2.154967250935592,0.8625198187360756,1.121539884868548,-0.1698555052280426,0.5567718148231506,0.008989029563963413,0.1885154545307159,-0.00113096961285919,0.06660881638526917,XTrueNorthZVertical,-0.5405782959608445,0.2579045679712442,0.5723058101713561,-0.5601128593433892,0.3298408687114716,-0.9007702469825745,-0.2825206816196442,15.32827758789062,-29.35549163818359,-19.50994491577148,1,192.168.1.8,10.83.46.32,1,0
2015-03-03 08:09:46.285,130,1425398985.596324,37.77904080624525,-122.4388487258731,58.41788,-1,-1,10,75.65068897437159,-9999,1425398986.255606,17.48401260375977,-24.96636962890625,-17.58965301513672,11.64109420776367,357.8638610839844,25,220180.3580943334,0.247344970703125,-0.6149139404296875,-0.447265625,220180.348097625,-0.6011004917451308,-1.412906294195696,-0.9980885943794275,220180.348097625,-2.156087168555425,0.8213327075747956,1.044681940099164,-0.6202366948127747,-1.39824914932251,-0.9658992290496826,0.2046142220497131,0.3656498789787292,-0.09852186590433121,XTrueNorthZVertical,-0.5212130881895798,0.2393403936948398,0.6058454586046523,-0.5513659299739901,0.3676208853721619,-0.8647648692131042,-0.3421061933040619,16.48373031616211,-27.70877838134766,-20.92484283447266,1,192.168.1.8,10.83.46.32,1,0
2015-03-03 08:09:46.334,131,1425398985.596324,37.77904080624525,-122.4388487258731,58.41788,-1,-1,10,75.65068897437159,-9999,1425398986.330309,17.02361297607422,-23.11407470703125,-20.30225372314453,19.2313060760498,5.454072952270508,25,220180.407157,-0.1058807373046875,-0.5130615234375,-0.0548248291015625,220180.399870375,-0.2439218537175565,0.1398247456607573,0.182835596213864,220180.348097625,-2.156087168555425,0.8213327075747956,1.044681940099164,-0.6202366948127747,-1.39824914932251,-0.9658992290496826,0.2046142220497131,0.3656498789787292,-0.09852186590433121,XTrueNorthZVertical,-0.5212130881895798,0.2393403936948398,0.6058454586046523,-0.5513659299739901,0.3676208853721619,-0.8647648692131042,-0.3421061933040619,16.48373031616211,-27.70877838134766,-20.92484283447266,1,192.168.1.8,10.83.46.32,1,0
2015-03-03 08:09:46.384,132,1425398985.596324,37.77904080624525,-122.4388487258731,58.41788,-1,-1,10,75.65068897437159,-9999,1425398986.330309,17.02361297607422,-23.11407470703125,-20.30225372314453,19.2313060760498,5.454072952270508,25,220180.4563712083,0.152069091796875,-0.7883453369140625,-0.333984375,220180.4516407917,-0.1455004745759342,1.969696046459652,0.7492920906025901,220180.399870375,-2.151824987776725,0.7717331167444933,1.032695164895058,-0.2630578279495239,0.1544817537069321,0.2150245904922485,-0.5198559761047363,0.1559703797101974,0.4162956774234772,XTrueNorthZVertical,-0.5052631823790376,0.2470862984788831,0.6207756716110112,-0.5461639488049297,0.3574109375476837,-0.8586834073066711,-0.3673149645328522,16.28848648071289,-26.92721557617188,-22.06692123413086,1,192.168.1.8,10.83.46.32,1,0
2015-03-03 08:09:46.462,133,1425398985.596324,37.77904080624525,-122.4388487258731,58.41788,-1,-1,10,75.65068897437159,-9999,1425398986.433995,18.76289367675781,-23.58987426757812,-17.63958740234375,12.42036056518555,358.6431274414062,25,220180.50532325,1.202590942382812,-1.2545166015625,-0.4927520751953125,220180.5034133334,0.4328273266879291,0.7580190031786707,0.421665485927189,220180.4516407917,-2.132211110507445,0.8414489205830508,1.027920424890893,-0.1646362841129303,1.984352946281433,0.7814807891845703,-0.2707566022872925,0.1098581254482269,-0.02807577326893806,XTrueNorthZVertical,-0.5283039942208093,0.2208346001668286,0.5986734696238591,-0.560104509560591,0.38518226146698,-0.8562265038490295,-0.3442539274692535,17.2346134185791,-26.6685791015625,-21.65857696533203,1,192.168.1.8,10.83.46.32,1,0
2015-03-03 08:09:46.481,134,1425398985.596324,37.77904080624525,-122.4388487258731,58.41788,-1,-1,10,75.65068897437159,-9999,1425398986.433995,18.76289367675781,-23.58987426757812,-17.63958740234375,12.42036056518555,358.6431274414062,25,220180.554485625,0.4651336669921875,-0.5434417724609375,-0.1778717041015625,220180.5551863333,-0.2936230975611603,-0.7946073744469423,-0.09317202231696718,220180.5034133334,-2.086509329555443,0.8668246079624203,1.064596159362751,0.4136916995048523,0.7726756930351257,0.4538538753986359,0.5342126488685608,0.02907317504286766,-0.2657962143421173,XTrueNorthZVertical,-0.5445332374411089,0.2158042471970203,0.568364812352396,-0.5778179091161355,0.3695959448814392,-0.874593198299408,-0.3138241469860077,17.63607788085938,-27.38496780395508,-20.40517425537109,1,192.168.1.8,10.83.46.32,1,0
2015-03-03 08:09:46.532,135,1425398985.596324,37.77904080624525,-122.4388487258731,58.41788,-1,-1,10,75.65068897437159,-9999,1425398986.485769,19.30855560302734,-24.30361938476562,-16.24169921875,6.453777313232422,352.6765441894531,25,220180.6034852084,0.0979156494140625,-1.175933837890625,-0.223175048828125,220180.5551863333,-0.2936230975611603,-0.7946073744469423,-0.09317202231696718,220180.5551863333,-2.07794603139418,0.8560695821173686,1.063907610808735,-0.3127585053443909,-0.7799507975578308,-0.06098399683833122,0.09847947955131531,0.3308173716068268,0.1403038501739502,XTrueNorthZVertical,-0.5423269311514352,0.2163185598936423,0.5690099896974294,-0.5790642691619148,0.3666541874408722,-0.8742591142654419,-0.3181755542755127,17.69143486022949,-27.77188491821289,-19.82610702514648,1,192.168.1.8,10.83.46.32,1,0
2015-03-03 08:09:46.580,136,1425398985.596324,37.77904080624525,-122.4388487258731,58.41788,-1,-1,10,75.65068897437159,-9999,1425398986.537979,18.33660125732422,-24.59251403808594,-16.82415771484375,7.416759490966797,353.6395263671875,25,220180.6528075,0.3675384521484375,-0.7721405029296875,-0.1917266845703125,220180.6587292917,0.04242681932605234,0.6852718285259571,-0.0626346193614646,220180.6069565,-2.080025280581806,0.7881784488428182,1.078722325000925,0.4976591765880585,-0.923659086227417,0.2396519482135773,-0.2370879203081131,-0.2945789694786072,0.1099708676338196,XTrueNorthZVertical,-0.5241827134784799,0.2421972846653284,0.583433239727163,-0.5711205028491189,0.3350035548210144,-0.8813548684120178,-0.3331459164619446,18.33660125732422,-24.59242248535156,-16.82410430908203,1,192.168.1.8,10.83.46.32,1,0
2015-03-03 08:09:46.633,137,1425398985.596324,37.77904080624525,-122.4388487258731,58.41788,-1,-1,10,75.65068897437159,-9999,1425398986.590192,17.4840087890625,-24.93238830566406,-17.22355651855469,9.652904510498047,355.8756713867188,25,220180.7016802917,0.5535125732421875,-0.9527130126953125,-0.2921600341796875,220180.6587292917,0.04242681932605234,0.6852718285259571,-0.0626346193614646,220180.6587292917,-2.094122727297938,0.8285204087225527,1.084851309171067,0.02329177409410477,0.6999281048774719,-0.03044720180332661,0.02335861884057522,0.1120934784412384,0.1239797174930573,XTrueNorthZVertical,-0.5348574654091298,0.2368001033118736,0.575007356359967,-0.5720312567522979,0.3441798388957977,-0.8842339515686035,-0.3157064020633698,18.32326126098633,-24.89501762390137,-16.38794708251953,1,192.168.1.8,10.83.46.32,1,0
2015-03-03 08:09:46.678,138,1425398985.596324,37.77904080624525,-122.4388487258731,58.41788,-1,-1,10,75.65068897437159,-9999,1425398986.641494,17.41580581665039,-25.10231018066406,-17.29013061523438,11.71946334838867,357.9422302246094,25,220180.750883875,0.1976776123046875,-0.8528289794921875,-0.1514892578125,220180.710502125,0.5065947583542519,-1.097463917823516,0.004777977311711161,220180.710502125,-2.121393457748781,0.8366156129169036,1.098410906396067,0.4874599277973175,-1.082807779312134,0.03696506842970848,0.2157209664583206,-0.06222758442163467,0.01268837787210941,XTrueNorthZVertical,-0.5352711129398298,0.2471044908603325,0.5766411881095334,-0.5656051292434695,0.3377915918827057,-0.890485405921936,-0.3048484027385712,18.60583686828613,-24.93472480773926,-16.00471687316895,1,192.168.1.8,10.83.46.32,1,0
2015-03-03 08:09:46.730,139,1425398985.596324,37.77904080624525,-122.4388487258731,58.41788,-1,-1,10,75.65068897437159,-9999,1425398986.69392,17.97851943969727,-25.05133056640625,-17.14035034179688,9.205516815185547,355.4282836914062,25,220180.7998697917,0.469482421875,-0.8606719970703125,-0.240142822265625,220180.7622726667,-0.1475220801594133,0.5738331842921365,-0.5071755937879983,220180.7622726667,-2.134272717467566,0.8260856227778184,1.096754084368683,-0.1665556877851486,0.5884499549865723,-0.4749175012111664,-0.1200100407004356,0.007482408080250025,0.1783912032842636,XTrueNorthZVertical,-0.5304457548610425,0.2528504384299569,0.5835567762000617,-0.5604957285196316,0.3356472551822662,-0.8897303342819214,-0.3093879222869873,17.83379554748535,-25.26568412780762,-16.3606071472168,1,192.168.1.8,10.83.46.32,1,0
2015-03-03 08:09:46.776,140,1425398985.596324,37.77904080624525,-122.4388487258731,58.41788,-1,-1,10,75.65068897437159,-9999,1425398986.762362,18.50712585449219,-24.21865844726562,-16.85745239257812,8.515026092529297,354.73779296875,25,220180.8489914167,0.3700103759765625,-0.7863922119140625,-0.243316650390625,220180.8140453333,-0.3294194447212423,0.7906078391218613,-0.5539106088094717,220180.8140453333,-2.153272983092057,0.8879751727577617,1.076956338646983,-0.3484528660774231,0.8052244186401367,-0.52165287733078,0.1891341358423233,-0.09636377543210983,0.03899185359477997,XTrueNorthZVertical,-0.5442926215826103,0.2328066907073595,0.578031753572691,-0.5616278968466407,0.3677353858947754,-0.8805191516876221,-0.2990931868553162,18.88112258911133,-24.8741455078125,-15.77493858337402,1,192.168.1.8,10.83.46.32,1,0
2015-03-03 08:09:46.828,141,1425398985.596324,37.77904080624525,-122.4388487258731,58.41788,-1,-1,10,75.65068897437159,-9999,1425398986.823917,19.47908020019531,-23.01214599609375,-15.90887451171875,7.886180877685547,354.1089477539062,25,220180.8981644167,0.462005615234375,-0.869537353515625,0.0484466552734375,220180.865818125,-0.5702775979207717,0.4300997170994699,-0.3816903727006636,220180.865818125,-2.141411063374951,0.8990037416295197,1.052289249927636,-0.5893108248710632,0.444716215133667,-0.3494329154491425,0.0248072687536478,0.07734602689743042,0.03369680792093277,XTrueNorthZVertical,-0.546621810225999,0.2167517333353228,0.5788344583707998,-0.5649548373861857,0.3878971934318542,-0.8685600161552429,-0.3084465563297272,19.5863037109375,-24.43591690063477,-15.59908294677734,1,192.168.1.8,10.83.46.32,1,0
2015-03-03 08:09:46.873,142,1425398985.596324,37.77904080624525,-122.4388487258731,58.41788,-1,-1,10,75.65068897437159,-9999,1425398986.823917,19.47908020019531,-23.01214599609375,-15.90887451171875,7.886180877685547,354.1089477539062,25,220180.9471790417,0.664764404296875,-1.087066650390625,-0.395660400390625,220180.9175885417,-0.01466842496804744,0.5796508596934146,-0.09656196006852905,220180.9175885417,-2.132112779058786,0.9178238196185288,1.027530640721115,-0.03370149061083794,0.5942672491073608,-0.06430482864379883,0.09505449235439301,0.1549752950668335,0.3826517164707184,XTrueNorthZVertical,-0.5507484488676823,0.1991090480860159,0.5781509268043786,-0.5681313709675292,0.4105912446975708,-0.8560250997543335,-0.3140634596347809,20.68644523620605,-23.43620300292969,-15.71254253387451,1,192.168.1.8,10.83.46.32,1,0
2015-03-03 08:09:46.913,143,1425398985.596324,37.77904080624525,-122.4388487258731,58.41788,-1,-1,10,75.65068897437159,-9999,1425398986.875257,20.02474212646484,-22.57032775878906,-15.47618865966797,4.626354217529297,350.84912109375,25,220180.9963544584,0.3483123779296875,-0.3805999755859375,-0.098602294921875,220180.9693614584,-0.4468592561554476,-0.2657776178355098,-0.3521122403698075,220180.9693614584,-2.13063383757152,0.9213532710305685,1.002700928961174,-0.465892106294632,-0.2511614263057709,-0.3198554515838623,-0.0602712407708168,-0.1738269180059433,0.146184429526329,XTrueNorthZVertical,-0.549555218921402,0.1878958870592387,0.5838222742535171,-0.5673057067137669,0.4284963309764862,-0.8429272174835205,-0.3253684043884277,21.22599220275879,-23.01657485961914,-15.61291885375977,1,192.168.1.8,10.83.46.32,1,0
2015-03-03 08:09:46.972,144,1425398985.596324,37.77904080624525,-122.4388487258731,58.41788,-1,-1,10,75.65068897437159,-9999,1425398986.926272,20.74091339111328,-21.55075073242188,-15.0767822265625,2.125438690185547,348.3482055664062,25,220181.0453600417,0.4594268798828125,-0.9786529541015625,-0.2111663818359375,220181.021134125,-0.2498247502737171,0.2015882450296569,-0.8266380118256523,220181.021134125,-2.13625373441232,0.9390787734949004,0.9798937422276995,-0.2688574194908142,0.2162043005228043,-0.7943814992904663,0.2404059767723083,-0.08167120069265366,-0.01526193600147963,XTrueNorthZVertical,-0.5520325786563728,0.1753973495419674,0.5869502555290926,-0.5656723567685317,0.4495964646339417,-0.8304381966590881,-0.3289915919303894,21.36739921569824,-22.64594268798828,-15.95820045471191,1,192.168.1.8,10.83.46.32,1,0
2015-03-03 08:09:47.012,145,1425398985.596324,37.77904080624525,-122.4388487258731,58.41788,-1,-1,10,75.65068897437159,-9999,1425398986.980324,21.26952362060547,-20.65011596679688,-14.92701721191406,2.253185272216797,348.4759521484375,25,220181.094545875,0.7100372314453125,-0.657012939453125,-0.2774505615234375,220181.0729047084,-0.1592921869131275,0.6997413153605757,-0.4149223620471084,220181.021134125,-2.13625373441232,0.9390787734949004,0.9798937422276995,-0.2688574194908142,0.2162043005228043,-0.7943814992904663,0.2404059767723083,-0.08167120069265366,-0.01526193600147963,XTrueNorthZVertical,-0.5520325786563728,0.1753973495419674,0.5869502555290926,-0.5656723567685317,0.4495964646339417,-0.8304381966590881,-0.3289915919303894,21.36739921569824,-22.64594268798828,-15.95820045471191,1,192.168.1.8,10.83.46.32,1,0
2015-03-03 08:09:47.071,146,1425398985.596324,37.77904080624525,-122.4388487258731,58.41788,-1,-1,10,75.65068897437159,-9999,1425398987.0306,21.72991943359375,-19.03575134277344,-14.87709808349609,2.808330535888672,349.0310974121094,25,220181.1436517083,0.49432373046875,-0.8082122802734375,-0.117950439453125,220181.1246773333,-0.1499298441009539,-0.2480787818630612,-0.6417696247517308,220181.1246773333,-2.154030280117399,0.9758891842618138,0.9198686131295148,-0.1689621210098267,-0.2334630340337753,-0.6095138192176819,0.2146187573671341,-0.006830888800323009,0.182368203997612,XTrueNorthZVertical,-0.555744754723823,0.1461438214143909,0.5983285555222707,-0.5583840134782447,0.5018271803855896,-0.7955220341682434,-0.3395794928073883,23.33932495117188,-20.77274322509766,-15.74286365509033,1,192.168.1.8,10.83.46.32,1,0
2015-03-03 08:09:47.109,147,1425398985.596324,37.77904080624525,-122.4388487258731,58.41788,-1,-1,10,75.65068897437159,-9999,1425398987.082298,21.91748809814453,-17.35342407226562,-14.82717132568359,3.720165252685547,349.9429321289062,25,220181.1926900833,0.67132568359375,-0.90740966796875,-0.2128448486328125,220181.1764503334,-0.3741669426211898,-0.1479021132469676,-0.8041366974594638,220181.1764503334,-2.16790287826043,0.9750816066103181,0.8957755545322736,-0.3931990265846252,-0.1332865059375763,-0.7718812227249146,-0.03857200965285301,0.1738671809434891,0.01107021700590849,XTrueNorthZVertical,-0.5521864828425433,0.1406073741855933,0.6089084943700753,-0.5518605945133842,0.5172707438468933,-0.7806939482688904,-0.3506393134593964,23.56991577148438,-20.31493186950684,-15.99472808837891,1,192.168.1.8,10.83.46.32,1,0
2015-03-03 08:09:47.168,148,1425398985.596324,37.77904080624525,-122.4388487258731,58.41788,-1,-1,10,75.65068897437159,-9999,1425398987.133695,22.15621566772461,-15.92599487304688,-14.99358367919922,3.796916961669922,350.0196838378906,25,220181.2416884583,0.6949615478515625,-0.4534454345703125,-0.3742523193359375,220181.2282205417,-0.3220781748603299,0.3943603615867156,-0.5585991039085563,220181.2282205417,-2.169079132319877,0.9900218515629864,0.8566305069215067,-0.3411100804805756,0.4089758396148682,-0.5263439416885376,-0.02894802764058113,0.1452272832393646,0.1535928994417191,XTrueNorthZVertical,-0.5528378948137089,0.1211767063823046,0.6154857274189885,-0.548510531379194,0.5475942492485046,-0.755639910697937,-0.3593729436397552,24.51001739501953,-18.83115005493164,-16.39254379272461,1,192.168.1.8,10.83.46.32,1,0
2015-03-03 08:09:47.207,149,1425398985.596324,37.77904080624525,-122.4388487258731,58.41788,-1,-1,10,75.65068897437159,-9999,1425398987.185776,22.61661529541016,-14.61752319335938,-14.84380340576172,5.536540985107422,351.7593078613281,25,220181.2908479584,0.4879608154296875,-0.521026611328125,-0.1729583740234375,220181.2799935,-0.4345461308554662,0.1061602589532836,-0.5878179758083606,220181.2282205417,-2.169079132319877,0.9900218515629864,0.8566305069215067,-0.3411100804805756,0.4089758396148682,-0.5263439416885376,-0.02894802764058113,0.1452272832393646,0.1535928994417191,XTrueNorthZVertical,-0.5528378948137089,0.1211767063823046,0.6154857274189885,-0.548510531379194,0.5475942492485046,-0.755639910697937,-0.3593729436397552,24.51001739501953,-18.83115005493164,-16.39254379272461,1,192.168.1.8,10.83.46.32,1,0
2015-03-03 08:09:47.266,150,1425398985.596324,37.77904080624525,-122.4388487258731,58.41788,-1,-1,10,75.65068897437159,-9999,1425398987.237363,22.94059753417969,-12.59532165527344,-14.49432373046875,4.652904510498047,350.8756713867188,25,220181.3398504583,0.68341064453125,-0.8732452392578125,-0.27862548828125,220181.3317662083,-0.6250894478962375,0.1262061387944191,-0.6809460559673415,220181.3317662083,-2.163468775968662,0.9929362781884359,0.7798333484028922,-0.644120991230011,0.1408213078975677,-0.6486915349960327,0.2625101208686829,-0.1260321736335754,0.1292177140712738,XTrueNorthZVertical,-0.5459404279664298,0.08806207825738174,0.6328765415970508,-0.5419053592492534,0.5955831408500671,-0.7031609416007996,-0.3883882462978363,25.62068176269531,-17.10128402709961,-16.58901214599609,1,192.168.1.8,10.83.46.32,1,0
2015-03-03 08:09:47.306,151,1425398985.596324,37.77904080624525,-122.4388487258731,58.41788,-1,-1,10,75.65068897437159,-9999,1425398987.29075,23.55446243286133,-10.86203002929688,-14.36119079589844,3.776348114013672,349.9991149902344,25,220181.3889195417,0.7547760009765625,-0.482421875,-0.376708984375,220181.3317662083,-0.6250894478962375,0.1262061387944191,-0.6809460559673415,220181.3317662083,-2.163468775968662,0.9929362781884359,0.7798333484028922,-0.644120991230011,0.1408213078975677,-0.6486915349960327,0.2625101208686829,-0.1260321736335754,0.1292177140712738,XTrueNorthZVertical,-0.5459404279664298,0.08806207825738174,0.6328765415970508,-0.5419053592492534,0.5955831408500671,-0.7031609416007996,-0.3883882462978363,25.62068176269531,-17.10128402709961,-16.58901214599609,1,192.168.1.8,10.83.46.32,1,0
2015-03-03 08:09:47.365,152,1425398985.596324,37.77904080624525,-122.4388487258731,58.41788,-1,-1,10,75.65068897437159,-9999,1425398987.341412,23.36688995361328,-9.145721435546875,-15.04351043701172,6.283061981201172,352.5058288574219,25,220181.4381156667,0.5816497802734375,-0.5094757080078125,-0.4860687255859375,220181.4353094583,-0.3711658263887795,-0.4227967967582547,-0.6614261504414967,220181.3835367917,-2.154673938074465,0.9857577580647475,0.7353333591312755,-0.5308629274368286,0.1068323031067848,-0.5514033436775208,0.04785136505961418,0.22002874314785,0.0841604545712471,XTrueNorthZVertical,-0.5388580912319897,0.06973178234953729,0.6434612398928171,-0.5391911392093308,0.6182710528373718,-0.6708344221115112,-0.4095388650894165,26.28232383728027,-15.16916275024414,-17.41277122497559,1,192.168.1.8,10.83.46.32,1,0
2015-03-03 08:09:47.404,153,1425398985.596324,37.77904080624525,-122.4388487258731,58.41788,-1,-1,10,75.65068897437159,-9999,1425398987.39349,23.48625946044922,-7.157501220703125,-14.82717132568359,5.658306121826172,351.8810729980469,25,220181.4870577083,0.6670684814453125,-0.5517120361328125,-0.235626220703125,220181.4870824167,-0.3736449630475342,0.1734751176144535,-0.7425279277498977,220181.4353094583,-2.147164800997934,0.9805135370347721,0.6959113040648771,-0.3901969790458679,-0.40818190574646,-0.6291722059249878,0.008684900589287281,-0.03581003844738007,0.07186970859766006,XTrueNorthZVertical,-0.5325202682719211,0.05326216146713708,0.6523427401862048,-0.5366882439218205,0.6376011371612549,-0.6410850882530212,-0.427170604467392,26.74247360229492,-14.03896331787109,-17.6583194732666,1,192.168.1.8,10.83.46.32,1,0
2015-03-03 08:09:47.463,154,1425398985.596324,37.77904080624525,-122.4388487258731,58.41788,-1,-1,10,75.65068897437159,-9999,1425398987.444862,23.16226959228516,-5.13531494140625,-15.0767822265625,6.403911590576172,352.6266784667969,25,220181.5361499167,0.855010986328125,-0.5909271240234375,-0.2708282470703125,220181.5388528334,-0.04782557948786097,-0.08398598076895687,-0.7304970975254648,220181.4870824167,-2.150533110916156,0.9735760019369402,0.6573179796873948,-0.392675906419754,0.1880898475646973,-0.710274338722229,0.01246495824307203,0.05928383767604828,0.2095459848642349,XTrueNorthZVertical,-0.5251462643913819,0.04043886186469014,0.664116996127247,-0.5305984646640725,0.6546035408973694,-0.610995888710022,-0.4451721906661987,26.78324127197266,-13.3105640411377,-18.15366363525391,1,192.168.1.8,10.83.46.32,1,0
2015-03-03 08:09:47.503,155,1425398985.596324,37.77904080624525,-122.4388487258731,58.41788,-1,-1,10,75.65068897437159,-9999,1425398987.497289,23.24753189086914,-3.2830810546875,-15.59268188476562,9.154399871826172,355.3771667480469,25,220181.5853105,0.6576995849609375,-0.6336822509765625,-0.4104461669921875,220181.5388528334,-0.04782557948786097,-0.08398598076895687,-0.7304970975254648,220181.5388528334,-2.167750256759417,0.9741280019974272,0.6160104637735861,-0.06685633957386017,-0.06937139481306076,-0.6982438564300537,0.1798485964536667,-0.01314357668161392,0.1877804398536682,XTrueNorthZVertical,-0.5195260350592573,0.02807761094699195,0.6778594663551336,-0.5194332549365062,0.6751623749732971,-0.5777835249900818,-0.4586086869239807,27.31954574584961,-11.27070236206055,-18.72651290893555,1,192.168.1.8,10.83.46.32,1,0
2015-03-03 08:09:47.561,156,1425398985.596324,37.77904080624525,-122.4388487258731,58.41788,-1,-1,10,75.65068897437159,-9999,1425398987.548395,22.71892547607422,-1.158905029296875,-16.07528686523438,11.05976486206055,357.2825317382812,25,220181.6342977917,0.89324951171875,-0.69970703125,-0.491363525390625,220181.6423983334,-0.5504684731005444,0.1583997616318419,-0.8445791954572981,220181.5906254583,-2.181804937884213,0.9684463589305405,0.5747627889442611,-0.4651995599269867,-0.01833497919142246,-0.8774061799049377,-0.03390657156705856,-0.09004653990268707,0.06509684771299362,XTrueNorthZVertical,-0.51181947458095,0.01641092042155234,0.6919520017599247,-0.5088948321540658,0.6916061639785767,-0.5436357259750366,-0.4755430221557617,27.45920562744141,-10.18065929412842,-19.14196395874023,1,192.168.1.8,10.83.46.32,1,0
2015-03-03 08:09:47.601,157,1425398985.596324,37.77904080624525,-122.4388487258731,58.41788,-1,-1,10,75.65068897437159,-9999,1425398987.548395,22.71892547607422,-1.158905029296875,-16.07528686523438,11.05976486206055,357.2825317382812,25,220181.6834525417,0.8747100830078125,-0.3507537841796875,-0.256561279296875,220181.6423983334,-0.5504684731005444,0.1583997616318419,-0.8445791954572981,220181.6423983334,-2.186239404775735,0.9865579591626368,0.5303280061170108,-0.5694988369941711,0.1730140596628189,-0.8123265504837036,0.1736925095319748,-0.193890705704689,-0.01556147914379835,XTrueNorthZVertical,-0.511930749535505,-0.005087668317897737,0.6978087713759622,-0.5009630302766426,0.719556987285614,-0.5058163404464722,-0.4758020341396332,27.69628524780273,-9.217436790466309,-19.28790473937988,1,192.168.1.8,10.83.46.32,1,0
2015-03-03 08:09:47.662,158,1425398985.596324,37.77904080624525,-122.4388487258731,58.41788,-1,-1,10,75.65068897437159,-9999,1425398987.652718,22.27557754516602,2.74951171875,-15.30977630615234,13.07877731323242,359.3015441894531,25,220181.732426625,0.892303466796875,-0.505950927734375,-0.39306640625,220181.6941689167,-0.5192828567357165,0.517082553043093,-0.4708258417533977,220181.6941689167,-2.175915700061739,0.9799000945715889,0.4871032230851851,-0.538313090801239,0.5316967368125916,-0.4385735988616943,0.04295460879802704,0.1680801957845688,0.1663516908884048,XTrueNorthZVertical,-0.503278048169268,-0.02358461514114011,0.7057336408350441,-0.4980913732994899,0.7338550686836243,-0.46806800365448,-0.492309957742691,22.67197227478027,1.549173355102539,-15.84593391418457,1,192.168.1.8,10.83.46.32,1,0
2015-03-03 08:09:47.698,159,1425398985.596324,37.77904080624525,-122.4388487258731,58.41788,-1,-1,10,75.65068897437159,-9999,1425398987.652718,22.27557754516602,2.74951171875,-15.30977630615234,13.07877731323242,359.3015441894531,25,220181.781585875,0.7881927490234375,-0.3737030029296875,-0.4019317626953125,220181.7459415834,-0.2803461742626793,-0.007445399459534526,-0.614584076344202,220181.7459415834,-2.17365961294239,0.9824711289042294,0.4489638854853382,-0.2992873787879944,0.007139725610613823,-0.5822634100914001,0.2121782749891281,-0.05923853814601898,0.1560060679912567,XTrueNorthZVertical,-0.4983931577671538,-0.04024190848530639,0.7120464516464701,-0.4929246550864537,0.7494305968284607,-0.4340323209762573,-0.4999696910381317,22.79265594482422,2.149966239929199,-15.60078048706055,1,192.168.1.8,10.83.46.32,1,0
2015-03-03 08:09:47.758,160,1425398985.596324,37.77904080624525,-122.4388487258731,58.41788,-1,-1,10,75.65068897437159,-9999,1425398987.70446,21.78107452392578,4.73773193359375,-14.99358367919922,13.41083908081055,359.6336059570312,25,220181.830572875,0.989471435546875,-0.31695556640625,-0.41949462890625,220181.797714625,-0.3479635680236821,0.01029231866482923,-0.5488569943249374,220181.797714625,-2.175352214968859,0.989467134241064,0.4168647292673816,-0.3669045865535736,0.02487731166183949,-0.5165365934371948,0.03821973502635956,-0.00605403445661068,0.1455262750387192,XTrueNorthZVertical,-0.495956896552558,-0.05451877807350471,0.7168592650303716,-0.4869982233453481,0.7641636729240417,-0.4048956632614136,-0.5021089315414429,22.76816558837891,3.030827522277832,-15.48988819122314,1,192.168.1.8,10.83.46.32,1,0
2015-03-03 08:09:47.796,161,1425398985.596324,37.77904080624525,-122.4388487258731,58.41788,-1,-1,10,75.65068897437159,-9999,1425398987.757011,21.84928131103516,6.437042236328125,-14.96029663085938,13.87685680389404,0.09962372481822968,25,220181.8796332917,1.013885498046875,-0.3520355224609375,-0.374786376953125,220181.849485,-0.324903788776904,-0.1376910209953858,-0.4742160458210686,220181.849485,-2.177455610360898,1.010193866453062,0.3892823071629281,-0.3438446223735809,-0.1231061741709709,-0.4418959617614746,0.1358801573514938,0.04958372190594673,0.07384034246206284,XTrueNorthZVertical,-0.4991231004116362,-0.0701297344073358,0.7173640844576211,-0.480985173492691,0.7835686802864075,-0.3795245289802551,-0.4919159114360809,22.96919822692871,4.2716064453125,-14.88896369934082,1,192.168.1.8,10.83.46.32,1,0
2015-03-03 08:09:47.859,162,1425398985.596324,37.77904080624525,-122.4388487258731,58.41788,-1,-1,10,75.65068897437159,-9999,1425398987.807518,21.83222961425781,7.609619140625,-14.14485931396484,14.33696365356445,0.5597308874130249,25,220181.92872275,0.913818359375,-0.194183349609375,-0.3427886962890625,220181.9012578333,-0.218025275277626,0.07342068809239452,-0.3158272031496959,220181.9012578333,-2.174700560416653,1.008298853495911,0.3683789698239125,-0.2369658946990967,0.08800537884235382,-0.2835074663162231,0.1331275999546051,-0.02988050319254398,0.05599432066082954,XTrueNorthZVertical,-0.4950106471363772,-0.07876001160393384,0.7210037971888255,-0.47845047814288,0.7891746163368225,-0.3601036369800568,-0.4975226521492004,22.84328842163086,4.846489906311035,-14.90663051605225,1,192.168.1.8,10.83.46.32,4,0
2015-03-03 08:09:47.895,163,1425398985.596324,37.77904080624525,-122.4388487258731,58.41788,-1,-1,10,75.65068897437159,-9999,1425398987.858831,21.66170883178711,8.73114013671875,-13.81202697753906,14.03150939941406,0.2542766630649567,25,220181.9778768333,0.9244232177734375,-0.3731842041015625,-0.3873291015625,220181.9530307083,-0.01394963778983505,0.04649826000056548,-0.2555766455960703,220181.9530307083,-2.174704900467577,1.007132885622593,0.356199803555117,-0.03289007022976875,0.06108280271291733,-0.2232572436332703,0.1776669323444366,0.08710316568613052,0.09504799544811249,XTrueNorthZVertical,-0.4926204401620262,-0.08337122418374752,0.7234876411824906,-0.4763821887633426,0.792242705821991,-0.3487150967121124,-0.5007486939430237,22.83657455444336,5.131814956665039,-14.82117462158203,1,192.168.1.8,10.83.46.32,4,0
2015-03-03 08:09:47.962,164,1425398985.596324,37.77904080624525,-122.4388487258731,58.41788,-1,-1,10,75.65068897437159,-9999,1425398987.910146,21.57645034790039,9.835693359375,-13.79538726806641,15.4653263092041,1.688093185424805,25,220182.0268653333,0.967254638671875,-0.3431396484375,-0.48883056640625,220182.0048009167,0.05291780980820149,-0.02477165919548104,-0.07286248952791391,220182.0048009167,-2.174597303677213,1.002049997915591,0.3489291321694257,0.03397754579782486,-0.01018724869936705,-0.04054338485002518,0.07256199419498444,0.1624635607004166,0.1581750512123108,XTrueNorthZVertical,-0.4895875457809285,-0.08510829821994209,0.7260058702303124,-0.4753694403130285,0.7918026447296143,-0.3418916761875153,-0.5061212182044983,22.68619537353516,5.52189826965332,-14.91164112091064,1,192.168.1.8,10.83.46.32,4,0
2015-03-03 08:09:47.992,165,1425398985.596324,37.77904080624525,-122.4388487258731,58.41788,-1,-1,10,75.65068897437159,-9999,1425398987.962534,21.40592956542969,10.4134521484375,-13.99508666992188,16.6224422454834,2.845209121704102,25,220182.0759347917,0.9844207763671875,-0.202056884765625,-0.4268646240234375,220182.0565739583,-0.01174107829783234,-0.2820202373239031,0.0634077350259146,220182.0565739583,-2.174173795704897,1.000164591282392,0.3465340464585907,-0.03068113140761852,-0.2674359977245331,0.09572648257017136,0.08561765402555466,0.07589176297187805,0.154828354716301,XTrueNorthZVertical,-0.4884915533480748,-0.08572615672885701,0.7267903517077209,-0.4751871513695781,0.7915338277816772,-0.3396399319171906,-0.5080540776252747,22.69516563415527,5.60016918182373,-14.86874294281006,1,192.168.1.8,10.83.46.32,4,0
2015-03-03 08:09:48.060,166,1425398985.596324,37.77904080624525,-122.4388487258731,58.41788,-1,-1,10,75.65068897437159,-9999,1425398988.014619,21.35477447509766,10.3284912109375,-14.14485931396484,16.8107738494873,3.033541202545166,25,220182.1250446667,0.8849945068359375,-0.286163330078125,-0.4274444580078125,220182.108346625,0.002582999941267853,-0.2070037831063331,0.1409968028565012,220182.108346625,-2.172497891389058,0.9971171743920065,0.3509894775017179,-0.01635686494410038,-0.1924196779727936,0.1733152270317078,0.1069115400314331,-0.04521095752716064,0.0983978658914566,XTrueNorthZVertical,-0.4880461851403032,-0.08361923961675757,0.7263462417608911,-0.4766968605076223,0.7887030839920044,-0.3438271284103394,-0.5096374750137329,22.62322235107422,5.551667213439941,-14.99602317810059,1,192.168.1.8,10.83.46.32,4,0
2015-03-03 08:09:48.091,167,1425398985.596324,37.77904080624525,-122.4388487258731,58.41788,-1,-1,10,75.65068897437159,-9999,1425398988.06728,21.01373672485352,9.580810546875,-14.17814636230469,17.32146835327148,3.544236183166504,25,220182.1742305,0.8185272216796875,-0.273284912109375,-0.4065399169921875,220182.1601172083,0.01762613167468944,-0.04635950930777236,0.2445570176375404,220182.108346625,-2.172497891389058,0.9971171743920065,0.3509894775017179,-0.01635686494410038,-0.1924196779727936,0.1733152270317078,0.1069115400314331,-0.04521095752716064,0.0983978658914566,XTrueNorthZVertical,-0.4880461851403032,-0.08361923961675757,0.7263462417608911,-0.4766968605076223,0.7887030839920044,-0.3438271284103394,-0.5096374750137329,22.62322235107422,5.551667213439941,-14.99602317810059,1,192.168.1.8,10.83.46.32,4,0
2015-03-03 08:09:48.159,168,1425398985.596324,37.77904080624525,-122.4388487258731,58.41788,-1,-1,10,75.65068897437159,-9999,1425398988.119649,21.44002914428711,8.98602294921875,-14.09494018554688,13.60285568237305,359.8256225585938,25,220182.22322925,0.913360595703125,-0.3002777099609375,-0.4268035888671875,220182.2118899167,0.04996569573984865,0.0878116116748557,0.2484508254673453,220182.2118899167,-2.161279363225783,0.9882647217553265,0.3745384051531233,0.03102619014680386,0.1023954376578331,0.2807686328887939,0.1191340088844299,0.04540840163826942,0.07799647748470306,XTrueNorthZVertical,-0.4882727501644303,-0.07475704170446326,0.7215764435156372,-0.4851067492087365,0.7771825194358826,-0.3658429682254791,-0.5120022296905518,22.63901329040527,4.934999465942383,-15.186598777771,1,192.168.1.8,10.83.46.32,4,0
2015-03-03 08:09:48.190,169,1425398985.596324,37.77904080624525,-122.4388487258731,58.41788,-1,-1,10,75.65068897437159,-9999,1425398988.170273,21.62760543823242,8.3912353515625,-14.24471282958984,13.05448532104492,359.2772521972656,25,220182.2723115833,0.82684326171875,-0.308929443359375,-0.3992767333984375,220182.26366275,0.1251227648629748,0.05471917196953108,0.3090888729595774,220182.2118899167,-2.161279363225783,0.9882647217553265,0.3745384051531233,0.03102619014680386,0.1023954376578331,0.2807686328887939,0.1191340088844299,0.04540840163826942,0.07799647748470306,XTrueNorthZVertical,-0.4882727501644303,-0.07475704170446326,0.7215764435156372,-0.4851067492087365,0.7771825194358826,-0.3658429682254791,-0.5120022296905518,22.63901329040527,4.934999465942383,-15.186598777771,1,192.168.1.8,10.83.46.32,4,0
2015-03-03 08:09:48.257,170,1425398985.596324,37.77904080624525,-122.4388487258731,58.41788,-1,-1,10,75.65068897437159,-9999,1425398988.221949,22.24147033691406,7.6435546875,-14.24471282958984,11.83622360229492,358.0589904785156,25,220182.3214334167,0.92303466796875,-0.314056396484375,-0.40594482421875,220182.31543325,0.2455106956238978,0.05633784128008124,0.3724390837059464,220182.26366275,-2.152763633401693,0.9836003608603252,0.3917801178731301,0.1061834767460823,0.06930284202098846,0.3414063155651093,0.08011326193809509,0.05296157673001289,0.1002158224582672,XTrueNorthZVertical,-0.489128308889252,-0.06876209843013219,0.7174703937425261,-0.4911837957095615,0.76941978931427,-0.3818342685699463,-0.5120505690574646,22.71794128417969,4.710772514343262,-15.13987159729004,1,192.168.1.8,10.83.46.32,4,0
2015-03-03 08:09:48.287,171,1425398985.596324,37.77904080624525,-122.4388487258731,58.41788,-1,-1,10,75.65068897437159,-9999,1425398988.273667,22.32672882080078,6.776885986328125,-14.42776489257812,12.22190475463867,358.4446716308594,25,220182.37049825,0.9076995849609375,-0.2917938232421875,-0.308013916015625,220182.36720625,0.6843828653540888,-0.2096304588894782,0.4016065565967122,220182.31543325,-2.149807598944902,0.9883706115167971,0.4127077170898927,0.2265715897083282,0.07092136144638062,0.4047562181949615,0.1769438534975052,0.1266923695802689,0.08672323822975159,XTrueNorthZVertical,-0.4941570169197003,-0.06224817755323966,0.7116427080135586,-0.4954782325728697,0.765011727809906,-0.4010911583900452,-0.503868043422699,22.37861633300781,7.30327320098877,-14.2083911895752,1,192.168.1.8,10.83.46.32,4,0
2015-03-03 08:09:48.357,172,1425398985.596324,37.77904080624525,-122.4388487258731,58.41788,-1,-1,10,75.65068897437159,-9999,1425398988.325978,22.39493560791016,5.621337890625,-14.59418487548828,12.5990104675293,358.82177734375,25,220182.4196096667,0.845916748046875,-0.404876708984375,-0.333404541015625,220182.4189789583,0.5370176453828811,0.003715376036769545,0.5567255700816856,220182.36720625,-2.155878838232483,0.9890091030763931,0.4421311405609876,0.6654438972473145,-0.195047065615654,0.4339233934879303,0.1192613989114761,0.2108408957719803,0.1522407382726669,XTrueNorthZVertical,-0.499254242752655,-0.04905615801880927,0.7073377957689702,-0.4980079848081591,0.7551435232162476,-0.4278666377067566,-0.4966773986816406,22.52488899230957,6.686254501342773,-14.28082847595215,1,192.168.1.8,10.83.46.32,4,0
2015-03-03 08:09:48.390,173,1425398985.596324,37.77904080624525,-122.4388487258731,58.41788,-1,-1,10,75.65068897437159,-9999,1425398988.378164,22.80418395996094,4.1259765625,-14.62747192382812,11.38645553588867,357.6092224121094,25,220182.468783,1.0126953125,-0.517822265625,-0.3428802490234375,220182.4189789583,0.5370176453828811,0.003715376036769545,0.5567255700816856,220182.4189789583,-2.167683956115818,0.9872479901912046,0.4761980849033136,0.5180789232254028,0.01829861849546432,0.589042067527771,0.117630310356617,0.003066042438149452,0.1190213337540627,XTrueNorthZVertical,-0.5041211245604371,-0.03190566243802639,0.7040103361078244,-0.4992127631899463,0.7416684031486511,-0.4584035575389862,-0.4896878302097321,22.5351676940918,6.126974105834961,-14.51361274719238,1,192.168.1.8,10.83.46.32,4,0
2015-03-03 08:09:48.458,174,1425398985.596324,37.77904080624525,-122.4388487258731,58.41788,-1,-1,10,75.65068897437159,-9999,1425398988.428977,22.92354583740234,1.79791259765625,-14.84381103515625,11.59452438354492,357.8172912597656,25,220182.5177885417,0.77435302734375,-0.451416015625,-0.3406982421875,220182.52252225,0.9334411578660811,-0.5324407367334709,0.7628164215663394,220182.470749375,-2.178100691859637,0.9915120837684543,0.5214571147887406,0.6467622518539429,-0.3200295269489288,0.7673779129981995,0.2870634198188782,-0.0196781437844038,0.1317889094352722,XTrueNorthZVertical,-0.5123681763968307,-0.01201145043584578,0.6963369068030451,-0.5024435340416504,0.7256318926811218,-0.498144119977951,-0.4746691584587097,22.73083877563477,4.530379295349121,-14.79199981689453,1,192.168.1.8,10.83.46.32,4,0
2015-03-03 08:09:48.483,175,1425398985.596324,37.77904080624525,-122.4388487258731,58.41788,-1,-1,10,75.65068897437159,-9999,1425398988.428977,22.92354583740234,1.79791259765625,-14.84381103515625,11.59452438354492,357.8172912597656,25,220182.566864,0.8385467529296875,-0.3927459716796875,-0.2327117919921875,220182.52252225,0.9334411578660811,-0.5324407367334709,0.7628164215663394,220182.52252225,-2.188702265612538,0.9758063340961824,0.5781696401974014,0.9145027995109558,-0.5178577899932861,0.7951322793960571,0.08080349117517471,0.09507597982883453,0.1287009119987488,XTrueNorthZVertical,-0.5147690821227523,0.01769789566753387,0.6910837342954281,-0.5070531180988916,0.6935495138168335,-0.5464919805526733,-0.4693991541862488,22.61750984191895,3.193184852600098,-15.30589580535889,1,192.168.1.8,10.83.46.32,4,0
2015-03-03 08:09:48.560,176,1425398985.596324,37.77904080624525,-122.4388487258731,58.41788,-1,-1,10,75.65068897437159,-9999,1425398988.533,22.44609069824219,-3.537933349609375,-16.97394561767578,15.74576377868652,1.968530774116516,25,220182.6159727084,0.7917633056640625,-0.5213470458984375,-0.1392364501953125,220182.57429525,1.421933078710519,-0.07681408795337348,0.8054821264421719,220182.57429525,-2.221492079777235,0.9814833384308145,0.646733700673328,1.402994871139526,-0.06223127990961075,0.8377977013587952,0.1751044392585754,0.2098369598388672,0.2108399271965027,XTrueNorthZVertical,-0.5248281996122803,0.05272097164828564,0.682834333070395,-0.5054830851992821,0.6634423136711121,-0.6025829315185547,-0.4435517191886902,22.45682716369629,2.210790634155273,-15.71056747436523,1,192.168.1.8,10.83.46.32,4,0
2015-03-03 08:09:48.582,177,1425398985.596324,37.77904080624525,-122.4388487258731,58.41788,-1,-1,10,75.65068897437159,-9999,1425398988.533,22.44609069824219,-3.537933349609375,-16.97394561767578,15.74576377868652,1.968530774116516,25,220182.6650236667,0.561737060546875,-0.7767486572265625,-0.3580780029296875,220182.6260655833,1.875705634739704,-0.7569052692107995,0.9625055664226608,220182.6260655833,-2.279810125101701,0.9868731694244304,0.7297705337646341,1.856767654418945,-0.7423226237297058,0.994820773601532,0.1358591169118881,0.1336023062467575,0.2893789708614349,XTrueNorthZVertical,-0.5332938325169714,0.1007358226682012,0.6769295776686134,-0.4972085527323488,0.6218312978744507,-0.6666986346244812,-0.4108999669551849,22.0219612121582,-0.9902381896972656,-16.43384552001953,1,192.168.1.8,10.83.46.32,4,0
2015-03-03 08:09:48.674,178,1425398985.596324,37.77904080624525,-122.4388487258731,58.41788,-1,-1,10,75.65068897437159,-9999,1425398988.640461,21.49118804931641,-10.57310485839844,-18.47168731689453,20.03001594543457,6.252782821655273,25,220182.714156125,0.5172882080078125,-0.7439727783203125,-0.3877716064453125,220182.677838625,1.591633698112004,-1.092149313552154,1.014290733819252,220182.677838625,-2.336768398020678,0.9875807232089608,0.8156350207951568,1.572695851325989,-1.077566742897034,1.046605587005615,-0.01564832031726837,-0.1028631776571274,0.06906520575284958,XTrueNorthZVertical,-0.5371119941890122,0.1509318084365618,0.6701383993177698,-0.4895353270830127,0.5721058249473572,-0.7281609773635864,-0.3774605989456177,21.62820434570312,-2.529614448547363,-16.78810119628906,1,192.168.1.8,10.83.46.32,4,0
2015-03-03 08:09:48.680,179,1425398985.596324,37.77904080624525,-122.4388487258731,58.41788,-1,-1,10,75.65068897437159,-9999,1425398988.640461,21.49118804931641,-10.57310485839844,-18.47168731689453,20.03001594543457,6.252782821655273,25,220182.7632874583,0.331939697265625,-1.034210205078125,-0.494873046875,220182.7296112917,0.8825825042127289,-0.4245592767676691,1.023174506583538,220182.7296112917,-2.371473227524847,0.9879409519715222,0.8978467132849227,0.8636448979377747,-0.4099768996238708,1.055489063262939,0.004699700977653265,-0.02325022593140602,-0.09849081933498383,XTrueNorthZVertical,-0.5393971342968884,0.1936923365925429,0.6578449589887818,-0.4886451022907701,0.5203857421875,-0.7819865942001343,-0.3430680334568024,20.79344177246094,-4.707566261291504,-17.36347389221191,1,192.168.1.8,10.83.46.32,4,0
2015-03-03 08:09:48.761,180,1425398985.596324,37.77904080624525,-122.4388487258731,58.41788,-1,-1,10,75.65068897437159,-9999,1425398988.691343,20.58744430541992,-13.98873901367188,-19.48682403564453,21.37807846069336,7.600844383239746,25,220182.8122759167,0.594970703125,-0.823944091796875,-0.118804931640625,220182.7813819167,-0.4750352341723769,0.04905462833093254,0.9280298808471491,220182.7813819167,-2.331486820447613,0.9454764556170576,0.9467925338138032,-0.4938935041427612,0.06361598521471024,0.9604107141494751,-0.2157777100801468,-0.09581829607486725,0.0675119012594223,XTrueNorthZVertical,-0.5324148190022039,0.2133675290216712,0.6464868803223008,-0.5030541595487105,0.4737275540828705,-0.8115456104278564,-0.3420175015926361,19.87563514709473,-7.326986312866211,-17.5297737121582,1,192.168.1.8,10.83.46.32,4,0
2015-03-03 08:09:48.779,181,1425398985.596324,37.77904080624525,-122.4388487258731,58.41788,-1,-1,10,75.65068897437159,-9999,1425398988.766884,19.93947982788086,-17.42135620117188,-19.45353698730469,18.85310935974121,5.075876712799072,25,220182.8614561667,0.4449920654296875,-0.762451171875,-0.3266754150390625,220182.8331546667,-0.3391567606148991,1.113329167385445,0.8324189356038874,220182.8331546667,-2.258850251753169,0.9408291985527515,0.9765901347010136,-0.3580148220062256,1.127890348434448,0.8647993803024292,0.05486190691590309,0.1204175129532814,0.03421001136302948,XTrueNorthZVertical,-0.5405566582115846,0.2070971581082615,0.6209356502698599,-0.5285340106300024,0.4523860216140747,-0.8285931944847107,-0.3298185467720032,19.88341522216797,-7.690038681030273,-17.36466789245605,1,192.168.1.8,10.83.46.32,4,0
2015-03-03 08:09:48.865,182,1425398985.596324,37.77904080624525,-122.4388487258731,58.41788,-1,-1,10,75.65068897437159,-9999,1425398988.820483,20.33167266845703,-18.79782104492188,-17.43989562988281,13.59553146362305,359.8182983398438,25,220182.9104367917,0.7349700927734375,-0.5878143310546875,-0.1924896240234375,220182.884927625,-0.8883655585198359,1.73485450679483,0.675822134030029,220182.884927625,-2.162882687113242,0.9254072716964752,0.9859860938558185,-0.9072234630584717,1.749415516853333,0.7082023024559021,0.03077967651188374,0.002029750728979707,0.1704215407371521,XTrueNorthZVertical,-0.5461354949883849,0.1889631518135539,0.5964740651161776,-0.5569987915753002,0.4410068094730377,-0.8338168859481812,-0.3320578932762146,20.47232818603516,-8.242256164550781,-16.40023040771484,1,192.168.1.8,10.83.46.32,4,0
2015-03-03 08:09:48.876,183,1425398985.596324,37.77904080624525,-122.4388487258731,58.41788,-1,-1,10,75.65068897437159,-9999,1425398988.870655,20.70680999755859,-19.88539123535156,-15.84229278564453,8.038188934326172,354.2609558105469,25,220182.95948675,0.364990234375,-0.6373443603515625,-0.155242919921875,220182.936698,-0.1501570117419377,0.3213162444724583,0.6955031608018236,220182.936698,-2.090277450742103,0.9075780238305933,1.00452628602696,-0.1690147221088409,0.3358771800994873,0.7278830409049988,0.08215271681547165,0.2562156617641449,0.2539677023887634,XTrueNorthZVertical,-0.549474306738142,0.1814715111068323,0.5755365469599918,-0.5778440756871125,0.4227606058120728,-0.84390789270401,-0.3302921652793884,21.40420532226562,-8.738368988037109,-14.88353157043457,1,192.168.1.8,10.83.46.32,4,0
2015-03-03 08:09:48.962,184,1425398985.596324,37.77904080624525,-122.4388487258731,58.41788,-1,-1,10,75.65068897437159,-9999,1425398988.922179,20.75796890258789,-21.05792236328125,-14.69402313232422,1.644542694091797,347.8673095703125,25,220183.0085826667,0.5029754638671875,-0.8721923828125,-0.287872314453125,220182.9884710417,0.1683860830874211,0.6178043707343258,0.3889834393458456,220182.9884710417,-2.063656979144532,0.9108164446764691,1.029504295460837,0.1495285481214523,0.6323651075363159,0.421362966299057,0.281004399061203,0.1738924384117126,-0.04007584229111671,XTrueNorthZVertical,-0.555492652526985,0.1829745566031965,0.5597510145874259,-0.5870494375219418,0.407044917345047,-0.8570436835289001,-0.3158964514732361,21.38155174255371,-9.148155212402344,-14.66830253601074,1,192.168.1.8,10.83.46.32,4,0
2015-03-03 08:09:48.974,185,1425398985.596324,37.77904080624525,-122.4388487258731,58.41788,-1,-1,10,75.65068897437159,-9999,1425398988.922179,20.75796890258789,-21.05792236328125,-14.69402313232422,1.644542694091797,347.8673095703125,25,220183.0576400833,0.5930328369140625,-0.9950103759765625,-0.2056427001953125,220183.04024375,0.1543070156686082,-0.2918827217887935,0.372830834702297,220183.04024375,-2.050464715997969,0.8922177384481619,1.05098501211667,0.1354496777057648,-0.2773221135139465,0.405210018157959,-0.2477759271860123,0.2215506136417389,-0.03202853724360466,XTrueNorthZVertical,-0.5538884212917082,0.1931744470868609,0.5548163744172875,-0.5899746233798572,0.386676698923111,-0.8679128885269165,-0.3117825090885162,21.52487182617188,-9.70135498046875,-14.09192276000977,1,192.168.1.8,10.83.46.32,4,0
2015-03-03 08:09:49.058,186,1425398985.596324,37.77904080624525,-122.4388487258731,58.41788,-1,-1,10,75.65068897437159,-9999,1425398989.025135,20.53629684448242,-22.74029541015625,-14.24469757080078,358.9576110839844,345.1803894042969,25,220183.1067319167,0.6652069091796875,-0.7158966064453125,-0.3228607177734375,220183.0920144167,0.08794743289044973,0.4779798913896776,-0.004885302703641355,220183.0920144167,-2.045374079016295,0.9021661655490034,1.058109423963573,0.06909029930830002,0.4925403594970703,0.0274935606867075,0.2301080077886581,0.2688295841217041,0.04306253790855408,XTrueNorthZVertical,-0.5579004427311889,0.1915917627664755,0.5484723625110163,-0.5926362930196273,0.3848974704742432,-0.8714296817779541,-0.3040793836116791,21.26338195800781,-10.26894092559814,-14.08673286437988,1,192.168.1.8,10.83.46.32,4,0
2015-03-03 08:09:49.073,187,1425398985.596324,37.77904080624525,-122.4388487258731,58.41788,-1,-1,10,75.65068897437159,-9999,1425398989.025135,20.53629684448242,-22.74029541015625,-14.24469757080078,358.9576110839844,345.1803894042969,25,220183.155794375,0.442169189453125,-0.5897216796875,-0.170257568359375,220183.143787125,0.01128115037757565,-0.2354860246486215,0.01937902430417959,220183.0920144167,-2.045374079016295,0.9021661655490034,1.058109423963573,0.06909029930830002,0.4925403594970703,0.0274935606867075,0.2301080077886581,0.2688295841217041,0.04306253790855408,XTrueNorthZVertical,-0.5579004427311889,0.1915917627664755,0.5484723625110163,-0.5926362930196273,0.3848974704742432,-0.8714296817779541,-0.3040793836116791,21.26338195800781,-10.26894092559814,-14.08673286437988,1,192.168.1.8,10.83.46.32,4,0
2015-03-03 08:09:49.162,188,1425398985.596324,37.77904080624525,-122.4388487258731,58.41788,-1,-1,10,75.65068897437159,-9999,1425398989.128384,20.55334854125977,-22.28147888183594,-13.62895965576172,0.3033561706542969,346.526123046875,25,220183.2048773333,0.3708343505859375,-0.91461181640625,-0.038787841796875,220183.1955599583,-0.2576355354348105,0.3360411284556154,-0.1939492337588737,220183.1955599583,-2.039523383381343,0.9079021695605166,1.027455917690361,-0.2764922976493835,0.3506013154983521,-0.1615710258483887,0.04249145835638046,-0.249329686164856,0.1859588921070099,XTrueNorthZVertical,-0.5566228487611855,0.1763249292821578,0.5540291002800966,-0.593407360415705,0.4075054824352264,-0.855986475944519,-0.3181610405445099,21.41705322265625,-9.982881546020508,-14.05953884124756,1,192.168.1.8,10.83.46.32,4,0
2015-03-03 08:09:49.172,189,1425398985.596324,37.77904080624525,-122.4388487258731,58.41788,-1,-1,10,75.65068897437159,-9999,1425398989.128384,20.55334854125977,-22.28147888183594,-13.62895965576172,0.3033561706542969,346.526123046875,25,220183.2539348333,0.70477294921875,-0.940277099609375,-0.15777587890625,220183.247330625,-0.2718437661664923,0.2228450642184514,-0.4662883478881207,220183.1955599583,-2.039523383381343,0.9079021695605166,1.027455917690361,-0.2764922976493835,0.3506013154983521,-0.1615710258483887,0.04249145835638046,-0.249329686164856,0.1859588921070099,XTrueNorthZVertical,-0.5566228487611855,0.1763249292821578,0.5540291002800966,-0.593407360415705,0.4075054824352264,-0.855986475944519,-0.3181610405445099,21.41705322265625,-9.982881546020508,-14.05953884124756,1,192.168.1.8,10.83.46.32,4,0
2015-03-03 08:09:49.261,190,1425398985.596324,37.77904080624525,-122.4388487258731,58.41788,-1,-1,10,75.65068897437159,-9999,1425398989.232346,20.72386169433594,-21.60177612304688,-13.29611968994141,359.9542236328125,346.177001953125,25,220183.303015125,0.47491455078125,-0.90899658203125,-0.3432159423828125,220183.2991035,0.2330755975459908,-0.9411126597021633,0.1542228597781617,220183.247330625,-2.028928837906228,0.9055249083469468,1.020827050084096,-0.2907003462314606,0.2374050915241241,-0.433910459280014,0.2442380785942078,0.04286345466971397,0.09848804771900177,XTrueNorthZVertical,-0.5561251545473626,0.1715010590597092,0.5534478343458931,-0.5958252341760913,0.4112032055854797,-0.8525405526161194,-0.3226243853569031,21.74890899658203,-9.488073348999023,-13.8917236328125,1,192.168.1.8,10.83.46.32,4,0
2015-03-03 08:09:49.269,191,1425398985.596324,37.77904080624525,-122.4388487258731,58.41788,-1,-1,10,75.65068897437159,-9999,1425398989.232346,20.72386169433594,-21.60177612304688,-13.29611968994141,359.9542236328125,346.177001953125,25,220183.3521767083,0.309967041015625,-0.5861358642578125,-0.0856170654296875,220183.35087625,-0.1354547646280462,0.6381770204412139,-0.2091351109267235,220183.2991035,-2.042214024854831,0.9112200702968515,1.023461972397843,0.2142191827297211,-0.9265527129173279,0.186600461602211,0.1181311383843422,0.06958251446485519,0.02512219361960888,XTrueNorthZVertical,-0.5568559711722718,0.174532511215276,0.5550532696079914,-0.5927610931886779,0.4112572968006134,-0.8539147973060608,-0.3188996613025665,21.93853759765625,-9.278310775756836,-13.73434448242188,1,192.168.1.8,10.83.46.32,4,0
2015-03-03 08:09:49.365,192,1425398985.596324,37.77904080624525,-122.4388487258731,58.41788,-1,-1,10,75.65068897437159,-9999,1425398989.336703,21.01374435424805,-20.59918212890625,-13.67887878417969,2.235668182373047,348.4584350585938,25,220183.40116375,0.781494140625,-0.8237762451171875,-0.19720458984375,220183.4026467084,-0.2236940799739687,0.5540373752773595,-0.7511808044476742,220183.35087625,-2.040846264468624,0.8899225699613524,1.021321688400018,-0.1543109714984894,0.6527367830276489,-0.1767578423023224,-0.09843415766954422,0.1501622796058655,0.2937314510345459,XTrueNorthZVertical,-0.5507888850465373,0.1796219567336027,0.5611601736372006,-0.5911571974474584,0.4057919383049011,-0.8527989983558655,-0.3287351131439209,21.52791213989258,-9.439104080200195,-14.26432418823242,1,192.168.1.8,10.83.46.32,4,0
2015-03-03 08:09:49.368,193,1425398985.596324,37.77904080624525,-122.4388487258731,58.41788,-1,-1,10,75.65068897437159,-9999,1425398989.336703,21.01374435424805,-20.59918212890625,-13.67887878417969,2.235668182373047,348.4584350585938,25,220183.4502248334,0.533294677734375,-1.077011108398438,-0.208221435546875,220183.4026467084,-0.2236940799739687,0.5540373752773595,-0.7511808044476742,220183.4026467084,-2.055857274001932,0.9388136166151323,0.9834118522595625,-0.2425500750541687,0.5685970187187195,-0.718803882598877,0.3343450129032135,0.008616766892373562,0.1301782727241516,XTrueNorthZVertical,-0.5589542505063456,0.1545273851804663,0.5628215659397128,-0.5890019811387988,0.4471491277217865,-0.8323929905891418,-0.3273828625679016,21.69437026977539,-20.49645233154297,-13.13228225708008,1,192.168.1.8,10.83.46.32,4,0
2015-03-03 08:09:49.461,194,1425398985.596324,37.77904080624525,-122.4388487258731,58.41788,-1,-1,10,75.65068897437159,-9999,1425398989.439887,22.36083602905273,-17.76132202148438,-13.19627380371094,358.134033203125,344.3568115234375,25,220183.4993194584,0.5175628662109375,-0.4088897705078125,-0.2007598876953125,220183.506192625,-0.584538026609819,0.4855768247152376,-1.059500290168328,220183.4544196667,-2.050370714962665,0.9195568411571363,0.9424782662156274,-0.5978283286094666,-0.5529971718788147,-0.4782371520996094,0.06580992043018341,-0.267993837594986,0.1480776965618134,XTrueNorthZVertical,-0.5491059806046261,0.1425940136665347,0.5780009303457383,-0.5865701233887081,0.4674847722053528,-0.8090172410011292,-0.3562991321086884,22.22424507141113,-19.91860580444336,-13.13541030883789,1,192.168.1.8,10.83.46.32,4,0
2015-03-03 08:09:49.465,195,1425398985.596324,37.77904080624525,-122.4388487258731,58.41788,-1,-1,10,75.65068897437159,-9999,1425398989.439887,22.36083602905273,-17.76132202148438,-13.19627380371094,358.134033203125,344.3568115234375,25,220183.54838125,0.561065673828125,-0.7343902587890625,-0.172271728515625,220183.506192625,-0.584538026609819,0.4855768247152376,-1.059500290168328,220183.506192625,-2.037657742187918,0.9233810612250285,0.9074347605513754,-0.6033936738967896,0.500136137008667,-1.027124047279358,0.02639755792915821,0.3790369629859924,0.1706268638372421,XTrueNorthZVertical,-0.5467019852906025,0.1241916551290909,0.5828304949406877,-0.5882193485808562,0.4911653101444244,-0.7879267334938049,-0.3713867366313934,22.38019561767578,-19.04459953308105,-14.12929916381836,1,192.168.1.8,10.83.46.32,4,0
2015-03-03 08:09:49.530,196,1425398985.596324,37.77904080624525,-122.4388487258731,58.41788,-1,-1,10,75.65068897437159,-9999,1425398989.49352,22.66777038574219,-15.92604064941406,-13.62895965576172,0.8848381042480469,347.1076049804688,25,220183.5974857083,0.7365264892578125,-0.8986968994140625,-0.179046630859375,220183.5579632084,-0.6559442996536776,-0.0167981548917838,-0.3506834544449801,220183.5579632084,-2.032297799894666,0.9264695536134773,0.8610243377916933,-0.6747997403144836,-0.002238978631794453,-0.3183074593544006,0.04005999863147736,0.02412022277712822,0.2191550880670547,XTrueNorthZVertical,-0.5418195685037266,0.1035284713873387,0.5928925440114324,-0.5866786666109243,0.5210056900978088,-0.7585104703903198,-0.3914268314838409,23.64022064208984,-17.25595855712891,-14.37285041809082,1,192.168.1.8,10.83.46.32,4,0
2015-03-03 08:09:49.565,197,1425398985.596324,37.77904080624525,-122.4388487258731,58.41788,-1,-1,10,75.65068897437159,-9999,1425398989.543855,23.02585983276367,-13.69992065429688,-13.81201171875,0.3155021667480469,346.5382690429688,25,220183.6465451667,0.715789794921875,-0.394744873046875,-0.3813018798828125,220183.609735875,-0.6737440694314402,0.240711945655684,-0.7705973793232239,220183.609735875,-2.024924671418538,0.9256728964865186,0.8087855456271087,-0.692599356174469,0.2552709579467773,-0.7382217645645142,0.1352145671844482,-0.1532291918992996,0.3233709037303925,XTrueNorthZVertical,-0.5346542741024357,0.08114067277467608,0.6046254521628722,-0.5847983214789502,0.5516293048858643,-0.7234492897987366,-0.415122002363205,23.88034057617188,-16.59850311279297,-14.7453727722168,1,192.168.1.8,10.83.46.32,4,0
2015-03-03 08:09:49.631,198,1425398985.596324,37.77904080624525,-122.4388487258731,58.41788,-1,-1,10,75.65068897437159,-9999,1425398989.596053,23.45215606689453,-11.13392639160156,-13.66223907470703,359.5784912109375,345.80126953125,25,220183.6956474583,0.591156005859375,-0.52105712890625,-0.34814453125,220183.6615089167,-0.5098315643431343,0.7305125438597873,-0.9545056968241719,220183.6615089167,-2.026265345593492,0.941557553621847,0.7594557275468385,-0.5286865830421448,0.7450714111328125,-0.9221304059028625,0.332080602645874,0.04587241634726524,0.1714674085378647,XTrueNorthZVertical,-0.5322651154132345,0.05735722561667546,0.6133498382351166,-0.5806944009741574,0.586315393447876,-0.6885268092155457,-0.4268079996109009,24.61804389953613,-15.25508880615234,-14.98135757446289,1,192.168.1.8,10.83.46.32,4,0
2015-03-03 08:09:49.667,199,1425398985.596324,37.77904080624525,-122.4388487258731,58.41788,-1,-1,10,75.65068897437159,-9999,1425398989.64746,23.91255187988281,-9.315643310546875,-13.31276702880859,0.7482719421386719,346.9710388183594,25,220183.7447187084,0.6370086669921875,-0.66156005859375,-0.2994842529296875,220183.7132792917,-0.4059432481157972,-0.3751760143582208,-0.8215833320766819,220183.7132792917,-2.032321703084075,0.9487470873933065,0.7128697097685446,-0.4247981309890747,-0.3606172800064087,-0.7892082929611206,0.04231707751750946,0.2138370722532272,-0.04741320386528969,XTrueNorthZVertical,-0.5273699822415215,0.03843691731773394,0.6247547128616887,-0.574530303619296,0.6147873997688293,-0.6540073752403259,-0.4408070147037506,25.77489471435547,-13.08834648132324,-15.08499050140381,1,192.168.1.8,10.83.46.32,4,0
2015-03-03 08:09:49.735,200,1425398985.596324,37.77904080624525,-122.4388487258731,58.41788,-1,-1,10,75.65068897437159,-9999,1425398989.698983,24.15127944946289,-6.86865234375,-13.41261291503906,0.9372978210449219,347.1600646972656,25,220183.7938124167,0.7373199462890625,-0.67071533203125,-0.38916015625,220183.7650522084,-0.5318220844122455,-0.2759804542877123,-0.8189686405184421,220183.7650522084,-2.032266903907705,0.9463716414936862,0.6666707818893891,-0.5506057143211365,-0.2614361643791199,-0.7865293025970459,-0.01446479558944702,-0.04764258861541748,0.1267496347427368,XTrueNorthZVertical,-0.5194631825633567,0.02078137427061395,0.6364916503311477,-0.569740757981549,0.6375879645347595,-0.6183730363845825,-0.4594522714614868,26.01315689086914,-12.28115081787109,-15.35239315032959,1,192.168.1.8,10.83.46.32,4,0
2015-03-03 08:09:49.766,201,1425398989.725403,37.77928682424858,-122.4388021797385,56.80972,-1,-1,10,65,-9999,1425398989.751006,24.03191757202148,-4.608551025390625,-13.89522552490234,2.822856903076172,349.0456237792969,25,220183.8428692917,0.724151611328125,-0.504608154296875,-0.2711334228515625,220183.8168250833,-0.4963237449781434,-0.04328755299036596,-0.6842374567585704,220183.8168250833,-2.034610643687328,0.9446353334626375,0.6221766896077908,-0.5151071548461914,-0.02874342910945415,-0.6517984867095947,0.07661588490009308,0.2012288123369217,0.1328989714384079,XTrueNorthZVertical,-0.5117337041235885,0.004213562731939384,0.6479928429888618,-0.5641065087289389,0.6584457755088806,-0.582805335521698,-0.4762217104434967,26.33794021606445,-11.0014181137085,-15.76352500915527,1,192.168.1.8,10.83.46.32,4,0
2015-03-03 08:09:49.828,202,1425398989.725403,37.77928682424858,-122.4388021797385,56.80972,-1,-1,10,65,-9999,1425398989.80359,23.92960357666016,-2.671356201171875,-13.82866668701172,3.381633758544922,349.6044006347656,25,220183.8919780834,0.8614501953125,-0.3356170654296875,-0.1744232177734375,220183.8685955833,-0.6110322183983633,0.2102925207364719,-0.9534233881571637,220183.8685955833,-2.033364876076516,0.9476781338394821,0.5721311054962516,-0.6298154592514038,0.2248365134000778,-0.92098468542099,0.02088756859302521,-0.09916947782039642,0.1378223448991776,XTrueNorthZVertical,-0.5043796286327142,-0.01682728322901821,0.6581736619593093,-0.5586819124194129,0.6827409863471985,-0.5414249897003174,-0.4906360507011414,26.90077590942383,-8.855330467224121,-16.15977668762207,1,192.168.1.8,10.83.46.32,4,0
2015-03-03 08:09:49.861,203,1425398989.725403,37.77928682424858,-122.4388021797385,56.80972,-1,-1,10,65,-9999,1425398989.854952,24.10012054443359,-0.904052734375,-13.62896728515625,4.904338836669922,351.1271057128906,25,220183.9410365,0.84552001953125,-0.5319366455078125,-0.431427001953125,220183.9203685,-0.1476067686820778,0.3579288505066496,-0.8063042442706794,220183.9203685,-2.041169735368875,0.9709060029235103,0.5361610186851027,-0.1663898229598999,0.3724727034568787,-0.773865818977356,0.260441929101944,0.1437893062829971,0.2034409642219543,XTrueNorthZVertical,-0.5060332625771164,-0.0355586963896332,0.6623754160831399,-0.5512936969051976,0.7095745801925659,-0.5108394622802734,-0.4853318333625793,27.24591827392578,-7.955963134765625,-16.04897308349609,1,192.168.1.8,10.83.46.32,4,0
2015-03-03 08:09:49.927,204,1425398989.725403,37.77928682424858,-122.4388021797385,56.80972,-1,-1,10,65,-9999,1425398989.907224,23.89550018310547,0.795257568359375,-12.93000793457031,5.075939178466797,351.2987060546875,25,220183.9901301667,0.777618408203125,-0.543853759765625,-0.5172271728515625,220183.9721415,-0.2512285024842979,0.05367547913832903,-0.586821953560671,220183.9721415,-2.05482746960846,0.9723470707761049,0.4975715665135399,-0.2700113654136658,0.06821916997432709,-0.5543839335441589,0.1137247160077095,0.1261577159166336,0.1218057945370674,XTrueNorthZVertical,-0.500189204864027,-0.04780422203817473,0.6739977929646709,-0.5415279370204771,0.7260274887084961,-0.4772929847240448,-0.4950510263442993,27.69982528686523,-6.923134803771973,-15.7479190826416,1,192.168.1.8,10.83.46.32,4,0
2015-03-03 08:09:49.963,205,1425398989.725403,37.77928682424858,-122.4388021797385,56.80972,-1,-1,10,65,-9999,1425398989.907224,23.89550018310547,0.795257568359375,-12.93000793457031,5.075939178466797,351.2987060546875,25,220184.0391883334,1.039154052734375,-0.4315948486328125,-0.357452392578125,220184.0239119167,-0.5395774758226652,0.003810450887685374,-0.649876020793823,220183.9721415,-2.05482746960846,0.9723470707761049,0.4975715665135399,-0.2700113654136658,0.06821916997432709,-0.5543839335441589,0.1137247160077095,0.1261577159166336,0.1218057945370674,XTrueNorthZVertical,-0.500189204864027,-0.04780422203817473,0.6739977929646709,-0.5415279370204771,0.7260274887084961,-0.4772929847240448,-0.4950510263442993,27.69982528686523,-6.923134803771973,-15.7479190826416,1,192.168.1.8,10.83.46.32,4,0
2015-03-03 08:09:50.027,206,1425398989.725403,37.77928682424858,-122.4388021797385,56.80972,-1,-1,10,65,-9999,1425398990.010333,23.55446624755859,4.737640380859375,-12.19776916503906,6.219615936279297,352.4423828125,25,220184.0882673333,0.9704437255859375,-0.313323974609375,-0.39056396484375,220184.0756849167,-0.1481982567601844,-0.1262804409888323,-0.6044816410650954,220184.0756849167,-2.050853048281254,0.9837322594846812,0.4288896806912665,-0.1669807583093643,-0.1117370277643204,-0.5720441937446594,0.03542427718639374,0.1981794238090515,0.2075764238834381,XTrueNorthZVertical,-0.4918164365553301,-0.07900527325895687,0.6841907211110332,-0.5326892456948452,0.7571629881858826,-0.4158613085746765,-0.5037494897842407,28.18076324462891,-4.406191825866699,-15.79990386962891,1,192.168.1.8,10.83.46.32,4,0
2015-03-03 08:09:50.059,207,1425398989.725403,37.77928682424858,-122.4388021797385,56.80972,-1,-1,10,65,-9999,1425398990.010333,23.55446624755859,4.737640380859375,-12.19776916503906,6.219615936279297,352.4423828125,25,220184.137326375,0.9919586181640625,-0.3329925537109375,-0.412078857421875,220184.1274577084,-0.01583462320939313,0.1416820342049785,-0.3754045135797496,220184.0756849167,-2.050853048281254,0.9837322594846812,0.4288896806912665,-0.1669807583093643,-0.1117370277643204,-0.5720441937446594,0.03542427718639374,0.1981794238090515,0.2075764238834381,XTrueNorthZVertical,-0.4918164365553301,-0.07900527325895687,0.6841907211110332,-0.5326892456948452,0.7571629881858826,-0.4158613085746765,-0.5037494897842407,28.18076324462891,-4.406191825866699,-15.79990386962891,1,192.168.1.8,10.83.46.32,4,0
2015-03-03 08:09:50.113,208,1425398989.725403,37.77928682424858,-122.4388021797385,56.80972,-1,-1,10,65,-9999,1425398990.062547,23.14521789550781,5.8931884765625,-12.19777679443359,7.721416473388672,353.9441833496094,25,220184.1865404584,0.8005218505859375,-0.2920074462890625,-0.404388427734375,220184.1792284167,-0.2434792363443853,-0.5704405833794846,-0.1980009670413202,220184.1274577084,-2.059742425674847,0.988965020152704,0.4072773633861268,-0.03461693972349167,0.1562252938747406,-0.3429674208164215,0.1525124907493591,0.06703982502222061,0.1453040242195129,XTrueNorthZVertical,-0.4900784057415128,-0.08672824844026973,0.6895368779251715,-0.5261561336063959,0.7671194672584534,-0.396110862493515,-0.5046027302742004,28.2670841217041,-3.617979049682617,-15.84579658508301,1,192.168.1.8,10.83.46.32,4,0
2015-03-03 08:09:50.157,209,1425398989.725403,37.77928682424858,-122.4388021797385,56.80972,-1,-1,10,65,-9999,1425398990.113778,22.61661148071289,6.997802734375,-12.01471710205078,9.103740692138672,355.3265075683594,25,220184.235500625,0.8429718017578125,-0.3380126953125,-0.4206085205078125,220184.231001125,-0.163646188979298,0.02254978389802793,-0.269381940054823,220184.1792284167,-2.061142075335859,0.9818130458694028,0.3928383407291009,-0.2622613310813904,-0.5558974742889404,-0.165564239025116,0.1315827816724777,0.006835524924099445,0.08300912380218506,XTrueNorthZVertical,-0.4850393190178101,-0.09020407669258612,0.6944537679312867,-0.5237690937454219,0.7681669592857361,-0.3828120827674866,-0.5132001638412476,28.34449577331543,-2.794182777404785,-15.8741626739502,1,192.168.1.8,10.83.46.32,4,0
2015-03-03 08:09:50.211,210,1425398989.725403,37.77928682424858,-122.4388021797385,56.80972,-1,-1,10,65,-9999,1425398990.165963,22.56545257568359,7.79644775390625,-12.46405029296875,9.474315643310547,355.6970825195312,25,220184.284606375,0.9159698486328125,-0.2624664306640625,-0.4297943115234375,220184.2827742083,-0.06581869476076334,-0.09754892756851241,-0.1588831253696913,220184.2827742083,-2.057275137589044,0.9700772044125681,0.3696724234533155,-0.08460044860839844,-0.08300609141588211,-0.126447007060051,0.1518338918685913,0.05027484893798828,0.1798990517854691,XTrueNorthZVertical,-0.4764716655466968,-0.09720529029621891,0.7006721529371099,-0.5220961916832424,0.7692018747329712,-0.3613100051879883,-0.5270517468452454,28.11626625061035,-2.130413055419922,-16.37510108947754,1,192.168.1.8,10.83.46.32,4,0
2015-03-03 08:09:50.256,211,1425398989.725403,37.77928682424858,-122.4388021797385,56.80972,-1,-1,10,65,-9999,1425398990.217976,22.66776275634766,8.3402099609375,-12.49732971191406,9.811992645263672,356.0347595214844,25,220184.3336607083,0.9424285888671875,-0.3247528076171875,-0.357330322265625,220184.2827742083,-0.06581869476076334,-0.09754892756851241,-0.1588831253696913,220184.2827742083,-2.057275137589044,0.9700772044125681,0.3696724234533155,-0.08460044860839844,-0.08300609141588211,-0.126447007060051,0.1518338918685913,0.05027484893798828,0.1798990517854691,XTrueNorthZVertical,-0.4764716655466968,-0.09720529029621891,0.7006721529371099,-0.5220961916832424,0.7692018747329712,-0.3613100051879883,-0.5270517468452454,28.11626625061035,-2.130413055419922,-16.37510108947754,1,192.168.1.8,10.83.46.32,4,0
2015-03-03 08:09:50.309,212,1425398989.725403,37.77928682424858,-122.4388021797385,56.80972,-1,-1,10,65,-9999,1425398990.271072,22.77007675170898,8.85003662109375,-12.36419677734375,9.583232879638672,355.8059997558594,25,220184.3827845417,0.852935791015625,-0.3724517822265625,-0.459625244140625,220184.3863175834,0.05305469628823156,-0.4288070187063455,0.1159255380383862,220184.3345445833,-2.056988690044351,0.9587420482263348,0.3674803256131906,0.08096262812614441,-0.2265879213809967,0.05424518510699272,0.1786037981510162,0.03451231867074966,0.1788601875305176,XTrueNorthZVertical,-0.4720653402925851,-0.09517907557475469,0.7036955901638861,-0.5224057716499372,0.7638248205184937,-0.3592651188373566,-0.5361905097961426,27.99594497680664,-1.866976737976074,-16.61169815063477,1,192.168.1.8,10.83.46.32,4,0
2015-03-03 08:09:50.356,213,1425398989.725403,37.77928682424858,-122.4388021797385,56.80972,-1,-1,10,65,-9999,1425398990.321464,22.58250427246094,8.59515380859375,-13.17963409423828,10.7315788269043,356.954345703125,25,220184.431834375,0.834564208984375,-0.3841705322265625,-0.5018463134765625,220184.3863175834,0.05305469628823156,-0.4288070187063455,0.1159255380383862,220184.3863175834,-2.057977233625345,0.9440517479624819,0.3744346676043275,0.03427333757281303,-0.4142645001411438,0.1483609676361084,0.09911179542541504,-0.006705357693135738,0.08624923229217529,XTrueNorthZVertical,-0.4682488346214521,-0.08835037974167592,0.706111764826899,-0.5237780356699598,0.75382399559021,-0.3657464385032654,-0.5458744764328003,27.89477920532227,-1.973818778991699,-16.76879119873047,1,192.168.1.8,10.83.46.32,4,0
2015-03-03 08:09:50.408,214,1425398989.725403,37.77928682424858,-122.4388021797385,56.80972,-1,-1,10,65,-9999,1425398990.372963,21.96864318847656,8.119354248046875,-13.57904052734375,11.71738815307617,357.9401550292969,25,220184.4810514167,0.8176422119140625,-0.2754058837890625,-0.407501220703125,220184.438090375,0.0821819554465372,0.03205913320237387,0.1531671827220543,220184.438090375,-2.056014048035358,0.9380725024554196,0.3850546752179162,0.06340076774358749,0.04660152643918991,0.1856023371219635,0.08719217032194138,-0.008560722693800926,0.04619777202606201,XTrueNorthZVertical,-0.468065006837683,-0.0830247356180118,0.7050107843503223,-0.5262906539179926,0.747372031211853,-0.375609815120697,-0.5480440855026245,27.60533714294434,-2.212517738342285,-17.21212196350098,1,192.168.1.8,10.83.46.32,4,0
2015-03-03 08:09:50.456,215,1425398989.725403,37.77928682424858,-122.4388021797385,56.80972,-1,-1,10,65,-9999,1425398990.424175,22.20737075805664,7.677520751953125,-13.47918701171875,8.719463348388672,354.9422302246094,25,220184.5300353334,0.90924072265625,-0.3470458984375,-0.311248779296875,220184.4898610833,0.1970653985503754,0.5315885251846456,0.2284214572249683,220184.4898610833,-2.054820126279007,0.9488442874617625,0.399238565667701,0.1782843917608261,0.5461307168006897,0.2608562707901001,0.06881582736968994,0.1133110150694847,0.1293025016784668,XTrueNorthZVertical,-0.4744630385278332,-0.08051686562375679,0.6994705866824601,-0.528339638480062,0.7488263845443726,-0.3887169063091278,-0.5368037223815918,27.65875053405762,-2.823367118835449,-17.03610992431641,1,192.168.1.8,10.83.46.32,4,0
2015-03-03 08:09:50.506,216,1425398989.725403,37.77928682424858,-122.4388021797385,56.80972,-1,-1,10,65,-9999,1425398990.475627,22.78713226318359,6.7598876953125,-12.91337585449219,7.829845428466797,354.0526123046875,25,220184.5791498334,0.8950958251953125,-0.3683624267578125,-0.3824005126953125,220184.593406875,0.3814924998316707,0.3110769227133216,0.3584249974177314,220184.5416338333,-2.05916567522449,0.9794656090565068,0.4168014126514907,0.3671557307243347,0.3862192630767822,0.2315270602703094,0.1808469444513321,0.06388013809919357,0.1953181624412537,XTrueNorthZVertical,-0.4884998801797186,-0.08060695505670695,0.6898385623102434,-0.5281980306785601,0.7591249942779541,-0.4048377871513367,-0.5097407698631287,27.95802116394043,-3.11961841583252,-16.48708724975586,1,192.168.1.8,10.83.46.32,4,0
2015-03-03 08:09:50.560,217,1425398989.725403,37.77928682424858,-122.4388021797385,56.80972,-1,-1,10,65,-9999,1425398990.527945,23.52036285400391,5.92724609375,-11.86495208740234,5.213573455810547,351.4363403320312,25,220184.62821125,1.012496948242188,-0.402069091796875,-0.340606689453125,220184.593406875,0.3814924998316707,0.3110769227133216,0.3584249974177314,220184.593406875,-2.065078501997917,1.000353213093889,0.4389041867358158,0.3627118766307831,0.3256188631057739,0.3908591270446777,0.123305581510067,0.05983546748757362,0.1209786012768745,XTrueNorthZVertical,-0.4998220135079798,-0.07593971419275626,0.6818325151105348,-0.5286923034821673,0.7618873119354248,-0.4249477684497833,-0.4888222217559814,22.89192581176758,6.60832405090332,-12.80586242675781,1,192.168.1.8,10.83.46.32,4,0
2015-03-03 08:09:50.604,218,1425398989.725403,37.77928682424858,-122.4388021797385,56.80972,-1,-1,10,65,-9999,1425398990.580567,23.96370697021484,4.7037353515625,-11.29913330078125,4.019084930419922,350.2418518066406,25,220184.6773176667,0.845123291015625,-0.510223388671875,-0.288818359375,220184.6451774167,0.4594948902634375,0.02852911317747384,0.562354427361677,220184.6451774167,-2.071315129056021,1.019530888510749,0.4716994765549726,0.4407144486904144,0.04307092726230621,0.5947883129119873,0.2565746009349823,0.04827290028333664,0.08998211473226547,XTrueNorthZVertical,-0.5121442387344131,-0.06651138777235173,0.6718977136664118,-0.5308841608106979,0.7588367462158203,-0.4544008374214172,-0.4665690362453461,23.4275016784668,5.530046463012695,-12.33981800079346,1,192.168.1.8,10.83.46.32,4,0
2015-03-03 08:09:50.656,219,1425398989.725403,37.77928682424858,-122.4388021797385,56.80972,-1,-1,10,65,-9999,1425398990.631843,24.219482421875,3.25927734375,-11.01622772216797,1.474498748779297,347.697265625,25,220184.72638625,0.9670562744140625,-0.5235137939453125,-0.4222259521484375,220184.6969503333,0.4820593215474609,0.1689916859193051,0.712892271139496,220184.6969503333,-2.071794642364064,1.01348957588845,0.5108752721145141,0.4632790684700012,0.1835333555936813,0.7453258037567139,0.07910726964473724,0.01555227674543858,0.2404842674732208,XTrueNorthZVertical,-0.5166069703944953,-0.04931517196924214,0.6652854700610993,-0.5367313211292348,0.7403202056884766,-0.488940954208374,-0.4613704979419708,23.49198532104492,4.950821876525879,-12.46259689331055,1,192.168.1.8,10.83.46.32,4,0
2015-03-03 08:09:50.703,220,1425398989.725403,37.77928682424858,-122.4388021797385,56.80972,-1,-1,10,65,-9999,1425398990.684122,24.66282653808594,1.186126708984375,-11.18264007568359,0.8032035827636719,347.0259704589844,25,220184.775505875,0.7493743896484375,-0.477081298828125,-0.200592041015625,220184.748723125,0.4626121203193753,-0.4415885940420718,0.9472959871211093,220184.748723125,-2.068880482850515,1.013731946155235,0.5614842258559323,0.4438962936401367,-0.4270561337471008,0.9797918796539307,0.2064679563045502,-0.01336375437676907,0.1731706410646439,XTrueNorthZVertical,-0.5247190926765621,-0.03013373262225029,0.6533502717511592,-0.5448809687846595,0.7184892892837524,-0.532443106174469,-0.4475236535072327,23.66853141784668,3.919926643371582,-12.4954080581665,1,192.168.1.8,10.83.46.32,4,0
2015-03-03 08:09:50.758,221,1425398989.725403,37.77928682424858,-122.4388021797385,56.80972,-1,-1,10,65,-9999,1425398990.736188,24.73103332519531,-0.9210205078125,-11.11607360839844,358.2680053710938,344.4907836914062,25,220184.8245510417,0.893035888671875,-0.568023681640625,-0.295501708984375,220184.800493625,0.7130174397107297,0.1930647979608583,1.064154963121568,220184.800493625,-2.062086343329193,1.005243840575154,0.6184684503220761,0.6943017840385437,0.2075971215963364,1.09665060043335,0.1098578721284866,0.1149747520685196,0.1685072928667068,XTrueNorthZVertical,-0.5306981771207551,-0.007050384846364884,0.6407404292739568,-0.554762521237816,0.6879021525382996,-0.5797879695892334,-0.4366194605827332,23.74287796020508,1.741120338439941,-12.84308052062988,1,192.168.1.8,10.83.46.32,4,0
2015-03-03 08:09:50.801,222,1425398989.725403,37.77928682424858,-122.4388021797385,56.80972,-1,-1,10,65,-9999,1425398990.787975,24.90155410766602,-4.217681884765625,-11.21592712402344,356.83203125,343.0548095703125,25,220184.8737683333,0.792724609375,-0.5458526611328125,-0.3267822265625,220184.8522667084,0.6393389576248155,0.01224441574385731,1.278020647092599,220184.8522667084,-2.058247402156747,1.008426814852495,0.6858457067597805,0.6206235289573669,0.02677659504115582,1.310515880584717,0.2474901080131531,0.01943611539900303,0.2479864954948425,XTrueNorthZVertical,-0.5416393485394009,0.01767482822572288,0.6227847581543019,-0.5643169121812485,0.6547010540962219,-0.6333277225494385,-0.4126288294792175,23.85002136230469,0.679905891418457,-12.74419975280762,1,192.168.1.8,10.83.46.32,4,0
2015-03-03 08:09:50.860,223,1425398989.725403,37.77928682424858,-122.4388021797385,56.80972,-1,-1,10,65,-9999,1425398990.839999,24.74808502197266,-7.497406005859375,-11.43227386474609,355.9699096679688,342.1926879882812,25,220184.922727875,0.5833892822265625,-0.663177490234375,-0.1199798583984375,220184.9040396667,0.6246923705777068,-0.9895574241434677,1.419542092683846,220184.9040396667,-2.045297895123281,0.9723112724977665,0.7646380679389193,0.6059771180152893,-0.9750254154205322,1.45203697681427,0.1389777213335037,-0.03001417778432369,0.1491308510303497,XTrueNorthZVertical,-0.5418718599055765,0.05562328691845258,0.6092866239534791,-0.5762384602474195,0.59620600938797,-0.6922758817672729,-0.4065618813037872,23.85229110717773,-1.053210258483887,-12.7145357131958,1,192.168.1.8,10.83.46.32,4,0
2015-03-03 08:09:50.898,224,1425398989.725403,37.77928682424858,-122.4388021797385,56.80972,-1,-1,10,65,-9999,1425398990.891242,24.52641296386719,-11.08299255371094,-12.54726409912109,352.9850463867188,339.2078247070312,25,220184.971941375,0.70458984375,-0.6035003662109375,-0.3212738037109375,220184.9558100417,0.8641803273963904,-0.3850763157105904,1.456450043282927,220184.9558100417,-2.024466699652392,0.9258626175547071,0.8472962750503755,0.8454652428627014,-0.37054443359375,1.488944530487061,0.08013661950826645,0.3327604532241821,0.1434794217348099,XTrueNorthZVertical,-0.5401557711398856,0.0961716540201956,0.5943912374493781,-0.5879471307122597,0.5290400385856628,-0.7494932413101196,-0.3979655206203461,22.833251953125,-4.345391273498535,-13.83692836761475,1,192.168.1.8,10.83.46.32,4,0
2015-03-03 08:09:50.960,225,1425398989.725403,37.77928682424858,-122.4388021797385,56.80972,-1,-1,10,65,-9999,1425398990.942491,23.29868316650391,-14.61758422851562,-13.81202697753906,353.5646057128906,339.7873840332031,25,220185.020895875,0.42333984375,-0.5615081787109375,-0.3139495849609375,220185.0075829584,0.8290705431653307,-1.0765996485794,1.37122116523323,220184.9558100417,-2.024466699652392,0.9258626175547071,0.8472962750503755,0.8454652428627014,-0.37054443359375,1.488944530487061,0.08013661950826645,0.3327604532241821,0.1434794217348099,XTrueNorthZVertical,-0.5401557711398856,0.0961716540201956,0.5943912374493781,-0.5879471307122597,0.5290400385856628,-0.7494932413101196,-0.3979655206203461,22.833251953125,-4.345391273498535,-13.83692836761475,1,192.168.1.8,10.83.46.32,4,0
2015-03-03 08:09:50.996,226,1425398989.725403,37.77928682424858,-122.4388021797385,56.80972,-1,-1,10,65,-9999,1425398990.942491,23.29868316650391,-14.61758422851562,-13.81202697753906,353.5646057128906,339.7873840332031,25,220185.0699990417,0.3260955810546875,-0.720428466796875,-0.173553466796875,220185.0593560833,0.703918217214256,-0.9390742762038167,0.9337341055859898,220185.0593560833,-1.985424677552524,0.8105791169118398,0.9889419303607638,0.685203492641449,-0.9245426654815674,0.9662281274795532,0.08282547444105148,0.04719117283821106,0.1261822283267975,XTrueNorthZVertical,-0.5289695777077701,0.1756166859677094,0.5752296120479857,-0.5987160217453625,0.3982688784599304,-0.8354449868202209,-0.37869992852211,21.35527610778809,-7.466537475585938,-14.82913780212402,1,192.168.1.8,10.83.46.32,4,0
2015-03-03 08:09:51.060,227,1425398989.725403,37.77928682424858,-122.4388021797385,56.80972,-1,-1,10,65,-9999,1425398991.045516,20.04178619384766,-20.99005126953125,-15.99208068847656,1.066234588623047,347.2890014648438,25,220185.1190594167,0.5537109375,-0.963287353515625,-0.227813720703125,220185.1111265,0.546020994080112,-0.06085908986270877,0.5742411805711366,220185.0593560833,-1.985424677552524,0.8105791169118398,0.9889419303607638,0.685203492641449,-0.9245426654815674,0.9662281274795532,0.08282547444105148,0.04719117283821106,0.1261822283267975,XTrueNorthZVertical,-0.5289695777077701,0.1756166859677094,0.5752296120479857,-0.5987160217453625,0.3982688784599304,-0.8354449868202209,-0.37869992852211,21.35527610778809,-7.466537475585938,-14.82913780212402,1,192.168.1.8,10.83.46.32,4,0
2015-03-03 08:09:51.095,228,1425398989.725403,37.77928682424858,-122.4388021797385,56.80972,-1,-1,10,65,-9999,1425398991.045516,20.04178619384766,-20.99005126953125,-15.99208068847656,1.066234588623047,347.2890014648438,25,220185.168259,0.404083251953125,-0.744140625,-0.2669219970703125,220185.162899375,0.5442641067089867,-0.9736269271348318,0.5936178080303351,220185.1111265,-1.965802279015088,0.7624059675814958,1.04463410641578,0.5273064970970154,-0.04632765054702759,0.6067348122596741,0.1326435953378677,-0.07004310190677643,0.0129727516323328,XTrueNorthZVertical,-0.5251269870216564,0.206507647367523,0.5664555619152007,-0.6006033227161748,0.3468638360500336,-0.8647408485412598,-0.3631924688816071,19.82379150390625,-9.793509483337402,-15.58219528198242,1,192.168.1.8,10.83.46.32,4,0
2015-03-03 08:09:51.160,229,1425398989.725403,37.77928682424858,-122.4388021797385,56.80972,-1,-1,10,65,-9999,1425398991.149995,18.06377410888672,-24.45664978027344,-16.75759887695312,3.274944305419922,349.4977111816406,25,220185.2172128333,0.44842529296875,-1.082916259765625,-0.2867279052734375,220185.2146722917,0.02083524078823492,0.05105998863176221,0.446368169250437,220185.162899375,-1.95141174779086,0.7330136134443307,1.087060048752083,0.5255497694015503,-0.9590955972671509,0.6261110901832581,0.1666620522737503,0.213098481297493,0.06505831331014633,XTrueNorthZVertical,-0.5246456612312497,0.2278781863143638,0.5577952371833674,-0.601400824351729,0.311197429895401,-0.8852633833885193,-0.3456369340419769,19.62715911865234,-10.42584609985352,-15.42001152038574,1,192.168.1.8,10.83.46.32,4,0
2015-03-03 08:09:51.193,230,1425398989.725403,37.77928682424858,-122.4388021797385,56.80972,-1,-1,10,65,-9999,1425398991.149995,18.06377410888672,-24.45664978027344,-16.75759887695312,3.274944305419922,349.4977111816406,25,220185.2664095,0.365386962890625,-0.80621337890625,-0.3156280517578125,220185.2664430834,-0.07629743470189811,0.03114620158069471,0.06540350794681998,220185.2146722917,-1.944129974197829,0.7003725853000435,1.116976233265371,0.00212108576670289,0.06559114903211594,0.4788611531257629,0.2372087836265564,-0.2757816314697266,0.08202939480543137,XTrueNorthZVertical,-0.5208618559481293,0.2471868039327588,0.5555630219199102,-0.5991254922443898,0.2825513482093811,-0.8987789154052734,-0.335203230381012,18.82757377624512,-11.35430908203125,-15.75761890411377,1,192.168.1.8,10.83.46.32,4,0
2015-03-03 08:09:51.258,231,1425398989.725403,37.77928682424858,-122.4388021797385,56.80972,-1,-1,10,65,-9999,1425398991.202606,17.67158508300781,-25.42527770996094,-17.10707855224609,0.8187370300292969,347.04150390625,25,220185.3153635,0.440185546875,-0.81597900390625,-0.299102783203125,220185.2664430834,-0.07629743470189811,0.03114620158069471,0.06540350794681998,220185.2664430834,-1.917608239981466,0.6727428392826599,1.129766775326778,-0.0950113832950592,0.04567720368504524,0.09789615869522095,0.09938947856426239,0.09809927642345428,0.01823416166007519,XTrueNorthZVertical,-0.5184946014917232,0.2534408056262692,0.551099180050322,-0.6026780366144069,0.2659974992275238,-0.9043126702308655,-0.3338622152805328,18.21159172058105,-12.14684772491455,-15.89000988006592,1,192.168.1.8,10.83.46.32,4,0
2015-03-03 08:09:51.291,232,1425398989.725403,37.77928682424858,-122.4388021797385,56.80972,-1,-1,10,65,-9999,1425398991.253382,17.31349945068359,-25.64617919921875,-16.89073944091797,1.090435028076172,347.3132019042969,25,220185.3645674583,0.334716796875,-0.9727325439453125,-0.2209930419921875,220185.3699889167,0.1410953398168341,0.02617993877991494,0.03088894021939305,220185.318215875,-1.916189032488787,0.6726910255470858,1.131756391092152,-0.02458443492650986,-0.6227540373802185,0.1060813218355179,0.1753269731998444,0.08918116986751556,0.03336528316140175,XTrueNorthZVertical,-0.5189721464137994,0.2538382902942666,0.5501138057077668,-0.6029998757868377,0.2648585736751556,-0.9051601886749268,-0.3324680626392365,18.27825927734375,-12.15194225311279,-15.80936241149902,1,192.168.1.8,10.83.46.32,1,0
2015-03-03 08:09:51.330,233,1425398989.725403,37.77928682424858,-122.4388021797385,56.80972,-1,-1,10,65,-9999,1425398991.305926,16.88719940185547,-25.96905517578125,-16.40812683105469,358.9124450683594,345.1352233886719,25,220185.413517375,0.314910888671875,-0.8658447265625,-0.25079345703125,220185.3699889167,0.1410953398168341,0.02617993877991494,0.03088894021939305,220185.3699889167,-1.918451575253624,0.6607676407678653,1.137226832228913,0.1223817467689514,0.04071066528558731,0.06338097155094147,0.07688391953706741,-0.06526059657335281,0.1106949150562286,XTrueNorthZVertical,-0.5162542809996967,0.2600721824428209,0.5523101644316253,-0.6006641951510941,0.2578328847885132,-0.9074719548225403,-0.3316879570484161,18.03034019470215,-12.22883987426758,-16.03317642211914,1,192.168.1.8,10.83.46.32,1,0
2015-03-03 08:09:51.389,234,1425398989.725403,37.77928682424858,-122.4388021797385,56.80972,-1,-1,10,65,-9999,1425398991.356988,16.37564468383789,-26.10501098632812,-17.10707092285156,2.861553192138672,349.0843200683594,25,220185.4626135,0.4885101318359375,-0.8939208984375,-0.2478790283203125,220185.421759375,-0.0003374225101130395,0.04097885864137626,-0.1417030731775901,220185.421759375,-1.915103896315813,0.6548195004671128,1.137649999566941,-0.01905082911252975,0.05550944060087204,-0.1092113628983498,0.05928938090801239,0.04180491343140602,0.08211763203144073,XTrueNorthZVertical,-0.5151141626896059,0.2611548459666467,0.5527169721149704,-0.6007990598884694,0.2556215226650238,-0.9076496362686157,-0.3329111039638519,17.86035919189453,-12.3696174621582,-16.11522674560547,1,192.168.1.8,10.83.46.32,1,0
2015-03-03 08:09:51.428,235,1425398989.725403,37.77928682424858,-122.4388021797385,56.80972,-1,-1,10,65,-9999,1425398991.408945,16.78488922119141,-26.10501098632812,-17.47318267822266,3.155956268310547,349.3787231445312,25,220185.51167775,0.39068603515625,-0.9225311279296875,-0.0862884521484375,220185.4735322917,-0.009006810806647983,0.063589628928367,-0.03216992070372116,220185.4735322917,-1.921991848337276,0.6710401867270221,1.129475834961154,-0.02772001177072525,0.07812004536390305,0.0003214306198060513,0.1343406289815903,0.07137897610664368,0.002992959693074226,XTrueNorthZVertical,-0.517421956003887,0.2549787924012638,0.5529429827391789,-0.6012606826596024,0.2655922472476959,-0.9041884541511536,-0.3345206677913666,18.00606918334961,-12.26104354858398,-16.03585433959961,1,192.168.1.8,10.83.46.32,1,0
2015-03-03 08:09:51.491,236,1425398989.725403,37.77928682424858,-122.4388021797385,56.80972,-1,-1,10,65,-9999,1425398991.460619,17.43286514282227,-25.59519958496094,-17.43990325927734,2.170970916748047,348.3937377929688,25,220185.5607638333,0.4245452880859375,-0.757293701171875,-0.3332672119140625,220185.52530525,-0.4647828629238989,0.6373335973239859,-0.5192178756051186,220185.52530525,-1.935176994786056,0.6938758422105273,1.117832738547939,-0.4834958910942078,0.6518638730049133,-0.4867268204689026,0.0797744020819664,0.01638736762106419,0.1540057808160782,XTrueNorthZVertical,-0.52029462845083,0.2471306665183938,0.5543222418141066,-0.6007884829985149,0.279875248670578,-0.8991540670394897,-0.3364398777484894,18.12722778320312,-12.15706920623779,-15.97841453552246,1,192.168.1.8,10.83.46.32,1,0
2015-03-03 08:09:51.558,237,1425398989.725403,37.77928682424858,-122.4388021797385,56.80972,-1,-1,10,65,-9999,1425398991.512961,18.4730224609375,-25.20436096191406,-16.3914794921875,1.462474822998047,347.6852416992188,25,220185.60982,0.5724029541015625,-0.935150146484375,-0.1716156005859375,220185.5770759583,-0.37794117451805,0.6864862299830333,-0.6111320869392413,220185.5770759583,-1.95470726297904,0.7514011540816118,1.089564509266113,-0.3966540098190308,0.701016366481781,-0.5786413550376892,0.1820767670869827,0.07114832103252411,0.1135345548391342,XTrueNorthZVertical,-0.5297447171504674,0.2241713449847871,0.5532221001390587,-0.6025471487433154,0.3159853518009186,-0.8864254355430603,-0.3382354974746704,19.18341445922852,-11.28248405456543,-15.37538719177246,1,192.168.1.8,10.83.46.32,1,0
2015-03-03 08:09:51.586,238,1425398989.725403,37.77928682424858,-122.4388021797385,56.80972,-1,-1,10,65,-9999,1425398991.563753,19.4108772277832,-23.89585876464844,-15.77574157714844,1.610485076904297,347.833251953125,25,220185.6590257917,0.51800537109375,-0.621734619140625,-0.2493438720703125,220185.6288487917,-0.4076902817908892,0.5493302380506445,-0.4241347688899105,220185.6288487917,-1.958810657200078,0.7831204836084751,1.043816413099396,-0.4264029562473297,0.5638602375984192,-0.3916443586349487,0.1658951938152313,-0.02809564955532551,0.1481332331895828,XTrueNorthZVertical,-0.5315445055425928,0.1981033970048716,0.5591078736744604,-0.6046601393509594,0.3548109829425812,-0.8643298745155334,-0.3564309775829315,19.69305801391602,-10.62643241882324,-15.19745826721191,1,192.168.1.8,10.83.46.32,1,0
2015-03-03 08:09:51.634,239,1425398989.725403,37.77928682424858,-122.4388021797385,56.80972,-1,-1,10,65,-9999,1425398991.616926,20.33167266845703,-21.72073364257812,-15.04351806640625,359.8256225585938,346.0484008789062,25,220185.7079845,0.3951263427734375,-0.7113494873046875,-0.268798828125,220185.6806217083,-0.7625612907339098,0.2646724059831269,-1.172255601245084,220185.6806217083,-1.970020182110774,0.8078269073128382,0.9952887313254051,-0.7812737226486206,0.2792022526264191,-1.139765620231628,0.2663748860359192,-0.07252184301614761,0.1284419894218445,XTrueNorthZVertical,-0.5304449525464365,0.1748337067503123,0.5695666208980804,-0.6030383134285782,0.3933846354484558,-0.8389161229133606,-0.3761226534843445,20.29452133178711,-9.7791748046875,-14.97333145141602,1,192.168.1.8,10.83.46.32,1,0
2015-03-03 08:09:51.683,240,1425398989.725403,37.77928682424858,-122.4388021797385,56.80972,-1,-1,10,65,-9999,1425398991.667499,21.04784774780273,-19.27369689941406,-15.34306335449219,0.4466056823730469,346.6693725585938,25,220185.7570805833,0.69964599609375,-0.979736328125,-0.1536102294921875,220185.732392375,-0.6773585116628957,0.0308300843593023,-0.7530601972289431,220185.732392375,-1.962372404847859,0.8092662657508223,0.9477569343704367,-0.6960707902908325,0.0453597791492939,-0.72057044506073,-0.02251994051039219,0.2258965522050858,0.1810789704322815,XTrueNorthZVertical,-0.5244062307112024,0.1538824603828879,0.5799520784174947,-0.6041306945679004,0.4223307371139526,-0.8121086955070496,-0.4026365876197815,21.11496925354004,-20.58402442932129,-15.5540714263916,1,192.168.1.8,10.83.46.32,1,0
2015-03-03 08:09:51.773,241,1425398989.725403,37.77928682424858,-122.4388021797385,56.80972,-1,-1,10,65,-9999,1425398991.723383,22.05390167236328,-17.01358032226562,-15.42626953125,359.36181640625,345.5845947265625,25,220185.8061322917,0.4262542724609375,-0.4860076904296875,-0.35736083984375,220185.7841655,-0.5805363607558659,0.4921303315257046,-0.4688625593977913,220185.7841655,-1.960116032976169,0.8326895432614123,0.9004702008285731,-0.5991896986961365,0.506655216217041,-0.4363117516040802,0.1331985592842102,0.08719271421432495,0.108578160405159,XTrueNorthZVertical,-0.524087100226443,0.1277478420163055,0.5858597698584186,-0.6047987649623172,0.4595596194267273,-0.7836191058158875,-0.4180263876914978,21.68078994750977,-19.75233840942383,-15.85123443603516,1,192.168.1.8,10.83.46.32,1,0
2015-03-03 08:09:51.782,242,1425398989.725403,37.77928682424858,-122.4388021797385,56.80972,-1,-1,10,65,-9999,1425398991.723383,22.05390167236328,-17.01358032226562,-15.42626953125,359.36181640625,345.5845947265625,25,220185.8553315834,0.4256591796875,-0.66680908203125,-0.327423095703125,220185.8359382917,-0.5667039020539943,0.0001113201335653122,-0.8650184241914383,220185.8359382917,-1.974085431975667,0.8361386988177982,0.8504239619098424,-0.5853570699691772,0.01463601924479008,-0.8324679732322693,0.2058016061782837,-0.4191094040870667,0.3062086999416351,XTrueNorthZVertical,-0.5163766703787636,0.1107141348622804,0.6023258267874044,-0.5985825998282914,0.4895108938217163,-0.7515601515769958,-0.4421950280666351,22.49435806274414,-18.73489379882812,-15.95245170593262,1,192.168.1.8,10.83.46.32,1,0
2015-03-03 08:09:51.834,243,1425398989.725403,37.77928682424858,-122.4388021797385,56.80972,-1,-1,10,65,-9999,1425398991.798467,22.36084365844727,-13.75088500976562,-15.99209594726562,1.843822479248047,348.0665893554688,25,220185.9042850834,0.6418609619140625,-0.9937286376953125,-0.2419891357421875,220185.8877090834,-0.6210339861882649,0.4299537758717336,-1.047021782564652,220185.8359382917,-1.974085431975667,0.8361386988177982,0.8504239619098424,-0.5853570699691772,0.01463601924479008,-0.8324679732322693,0.2058016061782837,-0.4191094040870667,0.3062086999416351,XTrueNorthZVertical,-0.5163766703787636,0.1107141348622804,0.6023258267874044,-0.5985825998282914,0.4895108938217163,-0.7515601515769958,-0.4421950280666351,22.49435806274414,-18.73489379882812,-15.95245170593262,1,192.168.1.8,10.83.46.32,1,0
2015-03-03 08:09:51.880,244,1425398989.725403,37.77928682424858,-122.4388021797385,56.80972,-1,-1,10,65,-9999,1425398991.850117,22.61661911010742,-11.38882446289062,-16.10858917236328,1.984325408935547,348.2070922851562,25,220185.9533824167,0.847412109375,-0.366424560546875,-0.4452667236328125,220185.939481875,-0.5737386420734387,-0.05017741704650995,-0.8221473895955607,220185.939481875,-1.978170974773064,0.8600935757794379,0.7513608725865623,-0.5923914313316345,-0.03565299510955811,-0.7895975112915039,-0.142957404255867,0.2245497554540634,0.1049738824367523,XTrueNorthZVertical,-0.5072886667679649,0.06554639328765374,0.6224322877282407,-0.5924018415663803,0.5538460612297058,-0.6826338768005371,-0.4767237603664398,24.1219310760498,-15.62591361999512,-16.89486312866211,1,192.168.1.8,10.83.46.32,1,0
2015-03-03 08:09:51.975,245,1425398989.725403,37.77928682424858,-122.4388021797385,56.80972,-1,-1,10,65,-9999,1425398991.907447,23.04291534423828,-9.400619506835938,-15.79238891601562,2.493907928466797,348.7166748046875,25,220186.00244075,0.6519622802734375,-0.5307159423828125,-0.3953399658203125,220185.9912549167,-0.5140191188411748,0.003549727416966617,-1.03767248924182,220185.9912549167,-1.993092127351823,0.8888354734688807,0.6979179963387001,-0.5326717495918274,0.01807400584220886,-1.005123019218445,0.03152653202414513,0.05680845677852631,0.1536676436662674,XTrueNorthZVertical,-0.5069058114997208,0.03972372507937106,0.6325017555689268,-0.5843030625779247,0.594816267490387,-0.6426239013671875,-0.4829370379447937,24.78849029541016,-14.32355880737305,-17.08331108093262,1,192.168.1.8,10.83.46.32,1,0
