loggingTime,loggingSample,locationTimestamp_since1970,locationLatitude,locationLongitude,locationAltitude,locationSpeed,locationCourse,locationVerticalAccuracy,locationHorizontalAccuracy,locationFloor,locationHeadingTimestamp_since1970,locationHeadingX,locationHeadingY,locationHeadingZ,locationTrueHeading,locationMagneticHeading,locationHeadingAccuracy,accelerometerTimestamp_sinceReboot,accelerometerAccelerationX,accelerometerAccelerationY,accelerometerAccelerationZ,gyroTimestamp_sinceReboot,gyroRotationX,gyroRotationY,gyroRotationZ,motionTimestamp_sinceReboot,motionYaw,motionRoll,motionPitch,motionRotationRateX,motionRotationRateY,motionRotationRateZ,motionUserAccelerationX,motionUserAccelerationY,motionUserAccelerationZ,motionAttitudeReferenceFrame,motionQuaternionX,motionQuaternionY,motionQuaternionZ,motionQuaternionW,motionGravityX,motionGravityY,motionGravityZ,motionMagneticFieldX,motionMagneticFieldY,motionMagneticFieldZ,motionMagneticFieldCalibrationAccuracy,IP_en0,IP_pdp_ip0,deviceOrientation,state
2015-02-27 16:53:56.460,1,1425084835.41574,37.78747994313793,-122.3961942854547,11.47892,-1,-1,10,65,-9999,1425084836.418014,26.18960571289062,-25.78329467773438,-23.12580108642578,298.9422607421875,285.1690063476562,10,136480.6395102083,0.1635284423828125,-0.79962158203125,-0.5870208740234375,136480.612961625,-0.05355270741207638,-0.08472048059760072,-0.05525633156140006,136480.612961625,-0.3121199173809796,0.2487930763863481,0.9377957044774375,-0.06426767259836197,-0.07533830404281616,-0.0226738229393959,0.01057067047804594,-0.00058291683671996,-0.04500982537865639,XTrueNorthZVertical,0.4601652790591746,0.03964360138508637,-0.08219118118585142,0.8831313641661978,0.1456640660762787,-0.8062560558319092,-0.573352575302124,64.10782623291016,-18.37964820861816,-21.04523277282715,2,10.3.35.51,10.83.46.32,1,0
2015-02-27 16:53:56.512,2,1425084835.41574,37.78747994313793,-122.3961942854547,11.47892,-1,-1,10,65,-9999,1425084836.469865,25.91677856445312,-25.61337280273438,-23.69162750244141,299.7853088378906,286.0120544433594,10,136480.688558,0.13824462890625,-0.8094329833984375,-0.555633544921875,136480.6647405833,-0.02432478076456574,-0.252204284707703,-0.1330358154099273,136480.6647405833,-0.3173740849322776,0.2418620936096034,0.9338568862083483,-0.03506734222173691,-0.2428219765424728,-0.1004634127020836,0.01456671953201294,-0.01704887673258781,0.008579559624195099,XTrueNorthZVertical,0.4582661766735894,0.03575616277227786,-0.08645421698626822,0.8838774645431497,0.1424462199211121,-0.8039197325706482,-0.5774272084236145,64.01848602294922,-18.24449920654297,-21.43122482299805,2,10.3.35.51,10.83.46.32,1,0
2015-02-27 16:53:56.518,3,1425084835.41574,37.78747994313793,-122.3961942854547,11.47892,-1,-1,10,65,-9999,1425084836.469865,25.91677856445312,-25.61337280273438,-23.69162750244141,299.7853088378906,286.0120544433594,10,136480.737739875,0.14508056640625,-0.7904815673828125,-0.5662994384765625,136480.7165195417,-0.08808831411211493,-0.06235738429198735,-0.07166033861185214,136480.7165195417,-0.3209788486646193,0.2374754787798755,0.9297173366094788,-0.09882185608148575,-0.05297517776489258,-0.0390852577984333,-0.01201621722429991,0.002195551991462708,0.02805336564779282,XTrueNorthZVertical,0.4563407002483937,0.03339392906322599,-0.08941597746124258,0.8846710629348851,0.1406935900449753,-0.8014509081840515,-0.581275999546051,63.84521484375,-17.83556175231934,-22.27572250366211,2,10.3.35.51,10.83.46.32,1,0
2015-02-27 16:53:56.557,4,1425084835.41574,37.78747994313793,-122.3961942854547,11.47892,-1,-1,10,65,-9999,1425084836.522362,25.71215438842773,-25.37548828125,-24.12430572509766,300.7672424316406,286.9939880371094,10,136480.786779125,0.16229248046875,-0.7781982421875,-0.5633544921875,136480.7682984167,-0.01726234386978462,0.004771585725094971,-0.06369695432029721,136480.7165195417,-0.3209788486646193,0.2374754787798755,0.9297173366094788,-0.09882185608148575,-0.05297517776489258,-0.0390852577984333,-0.01201621722429991,0.002195551991462708,0.02805336564779282,XTrueNorthZVertical,0.4563407002483937,0.03339392906322599,-0.08941597746124258,0.8846710629348851,0.1406935900449753,-0.8014509081840515,-0.581275999546051,63.84521484375,-17.83556175231934,-22.27572250366211,2,10.3.35.51,10.83.46.32,1,0
2015-02-27 16:53:56.616,5,1425084835.41574,37.78747994313793,-122.3961942854547,11.47892,-1,-1,10,65,-9999,1425084836.575994,25.79741287231445,-25.25654602050781,-23.87467956542969,300.3134460449219,286.5401916503906,10,136480.8357448333,0.1667938232421875,-0.7901611328125,-0.5904693603515625,136480.8200772083,-0.0158335579449571,-0.02899410110380167,-0.07507903850318685,136480.8200772083,-0.3275733053876457,0.2440800697115181,0.9242787295436964,-0.02619801461696625,-0.01973562873899937,-0.04229357093572617,0.02647731080651283,0.002913642907515168,0.004171804524958134,XTrueNorthZVertical,0.4543928826127051,0.03534905385471296,-0.09131353097175415,0.8854035732394164,0.1455807983875275,-0.7981864809989929,-0.5845550894737244,63.88895416259766,-17.4800910949707,-22.43154716491699,2,10.3.35.51,10.83.46.32,1,0
2015-02-27 16:53:56.654,6,1425084835.41574,37.78747994313793,-122.3961942854547,11.47892,-1,-1,10,65,-9999,1425084836.575994,25.79741287231445,-25.25654602050781,-23.87467956542969,300.3134460449219,286.5401916503906,10,136480.88478175,0.15087890625,-0.788665771484375,-0.58203125,136480.8718563333,-0.03032195322331518,-0.07107178001094464,-0.08866888322975221,136480.8718563333,-0.3342006519565839,0.2489578413418796,0.9202216288356835,-0.04070539772510529,-0.06179104372859001,-0.05591845512390137,0.01022728905081749,0.01025918312370777,-0.009112880565226078,XTrueNorthZVertical,0.4529771599975307,0.03641202200852556,-0.09350956798203901,0.8858565988300802,0.1492270529270172,-0.7957358956336975,-0.5869717001914978,63.99683380126953,-17.10756683349609,-22.41122055053711,2,10.3.35.51,10.83.46.32,1,0
2015-02-27 16:53:56.714,7,1425084835.41574,37.78747994313793,-122.3961942854547,11.47892,-1,-1,10,65,-9999,1425084836.703283,26.32602691650391,-25.13760375976562,-23.79148101806641,299.4020385742188,285.6287841796875,10,136480.933840625,0.145965576171875,-0.798614501953125,-0.5670623779296875,136480.923634875,-0.02068637008329949,-0.03866963166016855,-0.07360284831095594,136480.8718563333,-0.3342006519565839,0.2489578413418796,0.9202216288356835,-0.04070539772510529,-0.06179104372859001,-0.05591845512390137,0.01022728905081749,0.01025918312370777,-0.009112880565226078,XTrueNorthZVertical,0.4529771599975307,0.03641202200852556,-0.09350956798203901,0.8858565988300802,0.1492270529270172,-0.7957358956336975,-0.5869717001914978,63.99683380126953,-17.10756683349609,-22.41122055053711,2,10.3.35.51,10.83.46.32,1,0
2015-02-27 16:53:56.753,8,1425084835.41574,37.78747994313793,-122.3961942854547,11.47892,-1,-1,10,65,-9999,1425084836.703283,26.32602691650391,-25.13760375976562,-23.79148101806641,299.4020385742188,285.6287841796875,10,136480.9829724167,0.1638031005859375,-0.7719879150390625,-0.5997467041015625,136480.9754140417,-0.03675295462363853,-0.02375699482016085,-0.08862866949729201,136480.923634875,-0.3379385045657211,0.2496976227873925,0.9194144914002749,-0.03105730749666691,-0.02938566729426384,-0.0408526286482811,-0.00232845451682806,0.00137775216717273,0.02071085572242737,XTrueNorthZVertical,0.4527296309288613,0.03597531054124527,-0.09507170120504517,0.8858347056655772,0.1498199105262756,-0.7952467799186707,-0.587483286857605,64.00753784179688,-16.8458251953125,-22.57829475402832,2,10.3.35.51,10.83.46.32,1,0
2015-02-27 16:53:56.812,9,1425084835.41574,37.78747994313793,-122.3961942854547,11.47892,-1,-1,10,65,-9999,1425084836.755286,26.46244430541992,-24.89970397949219,-23.95789337158203,299.4580078125,285.6847534179688,10,136481.031955375,0.138671875,-0.7775115966796875,-0.5730438232421875,136481.0271929167,0.02663720353908155,-0.1435579648768303,-0.05636127709767394,136481.0271929167,-0.3452222990606706,0.2502817909960467,0.9160002508561428,0.01626651175320148,-0.1342620551586151,-0.02362735196948051,-0.005769372452050447,0.01221205107867718,0.01229456160217524,XTrueNorthZVertical,0.4514065461254764,0.03493870911524203,-0.09848195159265574,0.886178773020486,0.1508346796035767,-0.7931721210479736,-0.59002286195755,64.02793121337891,-16.43368721008301,-22.82290077209473,2,10.3.35.51,10.83.46.32,1,0
2015-02-27 16:53:56.851,10,1425084835.41574,37.78747994313793,-122.3961942854547,11.47892,-1,-1,10,65,-9999,1425084836.808778,26.56475830078125,-24.69580078125,-24.05774688720703,299.5303955078125,285.7571411132812,10,136481.080978,0.15289306640625,-0.7856292724609375,-0.5723419189453125,136481.0271929167,0.02663720353908155,-0.1435579648768303,-0.05636127709767394,136481.0271929167,-0.3452222990606706,0.2502817909960467,0.9160002508561428,0.01626651175320148,-0.1342620551586151,-0.02362735196948051,-0.005769372452050447,0.01221205107867718,0.01229456160217524,XTrueNorthZVertical,0.4514065461254764,0.03493870911524203,-0.09848195159265574,0.886178773020486,0.1508346796035767,-0.7931721210479736,-0.59002286195755,64.02793121337891,-16.43368721008301,-22.82290077209473,2,10.3.35.51,10.83.46.32,1,0
2015-02-27 16:53:56.911,11,1425084835.41574,37.78747994313793,-122.3961942854547,11.47892,-1,-1,10,65,-9999,1425084836.859402,26.68412017822266,-24.67880249023438,-23.97453308105469,299.5830993652344,285.8098449707031,10,136481.1300410834,0.1560211181640625,-0.79949951171875,-0.5738677978515625,136481.1307507917,0.03038080908340593,0.04986050087679052,-0.02822391491655076,136481.0789717917,-0.3511747558446994,0.2493467306264398,0.9160441092117173,0.02123036980628967,-0.1456983983516693,-0.06983596831560135,0.01072116103023291,0.011231679469347,0.0133476760238409,XTrueNorthZVertical,0.4514802124004527,0.03317629108109709,-0.1013259754207435,0.8858883078848838,0.150274321436882,-0.793198823928833,-0.5901299118995667,63.91695022583008,-16.37337112426758,-23.17461204528809,2,10.3.35.51,10.83.46.32,1,0
2015-02-27 16:53:56.950,12,1425084835.41574,37.78747994313793,-122.3961942854547,11.47892,-1,-1,10,65,-9999,1425084836.911091,26.17256546020508,-24.64482116699219,-23.87467956542969,300.54833984375,286.7750854492188,10,136481.179122875,0.1714324951171875,-0.798095703125,-0.591461181640625,136481.1825298333,0.03683924104295709,-0.002265551139330408,-0.03058960091286815,136481.1307507917,-0.3529344753865614,0.2502408624764618,0.9214572946651003,0.02007199265062809,0.05916636809706688,0.004517252091318369,0.006284694187343121,-0.003015878377482295,0.01195888686925173,XTrueNorthZVertical,0.4538981917451202,0.03260504877296787,-0.1013964512075486,0.884665020122702,0.1497364193201065,-0.7964836359024048,-0.5858266949653625,63.86302947998047,-16.24087524414062,-23.41523551940918,2,10.3.35.51,10.83.46.32,1,0
2015-02-27 16:53:57.009,13,1425084835.41574,37.78747994313793,-122.3961942854547,11.47892,-1,-1,10,65,-9999,1425084836.963801,26.17256164550781,-24.67880249023438,-23.84139251708984,300.7778625488281,287.0046081542969,10,136481.2281517083,0.1534271240234375,-0.7982635498046875,-0.571258544921875,136481.1825298333,0.03683924104295709,-0.002265551139330408,-0.03058960091286815,136481.1825298333,-0.3540815263270746,0.2538070278486029,0.9231196658126971,0.02653211168944836,0.007049070671200752,0.002139834221452475,0.01994054019451141,-0.000608001253567636,-0.007454647216945887,XTrueNorthZVertical,0.4548163899014743,0.03374587632194128,-0.100936929196902,0.8842030872224528,0.1514919549226761,-0.7974876761436462,-0.5840065479278564,63.92165756225586,-16.39583206176758,-23.14573287963867,2,10.3.35.51,10.83.46.32,1,0
2015-02-27 16:53:57.048,14,1425084835.41574,37.78747994313793,-122.3961942854547,11.47892,-1,-1,10,65,-9999,1425084837.014169,26.32602691650391,-24.96768188476562,-23.7581787109375,300.3548278808594,286.5815734863281,10,136481.277307875,0.162017822265625,-0.795806884765625,-0.57122802734375,136481.2343085833,0.02238546685877004,-0.04928738861020547,-0.03793912657315982,136481.2343085833,-0.3557726886810024,0.2537451461559719,0.9239123531972554,0.01207695808261633,-0.03996521607041359,-0.005220765247941017,0.002130046952515841,-0.0002978423144668341,0.01214526407420635,XTrueNorthZVertical,0.4551840906314687,0.03324965106164344,-0.1016234473533771,0.8839540005619406,0.1512970775365829,-0.7979657053947449,-0.5834038257598877,63.94712829589844,-16.36285400390625,-23.09866333007812,2,10.3.35.51,10.83.46.32,1,0
2015-02-27 16:53:57.107,15,1425084835.41574,37.78747994313793,-122.3961942854547,11.47892,-1,-1,10,65,-9999,1425084837.066035,26.4794921875,-24.95068359375,-23.47526550292969,300.3307495117188,286.5574951171875,10,136481.3263273333,0.1532440185546875,-0.8003997802734375,-0.57080078125,136481.33786675,0.02361345043740558,-0.04929804125456579,-0.03794099078592288,136481.286087625,-0.3584629346557834,0.2557396699073997,0.9249214596089543,-0.001654650899581611,-0.0021108437795192,-0.01593760214745998,0.0097612040117383,0.002766607562080026,0.01109351590275764,XTrueNorthZVertical,0.4557663411774699,0.03341063797029504,-0.1022618984054217,0.8835742025861784,0.1522566229104996,-0.7985734939575195,-0.5823215246200562,63.92347717285156,-16.35512924194336,-23.16948318481445,2,10.3.35.51,10.83.46.32,1,0
2015-02-27 16:53:57.146,16,1425084835.41574,37.78747994313793,-122.3961942854547,11.47892,-1,-1,10,65,-9999,1425084837.118059,26.29191970825195,-25.00166320800781,-23.4586181640625,300.2992248535156,286.5259704589844,10,136481.3753095834,0.16253662109375,-0.7975006103515625,-0.56866455078125,136481.33786675,0.02361345043740558,-0.04929804125456579,-0.03794099078592288,136481.33786675,-0.3601342211782806,0.2565248491477871,0.9259149929998522,0.01333357393741608,-0.0399647019803524,-0.005229036789387465,-0.006302701309323311,0.0003277194628026336,0.01507360674440861,XTrueNorthZVertical,0.4562631733921721,0.03326974988868589,-0.102725939357607,0.8832692214453688,0.1525124162435532,-0.7991710901260376,-0.5814340710639954,63.96225738525391,-16.26657104492188,-23.12476921081543,2,10.3.35.51,10.83.46.32,1,0
2015-02-27 16:53:57.204,17,1425084835.41574,37.78747994313793,-122.3961942854547,11.47892,-1,-1,10,65,-9999,1425084837.169298,26.59885406494141,-25.00166320800781,-23.65830993652344,300.2978210449219,286.5245666503906,10,136481.4243858334,0.1553497314453125,-0.7904510498046875,-0.5754547119140625,136481.3896455417,0.02452025678857756,0.003901264680857076,-0.03072302528348111,136481.3896455417,-0.3617029307677506,0.2581421189596352,0.9274804723317804,0.01425429899245501,0.01324110385030508,0.001984141767024994,0.01628535240888596,-0.001784002757631242,0.0009357957751490176,XTrueNorthZVertical,0.4570475666608264,0.03345684181393369,-0.1028986412148984,0.8828364101024294,0.1531329900026321,-0.8001111149787903,-0.5799763202667236,63.93247222900391,-16.31626510620117,-23.17206573486328,2,10.3.35.51,10.83.46.32,1,0
2015-02-27 16:53:57.244,18,1425084835.41574,37.78747994313793,-122.3961942854547,11.47892,-1,-1,10,65,-9999,1425084837.221774,26.27486801147461,-25.12060546875,-24.14091491699219,300.3310852050781,286.5578308105469,10,136481.473483,0.1479034423828125,-0.8017425537109375,-0.5727081298828125,136481.4414244167,0.01491716421386084,-0.03236566304384199,-0.03101357615840876,136481.4414244167,-0.3624536542432787,0.2583274871622699,0.9279771466953306,0.004648328293114901,-0.02301948703825474,0.001683266251347959,0.007017299067229033,0.004159581381827593,0.004322558175772429,XTrueNorthZVertical,0.4572837177389962,0.0333133293757151,-0.1031396569117802,0.8826914129920997,0.1531389504671097,-0.8004089593887329,-0.5795636177062988,63.97216415405273,-16.27806282043457,-23.08924865722656,2,10.3.35.51,10.83.46.32,1,0
2015-02-27 16:53:57.303,19,1425084835.41574,37.78747994313793,-122.3961942854547,11.47892,-1,-1,10,65,-9999,1425084837.274319,26.27487182617188,-25.42646789550781,-23.74151611328125,300.3278503417969,286.5545959472656,10,136481.5226236667,0.1399078369140625,-0.7996826171875,-0.5753021240234375,136481.4932037083,0.01234508323306231,-0.01512489077888702,-0.0473456778594287,136481.4932037083,-0.362482264312628,0.2575798473691902,0.9282151474542271,0.002085769083350897,-0.005780803505331278,-0.01464316062629223,-0.008644619956612587,-0.004914079327136278,0.007685887161642313,XTrueNorthZVertical,0.457348174831535,0.03295106742418417,-0.1033002541063689,0.8826528351830021,0.152657076716423,-0.8005515933036804,-0.5794937610626221,63.94561386108398,-16.28367233276367,-23.15872001647949,2,10.3.35.51,10.83.46.32,1,0
2015-02-27 16:53:57.342,20,1425084835.41574,37.78747994313793,-122.3961942854547,11.47892,-1,-1,10,65,-9999,1425084837.32591,26.58180618286133,-25.12060546875,-23.77478790283203,300.3368835449219,286.5636291503906,10,136481.5715809167,0.1367950439453125,-0.796295166015625,-0.5661163330078125,136481.5449825,0.01962083933115879,0.002597913643372297,-0.02211888443365311,136481.5449825,-0.361397822525231,0.2563532364755776,0.9291836189709153,0.00936457421630621,0.01193468272686005,0.01059453655034304,-0.01826560124754906,0.006347067654132843,-0.001529278233647346,XTrueNorthZVertical,0.4576845300793536,0.03255322871410139,-0.1030090134403758,0.882527278443862,0.1517494916915894,-0.8011316061019897,-0.5789303183555603,63.93417358398438,-16.31331253051758,-23.16945648193359,2,10.3.35.51,10.83.46.32,1,0
2015-02-27 16:53:57.408,21,1425084835.41574,37.78747994313793,-122.3961942854547,11.47892,-1,-1,10,65,-9999,1425084837.37756,26.39423370361328,-24.86572265625,-24.0244140625,300.3553771972656,286.5821228027344,10,136481.6206709167,0.1475982666015625,-0.79840087890625,-0.5630645751953125,136481.5967614167,0.03775909688347046,0.05169009254567496,0.005966279790104517,136481.5967614167,-0.3588211299652567,0.2556523711301787,0.9311381782375164,0.02750735729932785,0.06102005764842033,0.0386902429163456,-0.002235282910987735,0.006248837802559137,0.009084790013730526,XTrueNorthZVertical,0.4584489583073187,0.03262396533877334,-0.1018451547279032,0.882262936879998,0.1509474366903305,-0.8022998571395874,-0.5775204300880432,63.90287399291992,-16.43051910400391,-23.17297554016113,2,10.3.35.51,10.83.46.32,1,0
2015-02-27 16:53:57.440,22,1425084835.41574,37.78747994313793,-122.3961942854547,11.47892,-1,-1,10,65,-9999,1425084837.429887,26.39423370361328,-24.83174133300781,-23.95784759521484,300.3926391601562,286.619384765625,10,136481.669827125,0.1527557373046875,-0.790191650390625,-0.5571136474609375,136481.6485405834,0.06236111271751345,0.04750067383487131,0.02804548312351545,136481.6485405834,-0.356046800191751,0.256419296102094,0.9341122052807557,0.05212018266320229,0.05683431029319763,0.06076705083250999,0.006655692122876644,0.00380912097170949,0.01932305283844471,XTrueNorthZVertical,0.4597232023400224,0.03328083283909037,-0.1001608623116774,0.8817680312179129,0.1507844924926758,-0.8040715456008911,-0.5750939249992371,63.92901992797852,-16.64577865600586,-22.94612884521484,2,10.3.35.51,10.83.46.32,1,0
2015-02-27 16:53:57.501,23,1425084835.41574,37.78747994313793,-122.3961942854547,11.47892,-1,-1,10,65,-9999,1425084837.480719,26.22371292114258,-24.86572265625,-23.89128112792969,300.4255981445312,286.65234375,10,136481.718802875,0.1828460693359375,-0.787139892578125,-0.5774993896484375,136481.7003194167,0.06338589710497596,0.07921998768215106,0.01378745127944922,136481.7003194167,-0.3537009960091671,0.2588881516245916,0.9374559794149189,0.05315084755420685,0.08856212347745895,0.04649807885289192,0.01558429840952158,0.02251623757183552,0.008976797573268414,XTrueNorthZVertical,0.4612453718727122,0.03455247729535341,-0.09823788521930606,0.8811403106018688,0.1515146940946579,-0.8060550689697266,-0.5721176862716675,63.96212005615234,-16.86606788635254,-22.69161605834961,2,10.3.35.51,10.83.46.32,1,0
2015-02-27 16:53:57.538,24,1425084835.41574,37.78747994313793,-122.3961942854547,11.47892,-1,-1,10,65,-9999,1425084837.532755,26.12140274047852,-24.83174133300781,-24.15755462646484,301.6047668457031,287.8315124511719,10,136481.7678470833,0.161041259765625,-0.81365966796875,-0.56573486328125,136481.7520985834,0.04569398535136155,-0.04363429656429427,-0.02466806222907696,136481.7003194167,-0.3537009960091671,0.2588881516245916,0.9374559794149189,0.05315084755420685,0.08856212347745895,0.04649807885289192,0.01558429840952158,0.02251623757183552,0.008976797573268414,XTrueNorthZVertical,0.4612453718727122,0.03455247729535341,-0.09823788521930606,0.8811403106018688,0.1515146940946579,-0.8060550689697266,-0.5721176862716675,63.96212005615234,-16.86606788635254,-22.69161605834961,2,10.3.35.51,10.83.46.32,1,0
2015-02-27 16:53:57.602,25,1425084835.41574,37.78747994313793,-122.3961942854547,11.47892,-1,-1,10,65,-9999,1425084837.585207,26.15550994873047,-24.83174133300781,-24.05770111083984,301.6280517578125,287.8547973632812,10,136481.81692175,0.14593505859375,-0.7974090576171875,-0.5672760009765625,136481.8038777083,0.0382307427125235,-0.02682655429258618,-0.01040044300508645,136481.8038777083,-0.3557975726706561,0.2613775456282149,0.9402001283913445,0.02798843570053577,-0.01746600307524204,0.02228073962032795,-0.004081379622220993,-0.000261504523223266,0.001530300360172987,XTrueNorthZVertical,0.4625841737772559,0.03487123430298834,-0.09832144118314859,0.8804163044911367,0.1523662954568863,-0.8076761364936829,-0.5695997476577759,64.05245971679688,-16.93330001831055,-22.38463401794434,2,10.3.35.51,10.83.46.32,1,0
2015-02-27 16:53:57.637,26,1425084835.41574,37.78747994313793,-122.3961942854547,11.47892,-1,-1,10,65,-9999,1425084837.585207,26.15550994873047,-24.83174133300781,-24.05770111083984,301.6280517578125,287.8547973632812,10,136481.86605775,0.1558380126953125,-0.8016510009765625,-0.5607147216796875,136481.85565675,0.0331358492310929,0.003428819903477019,-0.005039233414647935,136481.8038777083,-0.3557975726706561,0.2613775456282149,0.9402001283913445,0.02798843570053577,-0.01746600307524204,0.02228073962032795,-0.004081379622220993,-0.000261504523223266,0.001530300360172987,XTrueNorthZVertical,0.4625841737772559,0.03487123430298834,-0.09832144118314859,0.8804163044911367,0.1523662954568863,-0.8076761364936829,-0.5695997476577759,64.05245971679688,-16.93330001831055,-22.38463401794434,2,10.3.35.51,10.83.46.32,1,0
2015-02-27 16:53:57.706,27,1425084835.41574,37.78747994313793,-122.3961942854547,11.47892,-1,-1,10,65,-9999,1425084837.68863,27.05925369262695,-25.39250183105469,-23.20896911621094,301.5769958496094,287.8037414550781,10,136481.9150098333,0.1638641357421875,-0.8046722412109375,-0.56329345703125,136481.9074357083,0.0382509827368081,-0.03146684617594025,-0.02373861900863931,136481.9074357083,-0.3540114197389052,0.2602565536601625,0.9428043953434889,0.02826710976660252,-0.02220459654927254,0.009151197038590908,0.01055726408958435,0.004811338614672422,0.006776840426027775,XTrueNorthZVertical,0.4636173182559661,0.034512764724463,-0.09754301839222633,0.8799734692979756,0.1511858999729156,-0.8092089295387268,-0.5677357316017151,64.00794982910156,-17.1261100769043,-22.36526870727539,2,10.3.35.51,10.83.46.32,1,0
2015-02-27 16:53:57.734,28,1425084835.41574,37.78747994313793,-122.3961942854547,11.47892,-1,-1,10,65,-9999,1425084837.68863,27.05925369262695,-25.39250183105469,-23.20896911621094,301.5769958496094,287.8037414550781,10,136481.9640452084,0.166748046875,-0.797576904296875,-0.5648956298828125,136481.9592149583,0.05041230785465494,-0.01109526173348812,-0.0157123841153585,136481.9074357083,-0.3540114197389052,0.2602565536601625,0.9428043953434889,0.02826710976660252,-0.02220459654927254,0.009151197038590908,0.01055726408958435,0.004811338614672422,0.006776840426027775,XTrueNorthZVertical,0.4636173182559661,0.034512764724463,-0.09754301839222633,0.8799734692979756,0.1511858999729156,-0.8092089295387268,-0.5677357316017151,64.00794982910156,-17.1261100769043,-22.36526870727539,2,10.3.35.51,10.83.46.32,1,0
2015-02-27 16:53:57.805,29,1425084835.41574,37.78747994313793,-122.3961942854547,11.47892,-1,-1,10,65,-9999,1425084837.793188,26.44539260864258,-25.52847290039062,-23.70822906494141,301.547119140625,287.7738647460938,10,136482.01310225,0.1666107177734375,-0.8018341064453125,-0.5837249755859375,136482.010993875,-0.01894972273645882,-0.1200968472537773,-0.05931791853987991,136481.9592149583,-0.3547178032861576,0.2606682482334139,0.9445597687740984,0.04042870178818703,-0.001825483050197363,0.01716627739369869,0.01433671824634075,0.01006809435784817,0.00396790774539113,XTrueNorthZVertical,0.4644034585096607,0.03434235425862592,-0.09758857478830929,0.8795604563190575,0.1510532945394516,-0.8102390170097351,-0.5663000345230103,64.00261688232422,-17.1716423034668,-22.34561347961426,2,10.3.35.51,10.83.46.32,1,0
2015-02-27 16:53:57.834,30,1425084835.41574,37.78747994313793,-122.3961942854547,11.47892,-1,-1,10,65,-9999,1425084837.793188,26.44539260864258,-25.52847290039062,-23.70822906494141,301.547119140625,287.7738647460938,10,136482.0622469583,0.13525390625,-0.8100738525390625,-0.57373046875,136482.010993875,-0.01894972273645882,-0.1200968472537773,-0.05931791853987991,136482.010993875,-0.35804221624584,0.2618629794840183,0.9427919864424834,-0.02894584462046623,-0.1108141615986824,-0.02646237425506115,0.0227196179330349,0.006970795802772045,-0.01692507974803448,XTrueNorthZVertical,0.4637602288000501,0.03428629543888596,-0.09894505293588594,0.879750460328995,0.1521003246307373,-0.8092016577720642,-0.5675017833709717,64.02482604980469,-17.11905288696289,-22.32233619689941,2,10.3.35.51,10.83.46.32,1,0
2015-02-27 16:53:57.909,31,1425084835.41574,37.78747994313793,-122.3961942854547,11.47892,-1,-1,10,65,-9999,1425084837.898719,26.03614807128906,-25.42648315429688,-24.00777435302734,301.2859191894531,287.5126647949219,10,136482.1111847083,0.1298675537109375,-0.7911834716796875,-0.5576324462890625,136482.1145522917,-0.01928687893046285,-0.06760540953609749,-0.08388371538309783,136482.0627732083,-0.3590284460445227,0.2560197021428661,0.9395953563396293,-0.05969302728772163,-0.1045134589076042,-0.02533919736742973,-0.01418205350637436,-0.002754472196102142,-0.002850100863724947,XTrueNorthZVertical,0.4621110568619772,0.03183060120783184,-0.1010406996710235,0.8804720647378917,0.1494359523057938,-0.8073194026947021,-0.5708803534507751,63.96852493286133,-16.91720581054688,-22.63542747497559,2,10.3.35.51,10.83.46.32,1,0
2015-02-27 16:53:57.930,32,1425084835.41574,37.78747994313793,-122.3961942854547,11.47892,-1,-1,10,65,-9999,1425084837.898719,26.03614807128906,-25.42648315429688,-24.00777435302734,301.2859191894531,287.5126647949219,10,136482.160219375,0.1226043701171875,-0.789886474609375,-0.541900634765625,136482.1145522917,-0.01928687893046285,-0.06760540953609749,-0.08388371538309783,136482.1145522917,-0.3586328062723766,0.2509459627759211,0.9373046149439613,-0.02929044887423515,-0.05834268778562546,-0.05100391432642937,-0.01712884567677975,0.01478199101984501,0.01578870229423046,XTrueNorthZVertical,0.4608616443348636,0.02993277157012009,-0.1022559411996725,0.8810530019684556,0.1469963937997818,-0.8059654831886292,-0.5734211206436157,63.80750274658203,-16.82160568237305,-23.15518760681152,2,10.3.35.51,10.83.46.32,1,0
2015-02-27 16:53:58.024,33,1425084835.41574,37.78747994313793,-122.3961942854547,11.47892,-1,-1,10,65,-9999,1425084838.000787,26.29192733764648,-24.899658203125,-23.89129638671875,302.1673583984375,288.3941040039062,10,136482.2092727083,0.127044677734375,-0.7996978759765625,-0.5487518310546875,136482.166331375,0.07392402553841949,-0.04660159065086056,-0.08335800738391619,136482.166331375,-0.3625948469575462,0.251027075281282,0.9379923333149396,0.06392516195774078,-0.03734257444739342,-0.05047205090522766,-0.0243008229881525,0.0164859015494585,0.03097154758870602,XTrueNorthZVertical,0.4612201036891239,0.02898145530494691,-0.1039168645618258,0.8807028285876015,0.1469051986932755,-0.8063724040985107,-0.5728721618652344,63.76284027099609,-16.69904518127441,-23.3659610748291,2,10.3.35.51,10.83.46.32,1,0
2015-02-27 16:53:58.032,34,1425084835.41574,37.78747994313793,-122.3961942854547,11.47892,-1,-1,10,65,-9999,1425084838.000787,26.29192733764648,-24.899658203125,-23.89129638671875,302.1673583984375,288.3941040039062,10,136482.2583047917,0.1327056884765625,-0.802459716796875,-0.537017822265625,136482.2181104583,0.1401334060310974,-0.02578392672582016,-0.05586832597990028,136482.2181104583,-0.3678471286624043,0.2543662422036393,0.9430308037293086,0.1303296238183975,-0.0165818203240633,-0.02280105091631413,-0.02074837312102318,0.009644044563174248,0.01968721859157085,XTrueNorthZVertical,0.4636349245120058,0.028690278950999,-0.1049719032755587,0.8793182131687762,0.1477930545806885,-0.8093419075012207,-0.5684390664100647,63.75053787231445,-16.64405822753906,-23.43865776062012,2,10.3.35.51,10.83.46.32,1,0
2015-02-27 16:53:58.111,35,1425084835.41574,37.78747994313793,-122.3961942854547,11.47892,-1,-1,10,65,-9999,1425084838.052166,26.63295745849609,-24.96762084960938,-23.72487640380859,302.1620483398438,288.3887939453125,10,136482.30736425,0.1492462158203125,-0.810882568359375,-0.5194244384765625,136482.2698896667,0.2345880067290468,-0.006174006355130698,-0.0443008857851411,136482.2698896667,-0.3713444164167783,0.2564180281278318,0.9535548261279332,0.2248003333806992,0.003018261166289449,-0.01121561881154776,-0.0115672629326582,0.01486473996192217,0.02263281308114529,XTrueNorthZVertical,0.4682999870048736,0.0276223349727456,-0.1050054457341369,0.8768728989820737,0.1467906534671783,-0.8154781460762024,-0.5598642826080322,63.72095108032227,-16.86963653564453,-23.35770606994629,2,10.3.35.51,10.83.46.32,1,0
2015-02-27 16:53:58.127,36,1425084835.41574,37.78747994313793,-122.3961942854547,11.47892,-1,-1,10,65,-9999,1425084838.103464,26.61590576171875,-25.49441528320312,-23.60838317871094,301.9945678710938,288.2213134765625,10,136482.3563996667,0.1175537109375,-0.8048095703125,-0.51519775390625,136482.3216686667,0.3479899333184739,-0.06639713334952854,0.02551521377183117,136482.3216686667,-0.3767255791022108,0.2594450316354573,0.9693167951485714,0.3382182717323303,-0.05720425024628639,0.05860330164432526,-0.0003782299463637173,0.01442545279860497,0.0223278533667326,XTrueNorthZVertical,0.4752527844285867,0.0259283706742887,-0.105090752582968,0.8731658147395366,0.1451688855886459,-0.8244993090629578,-0.5469250082969666,63.70671463012695,-17.164794921875,-23.18082809448242,2,10.3.35.51,10.83.46.32,1,0
2015-02-27 16:53:58.207,37,1425084835.41574,37.78747994313793,-122.3961942854547,11.47892,-1,-1,10,65,-9999,1425084838.157016,25.9849853515625,-26.08918762207031,-23.39203643798828,302.7659301757812,288.99267578125,10,136482.4054602083,0.1304168701171875,-0.8263397216796875,-0.450927734375,136482.373448125,0.4923508412639631,-0.1691440187336576,0.08534099713158919,136482.373448125,-0.3763733151410761,0.2535413929101242,0.9904567962902476,0.4826078116893768,-0.1599414795637131,0.1185068935155869,-0.02980707213282585,0.03163480758666992,0.02542285621166229,XTrueNorthZVertical,0.4839070544786571,0.02108594401167542,-0.1042579504881299,0.8686309464738764,0.1375341266393661,-0.8362765312194824,-0.530778706073761,63.60808563232422,-17.69798851013184,-23.05036163330078,2,10.3.35.51,10.83.46.32,1,0
2015-02-27 16:53:58.225,38,1425084835.41574,37.78747994313793,-122.3961942854547,11.47892,-1,-1,10,65,-9999,1425084838.210043,26.08729934692383,-27.04081726074219,-23.39203643798828,303.5809631347656,289.8077087402344,10,136482.454520375,0.12548828125,-0.8643035888671875,-0.490234375,136482.4252271667,0.7800513348768963,-0.2085667923501006,0.2020247371323209,136482.4252271667,-0.3760352356464026,0.2432142005648478,1.023219230192475,0.7703125476837158,-0.1993664503097534,0.2351945042610168,-0.003353026928380132,0.03716856613755226,0.02128900773823261,XTrueNorthZVertical,0.4971720645422865,0.01307823392468759,-0.1034322800716396,0.8613656350798508,0.1253775656223297,-0.853788435459137,-0.5052977800369263,63.22484970092773,-18.92104530334473,-23.13307189941406,2,10.3.35.51,10.83.46.32,1,0
2015-02-27 16:53:58.312,39,1425084835.41574,37.78747994313793,-122.3961942854547,11.47892,-1,-1,10,65,-9999,1425084838.260572,25.43932723999023,-28.02641296386719,-22.293701171875,302.8248596191406,289.0516052246094,10,136482.5035399167,0.3480072021484375,-0.8814544677734375,-0.5933990478515625,136482.4770063333,0.5931363085052489,0.2231265603456728,0.1303018142348519,136482.4770063333,-0.3713687550913411,0.2390064679198318,1.063301311149262,0.5833974480628967,0.2323269695043564,0.1634709537029266,0.06658868491649628,-0.03086628764867783,-0.06055539846420288,XTrueNorthZVertical,0.513660895428302,0.008070451230097407,-0.09860155517182048,0.8522706034256944,0.1150519400835037,-0.8739646673202515,-0.4721747040748596,62.84584045410156,-20.38457679748535,-22.92150497436523,2,10.3.35.51,10.83.46.32,1,0
2015-02-27 16:53:58.323,40,1425084835.41574,37.78747994313793,-122.3961942854547,11.47892,-1,-1,10,65,-9999,1425084838.311968,25.23470306396484,-28.80810546875,-21.49491119384766,302.5403442382812,288.76708984375,10,136482.5526730417,0.18603515625,-0.8938140869140625,-0.4825897216796875,136482.5287855,0.2039920142295625,-0.6417786794994371,-0.2214674109865534,136482.5287855,-0.3847310884429223,0.2440461915201627,1.077600672443047,0.1942532360553741,-0.6325783133506775,-0.1882985681295395,0.2286953628063202,0.007518123835325241,-0.1014835610985756,XTrueNorthZVertical,0.519871156182198,0.005181659700677838,-0.101571957501992,0.8481688302707817,0.1143985092639923,-0.8808243870735168,-0.4594142735004425,62.86314392089844,-21.36890029907227,-21.95726585388184,2,10.3.35.51,10.83.46.32,1,0
2015-02-27 16:53:58.414,41,1425084835.41574,37.78747994313793,-122.3961942854547,11.47892,-1,-1,10,65,-9999,1425084838.363513,25.14944076538086,-28.48526000976562,-21.11215972900391,302.7847595214844,289.0115051269531,10,136482.60162075,0.0720062255859375,-0.9059600830078125,-0.4671478271484375,136482.5805649167,0.07272134199013972,-0.8826663937870664,-0.3998555281799851,136482.5805649167,-0.4189440173908998,0.2293678037295916,1.079855627549756,0.06298265606164932,-0.8734661936759949,-0.3666870296001434,-0.02612115442752838,-0.01163441874086857,0.001955206040292978,XTrueNorthZVertical,0.5199441805499271,-0.01018753805971485,-0.1196500174454131,0.8457175842602659,0.1071911007165909,-0.8818897604942322,-0.4591085314750671,62.27746963500977,-20.88297080993652,-23.99883651733398,2,10.3.35.51,10.83.46.32,1,0
2015-02-27 16:53:58.421,42,1425084835.41574,37.78747994313793,-122.3961942854547,11.47892,-1,-1,10,65,-9999,1425084838.415638,25.23469924926758,-28.29833984375,-21.76116943359375,304.0596923828125,290.2864379882812,10,136482.650691625,0.1150970458984375,-0.888641357421875,-0.494659423828125,136482.6323438333,-0.268439713661153,-0.5541263248577681,-0.6888756181130524,136482.5805649167,-0.4189440173908998,0.2293678037295916,1.079855627549756,0.06298265606164932,-0.8734661936759949,-0.3666870296001434,-0.02612115442752838,-0.01163441874086857,0.001955206040292978,XTrueNorthZVertical,0.5199441805499271,-0.01018753805971485,-0.1196500174454131,0.8457175842602659,0.1071911007165909,-0.8818897604942322,-0.4591085314750671,62.27746963500977,-20.88297080993652,-23.99883651733398,2,10.3.35.51,10.83.46.32,1,0
2015-02-27 16:53:58.507,43,1425084835.41574,37.78747994313793,-122.3961942854547,11.47892,-1,-1,10,65,-9999,1425084838.467663,25.23470306396484,-27.58462524414062,-22.75966644287109,306.6469116210938,292.8736572265625,10,136482.699700125,0.13421630859375,-0.887115478515625,-0.4720458984375,136482.68412325,-0.01318318002811024,-0.7358734871341168,-0.8315307713803459,136482.68412325,-0.5394994283867742,0.2713147230062612,1.053117266385138,-0.02292165532708168,-0.726673424243927,-0.7983629703521729,0.005743789486587048,-0.04538234695792198,0.004991049878299236,XTrueNorthZVertical,0.5110956112723913,-0.02000327451434872,-0.1627658564390548,0.8437348617579019,0.1326229125261307,-0.8689700961112976,-0.4767622947692871,61.5608024597168,-17.77153015136719,-28.01725387573242,2,10.3.35.51,10.83.46.32,1,0
2015-02-27 16:53:58.519,44,1425084835.41574,37.78747994313793,-122.3961942854547,11.47892,-1,-1,10,65,-9999,1425084838.467663,25.23470306396484,-27.58462524414062,-22.75966644287109,306.6469116210938,292.8736572265625,10,136482.7487337083,0.16619873046875,-0.93438720703125,-0.4826812744140625,136482.7359024167,-0.1668190791020184,-0.9405022631803172,-1.069507384280409,136482.7359024167,-0.6262736369299648,0.3027707484131368,1.034308399516667,-0.1765574663877487,-0.9313022494316101,-1.03633987903595,0.02644945122301579,-0.05627767369151115,-0.02238214388489723,XTrueNorthZVertical,0.5053673067992482,-0.02584577473459478,-0.1937640793102916,0.840470974238277,0.1523988097906113,-0.8595090508460999,-0.4878717660903931,61.06053161621094,-14.56693077087402,-30.82113075256348,2,10.3.35.51,10.83.46.32,1,0
2015-02-27 16:53:58.608,45,1425084835.41574,37.78747994313793,-122.3961942854547,11.47892,-1,-1,10,65,-9999,1425084838.571,25.47343444824219,-25.23954772949219,-24.62354278564453,313.6212158203125,299.8479614257812,10,136482.797791,0.0434112548828125,-0.9123992919921875,-0.4312591552734375,136482.7876816667,-0.04606150158179249,-0.775372160841627,-0.7668676222165679,136482.7359024167,-0.6262736369299648,0.3027707484131368,1.034308399516667,-0.1765574663877487,-0.9313022494316101,-1.03633987903595,0.02644945122301579,-0.05627767369151115,-0.02238214388489723,XTrueNorthZVertical,0.5053673067992482,-0.02584577473459478,-0.1937640793102916,0.840470974238277,0.1523988097906113,-0.8595090508460999,-0.4878717660903931,61.06053161621094,-14.56693077087402,-30.82113075256348,2,10.3.35.51,10.83.46.32,1,0
2015-02-27 16:53:58.617,46,1425084835.41574,37.78747994313793,-122.3961942854547,11.47892,-1,-1,10,65,-9999,1425084838.571,25.47343444824219,-25.23954772949219,-24.62354278564453,313.6212158203125,299.8479614257812,10,136482.8469606667,0.120391845703125,-0.848358154296875,-0.4158477783203125,136482.8394608333,0.03160506423651536,-0.004528971749788752,-0.5846370962023699,136482.7876816667,-0.7065722800063711,0.3275663378091292,1.013153180226336,-0.05579966679215431,-0.7661723494529724,-0.7337002754211426,-0.05920732021331787,-0.1050933375954628,0.02047449536621571,XTrueNorthZVertical,0.498458126399652,-0.03185070817449977,-0.2242576632816275,0.8367996324661929,0.1702607870101929,-0.8485046625137329,-0.5010500550270081,60.32022857666016,-11.56852149963379,-33.43898391723633,2,10.3.35.51,10.83.46.32,1,0
2015-02-27 16:53:58.704,47,1425084835.41574,37.78747994313793,-122.3961942854547,11.47892,-1,-1,10,65,-9999,1425084838.678788,26.05319213867188,-23.4722900390625,-25.92157745361328,319.4081115722656,305.6348571777344,10,136482.8958855417,0.1779937744140625,-0.82171630859375,-0.494293212890625,136482.8912402917,0.05336548718744381,0.4772842737129488,-0.3314027007850244,136482.8912402917,-0.7918704844466327,0.3983481867586237,0.9989770013590854,0.04340765625238419,0.4866181910037994,-0.2982099950313568,-0.0559539683163166,0.02774642966687679,0.006405627820640802,XTrueNorthZVertical,0.5001705151135781,-0.02082569890010024,-0.2444213691880827,0.830454114434821,0.2099151462316513,-0.8409178256988525,-0.4987914860248566,59.85442733764648,-7.794939041137695,-35.31589508056641,2,10.3.35.51,10.83.46.32,1,0
2015-02-27 16:53:58.717,48,1425084835.41574,37.78747994313793,-122.3961942854547,11.47892,-1,-1,10,65,-9999,1425084838.678788,26.05319213867188,-23.4722900390625,-25.92157745361328,319.4081115722656,305.6348571777344,10,136482.9449552917,0.3138580322265625,-0.8054656982421875,-0.488037109375,136482.8912402917,0.05336548718744381,0.4772842737129488,-0.3314027007850244,136482.8912402917,-0.7918704844466327,0.3983481867586237,0.9989770013590854,0.04340765625238419,0.4866181910037994,-0.2982099950313568,-0.0559539683163166,0.02774642966687679,0.006405627820640802,XTrueNorthZVertical,0.5001705151135781,-0.02082569890010024,-0.2444213691880827,0.830454114434821,0.2099151462316513,-0.8409178256988525,-0.4987914860248566,59.85442733764648,-7.794939041137695,-35.31589508056641,2,10.3.35.51,10.83.46.32,1,0
2015-02-27 16:53:58.806,49,1425084835.41574,37.78747994313793,-122.3961942854547,11.47892,-1,-1,10,65,-9999,1425084838.75308,27.55375671386719,-23.33634948730469,-25.08950042724609,320.1462707519531,306.3730163574219,10,136482.9939807083,0.30810546875,-0.82745361328125,-0.519012451171875,136482.9947987917,0.4263859389593544,0.1564101139814437,-0.08544592567853831,136482.9430195,-0.8182747253487047,0.4438491734823403,1.004204140002836,0.3089941442012787,0.4517211019992828,-0.1485744714736938,0.04265273362398148,0.03947479277849197,0.01590930297970772,XTrueNorthZVertical,0.5074737227494847,-0.00974643015164507,-0.242976596433964,0.8266425450124156,0.2304948419332504,-0.8437350392341614,-0.4847508668899536,60.66790008544922,-7.157848358154297,-34.03963470458984,2,10.3.35.51,10.83.46.32,1,0
2015-02-27 16:53:58.813,50,1425084835.41574,37.78747994313793,-122.3961942854547,11.47892,-1,-1,10,65,-9999,1425084838.804604,27.9630012512207,-23.3023681640625,-24.02442169189453,319.736328125,305.9630737304688,10,136483.0430242083,0.2667083740234375,-0.83770751953125,-0.4665069580078125,136483.0465780417,0.6322690638789822,0.04334054989605853,0.05893122754960041,136482.9947987917,-0.8409125943333786,0.4785268965158387,1.017708426680284,0.4164282977581024,0.1657438278198242,-0.05225389823317528,0.0662115216255188,0.02345284074544907,-0.05270179733633995,XTrueNorthZVertical,0.5165525899631831,-0.00425375678401682,-0.240908864377776,0.8216558538956074,0.2418939471244812,-0.8509064316749573,-0.4663106501102448,61.52804565429688,-7.281194686889648,-32.43162155151367,2,10.3.35.51,10.83.46.32,1,0
2015-02-27 16:53:58.897,51,1425084835.41574,37.78747994313793,-122.3961942854547,11.47892,-1,-1,10,65,-9999,1425084838.858096,28.18467712402344,-23.76119995117188,-23.30882263183594,319.5050659179688,305.7318115234375,10,136483.0920857083,0.1332855224609375,-0.7991943359375,-0.4866790771484375,136483.0465780417,0.6322690638789822,0.04334054989605853,0.05893122754960041,136483.0465780417,-0.8636111863688972,0.4995886768564703,1.042600043890949,0.622311532497406,0.05267416313290596,0.09212292730808258,0.02527117356657982,0.02600998617708683,-0.02412674203515053,XTrueNorthZVertical,0.5279745962233496,-0.007260684474217221,-0.2398478180360213,0.8146552818267829,0.2414371967315674,-0.8637174963951111,-0.4423802196979523,61.67638397216797,-7.895717620849609,-32.00324249267578,2,10.3.35.51,10.83.46.32,1,0
2015-02-27 16:53:58.912,52,1425084835.41574,37.78747994313793,-122.3961942854547,11.47892,-1,-1,10,65,-9999,1425084838.858096,28.18467712402344,-23.76119995117188,-23.30882263183594,319.5050659179688,305.7318115234375,10,136483.1411277083,0.2200775146484375,-0.8845977783203125,-0.374786376953125,136483.0983572083,0.5807153251811192,0.03156698103292722,-0.01284842067908728,136483.0983572083,-0.8874964463696332,0.5241793176419467,1.069562657477245,0.5707578659057617,0.04090051352977753,0.02034297771751881,-0.1072099879384041,0.07779610902070999,-0.07068654149770737,XTrueNorthZVertical,0.540281117808716,-0.01000238153638748,-0.2375092505067856,0.8072085962425254,0.240495502948761,-0.8769904375076294,-0.4159925282001495,61.73041534423828,-8.980398178100586,-31.61067390441895,2,10.3.35.51,10.83.46.32,1,0
2015-02-27 16:53:59.003,53,1425084835.41574,37.78747994313793,-122.3961942854547,11.47892,-1,-1,10,65,-9999,1425084838.985986,28.62802505493164,-25.35859680175781,-20.71273040771484,318.9305725097656,305.1573181152344,10,136483.1901825,0.2444610595703125,-0.828338623046875,-0.3959503173828125,136483.2019159167,0.7694674000727033,0.09102072078840118,-0.04404495600438449,136483.15013675,-0.9133779500524067,0.5570588568999353,1.094486214600584,0.6024082899093628,0.2877243161201477,0.02751027792692184,-0.02232949063181877,0.004095015581697226,0.01439748518168926,XTrueNorthZVertical,0.5525489567417908,-0.00988530307902242,-0.2336656267708994,0.7999952511568528,0.2424070090055466,-0.8886927962303162,-0.3891838490962982,61.92705917358398,-10.18529891967773,-30.85166358947754,2,10.3.35.51,10.83.46.32,1,0
2015-02-27 16:53:59.010,54,1425084835.41574,37.78747994313793,-122.3961942854547,11.47892,-1,-1,10,65,-9999,1425084838.985986,28.62802505493164,-25.35859680175781,-20.71273040771484,318.9305725097656,305.1573181152344,10,136483.2392193333,0.2514801025390625,-0.8692779541015625,-0.3416900634765625,136483.2019159167,0.7694674000727033,0.09102072078840118,-0.04404495600438449,136483.2019159167,-0.9583703701935854,0.6042020515104315,1.123446762576689,0.7595101594924927,0.1003540530800819,-0.01085425540804863,-0.06236960738897324,0.0769965648651123,-0.02830043062567711,XTrueNorthZVertical,0.5673470528249535,-0.01101071952775896,-0.2319111821381438,0.7900717594793324,0.2457497268915176,-0.9015967845916748,-0.3559921681880951,62.21224212646484,-11.06993675231934,-29.96030235290527,2,10.3.35.51,10.83.46.32,1,0
2015-02-27 16:53:59.073,55,1425084835.41574,37.78747994313793,-122.3961942854547,11.47892,-1,-1,10,65,-9999,1425084839.03834,28.79853820800781,-25.83439636230469,-19.78079986572266,319.1268615722656,305.3536071777344,10,136483.2882747083,0.2636260986328125,-0.839752197265625,-0.3289947509765625,136483.2536952917,0.7509227441380455,0.3011712950387719,-0.1447270925953751,136483.2536952917,-1.019743212568521,0.6730685757320304,1.152540381069695,0.7409656047821045,0.3105045557022095,-0.1115367263555527,0.05958984792232513,0.0006669937865808606,0.007422028109431267,XTrueNorthZVertical,0.5840536771133653,-0.009358713168848766,-0.2292372955388345,0.7786167702364108,0.2532000541687012,-0.9137986898422241,-0.3175874352455139,62.45011901855469,-12.0368824005127,-29.07958602905273,2,10.3.35.51,10.83.46.32,1,0
2015-02-27 16:53:59.111,56,1425084835.41574,37.78747994313793,-122.3961942854547,11.47892,-1,-1,10,65,-9999,1425084839.089969,29.42945861816406,-26.56509399414062,-19.39803314208984,321.4804077148438,307.7071533203125,10,136483.3373150417,0.3216552734375,-0.9316558837890625,-0.2846832275390625,136483.3054745417,0.6170304561215488,0.11632447956968,-0.02850807420486221,136483.3054745417,-1.082986555965056,0.7405933990946854,1.174896751491601,0.6070734262466431,0.1256576329469681,0.004681996069848537,-0.03729994222521782,0.05550830438733101,-0.01551281474530697,XTrueNorthZVertical,0.5980129210933574,-0.008170865327489649,-0.2280518546562646,0.7683138880523942,0.2602003216743469,-0.9226500391960144,-0.2846275568008423,62.9491081237793,-12.7912654876709,-27.64633178710938,2,10.3.35.51,10.83.46.32,1,0
2015-02-27 16:53:59.174,57,1425084835.41574,37.78747994313793,-122.3961942854547,11.47892,-1,-1,10,65,-9999,1425084839.142117,29.88985824584961,-26.71804809570312,-18.28304290771484,322.0406188964844,308.2673645019531,10,136483.3863713334,0.24554443359375,-0.896148681640625,-0.30029296875,136483.3572540834,0.577144558791541,0.003946804735497431,-0.1051085766388113,136483.3572540834,-1.138815537653664,0.7970725518058158,1.194432008629812,0.5671876072883606,0.01327985990792513,-0.07191886752843857,0.04995855316519737,-0.06558316946029663,-0.005733593367040157,XTrueNorthZVertical,0.6095050603985276,-0.009151884143532749,-0.2270773237200903,0.7595102430109094,0.2629076540470123,-0.9300070405006409,-0.2568396627902985,63.13751602172852,-13.50927734375,-26.86409759521484,2,10.3.35.51,10.83.46.32,1,0
2015-02-27 16:53:59.207,58,1425084835.41574,37.78747994313793,-122.3961942854547,11.47892,-1,-1,10,65,-9999,1425084839.193406,29.94100952148438,-27.38078308105469,-16.96835327148438,321.053466796875,307.2802124023438,10,136483.435406125,0.30621337890625,-0.9909515380859375,-0.252227783203125,136483.4090332083,0.2646692101898188,0.09954549943774482,-0.001765409486613527,136483.4090332083,-1.181211832544523,0.8426048441038954,1.209463418694699,0.2547123730182648,0.1088784635066986,0.03142396360635757,-0.001760953105986118,0.01159831788390875,-0.071059450507164,XTrueNorthZVertical,0.6182815789295799,-0.009480927191613558,-0.2249297956882443,0.7530236941881283,0.2638611793518066,-0.9354264140129089,-0.235275998711586,63.22090148925781,-14.0731258392334,-26.37405395507812,2,10.3.35.51,10.83.46.32,1,0
2015-02-27 16:53:59.274,59,1425084835.41574,37.78747994313793,-122.3961942854547,11.47892,-1,-1,10,65,-9999,1425084839.245594,30.11153030395508,-28.02653503417969,-15.93656921386719,319.4214782714844,305.6482238769531,10,136483.4844735417,0.21978759765625,-0.910003662109375,-0.106964111328125,136483.46081275,0.126235699882519,-0.1458568055297867,0.1147670629642017,136483.46081275,-1.186172426671681,0.844062982111031,1.214820438649669,0.1162776350975037,-0.1365189254283905,0.147946298122406,0.05376909300684929,-0.03638701513409615,-0.04473277181386948,XTrueNorthZVertical,0.6197373402253439,-0.01210654622997723,-0.2248202945406415,0.7518211167908329,0.2604551613330841,-0.937306821346283,-0.2315581142902374,63.25847244262695,-14.49490737915039,-26.05359268188477,2,10.3.35.51,10.83.46.32,1,0
2015-02-27 16:53:59.305,60,1425084835.41574,37.78747994313793,-122.3961942854547,11.47892,-1,-1,10,65,-9999,1425084839.297218,29.71934127807617,-27.49972534179688,-16.019775390625,319.5379333496094,305.7646789550781,10,136483.5335092084,0.3568572998046875,-0.971588134765625,-0.14007568359375,136483.512592,0.08889658350295399,-0.4769937228380212,-0.0003504719994544277,136483.512592,-1.190629179443937,0.8357716368348894,1.228453204504494,0.07894648611545563,-0.4676672220230103,0.03285282477736473,0.08163435757160187,0.04998764395713806,0.05736403539776802,XTrueNorthZVertical,0.6221002434130474,-0.02077753884013366,-0.2251823345144419,0.7495682711194211,0.2490236014127731,-0.9419707059860229,-0.2251191586256027,62.93807983398438,-15.35470581054688,-26.33547592163086,2,10.3.35.51,10.83.46.32,1,0
2015-02-27 16:53:59.373,61,1425084835.41574,37.78747994313793,-122.3961942854547,11.47892,-1,-1,10,65,-9999,1425084839.349331,29.61703109741211,-26.81999206542969,-15.82007598876953,319.75048828125,305.9772338867188,10,136483.5825972084,0.2414703369140625,-0.9073028564453125,-0.1092681884765625,136483.5643714583,0.09861578990119815,-0.2600805836316123,-0.005843774379960872,136483.5643714583,-1.198765060048419,0.8208420234650324,1.231204654537206,0.08866580575704575,-0.2507542073726654,0.02735915593802929,0.06162124127149582,0.03200208768248558,0.1171810403466225,XTrueNorthZVertical,0.6209617184446099,-0.02973856444653407,-0.2320857071567511,0.7481032564864861,0.2437376379966736,-0.9428907632827759,-0.2270443290472031,62.34191131591797,-15.50944137573242,-27.63096237182617,2,10.3.35.51,10.83.46.32,1,0
2015-02-27 16:53:59.403,62,1425084835.41574,37.78747994313793,-122.3961942854547,11.47892,-1,-1,10,65,-9999,1425084839.349331,29.61703109741211,-26.81999206542969,-15.82007598876953,319.75048828125,305.9772338867188,10,136483.6316139583,0.3119354248046875,-0.97076416015625,-0.1131134033203125,136483.61615075,-0.4644305267116814,-0.1693413589704325,0.002661829509534199,136483.5643714583,-1.198765060048419,0.8208420234650324,1.231204654537206,0.08866580575704575,-0.2507542073726654,0.02735915593802929,0.06162124127149582,0.03200208768248558,0.1171810403466225,XTrueNorthZVertical,0.6209617184446099,-0.02973856444653407,-0.2320857071567511,0.7481032564864861,0.2437376379966736,-0.9428907632827759,-0.2270443290472031,62.34191131591797,-15.50944137573242,-27.63096237182617,2,10.3.35.51,10.83.46.32,1,0
2015-02-27 16:53:59.461,63,1425084835.41574,37.78747994313793,-122.3961942854547,11.47892,-1,-1,10,65,-9999,1425084839.451484,30.0433235168457,-25.27360534667969,-16.03642272949219,320.8065490722656,307.0332946777344,10,136483.6807857083,0.192535400390625,-0.9025421142578125,-0.13165283203125,136483.6679303334,0.004840028965110007,0.1879262286375505,-0.2432792329465204,136483.6679303334,-1.192423975082278,0.8139274171543286,1.220697693579455,-0.005109765566885471,0.1972524374723434,-0.2100769281387329,-0.1283942013978958,0.05689259991049767,0.1645301580429077,XTrueNorthZVertical,0.6176614815556907,-0.02715273572279887,-0.2348243258881177,0.7500764327303888,0.2493506222963333,-0.9393388628959656,-0.2355140447616577,62.07761383056641,-15.18006706237793,-28.39826583862305,2,10.3.35.51,10.83.46.32,1,0
2015-02-27 16:53:59.502,64,1425084835.41574,37.78747994313793,-122.3961942854547,11.47892,-1,-1,10,65,-9999,1425084839.451484,30.0433235168457,-25.27360534667969,-16.03642272949219,320.8065490722656,307.0332946777344,10,136483.7297157917,0.2910614013671875,-0.965789794921875,-0.1690826416015625,136483.7197094584,-0.01088140989795476,0.1721589834037363,0.0005659217316418381,136483.6679303334,-1.192423975082278,0.8139274171543286,1.220697693579455,-0.005109765566885471,0.1972524374723434,-0.2100769281387329,-0.1283942013978958,0.05689259991049767,0.1645301580429077,XTrueNorthZVertical,0.6176614815556907,-0.02715273572279887,-0.2348243258881177,0.7500764327303888,0.2493506222963333,-0.9393388628959656,-0.2355140447616577,62.07761383056641,-15.18006706237793,-28.39826583862305,2,10.3.35.51,10.83.46.32,1,0
2015-02-27 16:53:59.559,65,1425084835.41574,37.78747994313793,-122.3961942854547,11.47892,-1,-1,10,65,-9999,1425084839.504273,30.29910278320312,-24.84878540039062,-15.88665771484375,321.2124938964844,307.4392395019531,10,136483.7787715417,0.362213134765625,-0.9994964599609375,-0.1856536865234375,136483.7714890833,0.08788484860483288,0.5107785844267664,0.2242498816934682,136483.7714890833,-1.203551625005901,0.8602963783466249,1.226297517762914,0.07793526351451874,0.5201045870780945,0.2574514746665955,0.06801256537437439,-0.07421232014894485,0.03958938643336296,XTrueNorthZVertical,0.6242131059298901,-0.01495475637115788,-0.2229992914000264,0.748602541742601,0.2560078203678131,-0.9412448406219482,-0.2202687114477158,62.94528198242188,-14.98625755310059,-26.52980041503906,2,10.3.35.51,10.83.46.32,1,0
2015-02-27 16:53:59.600,66,1425084835.41574,37.78747994313793,-122.3961942854547,11.47892,-1,-1,10,65,-9999,1425084839.55851,30.74245071411133,-24.95075988769531,-14.98801422119141,319.5000610351562,305.726806640625,10,136483.82780075,0.2332305908203125,-0.950836181640625,-0.1916656494140625,136483.8232684167,0.02854695635677737,0.1878889443822893,0.3707303995505515,136483.7714890833,-1.203551625005901,0.8602963783466249,1.226297517762914,0.07793526351451874,0.5201045870780945,0.2574514746665955,0.06801256537437439,-0.07421232014894485,0.03958938643336296,XTrueNorthZVertical,0.6242131059298901,-0.01495475637115788,-0.2229992914000264,0.748602541742601,0.2560078203678131,-0.9412448406219482,-0.2202687114477158,62.94528198242188,-14.98625755310059,-26.52980041503906,2,10.3.35.51,10.83.46.32,1,0
2015-02-27 16:53:59.657,67,1425084835.41574,37.78747994313793,-122.3961942854547,11.47892,-1,-1,10,65,-9999,1425084839.612126,30.79360580444336,-25.44355773925781,-14.47211456298828,318.4685668945312,304.6953125,10,136483.8769664583,0.3505706787109375,-0.9643707275390625,-0.1153564453125,136483.8750478333,0.01220766412081422,0.2402544145804084,0.2850362672584178,136483.8232684167,-1.166532463936058,0.8418485468692963,1.241825848966878,0.01859745942056179,0.1972148716449738,0.4039317071437836,0.06908919662237167,0.007639489602297544,0.02143544703722,XTrueNorthZVertical,0.6262408025748849,-0.01505594928327684,-0.2104379112935086,0.7505409761586149,0.2409694045782089,-0.9463754296302795,-0.2151915580034256,63.203857421875,-15.98643112182617,-25.30282783508301,2,10.3.35.51,10.83.46.32,1,0
2015-02-27 16:53:59.700,68,1425084835.41574,37.78747994313793,-122.3961942854547,11.47892,-1,-1,10,65,-9999,1425084839.685733,30.41846466064453,-26.293212890625,-14.00614929199219,315.8386535644531,302.0653991699219,10,136483.9258965417,0.2845458984375,-0.9993438720703125,-0.0922088623046875,136483.8750478333,0.01220766412081422,0.2402544145804084,0.2850362672584178,136483.8750478333,-1.13585260638933,0.8208051912473669,1.251718853383066,0.002087604021653533,0.2496959567070007,0.3182777166366577,0.0852779895067215,0.01464972179383039,0.0908818244934082,XTrueNorthZVertical,0.6267554516670126,-0.016329680938652,-0.2027049198869209,0.7522112446652974,0.229526087641716,-0.9495252370834351,-0.2138218879699707,63.16624069213867,-16.98834609985352,-24.73758888244629,2,10.3.35.51,10.83.46.32,1,0
2015-02-27 16:53:59.755,69,1425084835.41574,37.78747994313793,-122.3961942854547,11.47892,-1,-1,10,65,-9999,1425084839.73791,29.85575866699219,-27.22782897949219,-13.2239990234375,313.8846740722656,300.1114196777344,10,136483.9750606667,0.318878173828125,-0.8438873291015625,-0.006378173828125,136483.9786068333,0.3744199429247473,0.6573941245511168,0.3007662282369709,136483.9268272083,-1.082513407635977,0.7966352721138007,1.272593862008529,0.08903753012418747,0.5152814388275146,0.5695140957832336,0.07447464764118195,-0.04347771778702736,0.113193467259407,XTrueNorthZVertical,0.6301423971811871,-0.01481191329677782,-0.1844115765508425,0.7541177844040187,0.2100712507963181,-0.9558661580085754,-0.2054023295640945,63.31318664550781,-18.53713417053223,-23.20219039916992,2,10.3.35.51,10.83.46.32,1,0
2015-02-27 16:53:59.804,70,1425084835.41574,37.78747994313793,-122.3961942854547,11.47892,-1,-1,10,65,-9999,1425084839.791246,29.46356201171875,-28.06050109863281,-12.30870819091797,311.7025146484375,297.9292602539062,10,136484.0239887083,0.2037200927734375,-0.902313232421875,-0.09661865234375,136483.9786068333,0.3744199429247473,0.6573941245511168,0.3007662282369709,136483.9786068333,-1.056998433500117,0.7996450010673364,1.295384776005191,0.3643034398555756,0.666837215423584,0.3340044319629669,0.1238652765750885,0.1184260323643684,0.1831557750701904,XTrueNorthZVertical,0.6364628852531942,-0.01216630387206006,-0.1675903276330089,0.752781877206333,0.1950128972530365,-0.9623133540153503,-0.1895339488983154,63.3849983215332,-20.14012718200684,-21.61582183837891,2,10.3.35.51,10.83.46.32,1,0
2015-02-27 16:53:59.854,71,1425084835.41574,37.78747994313793,-122.3961942854547,11.47892,-1,-1,10,65,-9999,1425084839.841855,29.24188995361328,-28.96115112304688,-10.92745208740234,309.2206420898438,295.4473876953125,10,136484.07307325,0.337554931640625,-0.9411773681640625,-0.0066070556640625,136484.030386,0.1712702865479769,0.545480372378826,0.3626703425114267,136484.030386,-1.035972499588151,0.8129314276174789,1.321775711393226,0.1611538827419281,0.554923415184021,0.3959082365036011,0.02471836283802986,0.06684102863073349,0.07278783619403839,XTrueNorthZVertical,0.6443857804941348,-0.007982537559627051,-0.148186180750503,0.7501627800996338,0.1790017336606979,-0.9691542387008667,-0.1694064885377884,63.65329742431641,-21.61745071411133,-19.27355194091797,2,10.3.35.51,10.83.46.32,1,0
2015-02-27 16:53:59.905,72,1425084835.41574,37.78747994313793,-122.3961942854547,11.47892,-1,-1,10,65,-9999,1425084839.892506,29.63407897949219,-29.55593872070312,-10.07872772216797,307.9630737304688,294.1898193359375,10,136484.1220869583,0.2676239013671875,-0.8082427978515625,-0.0995330810546875,136484.082165625,0.1695850382101747,0.9827980549807376,-0.0177760676440609,136484.082165625,-1.048430600330751,0.8623705711015701,1.330611752682872,0.1594707071781158,0.9922416806221008,0.01546084508299828,0.1569102257490158,0.03011671639978886,0.1481684446334839,XTrueNorthZVertical,0.6500742884547216,0.00395879142705434,-0.1343871678075687,0.7478822985004684,0.1806447058916092,-0.971294105052948,-0.1547755002975464,63.95954895019531,-22.85234832763672,-16.65751266479492,2,10.3.35.51,10.83.46.32,1,0
2015-02-27 16:53:59.951,73,1425084835.41574,37.78747994313793,-122.3961942854547,11.47892,-1,-1,10,65,-9999,1425084839.946307,29.54882049560547,-30.32060241699219,-8.597625732421875,305.6620788574219,291.8888244628906,10,136484.1711504167,0.4460601806640625,-0.9797515869140625,-0.1124725341796875,136484.133945,0.06889517845202286,1.185197765194542,0.03600913373117939,136484.133945,-1.050332997532284,0.9218677957219136,1.340235693059606,0.05878095701336861,1.19464123249054,0.06924568116664886,-0.1864971518516541,0.07226279377937317,0.2305879592895508,XTrueNorthZVertical,0.6560722586430119,0.02273697278100236,-0.1129105987652691,0.7458575695234584,0.1820721030235291,-0.9735384583473206,-0.1381044387817383,64.58355712890625,-23.23474502563477,-13.40290260314941,2,10.3.35.51,10.83.46.32,1,0
2015-02-27 16:54:00.002,74,1425084835.41574,37.78747994313793,-122.3961942854547,11.47892,-1,-1,10,65,-9999,1425084839.946307,29.54882049560547,-30.32060241699219,-8.597625732421875,305.6620788574219,291.8888244628906,10,136484.2201962917,0.25506591796875,-1.196914672851562,0.0353240966796875,136484.1857245,-0.4644244014411743,1.026204384955721,-0.04342124367708793,136484.1857245,-1.013182654017873,0.9678737882113803,1.32587718272984,-0.4745385050773621,1.035647749900818,-0.01018502656370401,0.2167942374944687,-0.1248595491051674,0.08360375463962555,XTrueNorthZVertical,0.6542758906055544,0.05633970150149117,-0.08813525381709712,0.7489867621412191,0.1997249275445938,-0.9701569080352783,-0.1374977976083755,65.37668609619141,-23.18852233886719,-8.871720314025879,2,10.3.35.51,10.83.46.32,1,0
2015-02-27 16:54:00.050,75,1425084835.41574,37.78747994313793,-122.3961942854547,11.47892,-1,-1,10,65,-9999,1425084839.997025,29.07136917114258,-31.00032043457031,-7.698982238769531,303.9234313964844,290.1501770019531,10,136484.269289875,-0.054779052734375,-0.9362945556640625,0.094024658203125,136484.237503875,-1.069551592754505,1.644801578746564,0.7224559489300796,136484.237503875,-0.8591480633723767,0.8729452476760288,1.32222453915157,-1.079665660858154,1.654244899749756,0.7556918263435364,-0.1624295264482498,-0.06700536608695984,0.3171129524707794,XTrueNorthZVertical,0.6448474939153591,0.07161550536850296,-0.06193475585636485,0.7584240969405358,0.1885067969560623,-0.969264805316925,-0.1580858528614044,65.74140930175781,-23.30401039123535,-5.051409721374512,2,10.3.35.51,10.83.46.32,1,0
2015-02-27 16:54:00.117,76,1425084835.41574,37.78747994313793,-122.3961942854547,11.47892,-1,-1,10,65,-9999,1425084840.052191,28.84969711303711,-31.69705200195312,-7.216377258300781,302.1050415039062,288.331787109375,10,136484.3183469167,0.6024627685546875,-1.107177734375,-0.1690521240234375,136484.2892834167,-1.025772952859128,4.337571161193084,0.9222817139503221,136484.2892834167,-0.390954807886291,0.619336960731091,1.330231519905705,-1.035881161689758,4.347013473510742,0.9555224776268005,0.5216386914253235,0.00706171803176403,0.1575005054473877,XTrueNorthZVertical,0.6231753271582311,0.121048526033001,0.03892698823068188,0.7716764551124503,0.1383039206266403,-0.9712035655975342,-0.1939995288848877,64.01585388183594,-28.09005165100098,1.856419086456299,2,10.3.35.51,10.83.46.32,1,0
2015-02-27 16:54:00.148,77,1425084835.41574,37.78747994313793,-122.3961942854547,11.47892,-1,-1,10,65,-9999,1425084840.103429,27.07630157470703,-34.48391723632812,-6.118019104003906,290.0713806152344,276.2981262207031,10,136484.3675349167,0.0386199951171875,-0.943817138671875,-0.20465087890625,136484.34106275,-0.8616676349079005,0.007947139008905455,0.9016275681162125,136484.34106275,-0.145346852955531,0.4515795076187666,1.316664956540963,-0.8717756867408752,0.0173893179744482,0.9348679780960083,-0.0802147313952446,-0.01559269335120916,0.05181125923991203,XTrueNorthZVertical,0.6075541051602167,0.1333267783488092,0.08062829205176289,0.7788460398692865,0.1097099706530571,-0.9678820371627808,-0.2262039631605148,61.71187591552734,-31.2215461730957,10.36274719238281,2,10.3.35.51,10.83.46.32,1,0
2015-02-27 16:54:00.203,78,1425084835.41574,37.78747994313793,-122.3961942854547,11.47892,-1,-1,10,65,-9999,1425084840.153605,25.43932723999023,-35.9453125,-5.385780334472656,281.8628540039062,268.089599609375,10,136484.4164635417,0.154144287109375,-0.914398193359375,-0.3180084228515625,136484.3928424583,-1.146207755255237,0.75208121921223,0.9750935299471384,136484.3928424583,0.08861402769909069,0.2560302702430539,1.285131109056322,-1.156315684318542,0.7615233063697815,1.008333683013916,0.1732967644929886,0.002611006144434214,-0.02577533200383186,XTrueNorthZVertical,0.5892375004970697,0.1284290628900533,0.1115974655163273,0.789842544640791,0.07136265188455582,-0.9594743847846985,-0.2726102769374847,59.58750534057617,-35.20858001708984,10.01058769226074,2,10.3.35.51,10.83.46.32,1,0
2015-02-27 16:54:00.246,79,1425084835.41574,37.78747994313793,-122.3961942854547,11.47892,-1,-1,10,65,-9999,1425084840.204685,24.0751838684082,-36.65902709960938,-5.984878540039062,275.4899291992188,261.7166748046875,10,136484.4655852917,-0.1434783935546875,-0.7440643310546875,-0.2446746826171875,136484.444621875,-0.4844063654161477,0.1846026035971316,1.022481818384008,136484.444621875,0.2925013406922198,0.07729672101923207,1.251648369420365,-0.4945142269134521,0.1940446048974991,1.055721640586853,-0.1156131997704506,0.0904485285282135,0.001114473328925669,XTrueNorthZVertical,0.574515566478435,0.1162813643597085,0.1404146170274458,0.7979312873442188,0.02422831021249294,-0.9495031237602234,-0.3128210306167603,57.58292770385742,-38.47806167602539,9.704261779785156,2,10.3.35.51,10.83.46.32,1,0
2015-02-27 16:54:00.301,80,1425084835.41574,37.78747994313793,-122.3961942854547,11.47892,-1,-1,10,65,-9999,1425084840.258053,22.38705444335938,-37.72958374023438,-6.500770568847656,271.0183715820312,257.2451171875,10,136484.514581625,0.3117218017578125,-0.84381103515625,-0.4624786376953125,136484.49640125,-0.3260358985562967,1.210847468601422,1.178548118268723,136484.444621875,0.2925013406922198,0.07729672101923207,1.251648369420365,-0.4945142269134521,0.1940446048974991,1.055721640586853,-0.1156131997704506,0.0904485285282135,0.001114473328925669,XTrueNorthZVertical,0.574515566478435,0.1162813643597085,0.1404146170274458,0.7979312873442188,0.02422831021249294,-0.9495031237602234,-0.3128210306167603,57.58292770385742,-38.47806167602539,9.704261779785156,2,10.3.35.51,10.83.46.32,1,0
2015-02-27 16:54:00.344,81,1425084835.41574,37.78747994313793,-122.3961942854547,11.47892,-1,-1,10,65,-9999,1425084840.308734,19.99980163574219,-38.54525756835938,-6.866889953613281,266.4139099121094,252.6406555175781,10,136484.5637604583,0.1001129150390625,-0.811279296875,-0.424774169921875,136484.5481809583,0.1711459169250702,0.2477610667450147,1.197075996288513,136484.5481809583,0.6543221086808283,-0.1819049107892551,1.223804302178984,0.1610382497310638,0.2572028636932373,1.230315089225769,0.1990932077169418,0.0779578760266304,-0.1134160086512566,XTrueNorthZVertical,0.5656005903402275,0.1134283441234054,0.2125548027357396,0.7887018033524067,-0.06151996552944183,-0.9403998851776123,-0.3344599604606628,51.5706672668457,-45.52272415161133,12.59661960601807,2,10.3.35.51,10.83.46.32,1,0
2015-02-27 16:54:00.401,82,1425084835.41574,37.78747994313793,-122.3961942854547,11.47892,-1,-1,10,65,-9999,1425084840.360633,17.40791702270508,-39.53085327148438,-6.434211730957031,261.6693420410156,247.8961029052734,10,136484.6127402917,0.254486083984375,-0.8336181640625,-0.5158538818359375,136484.599960375,-0.1053527885107716,-0.1308064832614219,1.14719205959413,136484.599960375,0.8284053571706824,-0.3429321716164587,1.209787014693202,-0.1154603734612465,-0.1213647574186325,1.180430769920349,0.3184615969657898,0.1541076898574829,-0.1272174865007401,XTrueNorthZVertical,0.5694377273331143,0.09702952308832143,0.2373680181773625,0.7810137425850205,-0.1187698245048523,-0.9355407953262329,-0.3326518833637238,48.81324768066406,-48.28757476806641,13.27044010162354,2,10.3.35.51,10.83.46.32,1,0
2015-02-27 16:54:00.441,83,1425084835.41574,37.78747994313793,-122.3961942854547,11.47892,-1,-1,10,65,-9999,1425084840.412239,14.83309555053711,-40.66940307617188,-6.317710876464844,257.4583435058594,243.6850891113281,10,136484.6617640833,0.0016021728515625,-0.8184051513671875,-0.314056396484375,136484.6517399584,-0.04342603736705007,-1.232696308500541,0.9804073352701735,136484.599960375,0.8284053571706824,-0.3429321716164587,1.209787014693202,-0.1154603734612465,-0.1213647574186325,1.180430769920349,0.3184615969657898,0.1541076898574829,-0.1272174865007401,XTrueNorthZVertical,0.5694377273331143,0.09702952308832143,0.2373680181773625,0.7810137425850205,-0.1187698245048523,-0.9355407953262329,-0.3326518833637238,48.81324768066406,-48.28757476806641,13.27044010162354,2,10.3.35.51,10.83.46.32,1,0
2015-02-27 16:54:00.501,84,1425084835.41574,37.78747994313793,-122.3961942854547,11.47892,-1,-1,10,65,-9999,1425084840.46376,12.15596008300781,-41.33212280273438,-6.667182922363281,255.2240600585938,241.4508056640625,10,136484.710809,-0.0204620361328125,-0.822662353515625,-0.375244140625,136484.7035194167,-0.06444929732824459,-1.022030945211458,0.8479132068259684,136484.6517399584,0.9566120206495357,-0.5024503854138984,1.183431472886024,-0.05353351682424545,-1.223254680633545,1.013645887374878,0.2742304503917694,0.07681712508201599,-0.03075436316430569,XTrueNorthZVertical,0.5746113252212056,0.06550422340921297,0.2469304524384935,0.7775322945850963,-0.1819147765636444,-0.9259076714515686,-0.3310620486736298,46.41460037231445,-50.80924224853516,12.43513679504395,2,10.3.35.51,10.83.46.32,1,0
2015-02-27 16:54:00.541,85,1425084835.41574,37.78747994313793,-122.3961942854547,11.47892,-1,-1,10,65,-9999,1425084840.515936,9.888069152832031,-41.62100219726562,-7.515907287597656,254.9260711669922,241.1528167724609,10,136484.7599779583,-0.05706787109375,-0.825286865234375,-0.387542724609375,136484.7552991667,-0.0531803974916833,-1.456158427143564,0.8612987870969246,136484.7552991667,1.127561653496698,-0.7769117394451516,1.125736569186194,-0.06328767538070679,-1.446717023849487,0.8945366144180298,0.2842607200145721,0.05848398804664612,-0.1027386412024498,XTrueNorthZVertical,0.5886068134669248,-0.006843867546354609,0.2474399151229132,0.7695899978835774,-0.3018235862255096,-0.902584969997406,-0.3069903552532196,42.36220932006836,-55.2178955078125,6.85230541229248,2,10.3.35.51,10.83.46.32,1,0
2015-02-27 16:54:00.604,86,1425084835.41574,37.78747994313793,-122.3961942854547,11.47892,-1,-1,10,65,-9999,1425084840.567362,7.858901977539062,-42.04580688476562,-8.198219299316406,255.2287902832031,241.4555358886719,10,136484.808939875,-0.4128875732421875,-0.7681121826171875,-0.17950439453125,136484.7552991667,-0.0531803974916833,-1.456158427143564,0.8612987870969246,136484.7552991667,1.127561653496698,-0.7769117394451516,1.125736569186194,-0.06328767538070679,-1.446717023849487,0.8945366144180298,0.2842607200145721,0.05848398804664612,-0.1027386412024498,XTrueNorthZVertical,0.5886068134669248,-0.006843867546354609,0.2474399151229132,0.7695899978835774,-0.3018235862255096,-0.902584969997406,-0.3069903552532196,42.36220932006836,-55.2178955078125,6.85230541229248,2,10.3.35.51,10.83.46.32,1,0
2015-02-27 16:54:00.638,87,1425084835.41574,37.78747994313793,-122.3961942854547,11.47892,-1,-1,10,65,-9999,1425084840.6198,5.897941589355469,-42.33467102050781,-8.747390747070312,255.8965454101562,242.123291015625,10,136484.857990625,-0.449951171875,-0.7228851318359375,-0.1956787109375,136484.8588579583,-0.01788765409373522,-1.051392029913472,0.371518695233215,136484.8070784167,1.178097796743991,-0.9091220323273822,1.091544653837491,-0.1958251148462296,-1.682555079460144,0.7037907838821411,-0.02628719620406628,0.1233174055814743,0.1031666323542595,XTrueNorthZVertical,0.5962668709329241,-0.05293620299580038,0.2371398608115068,0.7651329030147015,-0.3638037443161011,-0.887340247631073,-0.2833271622657776,40.5505256652832,-56.84513854980469,3.848625183105469,2,10.3.35.51,10.83.46.32,1,0
2015-02-27 16:54:00.704,88,1425084835.41574,37.78747994313793,-122.3961942854547,11.47892,-1,-1,10,65,-9999,1425084840.671041,4.465599060058594,-42.19873046875,-8.980377197265625,256.7160949707031,242.9428558349609,10,136484.9070275417,-0.4427337646484375,-0.8577728271484375,-0.2241973876953125,136484.9106375834,0.02428137123879745,-1.120510647580953,0.3511705466083555,136484.8588579583,1.197549124055615,-0.9913395313282343,1.068829573049349,-0.02798103913664818,-1.041920781135559,0.4048464000225067,-0.04734336957335472,0.1537528187036514,0.06778475642204285,XTrueNorthZVertical,0.6007882252681424,-0.0855673722786829,0.2265609551672768,0.7618411662514218,-0.402607798576355,-0.8766379356384277,-0.2634634673595428,38.57114028930664,-58.33209991455078,-0.4007816314697266,2,10.3.35.51,10.83.46.32,1,0
2015-02-27 16:54:00.737,89,1425084835.41574,37.78747994313793,-122.3961942854547,11.47892,-1,-1,10,65,-9999,1425084840.724686,3.425437927246094,-42.01179504394531,-9.096870422363281,257.6946411132812,243.92138671875,10,136484.9562019167,-0.533599853515625,-0.8686370849609375,-0.2441864013671875,136484.9106375834,0.02428137123879745,-1.120510647580953,0.3511705466083555,136484.9106375834,1.22128816356574,-1.060827661105683,1.050877543779116,0.01418808661401272,-1.111039519309998,0.3844979107379913,-0.009138140827417374,0.01008670497685671,0.01832026615738869,XTrueNorthZVertical,0.6054247037589037,-0.110463119985637,0.2199959268921858,0.7568756272819782,-0.4335956275463104,-0.8678595423698425,-0.2425176501274109,37.39563369750977,-59.05618286132812,-2.112027168273926,2,10.3.35.51,10.83.46.32,1,0
2015-02-27 16:54:00.803,90,1425084835.41574,37.78747994313793,-122.3961942854547,11.47892,-1,-1,10,65,-9999,1425084840.77595,2.606941223144531,-42.48759460449219,-8.930458068847656,257.8596496582031,244.0863952636719,10,136485.0051335834,-0.5963287353515625,-0.7512054443359375,-0.1026153564453125,136484.9624171667,-0.2140092283537865,-1.123335728865309,0.2746070621135585,136484.9624171667,1.224722170677589,-1.119790973972259,1.033365010997273,-0.2241024225950241,-1.113864541053772,0.3079341351985931,-0.07285693287849426,-0.009610582143068314,-0.02105062454938889,XTrueNorthZVertical,0.6079387258512892,-0.1372684143386955,0.2087704060913266,0.7536464034259509,-0.4607429206371307,-0.8590264916419983,-0.223135769367218,36.25517654418945,-59.66567993164062,-4.0119948387146,2,10.3.35.51,10.83.46.32,1,0
2015-02-27 16:54:00.834,91,1425084835.41574,37.78747994313793,-122.3961942854547,11.47892,-1,-1,10,65,-9999,1425084840.828483,1.362152099609375,-42.81045532226562,-9.180091857910156,258.6023254394531,244.8290710449219,10,136485.0543097917,-0.5073394775390625,-0.7207794189453125,-0.069091796875,136485.0659762083,0.01154666753825655,-0.6465553252306032,0.3490141850737184,136485.014196625,1.220590046586272,-1.168062843941042,1.011814462569351,-0.1711907535791397,-0.9196199178695679,0.4118025600910187,-0.108434833586216,0.09659004956483841,0.1052367463707924,XTrueNorthZVertical,0.6077193769621199,-0.1635576600907153,0.1992546241819759,0.7511482818017223,-0.4878939092159271,-0.8477954864501953,-0.2078520953655243,34.65264129638672,-60.32798767089844,-7.089117527008057,2,10.3.35.51,10.83.46.32,1,0
2015-02-27 16:54:00.873,92,1425084835.41574,37.78747994313793,-122.3961942854547,11.47892,-1,-1,10,65,-9999,1425084840.828483,1.362152099609375,-42.81045532226562,-9.180091857910156,258.6023254394531,244.8290710449219,10,136485.1032387917,-0.6719970703125,-0.8619842529296875,-0.0784149169921875,136485.0659762083,0.01154666753825655,-0.6465553252306032,0.3490141850737184,136485.0659762083,1.230572242416276,-1.211157865827411,0.9922329618119814,0.001456491532735527,-0.6370850205421448,0.3823434710502625,-0.00486995792016387,0.07855159044265747,0.1167168319225311,XTrueNorthZVertical,0.6085402706326152,-0.182908825735337,0.1960662427584962,0.7468475244373693,-0.511838436126709,-0.8372491002082825,-0.1924462020397186,33.24625396728516,-60.91737365722656,-8.61898136138916,2,10.3.35.51,10.83.46.32,1,0
2015-02-27 16:54:00.932,93,1425084835.41574,37.78747994313793,-122.3961942854547,11.47892,-1,-1,10,65,-9999,1425084840.904764,-0.5647048950195312,-42.55557250976562,-9.363143920898438,259.2640991210938,245.4908447265625,10,136485.1523151667,-0.6195068359375,-0.866241455078125,-0.128662109375,136485.1177557083,0.272135914938074,-0.5078501724921153,0.09061698556714516,136485.1177557083,1.254440651970872,-1.26325220860653,0.9817915986191563,0.2620711624622345,-0.4983808994293213,0.1239565834403038,-0.1486324220895767,-0.05823073536157608,0.09352461248636246,XTrueNorthZVertical,0.6136633945389087,-0.198322806964559,0.1923603676129325,0.7396505169562559,-0.5294681787490845,-0.8314939737319946,-0.1681706011295319,31.9100341796875,-61.51438140869141,-9.394523620605469,2,10.3.35.51,10.83.46.32,1,0
2015-02-27 16:54:00.974,94,1425084835.41574,37.78747994313793,-122.3961942854547,11.47892,-1,-1,10,65,-9999,1425084840.958291,-0.70111083984375,-42.75949096679688,-8.764045715332031,259.8908996582031,246.1176452636719,10,136485.2013517917,-0.645538330078125,-0.901458740234375,-0.1360321044921875,136485.1695355,0.2439631327144527,-0.3386411726278598,-0.09953165100007641,136485.1695355,1.283118031737128,-1.307366122245392,0.9842552496880326,0.2339055389165878,-0.3291768729686737,-0.06617464125156403,-0.07918130606412888,-0.02752196602523327,-0.001658667693845928,XTrueNorthZVertical,0.6212490879097924,-0.2049089291629299,0.1884954155324359,0.7324830889958923,-0.534389853477478,-0.8328601121902466,-0.1441238075494766,31.17127799987793,-61.91397476196289,-9.248676300048828,2,10.3.35.51,10.83.46.32,1,0
2015-02-27 16:54:01.030,95,1425084835.41574,37.78747994313793,-122.3961942854547,11.47892,-1,-1,10,65,-9999,1425084841.008365,-0.47943115234375,-43.15036010742188,-8.015174865722656,260.0631408691406,246.2899017333984,10,136485.2504322084,-0.50299072265625,-0.8702850341796875,-0.1677398681640625,136485.2213149167,0.2677361065011541,-0.02709526724657518,-0.2762425093389761,136485.2213149167,1.311060860413152,-1.341887890845039,0.9891525907820915,0.2577100992202759,-0.01764273829758167,-0.2428403198719025,-0.04823069274425507,-0.1566115319728851,-0.02224514819681644,XTrueNorthZVertical,0.6282875736090996,-0.2071750198526106,0.1862931747954186,0.7263801930416754,-0.5350670218467712,-0.8355607390403748,-0.1246664747595787,30.90140724182129,-62.10477828979492,-8.867141723632812,2,10.3.35.51,10.83.46.32,1,0
2015-02-27 16:54:01.102,96,1425084835.41574,37.78747994313793,-122.3961942854547,11.47892,-1,-1,10,65,-9999,1425084841.060141,-0.00197601318359375,-43.55819702148438,-7.116523742675781,259.4315490722656,245.6582946777344,10,136485.2994674583,-0.5000152587890625,-0.877716064453125,-0.1677703857421875,136485.273094375,-0.107313674021397,-0.1480677618667705,-0.2382652995622282,136485.273094375,1.304302948496159,-1.338571424168894,1.003492340134386,-0.1173753440380096,-0.1386120021343231,-0.20487941801548,0.01446734555065632,0.005538437981158495,-0.02972671017050743,XTrueNorthZVertical,0.6299142358344709,-0.2034038039943089,0.1801417660093578,0.7275877871253109,-0.5229359865188599,-0.8433527946472168,-0.1236698925495148,31.54037857055664,-61.86002349853516,-8.310795783996582,2,10.3.35.51,10.83.46.32,1,0
2015-02-27 16:54:01.128,97,1425084835.41574,37.78747994313793,-122.3961942854547,11.47892,-1,-1,10,65,-9999,1425084841.111591,0.9529342651367188,-43.96603393554688,-7.216377258300781,259.8659973144531,246.0927581787109,10,136485.3485380833,-0.5281982421875,-0.9205474853515625,-0.1660308837890625,136485.324874,-0.1528345539019033,-0.1376002072022141,-0.2629120565025845,136485.324874,1.278382976200757,-1.320307637339105,1.013271971196361,-0.1629171520471573,-0.1281401813030243,-0.2295434474945068,0.04062081128358841,-0.06949276477098465,-0.03334096446633339,XTrueNorthZVertical,0.6274903849785893,-0.2016963720237022,0.17319764834915,0.7318313061760752,-0.5125751495361328,-0.8485675454139709,-0.1311487853527069,32.58799743652344,-61.18703460693359,-9.203033447265625,2,10.3.35.51,10.83.46.32,1,0
2015-02-27 16:54:01.174,98,1425084835.41574,37.78747994313793,-122.3961942854547,11.47892,-1,-1,10,65,-9999,1425084841.163837,1.805519104003906,-44.54379272460938,-7.515922546386719,260.6372985839844,246.8640441894531,10,136485.3975663334,-0.4631500244140625,-0.90838623046875,-0.0327606201171875,136485.3766538333,-0.1260745786365692,-0.090174101877865,-0.2103361965783492,136485.3766538333,1.255541603886259,-1.305946471107408,1.025345771735236,-0.1361747533082962,-0.08070573210716248,-0.1769977957010269,-0.002139650285243988,-0.03258806094527245,-9.051357483258471e-05,XTrueNorthZVertical,0.6262829215906287,-0.1996686535625035,0.1653479646517023,0.7352294045501315,-0.5007137656211853,-0.8548936247825623,-0.1358042657375336,33.35832214355469,-60.66846084594727,-9.853259086608887,2,10.3.35.51,10.83.46.32,1,0
2015-02-27 16:54:01.227,99,1425084835.41574,37.78747994313793,-122.3961942854547,11.47892,-1,-1,10,65,-9999,1425084841.216109,2.265914916992188,-44.93461608886719,-7.798835754394531,261.1936340332031,247.4203796386719,10,136485.446638625,-0.5464324951171875,-0.9917449951171875,-0.097015380859375,136485.4284331667,0.112725217356438,-0.3645675784719992,-0.07417755847419504,136485.4284331667,1.268761818359599,-1.332350328002418,1.040224733179138,0.1027131751179695,-0.3550808429718018,-0.04089172184467316,-0.08386760205030441,-0.153061255812645,0.07258384674787521,XTrueNorthZVertical,0.6325325698472848,-0.2003562031245709,0.1569725914918169,0.7315187224489854,-0.4917091727256775,-0.8625179529190063,-0.1195198819041252,34.19999694824219,-60.19744110107422,-9.856749534606934,2,10.3.35.51,10.83.46.32,1,0
2015-02-27 16:54:01.275,100,1425084835.41574,37.78747994313793,-122.3961942854547,11.47892,-1,-1,10,65,-9999,1425084841.266387,2.163604736328125,-45.13851928710938,-7.299583435058594,262.3468933105469,248.5736541748047,10,136485.4956717917,-1.213333129882812,-0.8801727294921875,0.30902099609375,136485.4802129167,0.9486699119274812,-0.4942390224768293,-0.06751139994961769,136485.4284331667,1.268761818359599,-1.332350328002418,1.040224733179138,0.1027131751179695,-0.3550808429718018,-0.04089172184467316,-0.08386760205030441,-0.153061255812645,0.07258384674787521,XTrueNorthZVertical,0.6325325698472848,-0.2003562031245709,0.1569725914918169,0.7315187224489854,-0.4917091727256775,-0.8625179529190063,-0.1195198819041252,34.19999694824219,-60.19744110107422,-9.856749534606934,2,10.3.35.51,10.83.46.32,1,0
2015-02-27 16:54:01.327,101,1425084835.41574,37.78747994313793,-122.3961942854547,11.47892,-1,-1,10,65,-9999,1425084841.318582,2.658103942871094,-45.49539184570312,-5.751914978027344,262.5555114746094,248.7822570800781,10,136485.544730625,-0.3508758544921875,-1.1787109375,-0.3408660888671875,136485.5319924167,1.111961101533472,1.881372308907174,-0.4237930853220533,136485.5319924167,1.422310875676842,-1.440548176740237,1.066089460717677,1.101949334144592,1.890858888626099,-0.3905078768730164,-0.2818973064422607,-0.3835948705673218,-0.07840112596750259,XTrueNorthZVertical,0.6601564011734359,-0.1810847120515457,0.168597605667769,0.7092085703340008,-0.4794552326202393,-0.8753162622451782,-0.06280370801687241,34.29311370849609,-60.544921875,-6.987277030944824,2,10.3.35.51,10.83.46.32,1,0
2015-02-27 16:54:01.372,102,1425084835.41574,37.78747994313793,-122.3961942854547,11.47892,-1,-1,10,65,-9999,1425084841.369922,3.118499755859375,-45.54635620117188,-3.30560302734375,258.5377502441406,244.7645111083984,10,136485.5937707917,-1.548095703125,-2.192855834960938,-0.184814453125,136485.583772125,1.03354112744278,0.506360932810543,0.141932371347446,136485.5319924167,1.422310875676842,-1.440548176740237,1.066089460717677,1.101949334144592,1.890858888626099,-0.3905078768730164,-0.2818973064422607,-0.3835948705673218,-0.07840112596750259,XTrueNorthZVertical,0.6601564011734359,-0.1810847120515457,0.168597605667769,0.7092085703340008,-0.4794552326202393,-0.8753162622451782,-0.06280370801687241,34.29311370849609,-60.544921875,-6.987277030944824,2,10.3.35.51,10.83.46.32,1,0
2015-02-27 16:54:01.424,103,1425084835.41574,37.78747994313793,-122.3961942854547,11.47892,-1,-1,10,65,-9999,1425084841.369922,3.118499755859375,-45.54635620117188,-3.30560302734375,258.5377502441406,244.7645111083984,10,136485.6428439167,0.121337890625,-0.7669677734375,0.1085205078125,136485.6355515833,0.05609868941419213,0.06698862142763515,0.02511840276940936,136485.6355515833,1.516965148251049,-1.398846451448307,1.063851942561179,0.04608705267310143,0.07647497951984406,0.05840290710330009,0.9758309125900269,-0.02016180753707886,0.05054058879613876,XTrueNorthZVertical,0.663344389386694,-0.1357868113429278,0.2165935985983534,0.7032947261297248,-0.478348582983017,-0.8742321133613586,-0.08307232707738876,34.70985412597656,-60.65922546386719,2.492215871810913,2,10.3.35.51,10.83.46.32,1,0
2015-02-27 16:54:01.473,104,1425084835.41574,37.78747994313793,-122.3961942854547,11.47892,-1,-1,10,65,-9999,1425084841.427362,3.408378601074219,-45.93721008300781,-2.057472229003906,253.8001251220703,240.0268707275391,10,136485.691881,-0.618988037109375,-0.9712677001953125,0.03228759765625,136485.6873314167,0.4006459543915206,0.9553813441905898,-0.01872202246325705,136485.6355515833,1.516965148251049,-1.398846451448307,1.063851942561179,0.04608705267310143,0.07647497951984406,0.05840290710330009,0.9758309125900269,-0.02016180753707886,0.05054058879613876,XTrueNorthZVertical,0.663344389386694,-0.1357868113429278,0.2165935985983534,0.7032947261297248,-0.478348582983017,-0.8742321133613586,-0.08307232707738876,34.70985412597656,-60.65922546386719,2.492215871810913,2,10.3.35.51,10.83.46.32,1,0
2015-02-27 16:54:01.521,105,1425084835.41574,37.78747994313793,-122.3961942854547,11.47892,-1,-1,10,65,-9999,1425084841.49996,3.306068420410156,-45.80123901367188,-1.058975219726562,251.5734558105469,237.8002014160156,10,136485.7409457917,-0.392669677734375,-0.965576171875,0.04522705078125,136485.739110875,0.0776886700553555,-0.2399984847996518,0.117230753288634,136485.6873314167,1.553371734300334,-1.433954215543993,1.059688469159233,0.3906343877315521,0.9648675918579102,0.01456218305975199,-0.3424397706985474,-0.09322044253349304,0.2434693425893784,XTrueNorthZVertical,0.6691497687281801,-0.1373870135772646,0.2190370632161744,0.6966966745077315,-0.4845713376998901,-0.8722031116485596,-0.06672678887844086,34.37047576904297,-60.84127807617188,2.745155572891235,2,10.3.35.51,10.83.46.32,1,0
2015-02-27 16:54:01.561,106,1425084835.41574,37.78747994313793,-122.3961942854547,11.47892,-1,-1,10,65,-9999,1425084841.552197,3.186698913574219,-45.95419311523438,-0.1436843872070312,249.7883911132812,236.01513671875,10,136485.7900917083,-0.4317474365234375,-0.8672637939453125,0.1015777587890625,136485.739110875,0.0776886700553555,-0.2399984847996518,0.117230753288634,136485.739110875,1.573126726461951,-1.426895524352879,1.055500396251154,0.06767722219228745,-0.2305123209953308,0.150514617562294,0.2195716798305511,-0.09167557954788208,0.01296001859009266,XTrueNorthZVertical,0.669196576032605,-0.1297750488465013,0.2296739948820872,0.6946828997601595,-0.4876991212368011,-0.8701469302177429,-0.07066875696182251,34.06926727294922,-60.87557601928711,4.896574020385742,2,10.3.35.51,10.83.46.32,1,0
2015-02-27 16:54:01.619,107,1425084835.41574,37.78747994313793,-122.3961942854547,11.47892,-1,-1,10,65,-9999,1425084841.603628,3.306068420410156,-45.93721008300781,-0.127044677734375,250.4230499267578,236.6497955322266,10,136485.8390497083,-0.443817138671875,-0.9431915283203125,-0.1140899658203125,136485.84267025,0.05163709563998238,0.001542236587264887,0.1062872917372804,136485.7908905417,1.580271500209926,-1.433819503696253,1.049453194195597,0.0701277032494545,0.1695537567138672,0.1379641145467758,0.06163300201296806,-0.0001127727518905886,0.1695853173732758,XTrueNorthZVertical,0.6697775177766668,-0.1318874544028934,0.2318567985100085,0.6929980496782768,-0.4933804273605347,-0.8671510219573975,-0.06800755113363266,33.56278991699219,-61.14472961425781,5.038715362548828,2,10.3.35.51,10.83.46.32,1,0
2015-02-27 16:54:01.658,108,1425084835.41574,37.78747994313793,-122.3961942854547,11.47892,-1,-1,10,65,-9999,1425084841.603628,3.306068420410156,-45.93721008300781,-0.127044677734375,250.4230499267578,236.6497955322266,10,136485.8880877083,-0.3878936767578125,-0.8522796630859375,0.045806884765625,136485.84267025,0.05163709563998238,0.001542236587264887,0.1062872917372804,136485.84267025,1.591603141711772,-1.441329748752755,1.043693418504451,0.04163805767893791,0.01105687953531742,0.1396660506725311,0.05500470846891403,-0.07892350107431412,-0.04914594814181328,XTrueNorthZVertical,0.6707616789473649,-0.1326904690594279,0.2351842619800514,0.6907680277883127,-0.4988218545913696,-0.8642680048942566,-0.06494402140378952,33.15419006347656,-61.33205413818359,5.45032787322998,2,10.3.35.51,10.83.46.32,1,0
2015-02-27 16:54:01.718,109,1425084835.41574,37.78747994313793,-122.3961942854547,11.47892,-1,-1,10,65,-9999,1425084841.707741,2.82861328125,-45.59733581542969,0.2057876586914062,250.8161926269531,237.0429382324219,10,136485.93715425,-0.5155029296875,-0.8704986572265625,-0.0203704833984375,136485.8944495833,0.08380781529203057,-0.04273228390308443,0.05230235328028417,136485.8944495833,1.594959566936467,-1.440599608531887,1.038707674298101,0.07380886375904083,-0.03321772441267967,0.08568082004785538,0.1151469498872757,0.009469642303884029,0.1116737201809883,XTrueNorthZVertical,0.6703469789337775,-0.1330470253000564,0.2382514521808687,0.6900505476035989,-0.503040611743927,-0.8617492914199829,-0.06586683541536331,32.81098175048828,-61.50010681152344,5.630609512329102,2,10.3.35.51,10.83.46.32,1,0
2015-02-27 16:54:01.757,110,1425084835.41574,37.78747994313793,-122.3961942854547,11.47892,-1,-1,10,65,-9999,1425084841.707741,2.82861328125,-45.59733581542969,0.2057876586914062,250.8161926269531,237.0429382324219,10,136485.9862940417,-0.4624786376953125,-0.878143310546875,-0.048065185546875,136485.9462294167,0.06556383024444275,0.1440123001587979,0.2103079670707944,136485.9462294167,1.598883336373654,-1.442673474465422,1.028285427383522,0.05556498095393181,0.1535267680883408,0.2436860948801041,-0.003446528920903802,-0.01408362202346325,0.04559700191020966,XTrueNorthZVertical,0.6697021043705833,-0.1360711178684189,0.2423811742544275,0.6886473730958761,-0.5120564103126526,-0.8564150333404541,-0.06596748530864716,32.26108932495117,-61.78094482421875,5.732711791992188,2,10.3.35.51,10.83.46.32,1,0
2015-02-27 16:54:01.817,111,1425084835.41574,37.78747994313793,-122.3961942854547,11.47892,-1,-1,10,65,-9999,1425084841.811151,2.248855590820312,-45.495361328125,0.3389205932617188,249.1863098144531,235.4130554199219,10,136486.03537325,-0.6554718017578125,-0.790374755859375,-0.076934814453125,136485.9980089167,0.04900642511520211,0.4399289120507344,0.2040905511898954,136485.9980089167,1.619804395582958,-1.443889868602416,1.022403642974451,0.03903859108686447,0.4494441151618958,0.2374487519264221,0.1110267043113708,-0.06558176875114441,0.003847195068374276,XTrueNorthZVertical,0.6706045261711949,-0.1315259571016564,0.2511151392489068,0.6855156998554864,-0.5171241164207458,-0.853363573551178,-0.06598098576068878,31.56467628479004,-62.06266784667969,6.513319969177246,2,10.3.35.51,10.83.46.32,1,0
2015-02-27 16:54:01.855,112,1425084835.41574,37.78747994313793,-122.3961942854547,11.47892,-1,-1,10,65,-9999,1425084841.811151,2.248855590820312,-45.495361328125,0.3389205932617188,249.1863098144531,235.4130554199219,10,136486.0843860417,-0.584259033203125,-0.75311279296875,0.0769805908203125,136486.0497886667,0.01412380852512623,-0.08807233514557446,0.1232950374068534,136486.0497886667,1.622702555990871,-1.443983102150972,1.009977274955057,0.004136085975915194,-0.07855679094791412,0.1566603630781174,-0.1947266906499863,0.005419611465185881,0.07704968005418777,XTrueNorthZVertical,0.6694499975874264,-0.1349159065769653,0.2561922120306078,0.6841052880944057,-0.52760910987854,-0.8468197584152222,-0.06726879626512527,31.00689315795898,-62.27341461181641,7.14991283416748,2,10.3.35.51,10.83.46.32,1,0
2015-02-27 16:54:01.913,113,1425084835.41574,37.78747994313793,-122.3961942854547,11.47892,-1,-1,10,65,-9999,1425084841.863787,2.3341064453125,-45.71626281738281,0.3888473510742188,248.4808807373047,234.7076263427734,10,136486.133342875,-0.65655517578125,-0.8637847900390625,-0.03375244140625,136486.1015681667,0.1914155022977723,0.2453924512714983,0.1671567679282405,136486.1015681667,1.629127687893033,-1.439666454310174,1.002287557946094,0.1814278662204742,0.2549079060554504,0.2005217969417572,-0.05332783609628677,0.07181547582149506,0.1112580895423889,XTrueNorthZVertical,0.6684716721227539,-0.1339705158597064,0.2623715452648505,0.6829046730739091,-0.5337540507316589,-0.8427047729492188,-0.07039505243301392,30.31011962890625,-62.607666015625,7.21830940246582,2,10.3.35.51,10.83.46.32,1,0
2015-02-27 16:54:01.953,114,1425084835.41574,37.78747994313793,-122.3961942854547,11.47892,-1,-1,10,65,-9999,1425084841.914825,2.078330993652344,-45.80122375488281,0.2057952880859375,248.5115661621094,234.7383117675781,10,136486.1823709167,-0.461700439453125,-0.86297607421875,-0.00048828125,136486.1533480417,0.1709243419223756,0.3636386678837795,-0.02294206752659661,136486.1533480417,1.654573932238684,-1.45032246811771,0.9956009418473852,0.1609598398208618,0.3731484413146973,0.01044059079140425,-0.04470667615532875,-0.02802517637610435,0.08484943956136703,XTrueNorthZVertical,0.6708517059684667,-0.1314091879583451,0.2696642458048665,0.6782115483202668,-0.5400558710098267,-0.8390860557556152,-0.06537922471761703,29.58137702941895,-62.83634567260742,8.189177513122559,2,10.3.35.51,10.83.46.32,1,0
2015-02-27 16:54:02.012,115,1425084835.41574,37.78747994313793,-122.3961942854547,11.47892,-1,-1,10,65,-9999,1425084841.966717,1.754341125488281,-45.920166015625,0.7882537841796875,246.9075622558594,233.1343078613281,10,136486.231411375,-0.6857757568359375,-0.83489990234375,-0.0140533447265625,136486.2051275,0.167139723697264,0.1721922729173623,-0.1000576253153671,136486.2051275,1.675567414158178,-1.45248214505237,0.9985540656749424,0.1572120785713196,0.1816995143890381,-0.06668943911790848,-0.02499599941074848,-0.006936868652701378,-0.002898277016356587,XTrueNorthZVertical,0.672792925170062,-0.1240552281813795,0.2750737318455972,0.6754957572566007,-0.5377328991889954,-0.8406888842582703,-0.06391996145248413,29.52058792114258,-62.70236206054688,9.352843284606934,2,10.3.35.51,10.83.46.32,1,0
2015-02-27 16:54:02.051,116,1425084835.41574,37.78747994313793,-122.3961942854547,11.47892,-1,-1,10,65,-9999,1425084842.019242,1.413299560546875,-45.78421020507812,0.8881072998046875,246.4719543457031,232.6986999511719,10,136486.2805494583,-0.51922607421875,-0.8428955078125,0.0411834716796875,136486.2569072917,0.04250165415268357,0.6605760694215435,-0.1892253186172911,136486.2569072917,1.680021785304122,-1.435001640589485,1.002191210745514,0.03259073942899704,0.6700788140296936,-0.1558408588171005,-0.06598697602748871,0.02368315309286118,0.08847435563802719,XTrueNorthZVertical,0.671000005111725,-0.1153751658251132,0.2812599914283586,0.6762695300645793,-0.5335003137588501,-0.8426528573036194,-0.07289513200521469,29.39646911621094,-62.61308670043945,10.29446411132812,2,10.3.35.51,10.83.46.32,1,0
2015-02-27 16:54:02.110,117,1425084835.41574,37.78747994313793,-122.3961942854547,11.47892,-1,-1,10,65,-9999,1425084842.070395,1.788444519042969,-45.58027648925781,1.121086120605469,245.1375274658203,231.3642730712891,10,136486.3294948333,-0.4711151123046875,-0.94677734375,-0.064788818359375,136486.3086869167,0.1375275029044549,0.5848110006215521,-0.2009387000397866,136486.3086869167,1.692891066818747,-1.417276794817892,1.011533878460928,0.1276417523622513,0.5943106412887573,-0.1675634980201721,0.01763804443180561,-0.06998639553785324,0.0787668451666832,XTrueNorthZVertical,0.6701312175640939,-0.101775105789512,0.2885014978385755,0.6762639726125089,-0.5243213772773743,-0.8476466536521912,-0.0811319574713707,29.55803489685059,-62.33514785766602,11.45334053039551,2,10.3.35.51,10.83.46.32,1,0
2015-02-27 16:54:02.150,118,1425084835.41574,37.78747994313793,-122.3961942854547,11.47892,-1,-1,10,65,-9999,1425084842.123848,1.634979248046875,-45.63125610351562,1.304145812988281,244.1007080078125,230.3274536132812,10,136486.37862225,-0.37347412109375,-0.85498046875,-0.102020263671875,136486.360466625,0.0002647182123538763,0.3323015176529261,-0.2518082726536082,136486.3086869167,1.692891066818747,-1.417276794817892,1.011533878460928,0.1276417523622513,0.5943106412887573,-0.1675634980201721,0.01763804443180561,-0.06998639553785324,0.0787668451666832,XTrueNorthZVertical,0.6701312175640939,-0.101775105789512,0.2885014978385755,0.6762639726125089,-0.5243213772773743,-0.8476466536521912,-0.0811319574713707,29.55803489685059,-62.33514785766602,11.45334053039551,2,10.3.35.51,10.83.46.32,1,0
2015-02-27 16:54:02.208,119,1425084835.41574,37.78747994313793,-122.3961942854547,11.47892,-1,-1,10,65,-9999,1425084842.175239,1.907806396484375,-45.66523742675781,1.603691101074219,243.3172760009766,229.5440216064453,10,136486.427676125,-0.539886474609375,-0.9120330810546875,-0.13848876953125,136486.4122461667,0.1137872859991616,0.05267519583289527,-0.1776765205501625,136486.4122461667,1.684971662976633,-1.373410892987743,1.041787415055084,0.1038544625043869,0.06218976899981499,-0.1443856656551361,0.06087290123105049,-0.08809307962656021,-0.05677594244480133,XTrueNorthZVertical,0.6665615030726569,-0.07880675378023239,0.2905926824423974,0.6819393278820548,-0.4948786497116089,-0.8633076548576355,-0.09897051751613617,30.63765907287598,-61.47792053222656,13.12730503082275,2,10.3.35.51,10.83.46.32,1,0
2015-02-27 16:54:02.247,120,1425084835.41574,37.78747994313793,-122.3961942854547,11.47892,-1,-1,10,65,-9999,1425084842.226721,1.805496215820312,-45.42733764648438,1.703544616699219,243.1204986572266,229.3472442626953,10,136486.476598,-0.48565673828125,-0.8084259033203125,-0.02056884765625,136486.4640260834,-0.06726745439376644,0.1408439374099306,-0.1367650398843652,136486.4640260834,1.679643793974999,-1.364154981474637,1.045826853247169,-0.077201247215271,0.1503558754920959,-0.1034508720040321,-0.0560913160443306,0.0854930505156517,0.0581526905298233,XTrueNorthZVertical,0.6654403823008785,-0.07598609037014072,0.2905369598033741,0.6833766036987862,-0.4905242919921875,-0.8653392195701599,-0.1028304249048233,31.12925148010254,-61.20960998535156,13.22424411773682,2,10.3.35.51,10.83.46.32,1,0
2015-02-27 16:54:02.306,121,1425084835.41574,37.78747994313793,-122.3961942854547,11.47892,-1,-1,10,65,-9999,1425084842.277332,2.027168273925781,-45.47831726074219,1.953178405761719,242.6730346679688,228.8997802734375,10,136486.525656875,-0.517852783203125,-0.8782501220703125,-0.06414794921875,136486.5158055,0.1273182748656362,0.2311301583696879,-0.3620176017282483,136486.4640260834,1.679643793974999,-1.364154981474637,1.045826853247169,-0.077201247215271,0.1503558754920959,-0.1034508720040321,-0.0560913160443306,0.0854930505156517,0.0581526905298233,XTrueNorthZVertical,0.6654403823008785,-0.07598609037014072,0.2905369598033741,0.6833766036987862,-0.4905242919921875,-0.8653392195701599,-0.1028304249048233,31.12925148010254,-61.20960998535156,13.22424411773682,2,10.3.35.51,10.83.46.32,1,0
2015-02-27 16:54:02.345,122,1425084835.41574,37.78747994313793,-122.3961942854547,11.47892,-1,-1,10,65,-9999,1425084842.330358,2.896812438964844,-45.63125610351562,1.869964599609375,243.3017730712891,229.5285186767578,10,136486.5747082084,-0.2667694091796875,-0.9669342041015625,-0.1562652587890625,136486.5675853333,0.03079066957516913,0.366379859593798,-0.2001253706428764,136486.5158055,1.687868421040905,-1.364098603003971,1.054102234929417,0.1174117550253868,0.2406373769044876,-0.3287021219730377,-0.05039658024907112,-0.03361909836530685,0.1148431748151779,XTrueNorthZVertical,0.6666091026589188,-0.07028400471200522,0.2906606440629304,0.6827949536632434,-0.4834931790828705,-0.8694570660591125,-0.1013849228620529,31.31547546386719,-61.07610321044922,13.40066719055176,2,10.3.35.51,10.83.46.32,1,0
2015-02-27 16:54:02.404,123,1425084835.41574,37.78747994313793,-122.3961942854547,11.47892,-1,-1,10,65,-9999,1425084842.381795,3.425430297851562,-45.75019836425781,2.319297790527344,242.8300476074219,229.0567932128906,10,136486.6239145417,-0.39031982421875,-0.8876953125,0.023223876953125,136486.6193649583,-0.08106369410481293,0.1870854686814124,-0.1415773719741384,136486.6193649583,1.678946078658536,-1.330174176640725,1.089460748593269,-0.09096607565879822,0.1965999007225037,-0.1083671823143959,0.06008394435048103,-0.02568620815873146,0.178747832775116,XTrueNorthZVertical,0.6651565678711066,-0.04902071585506193,0.2873197994947202,0.6874671906894585,-0.4496255815029144,-0.8863773941993713,-0.110327422618866,33.22891235351562,-59.72062683105469,14.82610130310059,2,10.3.35.51,10.83.46.32,1,0
2015-02-27 16:54:02.443,124,1425084835.41574,37.78747994313793,-122.3961942854547,11.47892,-1,-1,10,65,-9999,1425084842.434081,3.664146423339844,-45.51229858398438,2.485710144042969,242.8726348876953,229.0993804931641,10,136486.6728280833,-0.48126220703125,-0.9706268310546875,-0.077911376953125,136486.6193649583,-0.08106369410481293,0.1870854686814124,-0.1415773719741384,136486.6193649583,1.678946078658536,-1.330174176640725,1.089460748593269,-0.09096607565879822,0.1965999007225037,-0.1083671823143959,0.06008394435048103,-0.02568620815873146,0.178747832775116,XTrueNorthZVertical,0.6651565678711066,-0.04902071585506193,0.2873197994947202,0.6874671906894585,-0.4496255815029144,-0.8863773941993713,-0.110327422618866,33.22891235351562,-59.72062683105469,14.82610130310059,2,10.3.35.51,10.83.46.32,1,0
2015-02-27 16:54:02.502,125,1425084835.41574,37.78747994313793,-122.3961942854547,11.47892,-1,-1,10,65,-9999,1425084842.4857,3.630035400390625,-45.10444641113281,2.419151306152344,242.2258911132812,228.45263671875,10,136486.721996875,-0.311614990234375,-0.751434326171875,-0.195648193359375,136486.7229242917,-0.2855356099628077,0.1264823085994603,0.284773146942718,136486.6711447084,1.674031003318751,-1.31299453216844,1.087996919815343,-0.1017967760562897,0.3770681023597717,0.05956876277923584,-0.07783058285713196,-0.07807689160108566,0.01852758787572384,XTrueNorthZVertical,0.6623957428301657,-0.04526540978446166,0.2918102731732277,0.6884982083122941,-0.4489180743694305,-0.8856987357139587,-0.1183658465743065,33.25804138183594,-59.66999816894531,14.96400833129883,2,10.3.35.51,10.83.46.32,1,0
2015-02-27 16:54:02.542,126,1425084835.41574,37.78747994313793,-122.3961942854547,11.47892,-1,-1,10,65,-9999,1425084842.4857,3.630035400390625,-45.10444641113281,2.419151306152344,242.2258911132812,228.45263671875,10,136486.770927875,-0.5540008544921875,-0.950225830078125,-0.0513458251953125,136486.774704125,-0.01822001659777711,0.351625148206432,-0.1592991111319617,136486.7229242917,1.655402185778529,-1.267758641364731,1.07064237624748,-0.2954377830028534,0.135996550321579,0.3179826438426971,0.146094337105751,0.12607441842556,-0.05253724753856659,XTrueNorthZVertical,0.6532084153857848,-0.04199159336509549,0.3059107723682178,0.6913567583571363,-0.4577093124389648,-0.8775087594985962,-0.1431109458208084,32.20129013061523,-60.14244842529297,15.37822151184082,2,10.3.35.51,10.83.46.32,1,0
2015-02-27 16:54:02.602,127,1425084835.41574,37.78747994313793,-122.3961942854547,11.47892,-1,-1,10,65,-9999,1425084842.588871,2.811546325683594,-45.27436828613281,0.9214019775390625,241.5044097900391,227.7311553955078,10,136486.819983625,-0.46270751953125,-0.765960693359375,-0.218841552734375,136486.774704125,-0.01822001659777711,0.351625148206432,-0.1592991111319617,136486.774704125,1.638746265096931,-1.247249314601822,1.065696845379062,-0.02812208794057369,0.3611392974853516,-0.126089945435524,-0.09521370381116867,-0.07509949058294296,0.1024995446205139,XTrueNorthZVertical,0.6490815734797052,-0.04207643152989708,0.3084165531408399,0.694119593765151,-0.4587871432304382,-0.8751263618469238,-0.1538453698158264,31.59296035766602,-60.61151123046875,14.78704738616943,2,10.3.35.51,10.83.46.32,1,0
2015-02-27 16:54:02.639,128,1425084835.41574,37.78747994313793,-122.3961942854547,11.47892,-1,-1,10,65,-9999,1425084842.588871,2.811546325683594,-45.27436828613281,0.9214019775390625,241.5044097900391,227.7311553955078,10,136486.8691125833,-0.4134674072265625,-1.077056884765625,-0.156158447265625,136486.826483625,-0.2965078336539341,0.5131956694321224,0.2811461878541391,136486.826483625,1.631210611844858,-1.226248791745064,1.055572184361169,-0.3063852787017822,0.5227035284042358,0.3143922984600067,0.001064003678038716,0.1042216122150421,-0.05241170525550842,XTrueNorthZVertical,0.6442965455461542,-0.04082936585904601,0.3158431216129942,0.6953115435772336,-0.4637715220451355,-0.8701822757720947,-0.1664298474788666,31.43905639648438,-60.60623550415039,15.13265037536621,2,10.3.35.51,10.83.46.32,1,0
2015-02-27 16:54:02.704,129,1425084835.41574,37.78747994313793,-122.3961942854547,11.47892,-1,-1,10,65,-9999,1425084842.693459,2.743339538574219,-45.24038696289062,0.5219955444335938,239.1393890380859,225.3661346435547,10,136486.9180551667,-0.437652587890625,-0.786407470703125,-0.2285919189453125,136486.930043125,-0.2825089273839326,-0.002408829205976671,-0.07894088839991076,136486.8782635,1.60879827790824,-1.181950352146783,1.056046201664459,-0.1313693225383759,0.352945864200592,-0.3983305692672729,0.04209723323583603,-0.2066411226987839,0.0304893646389246,XTrueNorthZVertical,0.636888537712719,-0.03238957559281748,0.3220640514105012,0.699713333110982,-0.4555646479129791,-0.8704157471656799,-0.186647817492485,30.5080509185791,-61.11270904541016,15.00077629089355,2,10.3.35.51,10.83.46.32,1,0
2015-02-27 16:54:02.738,130,1425084835.41574,37.78747994313793,-122.3961942854547,11.47892,-1,-1,10,65,-9999,1425084842.693459,2.743339538574219,-45.24038696289062,0.5219955444335938,239.1393890380859,225.3661346435547,10,136486.9671884167,-0.4062652587890625,-0.855499267578125,-0.3021697998046875,136486.930043125,-0.2825089273839326,-0.002408829205976671,-0.07894088839991076,136486.930043125,1.584233291420343,-1.154924935774347,1.056645715720284,-0.2923899590969086,0.007129993755370378,-0.04558613896369934,0.07162711024284363,0.02511444874107838,-0.07045538723468781,XTrueNorthZVertical,0.6322428610686662,-0.03048603695716578,0.3218275711944135,0.7041070063694962,-0.4498772323131561,-0.8707107901573181,-0.1986791342496872,31.11215400695801,-60.79938507080078,15.03317451477051,2,10.3.35.51,10.83.46.32,1,0
2015-02-27 16:54:02.803,131,1425084835.41574,37.78747994313793,-122.3961942854547,11.47892,-1,-1,10,65,-9999,1425084842.744829,2.879753112792969,-45.27436828613281,0.1558837890625,238.8946838378906,225.1214294433594,10,136487.01614175,-0.458892822265625,-0.9952239990234375,-0.16668701171875,136486.9818229167,-0.04294879889970787,0.2026234157453707,0.08547868255994628,136486.9818229167,1.567013988937003,-1.138330362973415,1.057503864368662,-0.0528402104973793,0.2121654748916626,0.1188197806477547,0.01102542039006948,0.04367886111140251,0.004418220836669207,XTrueNorthZVertical,0.6294541518324157,-0.02975922149485566,0.3207161014453105,0.707137283398232,-0.4458398818969727,-0.871132493019104,-0.2058037221431732,31.18159294128418,-60.95756912231445,14.2270975112915,2,10.3.35.51,10.83.46.32,1,0
2015-02-27 16:54:02.836,132,1425084835.41574,37.78747994313793,-122.3961942854547,11.47892,-1,-1,10,65,-9999,1425084842.796351,2.641014099121094,-45.58023071289062,-0.5430679321289062,239.2518157958984,225.4785614013672,10,136487.0653023333,-0.23834228515625,-0.883056640625,-0.2225799560546875,136487.0336025,0.06772951284289519,0.5650407579532399,-0.05964495472174165,136487.0336025,1.572399176659954,-1.126099127699571,1.062614530170874,0.05785570666193962,0.5745800137519836,-0.02631861157715321,-0.01253296621143818,-0.05617890134453773,0.01231717504560947,XTrueNorthZVertical,0.6283765020545713,-0.02193789712136236,0.3248583332855317,0.7064905232567917,-0.4392645061016083,-0.8736306428909302,-0.2093234062194824,31.23966598510742,-60.81720733642578,14.69278717041016,2,10.3.35.51,10.83.46.32,1,0
2015-02-27 16:54:02.901,133,1425084835.41574,37.78747994313793,-122.3961942854547,11.47892,-1,-1,10,65,-9999,1425084842.848733,2.999107360839844,-45.66519165039062,-0.52642822265625,239.3468627929688,225.5736083984375,10,136487.11422275,-0.48565673828125,-0.8427581787109375,-0.164459228515625,136487.085382375,-0.109735552716715,-0.1236809294488059,0.06570231462112687,136487.085382375,1.56435762810589,-1.093859531589799,1.061465165087027,-0.1196427941322327,-0.1141302213072777,0.09897627681493759,0.1644429117441177,-0.01496018189936876,-0.1189692690968513,XTrueNorthZVertical,0.6228174242683172,-0.01345783116024268,0.3324586180403087,0.7080880636757863,-0.4331806898117065,-0.8730708360671997,-0.2238346785306931,30.59406280517578,-60.93218994140625,15.54987907409668,2,10.3.35.51,10.83.46.32,1,0
2015-02-27 16:54:02.933,134,1425084835.41574,37.78747994313793,-122.3961942854547,11.47892,-1,-1,10,65,-9999,1425084842.900259,3.033210754394531,-45.3253173828125,-0.4598617553710938,237.6350708007812,223.86181640625,10,136487.1632567917,-0.4545135498046875,-0.9831695556640625,-0.155792236328125,136487.1371618334,-0.05104560756187578,0.1298205810258746,0.1741792574066704,136487.1371618334,1.56150010688443,-1.095042964423505,1.054395474421324,-0.06093360483646393,0.1393662095069885,0.2074657678604126,-0.02036825194954872,0.0177800003439188,0.06497993320226669,XTrueNorthZVertical,0.6217961423216182,-0.01726048117967801,0.3332785155301754,0.7085175792389048,-0.4389213025569916,-0.8696019053459167,-0.2261432707309723,30.71690368652344,-60.97364044189453,15.13982582092285,2,10.3.35.51,10.83.46.32,1,0
2015-02-27 16:54:02.999,135,1425084835.41574,37.78747994313793,-122.3961942854547,11.47892,-1,-1,10,65,-9999,1425084842.953343,3.067314147949219,-45.15536499023438,-0.3932952880859375,237.3335571289062,223.560302734375,10,136487.21231525,-0.436248779296875,-0.9128875732421875,-0.2391510009765625,136487.1889417917,-0.01368944695133431,0.03864060320428669,0.09445912807180248,136487.1889417917,1.576368818208046,-1.104174493357979,1.047871355471987,-0.0235565323382616,0.04818230494856834,0.1277382969856262,0.08372075855731964,-0.1093764156103134,-0.01386722736060619,XTrueNorthZVertical,0.6223609516217822,-0.01816961717727575,0.3377252372944507,0.7058884266111913,-0.4460254311561584,-0.8663620948791504,-0.2246734201908112,30.09800148010254,-61.20341491699219,15.45250701904297,2,10.3.35.51,10.83.46.32,1,0
2015-02-27 16:54:03.032,136,1425084835.41574,37.78747994313793,-122.3961942854547,11.47892,-1,-1,10,65,-9999,1425084843.004515,3.237838745117188,-45.08740234375,-0.4265823364257812,237.3835144042969,223.6102600097656,10,136487.2613527083,-0.5743255615234375,-0.743499755859375,-0.1154327392578125,136487.2407215,0.02284140003739161,-0.3284713593731742,-0.0859362136352219,136487.2407215,1.584174502972406,-1.123357198452955,1.048623717863777,0.01300085056573153,-0.3189343810081482,-0.05266474187374115,-0.1299704313278198,0.04308343306183815,0.09833240509033203,XTrueNorthZVertical,0.6257863150131545,-0.02223077486329285,0.3342568902717823,0.704393148545773,-0.4496651887893677,-0.8667376041412354,-0.215794563293457,30.22024917602539,-61.15049743652344,15.42337512969971,2,10.3.35.51,10.83.46.32,1,0
2015-02-27 16:54:03.102,137,1425084835.41574,37.78747994313793,-122.3961942854547,11.47892,-1,-1,10,65,-9999,1425084843.056511,2.760383605957031,-45.18937683105469,-0.6928482055664062,238.1703186035156,224.3970642089844,10,136487.3104125833,-0.41021728515625,-0.96551513671875,-0.25994873046875,136487.292501,0.1615364327637373,0.2870072727811854,-0.07725856953930771,136487.292501,1.603315887866984,-1.140392394061486,1.04509387370146,0.1517191082239151,0.2965372204780579,-0.04395413771271706,-0.04441956803202629,-0.1015658229589462,0.02940128929913044,XTrueNorthZVertical,0.6282992134490871,-0.02346797023320985,0.336746430441234,0.7009217432485841,-0.4560534656047821,-0.8649716377258301,-0.2093787044286728,29.68820762634277,-61.3740234375,15.56813526153564,2,10.3.35.51,10.83.46.32,1,0
2015-02-27 16:54:03.129,138,1425084835.41574,37.78747994313793,-122.3961942854547,11.47892,-1,-1,10,65,-9999,1425084843.107826,2.589866638183594,-45.08743286132812,-0.3267288208007812,237.6722564697266,223.8990020751953,10,136487.3594392917,-0.4716644287109375,-0.8225250244140625,-0.1746063232421875,136487.3442807917,-0.1077096860754917,-0.2638819797715914,-0.03718092461081426,136487.292501,1.603315887866984,-1.140392394061486,1.04509387370146,0.1517191082239151,0.2965372204780579,-0.04395413771271706,-0.04441956803202629,-0.1015658229589462,0.02940128929913044,XTrueNorthZVertical,0.6282992134490871,-0.02346797023320985,0.336746430441234,0.7009217432485841,-0.4560534656047821,-0.8649716377258301,-0.2093787044286728,29.68820762634277,-61.3740234375,15.56813526153564,2,10.3.35.51,10.83.46.32,1,0
2015-02-27 16:54:03.200,139,1425084835.41574,37.78747994313793,-122.3961942854547,11.47892,-1,-1,10,65,-9999,1425084843.159577,2.487556457519531,-45.01945495605469,-0.1603164672851562,236.8936920166016,223.1204376220703,10,136487.4084943333,-0.5678863525390625,-0.8835906982421875,-0.175018310546875,136487.3960607083,-0.1816616748053571,-0.4281715884702526,-0.107516340580352,136487.3960607083,1.580367818069913,-1.138692314525257,1.046651870918652,-0.1914954781532288,-0.4186373353004456,-0.07421737164258957,-0.1416120678186417,-0.0538642629981041,0.1247807666659355,XTrueNorthZVertical,0.6279599705004778,-0.02952487751764305,0.3287268986183833,0.7047930753082789,-0.4544725120067596,-0.8657524585723877,-0.2095891088247299,30.10469436645508,-61.27793884277344,15.14098262786865,2,10.3.35.51,10.83.46.32,1,0
2015-02-27 16:54:03.228,140,1425084835.41574,37.78747994313793,-122.3961942854547,11.47892,-1,-1,10,65,-9999,1425084843.210868,2.658073425292969,-45.42729187011719,-0.2934417724609375,237.7460632324219,223.9728088378906,10,136487.4576346667,-0.12518310546875,-0.9966583251953125,-0.3976287841796875,136487.447840375,-0.01042787356431426,0.2772710221519648,-0.2137037637767544,136487.3960607083,1.580367818069913,-1.138692314525257,1.046651870918652,-0.1914954781532288,-0.4186373353004456,-0.07421737164258957,-0.1416120678186417,-0.0538642629981041,0.1247807666659355,XTrueNorthZVertical,0.6279599705004778,-0.02952487751764305,0.3287268986183833,0.7047930753082789,-0.4544725120067596,-0.8657524585723877,-0.2095891088247299,30.10469436645508,-61.27793884277344,15.14098262786865,2,10.3.35.51,10.83.46.32,1,0
2015-02-27 16:54:03.305,141,1425084835.41574,37.78747994313793,-122.3961942854547,11.47892,-1,-1,10,65,-9999,1425084843.262855,2.862693786621094,-45.35932922363281,-0.6928482055664062,238.4504699707031,224.6772155761719,10,136487.50658775,-0.4635009765625,-0.9401702880859375,-0.129852294921875,136487.49962,-0.3979484385233794,-1.22983767138645,-0.3352019663961314,136487.49962,1.542514891389579,-1.128896015409195,1.056390693282572,-0.4077689349651337,-1.220308423042297,-0.3018839061260223,0.03105843998491764,-0.009694226086139679,0.01453820802271366,XTrueNorthZVertical,0.6273769644362837,-0.03450366234421866,0.3153436043434618,0.7111723762916973,-0.4447547197341919,-0.8705853223800659,-0.2104152888059616,31.18854713439941,-61.01143646240234,13.97877788543701,2,10.3.35.51,10.83.46.32,1,0
2015-02-27 16:54:03.329,142,1425084835.41574,37.78747994313793,-122.3961942854547,11.47892,-1,-1,10,65,-9999,1425084843.315527,3.902862548828125,-45.61422729492188,-1.674705505371094,241.0633392333984,227.2900848388672,10,136487.5556285833,-0.1454010009765625,-0.9228515625,-0.1065673828125,136487.55139975,-0.5785706815552785,-1.428728400547966,-0.4595175271327032,136487.49962,1.542514891389579,-1.128896015409195,1.056390693282572,-0.4077689349651337,-1.220308423042297,-0.3018839061260223,0.03105843998491764,-0.009694226086139679,0.01453820802271366,XTrueNorthZVertical,0.6273769644362837,-0.03450366234421866,0.3153436043434618,0.7111723762916973,-0.4447547197341919,-0.8705853223800659,-0.2104152888059616,31.18854713439941,-61.01143646240234,13.97877788543701,2,10.3.35.51,10.83.46.32,1,0
2015-02-27 16:54:03.403,143,1425084835.41574,37.78747994313793,-122.3961942854547,11.47892,-1,-1,10,65,-9999,1425084843.36615,5.062385559082031,-45.61422729492188,-2.739768981933594,245.0430450439453,231.2697906494141,10,136487.604676375,-0.460296630859375,-0.7390594482421875,-0.2254638671875,136487.6031794584,-0.50766907753799,-1.162242648178604,-0.3354882562133149,136487.55139975,1.475074919265463,-1.132328964952402,1.064700429004625,-0.5883910655975342,-1.419199228286743,-0.426199734210968,0.2179618924856186,-0.17178875207901,0.06622129678726196,XTrueNorthZVertical,0.6278368603839429,-0.05400488759647051,0.2874978750220993,0.7212831736134284,-0.4389091730117798,-0.8746437430381775,-0.205808699131012,32.83827972412109,-60.74697875976562,11.04442596435547,2,10.3.35.51,10.83.46.32,1,0
2015-02-27 16:54:03.425,144,1425084835.41574,37.78747994313793,-122.3961942854547,11.47892,-1,-1,10,65,-9999,1425084843.41834,5.608039855957031,-45.47830200195312,-3.838111877441406,248.0345764160156,234.2613220214844,10,136487.6537718333,-1.002029418945312,-0.6960296630859375,0.306304931640625,136487.6031794584,-0.50766907753799,-1.162242648178604,-0.3354882562133149,136487.6031794584,1.416174382823222,-1.152521043790594,1.062050379174587,-0.5174893736839294,-1.152713537216187,-0.3021708130836487,-0.09831967204809189,0.1716653406620026,-0.09167462587356567,XTrueNorthZVertical,0.6281399572463738,-0.08073025389981801,0.2606400523119971,0.7286903863560643,-0.44509157538414,-0.87335604429245,-0.1978456377983093,34.54486083984375,-60.49416351318359,6.134801387786865,2,10.3.35.51,10.83.46.32,1,0
2015-02-27 16:54:03.504,145,1425084835.41574,37.78747994313793,-122.3961942854547,11.47892,-1,-1,10,65,-9999,1425084843.469829,5.625083923339844,-45.6312255859375,-3.488639831542969,248.4208831787109,234.6476287841797,10,136487.7027622917,-0.06500244140625,-1.127471923828125,-0.158935546875,136487.7067389583,0.7213792329013605,2.253448403756543,-0.7578586808810479,136487.654959375,1.41480308977349,-1.176149968147476,1.065247617457612,0.7175402045249939,0.1724851131439209,0.1404326111078262,-0.5549676418304443,0.1788792163133621,0.492504745721817,XTrueNorthZVertical,0.6316930058054145,-0.08867945295452903,0.2516826278502965,0.7278432878715934,-0.4470618069171906,-0.8749088644981384,-0.1861997991800308,35.17330551147461,-60.30733871459961,4.048514366149902,2,10.3.35.51,10.83.46.32,1,0
2015-02-27 16:54:03.523,146,1425084835.41574,37.78747994313793,-122.3961942854547,11.47892,-1,-1,10,65,-9999,1425084843.469829,5.625083923339844,-45.6312255859375,-3.488639831542969,248.4208831787109,234.6476287841797,10,136487.7518006667,-0.2723236083984375,-0.869598388671875,-0.1920013427734375,136487.7067389583,0.7213792329013605,2.253448403756543,-0.7578586808810479,136487.7067389583,1.481497551094179,-1.151364449649146,1.091695178702521,0.7115591168403625,2.262977361679077,-0.724541962146759,0.3560217320919037,-0.2400622814893723,0.02879547141492367,XTrueNorthZVertical,0.6353613786093953,-0.04950161460778005,0.2752466215385812,0.7197950415747141,-0.4210241734981537,-0.8874096274375916,-0.1877310127019882,34.85410690307617,-60.17901611328125,7.362349033355713,2,10.3.35.51,10.83.46.32,1,0
2015-02-27 16:54:03.601,147,1425084835.41574,37.78747994313793,-122.3961942854547,11.47892,-1,-1,10,65,-9999,1425084843.575201,6.631141662597656,-45.44429016113281,-0.7760467529296875,244.5979766845703,230.8247222900391,10,136487.80086875,-0.62603759765625,-0.970977783203125,-0.245574951171875,136487.758518875,0.4060788030152823,0.2684897810896465,-0.03441736234763904,136487.758518875,1.523199874102199,-1.138338040016312,1.112759744878985,0.3962587714195251,0.2780185639858246,-0.001100915833376348,0.1291558742523193,0.02732403762638569,-0.006678522564470768,XTrueNorthZVertical,0.6377708628803064,-0.02422635786726609,0.2876265041315293,0.7140955818289511,-0.4014794826507568,-0.8969224095344543,-0.1853228211402893,35.34107208251953,-58.96675109863281,12.82409477233887,2,10.3.35.51,10.83.46.32,1,0
