loggingTime,loggingSample,locationTimestamp_since1970,locationLatitude,locationLongitude,locationAltitude,locationSpeed,locationCourse,locationVerticalAccuracy,locationHorizontalAccuracy,locationFloor,locationHeadingTimestamp_since1970,locationHeadingX,locationHeadingY,locationHeadingZ,locationTrueHeading,locationMagneticHeading,locationHeadingAccuracy,accelerometerTimestamp_sinceReboot,accelerometerAccelerationX,accelerometerAccelerationY,accelerometerAccelerationZ,gyroTimestamp_sinceReboot,gyroRotationX,gyroRotationY,gyroRotationZ,motionTimestamp_sinceReboot,motionYaw,motionRoll,motionPitch,motionRotationRateX,motionRotationRateY,motionRotationRateZ,motionUserAccelerationX,motionUserAccelerationY,motionUserAccelerationZ,motionAttitudeReferenceFrame,motionQuaternionX,motionQuaternionY,motionQuaternionZ,motionQuaternionW,motionGravityX,motionGravityY,motionGravityZ,motionMagneticFieldX,motionMagneticFieldY,motionMagneticFieldZ,motionMagneticFieldCalibrationAccuracy,IP_en0,IP_pdp_ip0,deviceOrientation,state
2015-02-21 11:24:43.947,1,1424543077.746016,39.63844553866344,-106.3702437534911,2516.881,-1,-1,10,65,-9999,1424543083.90541,-36.2885627746582,-22.92060852050781,-15.869873046875,121.2702941894531,112.1437377929688,25,14496.461733375,-0.43988037109375,-0.433380126953125,-0.7288360595703125,14496.45155795833,-0.01599521182312491,0.007049387405439743,0.02309093823153203,14496.38942575,2.638961864948568,-0.5881516811588277,0.4786153282306322,-0.07050634175539017,0.6023987531661987,-0.01138464920222759,-0.001965222414582968,0.01198791433125734,0.02868922241032124,XTrueNorthZVertical,0.3291630493538771,0.1497014709844253,0.883502390999502,0.2977662919632454,-0.4924805760383606,-0.4605505466461182,-0.7384822964668274,-52.49871826171875,-25.96214485168457,-0.6886119842529297,1,0.0.0.0,10.97.20.126,1,0
2015-02-21 11:24:44.004,2,1424543077.746016,39.63844553866344,-106.3702437534911,2516.881,-1,-1,10,65,-9999,1424543083.980333,-36.74892044067383,-22.76768493652344,-17.08491516113281,119.7011642456055,110.5746078491211,25,14496.51086016667,-0.4747161865234375,-0.4622650146484375,-0.723236083984375,14496.50333433333,0.04659999275420651,0.005380118034178077,-0.06015708059936388,14496.49297920833,2.640016153922045,-0.5689419004265639,0.4775271573234694,0.02798095531761646,-0.03488757833838463,0.00452718511223793,-0.0321153849363327,0.002522599417716265,0.0226112361997366,XTrueNorthZVertical,0.3204907005015287,0.1522230776868235,0.8869358343503567,0.295734262916978,-0.4784741997718811,-0.4595843553543091,-0.7482277154922485,-52.39588165283203,-26.01278305053711,-2.93751335144043,1,0.0.0.0,10.97.20.126,1,0
2015-02-21 11:24:44.029,3,1424543077.746016,39.63844553866344,-106.3702437534911,2516.881,-1,-1,10,65,-9999,1424543083.980333,-36.74892044067383,-22.76768493652344,-17.08491516113281,119.7011642456055,110.5746078491211,25,14496.55994741667,-0.5030670166015625,-0.4586334228515625,-0.726806640625,14496.55511154167,0.05004958531418615,0.04825168526227366,-0.01354030993028987,14496.5447565,2.640432768942942,-0.5661158457852382,0.4803549990447938,0.03590893372893333,0.07520963251590729,0.0115174213424325,0.007885364815592766,-0.006243983749300241,0.0190763883292675,XTrueNorthZVertical,0.3194416185855983,0.1540082493284014,0.8870422606170026,0.2956258147386872,-0.4756588041782379,-0.4620940387248993,-0.748477041721344,-52.42658996582031,-25.96858215332031,-2.776365280151367,1,0.0.0.0,10.97.20.126,1,0
2015-02-21 11:24:44.100,4,1424543077.746016,39.63844553866344,-106.3702437534911,2516.881,-1,-1,10,65,-9999,1424543084.084199,-36.15216445922852,-23.29443359375,-17.00170135498047,120.8202667236328,111.6937103271484,25,14496.609066125,-0.4281768798828125,-0.462646484375,-0.7396087646484375,14496.60688879167,0.08058645563747073,0.06952954342367974,-0.07406943413393782,14496.59653279167,2.641901007605515,-0.5630525770453153,0.4832433878977533,0.07607681304216385,0.1279579102993011,-0.05226878449320793,-0.004676051437854767,0.02387296967208385,0.0179485660046339,XTrueNorthZVertical,0.3182095109392364,0.1560234427416165,0.8873300491687107,0.2950336579296335,-0.4726493954658508,-0.4646536111831665,-0.7487987875938416,-52.39394378662109,-26.01736831665039,-2.931568145751953,1,0.0.0.0,10.97.20.126,1,0
2015-02-21 11:24:44.127,5,1424543077.746016,39.63844553866344,-106.3702437534911,2516.881,-1,-1,10,65,-9999,1424543084.084199,-36.15216445922852,-23.29443359375,-17.00170135498047,120.8202667236328,111.6937103271484,25,14496.65825629167,-0.4972991943359375,-0.456329345703125,-0.7307586669921875,14496.60688879167,0.08058645563747073,0.06952954342367974,-0.07406943413393782,14496.59653279167,2.641901007605515,-0.5630525770453153,0.4832433878977533,0.07607681304216385,0.1279579102993011,-0.05226878449320793,-0.004676051437854767,0.02387296967208385,0.0179485660046339,XTrueNorthZVertical,0.3182095109392364,0.1560234427416165,0.8873300491687107,0.2950336579296335,-0.4726493954658508,-0.4646536111831665,-0.7487987875938416,-52.39394378662109,-26.01736831665039,-2.931568145751953,1,0.0.0.0,10.97.20.126,1,0
2015-02-21 11:24:44.222,6,1424543084.156653,39.63851022464696,-106.3701300646443,2515.248,-1,-1,10,65,-9999,1424543084.187753,-36.1692008972168,-23.37939453125,-16.48572540283203,121.6137313842773,112.487174987793,25,14496.70727825,-0.449798583984375,-0.4779815673828125,-0.73602294921875,14496.71044245833,0.02318361623746679,-0.1748224108099246,0.008040882279276244,14496.70008733333,2.644521753588154,-0.5635383821953825,0.4884129583305443,0.06158803030848503,-0.1067206114530563,0.007500657811760902,0.03256044536828995,-0.003705911105498672,0.009406875818967819,XTrueNorthZVertical,0.318645659186531,0.1587473302007962,0.8868881628186601,0.2944379369138141,-0.4717236459255219,-0.4692249894142151,-0.7465284466743469,-52.36962890625,-26.06598281860352,-2.93412971496582,1,0.0.0.0,10.97.20.126,1,0
2015-02-21 11:24:44.230,7,1424543084.156653,39.63851022464696,-106.3701300646443,2515.248,-1,-1,10,65,-9999,1424543084.187753,-36.1692008972168,-23.37939453125,-16.48572540283203,121.6137313842773,112.487174987793,25,14496.75636041667,-0.4847564697265625,-0.462310791015625,-0.738555908203125,14496.71044245833,0.02318361623746679,-0.1748224108099246,0.008040882279276244,14496.70008733333,2.644521753588154,-0.5635383821953825,0.4884129583305443,0.06158803030848503,-0.1067206114530563,0.007500657811760902,0.03256044536828995,-0.003705911105498672,0.009406875818967819,XTrueNorthZVertical,0.318645659186531,0.1587473302007962,0.8868881628186601,0.2944379369138141,-0.4717236459255219,-0.4692249894142151,-0.7465284466743469,-52.36962890625,-26.06598281860352,-2.93412971496582,1,0.0.0.0,10.97.20.126,1,0
2015-02-21 11:24:44.307,8,1424543084.156653,39.63851022464696,-106.3701300646443,2515.248,-1,-1,10,65,-9999,1424543084.292197,-36.32266616821289,-23.36239624023438,-16.70211029052734,120.5058364868164,111.379280090332,25,14496.80549558333,-0.408599853515625,-0.4513702392578125,-0.7246856689453125,14496.76221970833,0.05781483042063919,0.1818009581303682,-0.03405064506553512,14496.75186370833,2.646710253209411,-0.5671726131027159,0.4864400794455833,0.02314223721623421,0.1552098393440247,0.01686025224626064,-0.02809122949838638,0.007688786834478378,0.006086553446948528,XTrueNorthZVertical,0.31992287095991,0.1576550136672454,0.8869168264506662,0.293552174693444,-0.4749300181865692,-0.4674818813800812,-0.745588481426239,-52.42790985107422,-25.97551727294922,-2.685070037841797,1,0.0.0.0,10.97.20.126,1,0
2015-02-21 11:24:44.324,9,1424543084.156653,39.63851022464696,-106.3701300646443,2515.248,-1,-1,10,65,-9999,1424543084.292197,-36.32266616821289,-23.36239624023438,-16.70211029052734,120.5058364868164,111.379280090332,25,14496.85458058333,-0.5348052978515625,-0.4606475830078125,-0.7322845458984375,14496.81399604167,0.03742007647670337,-0.2988777807079956,-0.04879017643468767,14496.80364095833,2.646636541873937,-0.5637182693465299,0.4884362129324126,0.0202503390610218,-0.1785350888967514,-0.02730744518339634,0.06366424262523651,0.01073417998850346,0.01346317399293184,XTrueNorthZVertical,0.3185593156369069,0.1590684748697059,0.8871669684467215,0.2935166704411312,-0.4718520939350128,-0.4692455232143402,-0.7464343905448914,-52.41297912597656,-25.97841262817383,-2.936750411987305,1,0.0.0.0,10.97.20.126,1,0
2015-02-21 11:24:44.404,10,1424543084.156653,39.63851022464696,-106.3701300646443,2515.248,-1,-1,10,65,-9999,1424543084.395058,-35.86230850219727,-22.9715576171875,-16.18614196777344,120.5782012939453,111.4516448974609,25,14496.903714,-0.4806671142578125,-0.4769134521484375,-0.7264251708984375,14496.91755058333,0.07672354047631079,0.2996660763906591,-0.06519365085292174,14496.85541833333,2.647698048398289,-0.5788839635444094,0.4890336097308273,0.02439015917479992,-0.2452084422111511,0.05020537227392197,-0.051841139793396,0.009125407785177231,0.006673506926745176,XTrueNorthZVertical,0.3252419537785954,0.1572852350210297,0.8847948142154616,0.2943080802327924,-0.4829641580581665,-0.46977299451828,-0.7389580607414246,-52.37403106689453,-26.0803108215332,-2.720529556274414,1,0.0.0.0,10.97.20.126,1,0
2015-02-21 11:24:44.424,11,1424543084.156653,39.63851022464696,-106.3701300646443,2515.248,-1,-1,10,65,-9999,1424543084.395058,-35.86230850219727,-22.9715576171875,-16.18614196777344,120.5782012939453,111.4516448974609,25,14496.952805375,-0.41845703125,-0.45928955078125,-0.721710205078125,14496.91755058333,0.07672354047631079,0.2996660763906591,-0.06519365085292174,14496.90719458333,2.649703779300647,-0.5760909259080801,0.4912361772471901,0.06746476888656616,0.3314991295337677,-0.04515984281897545,-0.0003335985238663852,-0.005197204183787107,0.01300943642854691,XTrueNorthZVertical,0.324023477224118,0.1590329608865469,0.8852202707155332,0.2934322049124645,-0.4803335070610046,-0.4717162549495697,-0.7394345998764038,-52.45876312255859,-25.9698486328125,-2.066005706787109,1,0.0.0.0,10.97.20.126,1,0
2015-02-21 11:24:44.504,12,1424543084.156653,39.63851022464696,-106.3701300646443,2515.248,-1,-1,10,65,-9999,1424543084.44646,-35.57245254516602,-23.56631469726562,-15.93647766113281,121.3759307861328,112.2493743896484,25,14497.001936875,-0.4563140869140625,-0.46929931640625,-0.7230072021484375,14496.96932704167,0.1002104907619376,-0.1247725591796294,-0.05819086876655838,14496.95897195833,2.649879044972199,-0.566825014110394,0.4955706872445971,0.09550202637910843,-0.02650190517306328,-0.03120980970561504,0.05390208959579468,0.01624421030282974,0.02041144669055939,XTrueNorthZVertical,0.320252329745939,0.1624118822894372,0.8861016972825754,0.2930608995800412,-0.4723591208457947,-0.4755337536334991,-0.7421216368675232,-52.39200592041016,-26.0632495880127,-2.531339645385742,1,0.0.0.0,10.97.20.126,1,0
2015-02-21 11:24:44.524,13,1424543084.156653,39.63851022464696,-106.3701300646443,2515.248,-1,-1,10,65,-9999,1424543084.498951,-35.8111686706543,-23.46435546875,-15.9031982421875,120.9487457275391,111.8221893310547,25,14497.05103783333,-0.5324554443359375,-0.491668701171875,-0.7125244140625,14497.02110420833,0.08250073582901968,-0.2357161217668044,-0.005206746247213919,14497.010749125,2.65088344646736,-0.5761210520859179,0.4999543536778726,0.07724563777446747,-0.2499313503503799,0.008710765279829502,0.02178308740258217,0.01008616294711828,0.01293620467185974,XTrueNorthZVertical,0.3246324996914007,0.1632238858066895,0.8841022998300492,0.2938280274033074,-0.4780971705913544,-0.4793854653835297,-0.7359433770179749,-52.33537673950195,-26.17626190185547,-2.536609649658203,1,0.0.0.0,10.97.20.126,1,0
2015-02-21 11:24:44.603,14,1424543084.156653,39.63851022464696,-106.3701300646443,2515.248,-1,-1,10,65,-9999,1424543084.551079,-36.11806106567383,-23.63427734375,-15.80332946777344,120.8772506713867,111.7506942749023,25,14497.1001615,-0.424224853515625,-0.472747802734375,-0.720184326171875,14497.072881625,0.1248314150397202,0.06117787024519125,-0.1069647999185966,14497.062525625,2.654061440638003,-0.5847814778237105,0.5032820906600661,0.08034208416938782,0.04060552641749382,-0.05244982615113258,-0.03539722412824631,-0.006283169146627188,0.01163006294518709,XTrueNorthZVertical,0.3284570440020105,0.1639982351991529,0.8826593158922482,0.2934845211793565,-0.4835694432258606,-0.482303261756897,-0.7304410934448242,-52.37598419189453,-26.17153930664062,-1.558767318725586,1,0.0.0.0,10.97.20.126,1,0
2015-02-21 11:24:44.618,15,1424543084.156653,39.63851022464696,-106.3701300646443,2515.248,-1,-1,10,65,-9999,1424543084.603578,-36.45907211303711,-23.66825866699219,-15.67017364501953,120.2704620361328,111.1439056396484,25,14497.149354,-0.445281982421875,-0.4521331787109375,-0.701019287109375,14497.12465779167,0.08114252367307927,-0.2171219310358711,-0.0313611186806641,14497.11430270833,2.653714952077192,-0.5837981505106512,0.5088949971341865,0.06906916201114655,-0.1198855340480804,-0.01168290991336107,0.05437976494431496,0.01213016640394926,0.008675291202962399,XTrueNorthZVertical,0.3284837494149668,0.1666596208986182,0.881928046322736,0.294153023523131,-0.4813511967658997,-0.4872125685214996,-0.7286459803581238,-52.31099700927734,-26.29924774169922,-1.591337203979492,1,0.0.0.0,10.97.20.126,1,0
2015-02-21 11:24:44.699,16,1424543084.156653,39.63851022464696,-106.3701300646443,2515.248,-1,-1,10,65,-9999,1424543084.654434,-36.20331954956055,-23.92314147949219,-15.38721466064453,120.9169464111328,111.7903900146484,25,14497.19839670833,-0.364105224609375,-0.4372711181640625,-0.6763153076171875,14497.17643520833,0.1843043295550427,-0.6240553424449597,-0.1032281185931064,14497.166080125,2.654202104966322,-0.5981625676690632,0.5135765175308401,0.1277361810207367,-0.47945836186409,-0.0650976225733757,0.06426944583654404,0.04332797601819038,0.02350541763007641,XTrueNorthZVertical,0.3351222870025541,0.1667665176090209,0.8789081253704255,0.2956392591027193,-0.4904779493808746,-0.4912955164909363,-0.7197639346122742,-52.26142120361328,-26.41229248046875,-1.325738906860352,1,0.0.0.0,10.97.20.126,1,0
2015-02-21 11:24:44.716,17,1424543084.156653,39.63851022464696,-106.3701300646443,2515.248,-1,-1,10,65,-9999,1424543084.706509,-36.61252212524414,-24.60285949707031,-13.88922882080078,122.3398056030273,113.213249206543,25,14497.24747770833,-0.3820037841796875,-0.4329986572265625,-0.6097869873046875,14497.22821233333,0.3007595703342456,-2.002091536907703,-0.231335754405842,14497.21785633333,2.656674470746098,-0.6506007187191837,0.5247677538214921,0.2675559818744659,-1.658353447914124,-0.1542389392852783,0.1776394098997116,0.07150762528181076,0.009601660072803497,XTrueNorthZVertical,0.358636591108445,0.1644860173467478,0.8684544096565419,0.3001852211049869,-0.5241665244102478,-0.5010120272636414,-0.6886482834815979,-52.12562561035156,-26.67409133911133,1.426580429077148,1,0.0.0.0,10.97.20.126,1,0
2015-02-21 11:24:44.803,18,1424543084.156653,39.63851022464696,-106.3701300646443,2515.248,-1,-1,10,65,-9999,1424543084.75754,-37.08993911743164,-25.24861145019531,-10.5936279296875,124.6218948364258,115.4953384399414,25,14497.29662125,-0.6904754638671875,-0.50518798828125,-0.5076751708984375,14497.27998883333,0.2321823733163782,-2.848837746543999,-0.3688542025625907,14497.26963354167,2.656011220580498,-0.7672565834526762,0.5450964366177951,0.2582004070281982,-2.754422903060913,-0.3442837297916412,0.05331043899059296,0.04625629261136055,0.06343685835599899,XTrueNorthZVertical,0.4099112252649417,0.1556369676994472,0.8426681650881103,0.312506589115135,-0.5935631394386292,-0.5185005664825439,-0.6154998540878296,-51.79614639282227,-26.95565032958984,4.601606369018555,1,0.0.0.0,10.97.20.126,1,0
2015-02-21 11:24:44.815,19,1424543084.156653,39.63851022464696,-106.3701300646443,2515.248,-1,-1,10,65,-9999,1424543084.809815,-38.07886123657227,-25.82638549804688,-6.232765197753906,126.7250442504883,117.5984878540039,25,14497.34581254167,-0.780181884765625,-0.548370361328125,-0.437164306640625,14497.33176595833,0.5429011008630842,-2.273102266285218,-0.6273648527316013,14497.321410875,2.654387590193972,-0.8985594218751304,0.56872339234261,0.4593800902366638,-2.331845045089722,-0.5118836164474487,-0.0466344840824604,0.05172516778111458,0.05120139569044113,XTrueNorthZVertical,0.4655191713086265,0.1446921983643904,0.8096707637623151,0.3267864841014426,-0.6592676043510437,-0.5385568141937256,-0.5247121453285217,-50.47941589355469,-27.59229850769043,11.00528526306152,1,0.0.0.0,10.97.20.126,1,0
2015-02-21 11:24:44.902,20,1424543084.156653,39.63851022464696,-106.3701300646443,2515.248,-1,-1,10,65,-9999,1424543084.862913,-38.31756210327148,-26.81196594238281,-1.67218017578125,129.2257995605469,120.0992431640625,25,14497.39485179167,-0.743621826171875,-0.48529052734375,-0.4018402099609375,14497.38354333333,0.5666876567713449,-1.368224043742455,-0.8533039775045067,14497.37318733333,2.658111713306158,-1.002277416286827,0.6138373542733011,0.5776397585868835,-1.617153763771057,-0.7943513989448547,-0.1559893637895584,0.06459493935108185,-0.01197307743132114,XTrueNorthZVertical,0.5080897548140377,0.1476322047452915,0.776994141650327,0.3410714295017261,-0.6888592839241028,-0.5760084986686707,-0.4400990605354309,-46.58696746826172,-28.98657035827637,20.49527168273926,1,0.0.0.0,10.97.20.126,1,0
2015-02-21 11:24:44.913,21,1424543084.156653,39.63851022464696,-106.3701300646443,2515.248,-1,-1,10,65,-9999,1424543084.862913,-38.31756210327148,-26.81196594238281,-1.67218017578125,129.2257995605469,120.0992431640625,25,14497.44404729167,-0.672332763671875,-0.6060791015625,-0.3172760009765625,14497.43531954167,0.5033254618000707,-1.075249425906729,-1.112567503313683,14497.42496445833,2.658643304881315,-1.054269915277235,0.6675160306135699,0.5095547437667847,-0.9503827691078186,-1.009221792221069,0.03591552376747131,0.0006593986763618886,0.01624836027622223,XTrueNorthZVertical,0.5292144011143851,0.1612503119792193,0.753459897562556,0.3552868141530072,-0.6829034090042114,-0.6190370917320251,-0.387860894203186,-44.94183731079102,-29.74877548217773,22.93173789978027,1,0.0.0.0,10.97.20.126,1,0
2015-02-21 11:24:44.973,22,1424543084.156653,39.63851022464696,-106.3701300646443,2515.248,-1,-1,10,65,-9999,1424543084.965314,-35.52131271362305,-30.41445922851562,4.519554138183594,136.2600555419922,127.1334915161133,25,14497.49309295833,-0.6433868408203125,-0.607025146484375,-0.21026611328125,14497.487097,0.6952634763037164,-1.762797990848595,-1.423375180440797,14497.47674170833,2.655733978563941,-1.113998371867639,0.7328105516472004,0.6550998091697693,-1.484579205513,-1.337273120880127,-0.02036764100193977,0.1076210141181946,0.0729529857635498,XTrueNorthZVertical,0.5522113256265061,0.1764571432701126,0.7236726024194159,0.3744643854260405,-0.6670866012573242,-0.6689613461494446,-0.3278510570526123,-42.54751586914062,-31.14226341247559,25.50473403930664,1,0.0.0.0,10.97.20.126,1,0
2015-02-21 11:24:45.011,23,1424543084.156653,39.63851022464696,-106.3701300646443,2515.248,-1,-1,10,65,-9999,1424543084.965314,-35.52131271362305,-30.41445922851562,4.519554138183594,136.2600555419922,127.1334915161133,25,14497.54226441667,-0.8167266845703125,-0.73980712890625,-0.160308837890625,14497.53887408334,1.014008705059812,-2.085370182091135,-1.58460694757583,14497.47674170833,2.655733978563941,-1.113998371867639,0.7328105516472004,0.6550998091697693,-1.484579205513,-1.337273120880127,-0.02036764100193977,0.1076210141181946,0.0729529857635498,XTrueNorthZVertical,0.5522113256265061,0.1764571432701126,0.7236726024194159,0.3744643854260405,-0.6670866012573242,-0.6689613461494446,-0.3278510570526123,-42.54751586914062,-31.14226341247559,25.50473403930664,1,0.0.0.0,10.97.20.126,1,0
2015-02-21 11:24:45.103,24,1424543084.156653,39.63851022464696,-106.3701300646443,2515.248,-1,-1,10,65,-9999,1424543085.071187,-28.3260612487793,-34.90058898925781,11.14405822753906,148.8506469726562,139.7240905761719,25,14497.59131933333,-0.438934326171875,-0.7771148681640625,-0.0512542724609375,14497.59065041667,0.7725657216849015,-0.9828212244822213,-1.751452924604858,14497.5802955,2.694691334008125,-1.331998891954471,0.9108786134791951,0.7192043662071228,-1.382536888122559,-1.935667276382446,0.06080438569188118,0.1072576493024826,0.01643729396164417,XTrueNorthZVertical,0.6177132292243078,0.214304551254068,0.6283730224048485,0.4214870739098533,-0.5956554412841797,-0.7900426983833313,-0.145007848739624,-32.07030487060547,-34.25694274902344,35.05110931396484,1,0.0.0.0,10.97.20.126,1,0
2015-02-21 11:24:45.109,25,1424543084.156653,39.63851022464696,-106.3701300646443,2515.248,-1,-1,10,65,-9999,1424543085.071187,-28.3260612487793,-34.90058898925781,11.14405822753906,148.8506469726562,139.7240905761719,25,14497.64041333333,-0.7631683349609375,-0.7841033935546875,-0.0434722900390625,14497.59065041667,0.7725657216849015,-0.9828212244822213,-1.751452924604858,14497.5802955,2.694691334008125,-1.331998891954471,0.9108786134791951,0.7192043662071228,-1.382536888122559,-1.935667276382446,0.06080438569188118,0.1072576493024826,0.01643729396164417,XTrueNorthZVertical,0.6177132292243078,0.214304551254068,0.6283730224048485,0.4214870739098533,-0.5956554412841797,-0.7900426983833313,-0.145007848739624,-32.07030487060547,-34.25694274902344,35.05110931396484,1,0.0.0.0,10.97.20.126,1,0
2015-02-21 11:24:45.203,26,1424543084.156653,39.63851022464696,-106.3701300646443,2515.248,-1,-1,10,65,-9999,1424543085.17455,-21.13082504272461,-38.06126403808594,14.57280731201172,161.4091491699219,152.2825927734375,25,14497.68956325,-0.366119384765625,-0.8428192138671875,-0.0285797119140625,14497.694205125,0.1268958975167496,0.4184806115795632,-1.189966687758547,14497.632072625,2.729818721079484,-1.398095082384716,0.9919790682601892,0.6217027306556702,-0.4687065780162811,-1.57814359664917,-0.3112771809101105,0.01725549809634686,0.06046577543020248,XTrueNorthZVertical,0.6284667132947158,0.2408885503237871,0.5963926040494817,0.4373994072295304,-0.5388967990875244,-0.8371102213859558,-0.09400459378957748,-26.91856956481934,-35.23371887207031,38.27007675170898,1,0.0.0.0,10.97.20.126,1,0
2015-02-21 11:24:45.208,27,1424543084.156653,39.63851022464696,-106.3701300646443,2515.248,-1,-1,10,65,-9999,1424543085.17455,-21.13082504272461,-38.06126403808594,14.57280731201172,161.4091491699219,152.2825927734375,25,14497.73866104167,-0.530303955078125,-0.8188323974609375,0.0196990966796875,14497.694205125,0.1268958975167496,0.4184806115795632,-1.189966687758547,14497.683849125,2.749940661438613,-1.408898454236015,1.063146802065082,0.1878101527690887,0.4260303378105164,-1.209748983383179,0.05947962403297424,0.05925331264734268,0.03650433570146561,XTrueNorthZVertical,0.6227329162189712,0.2702297515573608,0.5803975850666598,0.4497980910204901,-0.4797677099704742,-0.8738895654678345,-0.07835919409990311,-22.3529167175293,-36.04703903198242,40.3928337097168,1,0.0.0.0,10.97.20.126,1,0
2015-02-21 11:24:45.271,28,1424543084.156653,39.63851022464696,-106.3701300646443,2515.248,-1,-1,10,65,-9999,1424543085.22564,-18.07666397094727,-39.05255126953125,15.31405639648438,164.7254943847656,155.5989379882812,25,14497.78781866667,-0.4813385009765625,-0.8025360107421875,-0.0296783447265625,14497.7459815,0.2054735307439735,0.4289050230344604,-1.124317636359221,14497.73562625,2.747702256419305,-1.390500143829168,1.119743200878097,0.2060941904783249,0.2551684379577637,-1.141861796379089,-0.1343998163938522,0.07055127620697021,0.1240821704268456,XTrueNorthZVertical,0.6120819698262808,0.2937199775447386,0.57150861122153,0.460936250809763,-0.4288478493690491,-0.8999885320663452,-0.07816847413778305,-21.59840202331543,-36.61332321166992,40.29387664794922,1,0.0.0.0,10.97.20.126,1,0
2015-02-21 11:24:45.308,29,1424543084.156653,39.63851022464696,-106.3701300646443,2515.248,-1,-1,10,65,-9999,1424543085.276852,-17.01959609985352,-39.73225402832031,15.44721984863281,165.8569183349609,156.7303619384766,25,14497.83691220833,-0.27001953125,-0.9735870361328125,0.0432586669921875,14497.79775858333,0.1641660380240815,2.444149379933847,-0.2442552814860344,14497.78740366667,2.748461639132276,-1.335751156745275,1.161782012043119,0.1183239743113518,2.024307727813721,-0.3851633965969086,-0.06595831364393234,0.1301445066928864,0.0617060624063015,XTrueNorthZVertical,0.5919128715879923,0.3214482366301674,0.5773406433174696,0.46150628185953,-0.3867699503898621,-0.9175132513046265,-0.0926203653216362,-20.36355400085449,-37.29521179199219,40.31148147583008,1,0.0.0.0,10.97.20.126,1,0
2015-02-21 11:24:45.372,30,1424543084.156653,39.63851022464696,-106.3701300646443,2515.248,-1,-1,10,65,-9999,1424543085.329449,-17.54813766479492,-39.64729309082031,14.49842834472656,161.5765991210938,152.4500427246094,25,14497.886054875,0.1118011474609375,-1.074386596679688,-0.1314239501953125,14497.84953604167,0.1100412836098561,4.080827784723451,-0.028601817475233,14497.83918004167,2.77841908479826,-1.214739275950727,1.176353745947781,0.2197975814342499,3.733142614364624,-0.06396927684545517,0.09017082303762436,-0.05037611722946167,0.1772163063287735,XTrueNorthZVertical,0.5492765273801857,0.3623761508086467,0.6147432879235748,0.434821336589421,-0.360190361738205,-0.9232109189033508,-0.133957639336586,-25.35156631469727,-37.32544708251953,37.34610748291016,1,0.0.0.0,10.97.20.126,1,0
2015-02-21 11:24:45.405,31,1424543084.156653,39.63851022464696,-106.3701300646443,2515.248,-1,-1,10,65,-9999,1424543085.38093,-18.5369987487793,-39.17149353027344,12.86716461181641,154.5945587158203,145.4680023193359,25,14497.93514129167,0.1885223388671875,-1.139862060546875,-0.3287506103515625,14497.90131220833,0.482063582605205,1.963421106299208,-1.380060729523422,14497.89095733333,2.788740597526684,-1.039146546185029,1.193980417050681,0.493801474571228,2.827954292297363,-0.9198777079582214,0.4289738833904266,-0.1445456296205521,0.05511654168367386,XTrueNorthZVertical,0.4898995075334509,0.4083236797110143,0.6577572110286849,0.4007814609631168,-0.3171727359294891,-0.9298409819602966,-0.1865404844284058,-29.50052642822266,-37.1787109375,34.32324600219727,1,0.0.0.0,10.97.20.126,1,0
2015-02-21 11:24:45.471,32,1424543084.156653,39.63851022464696,-106.3701300646443,2515.248,-1,-1,10,65,-9999,1424543085.43267,-17.2071418762207,-39.95315551757812,11.9017333984375,153.8889465332031,144.7623901367188,25,14497.98428933333,-0.061126708984375,-1.294998168945312,0.012847900390625,14497.95308970834,-0.4130245934543179,-3.713066277156119,-1.715873891389726,14497.94273445833,2.66442697878957,-0.9274656187446045,1.264314276726057,-0.2950754761695862,-2.794339656829834,-1.761212348937988,0.4299185574054718,-0.1864612102508545,-0.1477677077054977,XTrueNorthZVertical,0.4755256266336147,0.4282334975187597,0.6386536630679354,0.427332460355741,-0.2413962185382843,-0.9534008502960205,-0.1809829026460648,-32.58050155639648,-37.73329925537109,30.74624824523926,1,0.0.0.0,10.97.20.126,1,0
2015-02-21 11:24:45.508,33,1424543084.156653,39.63851022464696,-106.3701300646443,2515.248,-1,-1,10,65,-9999,1424543085.485301,-12.85953903198242,-41.56742858886719,12.31787109375,162.4930114746094,153.366455078125,25,14498.033433375,-0.260009765625,-1.197677612304688,0.05126953125,14498.00486675,-0.9739505012072763,-4.534155326534482,-1.360202868855246,14497.99451075,2.41995445665409,-0.9108501461746679,1.304510086371978,-0.8354987502098083,-4.73505687713623,-1.26958429813385,0.05028762668371201,-0.3220188617706299,0.213546484708786,XTrueNorthZVertical,0.5194903736810088,0.3866061236364379,0.5735038092373437,0.5017558376501998,-0.2078956514596939,-0.9647548198699951,-0.161330908536911,-20.90348052978516,-41.93570709228516,35.14347076416016,1,0.0.0.0,10.97.20.126,1,0
2015-02-21 11:24:45.572,34,1424543084.156653,39.63851022464696,-106.3701300646443,2515.248,-1,-1,10,65,-9999,1424543085.536419,-7.216163635253906,-42.97782897949219,12.23463439941406,177.9252014160156,168.7986450195312,25,14498.082504,-0.28515625,-1.167465209960938,-0.099700927734375,14498.05664333333,-1.251360007735925,-1.978732152038291,-1.580787441940438,14498.04628825,2.056937446626399,-0.7469577222776757,1.321851766935084,-1.254260182380676,-2.570778131484985,-1.58523690700531,-0.08793137967586517,-0.2276043444871902,0.206449955701828,XTrueNorthZVertical,0.5416828148415305,0.3408627168476026,0.5139422415327793,0.5711880528714812,-0.1673939377069473,-0.9691730141639709,-0.180784672498703,-14.30889129638672,-43.65530776977539,36.33307647705078,1,0.0.0.0,10.97.20.126,1,0
2015-02-21 11:24:45.606,35,1424543084.156653,39.63851022464696,-106.3701300646443,2515.248,-1,-1,10,65,-9999,1424543085.587898,-2.366497039794922,-44.02885437011719,10.28456115722656,189.5075378417969,180.3809814453125,25,14498.13158808333,0.056732177734375,-1.145217895507812,-0.177642822265625,14498.1084205,-1.044119735924793,-0.137831902217051,-1.707140587227029,14498.09806554167,1.656116181337391,-0.4176379279964951,1.315034397748626,-1.136547327041626,-0.3477976620197296,-1.68560266494751,-0.1484423577785492,-0.1779301762580872,0.08333544433116913,XTrueNorthZVertical,0.525216319729373,0.3294364494285106,0.4846926483311998,0.6170028873010094,-0.1026104986667633,-0.9674708247184753,-0.2312388867139816,-6.524690628051758,-46.37142944335938,35.18154907226562,1,0.0.0.0,10.97.20.126,1,0
2015-02-21 11:24:45.672,36,1424543084.156653,39.63851022464696,-106.3701300646443,2515.248,-1,-1,10,65,-9999,1424543085.640068,1.588935852050781,-44.40264892578125,8.087310791015625,195.6898040771484,186.5632476806641,25,14498.180819125,0.08892822265625,-1.138961791992188,-0.31671142578125,14498.16019770833,-0.9181591405828794,0.1998614513788496,-1.204590105304172,14498.14984170833,1.33502449854728,-0.1029201296164172,1.28753137482742,-0.9029808044433594,0.2571176588535309,-1.282955050468445,0.0807623416185379,-0.1940115094184875,0.07888602465391159,XTrueNorthZVertical,0.4962287683206894,0.3387482814691622,0.4702267741489042,0.6464468076898215,-0.0287146158516407,-0.96014803647995,-0.2780132293701172,-0.8662292957305908,-48.97807693481445,32.10950469970703,1,0.0.0.0,10.97.20.126,1,0
2015-02-21 11:24:45.705,37,1424543084.156653,39.63851022464696,-106.3701300646443,2515.248,-1,-1,10,65,-9999,1424543085.691837,4.453208923339844,-44.70854187011719,6.322853088378906,199.17919921875,190.0526428222656,25,14498.229796375,0.0311737060546875,-0.872772216796875,-0.322845458984375,14498.21197416667,-0.6594354375266624,-0.9361463969013836,-1.233867300431849,14498.201619,1.153515513795442,0.06539593530950598,1.242662212291514,-0.7733204364776611,-0.6399807929992676,-1.096630930900574,0.02775225043296814,-0.07569354027509689,-0.05876728519797325,XTrueNorthZVertical,0.4731954127264398,0.339546502125676,0.4591082906146151,0.6708307795294007,0.02106061577796936,-0.9466453194618225,-0.321588546037674,1.679559469223022,-50.24984359741211,30.04587554931641,1,0.0.0.0,10.97.20.126,1,0
2015-02-21 11:24:45.758,38,1424543084.156653,39.63851022464696,-106.3701300646443,2515.248,-1,-1,10,65,-9999,1424543085.743968,7.607322692871094,-44.759521484375,4.475166320800781,204.4424896240234,195.3159332275391,25,14498.27894745834,0.2190093994140625,-0.77471923828125,-0.2510223388671875,14498.26375158333,-0.5757839497906195,-1.163858121695846,-1.286982716792934,14498.25339645833,0.9689117125016554,0.1817790196479116,1.203191170799406,-0.5953940153121948,-1.245107889175415,-1.40093207359314,0.04393309727311134,0.1510861963033676,0.06339088082313538,XTrueNorthZVertical,0.4639156832351903,0.3287126507826316,0.4278338532302092,0.702629709804744,0.06496887654066086,-0.9331907033920288,-0.3534604609012604,6.364078998565674,-51.30741119384766,27.52581596374512,1,0.0.0.0,10.97.20.126,1,0
2015-02-21 11:24:45.806,39,1424543084.156653,39.63851022464696,-106.3701300646443,2515.248,-1,-1,10,65,-9999,1424543085.795447,9.619140625,-44.1817626953125,2.677413940429688,209.0929260253906,199.9663696289062,25,14498.32804525,0.0447540283203125,-0.8751983642578125,-0.2998199462890625,14498.31552870833,-0.3377982821428497,-0.6087677325234689,-0.1748466455758443,14498.30517270833,0.8746741925283475,0.2241661010143338,1.167212207809786,-0.4573292136192322,-0.6187746524810791,-0.2953081429004669,0.1084718331694603,0.1015899032354355,0.1053949669003487,XTrueNorthZVertical,0.4565121869473015,0.3164663845397324,0.4070408892480647,0.7250954751695203,0.0872984305024147,-0.9196593761444092,-0.3828912973403931,10.69983863830566,-51.52920532226562,25.7075309753418,1,0.0.0.0,10.97.20.126,1,0
2015-02-21 11:24:45.856,40,1424543084.156653,39.63851022464696,-106.3701300646443,2515.248,-1,-1,10,65,-9999,1424543085.847198,10.91488265991211,-43.909912109375,1.412330627441406,212.0936889648438,202.9671325683594,25,14498.37718975,0.102142333984375,-0.6722869873046875,-0.387542724609375,14498.36730520833,0.3414412201979691,-0.8655992596251846,-0.6331785333912442,14498.35695016667,0.8535903152357878,0.2094767232763088,1.15743392300629,0.1296568959951401,-0.8215267658233643,-0.4392519891262054,-0.1055035144090652,0.0864143967628479,0.05521764606237411,XTrueNorthZVertical,0.4589281050160084,0.3048442902734126,0.396702616459321,0.7342220850768993,0.08353085815906525,-0.9157753586769104,-0.3929099142551422,12.28809356689453,-51.84033966064453,24.33524894714355,1,0.0.0.0,10.97.20.126,1,0
2015-02-21 11:24:45.904,41,1424543084.156653,39.63851022464696,-106.3701300646443,2515.248,-1,-1,10,65,-9999,1424543085.898905,12.26177215576172,-43.485107421875,0.863006591796875,215.4650268554688,206.3384704589844,25,14498.42627333333,-0.130279541015625,-0.9899139404296875,-0.386322021484375,14498.41908241667,0.537114850762669,-1.475779266474722,-0.07502044895920512,14498.40872729167,0.7749326225697685,0.2336862243858414,1.175662759044395,0.5657541751861572,-1.214408159255981,-0.1952603906393051,0.003285752842202783,0.1188527494668961,0.01697076484560966,XTrueNorthZVertical,0.4732927090036129,0.2979254019173881,0.3721334620414222,0.7407774537144579,0.08913673460483551,-0.9229451417922974,-0.3744689226150513,13.97713088989258,-51.53653335571289,24.06757354736328,1,0.0.0.0,10.97.20.126,1,0
2015-02-21 11:24:45.956,42,1424543084.156653,39.63851022464696,-106.3701300646443,2515.248,-1,-1,10,65,-9999,1424543085.951202,13.23357772827148,-43.60403442382812,1.046112060546875,219.8335571289062,210.7070007324219,25,14498.475404,-0.35394287109375,-0.9424591064453125,-0.301513671875,14498.47085983333,0.5140457504520757,-1.118189969007058,-0.06932794212916074,14498.46050383333,0.7607629101331849,0.1683445358226725,1.200450613589603,0.4798340499401093,-1.405445337295532,-0.0190345011651516,-0.3670393526554108,-0.181674063205719,0.04096440598368645,XTrueNorthZVertical,0.4968412277967571,0.2733827452711131,0.3493868003512931,0.7458817705883103,0.06064287945628166,-0.9322022795677185,-0.3568213284015656,16.6953296661377,-50.47130966186523,24.58729934692383,1,0.0.0.0,10.97.20.126,1,0
2015-02-21 11:24:46.001,43,1424543084.156653,39.63851022464696,-106.3701300646443,2515.248,-1,-1,10,65,-9999,1424543085.951202,13.23357772827148,-43.60403442382812,1.046112060546875,219.8335571289062,210.7070007324219,25,14498.52448370833,-0.2241668701171875,-0.9073486328125,-0.26129150390625,14498.47085983333,0.5140457504520757,-1.118189969007058,-0.06932794212916074,14498.46050383333,0.7607629101331849,0.1683445358226725,1.200450613589603,0.4798340499401093,-1.405445337295532,-0.0190345011651516,-0.3670393526554108,-0.181674063205719,0.04096440598368645,XTrueNorthZVertical,0.4968412277967571,0.2733827452711131,0.3493868003512931,0.7458817705883103,0.06064287945628166,-0.9322022795677185,-0.3568213284015656,16.6953296661377,-50.47130966186523,24.58729934692383,1,0.0.0.0,10.97.20.126,1,0
2015-02-21 11:24:46.057,44,1424543084.156653,39.63851022464696,-106.3701300646443,2515.248,-1,-1,10,65,-9999,1424543086.004755,13.30177688598633,-43.43412780761719,1.379020690917969,222.3330688476562,213.2065124511719,25,14498.57371554167,0.0040130615234375,-0.8893890380859375,-0.3359527587890625,14498.57441354167,0.0751275080350263,1.212441636829943,0.4634337055156648,14498.56405845833,0.7911668955593331,0.1811085389790623,1.234378018446429,0.04479306936264038,1.288381338119507,0.4556225538253784,-0.07516046613454819,0.04877094551920891,-0.03036259487271309,XTrueNorthZVertical,0.5034433944378026,0.2901551919314774,0.3612602702603673,0.7292775968928319,0.05945916846394539,-0.9439430832862854,-0.324709415435791,12.21230983734131,-43.67575836181641,3.601024627685547,1,0.0.0.0,10.97.20.126,1,0
2015-02-21 11:24:46.100,45,1424543084.156653,39.63851022464696,-106.3701300646443,2515.248,-1,-1,10,65,-9999,1424543086.080155,12.17652130126953,-43.33218383789062,3.01031494140625,219.1312255859375,210.0046691894531,25,14498.62269120833,-0.000701904296875,-0.9074249267578125,-0.3255157470703125,14498.62619070833,0.1591521046397893,0.9356252162760551,0.5289852852190932,14498.56405845833,0.7911668955593331,0.1811085389790623,1.234378018446429,0.04479306936264038,1.288381338119507,0.4556225538253784,-0.07516046613454819,0.04877094551920891,-0.03036259487271309,XTrueNorthZVertical,0.5034433944378026,0.2901551919314774,0.3612602702603673,0.7292775968928319,0.05945916846394539,-0.9439430832862854,-0.324709415435791,12.21230983734131,-43.67575836181641,3.601024627685547,1,0.0.0.0,10.97.20.126,1,0
2015-02-21 11:24:46.151,46,1424543084.156653,39.63851022464696,-106.3701300646443,2515.248,-1,-1,10,65,-9999,1424543086.132455,10.88078308105469,-43.70602416992188,4.341972351074219,214.9918365478516,205.8652801513672,25,14498.671922,-0.06689453125,-1.03240966796875,-0.3204498291015625,14498.62619070833,0.1591521046397893,0.9356252162760551,0.5289852852190932,14498.61583470833,0.8675881440177522,0.1637019626890679,1.242326544627704,0.1020713895559311,0.9680189490318298,0.5308834910392761,-0.04627203196287155,0.02920921146869659,0.008681481704115868,XTrueNorthZVertical,0.4983633769830333,0.3041262705252916,0.3838332030533919,0.7154112882101067,0.05257391184568405,-0.9465370774269104,-0.3182823061943054,11.07893085479736,-43.90846633911133,4.356997489929199,1,0.0.0.0,10.97.20.126,1,0
2015-02-21 11:24:46.200,47,1424543084.156653,39.63851022464696,-106.3701300646443,2515.248,-1,-1,10,65,-9999,1424543086.183996,9.209953308105469,-44.11380004882812,5.174263000488281,211.0604095458984,201.9338531494141,25,14498.72090395833,-0.0296783447265625,-1.016937255859375,-0.288787841796875,14498.67796725,0.2578477893736899,1.07583452239822,0.653705113809139,14498.667612125,0.9595485215066405,0.1251916652293447,1.257083872988206,0.2528061270713806,1.03595495223999,0.6769059896469116,-0.09549339860677719,-0.04756954312324524,-0.01025967951864004,XTrueNorthZVertical,0.4972067624426155,0.3157481452096182,0.4052609890703888,0.6991796320845844,0.03853233531117439,-0.9511944651603699,-0.3061770796775818,9.791359901428223,-44.14015579223633,5.04535961151123,1,0.0.0.0,10.97.20.126,1,0
2015-02-21 11:24:46.249,48,1424543084.156653,39.63851022464696,-106.3701300646443,2515.248,-1,-1,10,65,-9999,1424543086.236299,8.118797302246094,-44.52162170410156,6.106437683105469,207.8631896972656,198.7366333007812,25,14498.77014558333,0.01007080078125,-0.932830810546875,-0.1804046630859375,14498.781521875,0.11081067084878,1.202324021532623,0.4709643261300818,14498.71938929167,1.056556525701365,0.0899284153931358,1.273673293796795,0.2860145568847656,1.213671326637268,0.529244065284729,-0.08870138227939606,-0.06893323361873627,-0.01540389843285084,XTrueNorthZVertical,0.4948550192224022,0.3306428144501967,0.4279199434496417,0.6802047075749552,0.02629293501377106,-0.9561827182769775,-0.2915876805782318,7.696849822998047,-44.39879608154297,6.259793281555176,1,0.0.0.0,10.97.20.126,1,0
2015-02-21 11:24:46.301,49,1424543084.156653,39.63851022464696,-106.3701300646443,2515.248,-1,-1,10,65,-9999,1424543086.288185,6.652568817138672,-44.0118408203125,6.672393798828125,204.2802886962891,195.1537322998047,25,14498.819136625,0.0461883544921875,-0.8526611328125,-0.0812530517578125,14498.781521875,0.11081067084878,1.202324021532623,0.4709643261300818,14498.771165875,1.153478295572112,0.06179786526220207,1.286966322094128,0.1186395362019539,1.273897528648376,0.5671667456626892,-0.007223731372505426,0.02715913765132427,0.09909545630216599,XTrueNorthZVertical,0.4892177807183226,0.3477296404647044,0.451570050492264,0.6601777280974922,0.01729453168809414,-0.9599899649620056,-0.2795001268386841,6.20854377746582,-44.48751449584961,7.210736274719238,1,0.0.0.0,10.97.20.126,1,0
2015-02-21 11:24:46.347,50,1424543084.156653,39.63851022464696,-106.3701300646443,2515.248,-1,-1,10,65,-9999,1424543086.339639,5.588993072509766,-44.83432006835938,7.020477294921875,202.7463989257812,193.6198425292969,25,14498.86838916667,0.0981292724609375,-0.757171630859375,-0.1086578369140625,14498.83329825,-0.07853395738534666,1.210451989179545,0.208108994958716,14498.82294304167,1.223014807662236,0.0549174861742082,1.291694195696054,0.002051352756097913,1.229920506477356,0.2639065086841583,0.03106658346951008,0.1086420491337776,0.1938244700431824,XTrueNorthZVertical,0.4800321696188337,0.3633598131114797,0.4718297742715141,0.6441393556240321,0.01512177102267742,-0.961303174495697,-0.2750775218009949,4.689360618591309,-44.57538604736328,7.792596817016602,1,0.0.0.0,10.97.20.126,1,0
2015-02-21 11:24:46.402,51,1424543084.156653,39.63851022464696,-106.3701300646443,2515.248,-1,-1,10,65,-9999,1424543086.391514,4.566059112548828,-44.63040161132812,6.920600891113281,200.1190185546875,190.9924621582031,25,14498.91737616667,0.178009033203125,-0.824462890625,-0.0770416259765625,14498.88507558333,-0.263699553236921,1.140579696923572,-0.02832058766412063,14498.8747205,1.251098949288684,0.08684716484785361,1.282068001139325,-0.2812593579292297,1.141643285751343,0.01833166927099228,0.07343203574419022,0.2014351040124893,0.1750026792287827,XTrueNorthZVertical,0.4639542063399459,0.3780426410702582,0.4899015663348339,0.6338980945396482,0.02469723485410213,-0.9586067199707031,-0.283660501241684,4.800589084625244,-45.2057991027832,7.570433616638184,1,0.0.0.0,10.97.20.126,1,0
2015-02-21 11:24:46.445,52,1424543084.156653,39.63851022464696,-106.3701300646443,2515.248,-1,-1,10,65,-9999,1424543086.391514,4.566059112548828,-44.63040161132812,6.920600891113281,200.1190185546875,190.9924621582031,25,14498.96653,0.1652984619140625,-0.82916259765625,-0.117767333984375,14498.93685279167,-0.2765533002381884,1.053890607648185,0.1769436186181727,14498.92649679167,1.270371911858845,0.1265138306875855,1.26872788209095,-0.2897986471652985,1.148812770843506,0.185745432972908,0.140472024679184,0.1302602887153625,0.2180765569210052,XTrueNorthZVertical,0.445908525602332,0.3919266456373095,0.507096890513313,0.6248295110448899,0.03753701597452164,-0.9547231793403625,-0.2951181828975677,4.342298984527588,-45.30529022216797,7.245454788208008,1,0.0.0.0,10.97.20.126,1,0
2015-02-21 11:24:46.505,53,1424543084.156653,39.63851022464696,-106.3701300646443,2515.248,-1,-1,10,65,-9999,1424543086.494605,3.850009918212891,-44.86827087402344,5.655494689941406,195.9215698242188,186.7950134277344,25,14499.01562383333,0.0977630615234375,-0.7689666748046875,-0.1778717041015625,14498.98862933333,-0.1786416501292072,0.4848668259686225,-0.06696438666171542,14498.97827420833,1.295594728402157,0.146146258904524,1.256998241653985,-0.1933180838823318,0.6259706020355225,0.008050115779042244,0.1253675222396851,0.1164054945111275,0.2059262990951538,XTrueNorthZVertical,0.4319371739371698,0.4009223570063762,0.5210476296593795,0.6174147650131075,0.04495108500123024,-0.9511680603027344,-0.3053830862045288,3.649816989898682,-45.42456817626953,6.870863914489746,1,0.0.0.0,10.97.20.126,1,0
2015-02-21 11:24:46.544,54,1424543084.156653,39.63851022464696,-106.3701300646443,2515.248,-1,-1,10,65,-9999,1424543086.494605,3.850009918212891,-44.86827087402344,5.655494689941406,195.9215698242188,186.7950134277344,25,14499.06491125,0.271453857421875,-0.7140045166015625,-0.1059112548828125,14499.0404065,0.01984960486879659,-0.09462690722047748,-0.6288234660606377,14499.03005141667,1.267866241657704,0.1845085384940101,1.248888567988405,-0.04574849084019661,-0.05259206891059875,-0.4668152332305908,0.03276142850518227,0.2076820284128189,0.1201806515455246,XTrueNorthZVertical,0.4247798970541227,0.4050413642318269,0.5218922472661442,0.6189766534931899,0.05804362520575523,-0.9486335515975952,-0.3110070526599884,3.448736667633057,-45.50246047973633,6.446205139160156,1,0.0.0.0,10.97.20.126,1,0
2015-02-21 11:24:46.603,55,1424543084.156653,39.63851022464696,-106.3701300646443,2515.248,-1,-1,10,65,-9999,1424543086.547083,3.901157379150391,-44.68138122558594,5.50567626953125,195.789306640625,186.6627502441406,25,14499.113897,0.2466278076171875,-0.7509002685546875,-0.11962890625,14499.092184,0.05876025260761732,0.4163149289811108,-0.153730707608715,14499.081828,1.180015259799593,0.2709759821847025,1.24479505515498,0.05766401812434196,0.3212221264839172,-0.3272064328193665,0.2150572687387466,0.2282295823097229,0.2083365023136139,XTrueNorthZVertical,0.4189251597872931,0.4125723733089697,0.5133292452547095,0.6251231208744812,0.08572398871183395,-0.9473305344581604,-0.3085714876651764,4.489120960235596,-45.41781234741211,6.402442932128906,1,0.0.0.0,10.97.20.126,1,0
2015-02-21 11:24:46.642,56,1424543084.156653,39.63851022464696,-106.3701300646443,2515.248,-1,-1,10,65,-9999,1424543086.598852,4.446723937988281,-44.47749328613281,5.439094543457031,196.1884460449219,187.0618896484375,25,14499.16317895833,0.121612548828125,-0.770904541015625,-0.1345672607421875,14499.14396045833,0.07843488779279571,0.4480869734179742,0.2087244514866333,14499.13360520833,1.191520039789641,0.2856379307997031,1.248933721147215,0.07632384449243546,0.5409336090087891,0.2629164755344391,0.1057976558804512,0.1606229543685913,0.1781050562858582,XTrueNorthZVertical,0.4142172508728527,0.4203160062081425,0.5194833525010536,0.6179770655008681,0.0891333743929863,-0.9486478567123413,-0.3035170435905457,5.047348022460938,-45.33234786987305,6.589669227600098,1,0.0.0.0,10.97.20.126,1,0
2015-02-21 11:24:46.701,57,1424543084.156653,39.63851022464696,-106.3701300646443,2515.248,-1,-1,10,65,-9999,1424543086.650838,4.49786376953125,-44.25660705566406,6.254753112792969,195.7834167480469,186.6568603515625,25,14499.21214995833,0.401641845703125,-0.899261474609375,-0.1810760498046875,14499.19573758333,0.2822764334207687,0.2075238984672255,-0.2540573121941801,14499.185382625,1.195376892287525,0.2988754749040082,1.253057068991793,0.1382685601711273,0.2071418613195419,-0.2045969069004059,0.06851647794246674,0.2355886697769165,0.07774463295936584,XTrueNorthZVertical,0.4114180099910401,0.4259698415131612,0.5229329062343283,0.6130466326143628,0.09199072420597076,-0.9499441385269165,-0.2985698282718658,4.347111701965332,-45.35937881469727,6.895713806152344,1,0.0.0.0,10.97.20.126,1,0
2015-02-21 11:24:46.740,58,1424543084.156653,39.63851022464696,-106.3701300646443,2515.248,-1,-1,10,65,-9999,1424543086.703734,4.446723937988281,-43.86581420898438,6.204811096191406,195.518798828125,186.3922424316406,25,14499.26139858333,0.050323486328125,-0.8071136474609375,-0.1883392333984375,14499.247515125,0.4235438134440219,-0.1292266961027869,0.4404109442080387,14499.237159125,1.185544053564016,0.3194655260504904,1.273778760610115,0.4600847661495209,0.06673029065132141,0.4662421941757202,0.2070498019456863,-0.008553847670555115,0.1323081851005554,XTrueNorthZVertical,0.4155231990727011,0.4340617272291926,0.5218705081311661,0.6054602742842361,0.09191565960645676,-0.9562135934829712,-0.2778617739677429,4.561184883117676,-45.2574348449707,7.408195495605469,1,0.0.0.0,10.97.20.126,1,0
2015-02-21 11:24:46.814,59,1424543084.156653,39.63851022464696,-106.3701300646443,2515.248,-1,-1,10,65,-9999,1424543086.805801,3.850006103515625,-43.64492797851562,6.987174987792969,193.4873046875,184.3607482910156,25,14499.31038270833,0.2117462158203125,-1.011428833007812,-0.1803741455078125,14499.29929141667,0.3152016266096364,-0.3560459956159636,-0.2668000053779912,14499.28893625,1.193595898080169,0.2975025405756948,1.292576477959902,0.2941159009933472,-0.3753987848758698,-0.2342067211866379,-0.003847345011308789,0.1670512408018112,0.05580804869532585,XTrueNorthZVertical,0.4261328467710101,0.4325746715573469,0.5175252189921795,0.6028745152543856,0.08050750195980072,-0.9615458846092224,-0.2625798881053925,3.821097373962402,-45.16672134399414,8.323908805847168,1,0.0.0.0,10.97.20.126,1,0
2015-02-21 11:24:46.838,60,1424543084.156653,39.63851022464696,-106.3701300646443,2515.248,-1,-1,10,65,-9999,1424543086.805801,3.850006103515625,-43.64492797851562,6.987174987792969,193.4873046875,184.3607482910156,25,14499.35963120833,0.0680999755859375,-0.8889617919921875,-0.1385955810546875,14499.35106891667,0.3794546489655421,0.0222594993392093,0.1516579693323064,14499.340713625,1.166256630742617,0.3117154751022049,1.308028174648563,0.4044446647167206,-0.1004922911524773,0.1843321919441223,0.05328510329127312,0.04383015632629395,0.09110909700393677,XTrueNorthZVertical,0.4338471623485605,0.4337719732515058,0.5105462048776498,0.6024625885769592,0.07966472953557968,-0.9656746387481689,-0.2472370266914368,4.243817806243896,-44.98166656494141,9.086310386657715,1,0.0.0.0,10.97.20.126,1,0
2015-02-21 11:24:46.901,61,1424543084.156653,39.63851022464696,-106.3701300646443,2515.248,-1,-1,10,65,-9999,1424543086.858219,3.867053985595703,-43.52598571777344,7.037117004394531,193.4920654296875,184.3655090332031,25,14499.40861429167,0.1875152587890625,-1.1231689453125,-0.1577301025390625,14499.40284604167,0.137364251129633,0.4460507204484995,0.1511796656005281,14499.340713625,1.166256630742617,0.3117154751022049,1.308028174648563,0.4044446647167206,-0.1004922911524773,0.1843321919441223,0.05328510329127312,0.04383015632629395,0.09110909700393677,XTrueNorthZVertical,0.4338471623485605,0.4337719732515058,0.5105462048776498,0.6024625885769592,0.07966472953557968,-0.9656746387481689,-0.2472370266914368,4.243817806243896,-44.98166656494141,9.086310386657715,1,0.0.0.0,10.97.20.126,1,0
2015-02-21 11:24:46.937,62,1424543084.156653,39.63851022464696,-106.3701300646443,2515.248,-1,-1,10,65,-9999,1424543086.909933,3.850006103515625,-43.20317077636719,7.087059020996094,193.3304595947266,184.2039031982422,25,14499.45775304167,0.0841522216796875,-0.961578369140625,-0.219512939453125,14499.45462266667,0.2267694984007922,0.2781658442782314,0.06596277177573662,14499.44426758333,1.207032267248348,0.3061694819287523,1.332853372494223,0.2111742198467255,0.3726589977741241,0.177626371383667,-0.004774356260895729,-0.05472540855407715,0.04375841096043587,XTrueNorthZVertical,0.4349983955882563,0.4454266958299462,0.5185028814921073,0.5861111663910409,0.07104327529668808,-0.9718248844146729,-0.2247429043054581,3.520671367645264,-44.81225967407227,10.16796016693115,1,0.0.0.0,10.97.20.126,1,0
2015-02-21 11:24:47.001,63,1424543084.156653,39.63851022464696,-106.3701300646443,2515.248,-1,-1,10,65,-9999,1424543086.961816,3.815902709960938,-42.86331176757812,7.453277587890625,193.3547973632812,184.2282409667969,25,14499.50683454167,0.2581787109375,-1.194793701171875,-0.14215087890625,14499.45462266667,0.2267694984007922,0.2781658442782314,0.06596277177573662,14499.44426758333,1.207032267248348,0.3061694819287523,1.332853372494223,0.2111742198467255,0.3726589977741241,0.177626371383667,-0.004774356260895729,-0.05472540855407715,0.04375841096043587,XTrueNorthZVertical,0.4349983955882563,0.4454266958299462,0.5185028814921073,0.5861111663910409,0.07104327529668808,-0.9718248844146729,-0.2247429043054581,3.520671367645264,-44.81225967407227,10.16796016693115,1,0.0.0.0,10.97.20.126,1,0
2015-02-21 11:24:47.035,64,1424543084.156653,39.63851022464696,-106.3701300646443,2515.248,-1,-1,10,65,-9999,1424543087.012628,3.287387847900391,-42.6763916015625,7.569801330566406,192.1593322753906,183.0327758789062,25,14499.55606883333,0.0182952880859375,-1.050857543945312,-0.2035980224609375,14499.558177375,-0.0388358129121895,-0.2665414124361445,0.09609217845223907,14499.49604491667,1.19891539842793,0.3208140904621982,1.341892911185374,0.1561377197504044,-0.07491204887628555,0.07893107086420059,0.1864725053310394,-0.08602071553468704,0.01634292863309383,XTrueNorthZVertical,0.4361546279386769,0.4495583855480701,0.5182115131241132,0.5823429480837986,0.07155361026525497,-0.9739158153533936,-0.2153327912092209,2.960193157196045,-44.71628952026367,10.75229644775391,1,0.0.0.0,10.97.20.126,1,0
2015-02-21 11:24:47.102,65,1424543084.156653,39.63851022464696,-106.3701300646443,2515.248,-1,-1,10,65,-9999,1424543087.065043,3.065750122070312,-42.01368713378906,7.519859313964844,192.7582702636719,183.6317138671875,25,14499.60504816667,0.1218109130859375,-1.1685791015625,-0.196044921875,14499.558177375,-0.0388358129121895,-0.2665414124361445,0.09609217845223907,14499.547821375,1.245167888339389,0.2659616814096509,1.351639682081285,0.02577238157391548,-0.2353540807962418,0.1822949796915054,-0.05689847096800804,-0.1223380416631699,0.03236415237188339,XTrueNorthZVertical,0.4433610086983986,0.4455890467937098,0.5183206761338572,0.5798492709677047,0.05714261159300804,-0.9760811328887939,-0.209762841463089,2.707007169723511,-44.65815353393555,11.05634212493896,1,0.0.0.0,10.97.20.126,1,0
2015-02-21 11:24:47.133,66,1424543084.156653,39.63851022464696,-106.3701300646443,2515.248,-1,-1,10,65,-9999,1424543087.117232,2.571334838867188,-41.96270751953125,7.203575134277344,192.1844940185547,183.0579376220703,25,14499.65418616667,0.0294342041015625,-1.1187744140625,-0.1634063720703125,14499.66173120833,-0.04415308034464171,0.6428977397894884,0.5294004720330365,14499.65137608333,1.37779060781325,0.1513424086292884,1.353456384352446,-0.03834060579538345,0.6449083089828491,0.5760790705680847,0.006232052110135555,-0.1503413021564484,0.056781105697155,XTrueNorthZVertical,0.4445794683510117,0.4424532502270801,0.5307248087490776,0.5700135770915513,0.03251001238822937,-0.9764745235443115,-0.2131684422492981,4.285216331481934,-41.54656219482422,6.506809234619141,1,0.0.0.0,10.97.20.126,1,0
2015-02-21 11:24:47.173,67,1424543084.156653,39.63851022464696,-106.3701300646443,2515.248,-1,-1,10,65,-9999,1424543087.168784,1.701839447021484,-41.74183654785156,6.787429809570312,190.5238342285156,181.3972778320312,25,14499.703275125,0.1534576416015625,-1.2022705078125,-0.201629638671875,14499.66173120833,-0.04415308034464171,0.6428977397894884,0.5294004720330365,14499.65137608333,1.37779060781325,0.1513424086292884,1.353456384352446,-0.03834060579538345,0.6449083089828491,0.5760790705680847,0.006232052110135555,-0.1503413021564484,0.056781105697155,XTrueNorthZVertical,0.4445794683510117,0.4424532502270801,0.5307248087490776,0.5700135770915513,0.03251001238822937,-0.9764745235443115,-0.2131684422492981,4.285216331481934,-41.54656219482422,6.506809234619141,1,0.0.0.0,10.97.20.126,1,0
2015-02-21 11:24:47.231,68,1424543084.156653,39.63851022464696,-106.3701300646443,2515.248,-1,-1,10,65,-9999,1424543087.221434,0.8834877014160156,-41.70785522460938,6.221466064453125,188.6911468505859,179.5645904541016,25,14499.75250820833,-0.0567779541015625,-1.088272094726562,-0.1948394775390625,14499.71350845833,-0.06623574578746974,0.2310507961692035,0.452989320352592,14499.70315245833,1.488998767816877,0.07338532331892876,1.353386780623997,-0.05941781401634216,0.4641431272029877,0.4449034631252289,0.1400839537382126,-0.2606468498706818,0.03109962306916714,XTrueNorthZVertical,0.4408480154858564,0.4450760803458845,0.5448311147363529,0.5574221464630693,0.01581509597599506,-0.9764595031738281,-0.2151206135749817,3.089880466461182,-41.64863586425781,6.531642913818359,1,0.0.0.0,10.97.20.126,1,0
2015-02-21 11:24:47.271,69,1424543084.156653,39.63851022464696,-106.3701300646443,2515.248,-1,-1,10,65,-9999,1424543087.221434,0.8834877014160156,-41.70785522460938,6.221466064453125,188.6911468505859,179.5645904541016,25,14499.80146808333,-0.03314208984375,-1.148757934570312,-0.1738433837890625,14499.76528504167,-0.09208784943719593,-0.6018813305767421,0.02636795795287454,14499.75492975,1.573047205250106,-0.0157258003459584,1.349870495506525,-0.09900397807359695,-0.5218005180358887,0.1249190345406532,-0.05333204939961433,-0.1125771105289459,0.02426676824688911,XTrueNorthZVertical,0.4456679259416346,0.4379805665366162,0.54920553614378,0.554911240829014,-0.003445905167609453,-0.975695013999939,-0.2191062420606613,2.133487224578857,-41.7196044921875,6.460742950439453,1,0.0.0.0,10.97.20.126,1,0
2015-02-21 11:24:47.330,70,1424543084.156653,39.63851022464696,-106.3701300646443,2515.248,-1,-1,10,65,-9999,1424543087.324825,0.09923553466796875,-41.53793334960938,5.855247497558594,189.7422485351562,180.6156921386719,25,14499.8506975,-0.13720703125,-1.116775512695312,-0.1799163818359375,14499.81706229167,-0.1543464304527413,-0.6558470942738897,0.1024579324058555,14499.806707125,1.594804492485363,-0.06828690525848584,1.342730478282956,-0.1718378812074661,-0.6574833989143372,0.162724494934082,-0.01771481521427631,-0.1746524125337601,0.05172383412718773,XTrueNorthZVertical,0.4534199284432979,0.4261769103793738,0.5450909665996236,0.5618358574242839,-0.01542727462947369,-0.9741055369377136,-0.2255672216415405,1.861661195755005,-41.77992248535156,6.147397994995117,1,0.0.0.0,10.97.20.126,1,0
2015-02-21 11:24:47.372,71,1424543084.156653,39.63851022464696,-106.3701300646443,2515.248,-1,-1,10,65,-9999,1424543087.324825,0.09923553466796875,-41.53793334960938,5.855247497558594,189.7422485351562,180.6156921386719,25,14499.89967291667,-0.0628662109375,-1.020294189453125,-0.1807098388671875,14499.86883979167,-0.1844750381809168,-0.3521796183453866,0.07282840106596089,14499.85848379167,1.612658798496479,-0.1134595064399901,1.33456709536334,-0.1745722889900208,-0.4188674986362457,0.09309854358434677,-0.1107100695371628,-0.1445481181144714,0.05261736363172531,XTrueNorthZVertical,0.4597976132881444,0.4151135769823101,0.541741120400502,0.5681404003350867,-0.02649695985019207,-0.9722273945808411,-0.2325337529182434,1.791329979896545,-41.8337287902832,5.792113304138184,1,0.0.0.0,10.97.20.126,1,0
2015-02-21 11:24:47.428,72,1424543084.156653,39.63851022464696,-106.3701300646443,2515.248,-1,-1,10,65,-9999,1424543087.376773,-0.02010726928710938,-41.41900634765625,5.0728759765625,190.69677734375,181.5702209472656,25,14499.94878925,-0.1453704833984375,-1.0772705078125,-0.2158660888671875,14499.92061616667,-0.3631246777933942,-0.2429918778649008,0.2416419215083397,14499.910261,1.635674700386561,-0.1491995445541768,1.32040642415962,-0.359963059425354,-0.2157078981399536,0.2228554487228394,-0.04757966846227646,-0.0391339436173439,0.05424857139587402,XTrueNorthZVertical,0.4611483035240642,0.4059897000583503,0.5434836272829964,0.5719617430256605,-0.03683195263147354,-0.9688158631324768,-0.2450292110443115,1.722058892250061,-41.8851432800293,5.43027400970459,1,0.0.0.0,10.97.20.126,1,0
2015-02-21 11:24:47.467,73,1424543084.156653,39.63851022464696,-106.3701300646443,2515.248,-1,-1,10,65,-9999,1424543087.430626,0.2867774963378906,-41.52095031738281,4.140716552734375,193.5570373535156,184.4304809570312,25,14499.99786775,-0.1588897705078125,-1.024307250976562,-0.096038818359375,14499.97239366667,-0.2808146242984242,-0.4409768659396806,0.3039827942015685,14499.9620385,1.693816958582056,-0.2232643408542284,1.301028057160431,-0.3078740239143372,-0.4776780605316162,0.3603741228580475,-0.1139801889657974,-0.1022226139903069,0.05582251027226448,XTrueNorthZVertical,0.4650103390505281,0.3921971532185466,0.5478294295324028,0.5743080852014963,-0.05900870636105537,-0.963832676410675,-0.2598935663700104,1.127182602882385,-42.00300979614258,4.614631652832031,1,0.0.0.0,10.97.20.126,1,0
2015-02-21 11:24:47.526,74,1424543084.156653,39.63851022464696,-106.3701300646443,2515.248,-1,-1,10,65,-9999,1424543087.50613,-0.2246818542480469,-41.52095031738281,2.709152221679688,195.4395446777344,186.31298828125,25,14500.047102125,-0.196197509765625,-1.102325439453125,-0.1872100830078125,14500.024170875,-0.5172711048482705,0.2829845679546208,0.4793980246701448,14500.013814875,1.761289670602615,-0.2993444209190187,1.281346251178061,-0.4650170207023621,0.130641981959343,0.5251195430755615,-0.09042086452245712,-0.06421254575252533,0.1966369897127151,XTrueNorthZVertical,0.4684820743247041,0.3796817900533543,0.554568532269948,0.5734283829393911,-0.08417019993066788,-0.9584009647369385,-0.2727325558662415,0.4213504791259766,-42.06524658203125,4.141987800598145,1,0.0.0.0,10.97.20.126,1,0
2015-02-21 11:24:47.571,75,1424543084.156653,39.63851022464696,-106.3701300646443,2515.248,-1,-1,10,65,-9999,1424543087.558539,-1.571544647216797,-41.30006408691406,2.093254089355469,192.8908233642578,183.7642669677734,25,14500.09608091667,-0.024993896484375,-1.067108154296875,-0.259979248046875,14500.07594754167,-0.1912748873922161,0.7827800097297914,0.3426516269134101,14500.06559241667,1.810017077558873,-0.3229048645706129,1.254452485616119,-0.3396947979927063,0.7046606540679932,0.3232576549053192,-0.05228377878665924,-0.1846611052751541,0.07686111330986023,XTrueNorthZVertical,0.4601590828032352,0.3751607757559934,0.5701840275740797,0.5678012579710213,-0.09871719777584076,-0.9503791928291321,-0.2950160205364227,-0.5754005908966064,-42.12800598144531,3.423227310180664,1,0.0.0.0,10.97.20.126,1,0
2015-02-21 11:24:47.624,76,1424543084.156653,39.63851022464696,-106.3701300646443,2515.248,-1,-1,10,65,-9999,1424543087.609993,-2.475139617919922,-41.31703186035156,1.610527038574219,189.9712219238281,180.8446655273438,25,14500.1453215,0.0043487548828125,-1.080947875976562,-0.2908172607421875,14500.12772475,0.06859157808775383,0.8642210737610686,0.3389064234724316,14500.117369625,1.869992334018667,-0.3376240909631182,1.246495398041021,0.08905588090419769,0.8892691731452942,0.3716488480567932,0.03911366313695908,-0.1263450384140015,0.07604764401912689,XTrueNorthZVertical,0.4514376553928158,0.381936556185268,0.5858027798240337,0.5542235077109561,-0.1055504307150841,-0.9478737115859985,-0.3006570339202881,-1.659499645233154,-42.15461349487305,2.655765533447266,1,0.0.0.0,10.97.20.126,1,0
2015-02-21 11:24:47.702,77,1424543084.156653,39.63851022464696,-106.3701300646443,2515.248,-1,-1,10,65,-9999,1424543087.66272,-2.850215911865234,-41.48695373535156,1.410774230957031,189.1544189453125,180.0278625488281,25,14500.19430083333,-0.0468597412109375,-0.89520263671875,-0.2577972412109375,14500.17950225,0.006850715588119833,0.3255328274263807,0.4149998600348297,14500.16914625,1.939482512926113,-0.3684936486997553,1.240743564165341,0.05400586873292923,0.4100162088871002,0.5073542594909668,0.09769881516695023,-0.03584731370210648,-0.00708064716309309,XTrueNorthZVertical,0.4461318925660424,0.3870372019170367,0.5994717248506475,0.5401872572344592,-0.1167417839169502,-0.9460252523422241,-0.3023370802402496,-2.535568714141846,-42.10829544067383,2.698254585266113,1,0.0.0.0,10.97.20.126,1,0
2015-02-21 11:24:47.722,78,1424543084.156653,39.63851022464696,-106.3701300646443,2515.248,-1,-1,10,65,-9999,1424543087.713893,-3.58331298828125,-41.74183654785156,1.127777099609375,187.6339416503906,178.5073852539062,25,14500.24354525,-0.0335693359375,-1.049041748046875,-0.28619384765625,14500.23127866667,0.127379793886817,0.4904906232425428,0.338449957661592,14500.2209235,1.985867675217521,-0.3928327002996521,1.232504523562224,-0.002970764879137278,0.4713704884052277,0.3334346413612366,0.1324919462203979,0.001916701323352754,0.01657300814986229,XTrueNorthZVertical,0.4430415457773179,0.3878347362330875,0.6087936024081666,0.5316660970565734,-0.1270445585250854,-0.9433229565620422,-0.3065968155860901,-3.481683254241943,-42.0423583984375,2.67137622833252,1,0.0.0.0,10.97.20.126,1,0
2015-02-21 11:24:47.773,79,1424543084.156653,39.63851022464696,-106.3701300646443,2515.248,-1,-1,10,65,-9999,1424543087.76658,-4.418708801269531,-41.82679748535156,1.144416809082031,184.87548828125,175.7489318847656,25,14500.29250904167,-0.008026123046875,-0.9925537109375,-0.309478759765625,14500.283056125,0.2708799681679926,0.7041629617184343,0.1554327338613846,14500.27270104167,2.024916759145031,-0.3974823870130224,1.240403524045457,0.2913568913936615,0.7269062995910645,0.1808700859546661,0.04594477266073227,-0.1030046939849854,0.02577697299420834,XTrueNorthZVertical,0.4381115189476688,0.3981166122023931,0.6158036817302729,0.5199493904482655,-0.1255804002285004,-0.9459149837493896,-0.2991229295730591,-4.118619918823242,-41.98072814941406,2.733837127685547,1,0.0.0.0,10.97.20.126,1,0
2015-02-21 11:24:47.821,80,1424543084.156653,39.63851022464696,-106.3701300646443,2515.248,-1,-1,10,65,-9999,1424543087.76658,-4.418708801269531,-41.82679748535156,1.144416809082031,184.87548828125,175.7489318847656,25,14500.34164720833,-0.100128173828125,-0.963226318359375,-0.288970947265625,14500.334833375,0.2814580440177873,0.7973352503515104,0.3145251836927562,14500.324477375,2.083990419852476,-0.4176851455712802,1.248214604331037,0.3010250627994537,0.77534419298172,0.41203573346138,0.06421948969364166,-0.006505405064672232,0.05053529143333435,XTrueNorthZVertical,0.4336729531940645,0.4087131947759043,0.6242990877310017,0.5051059553682552,-0.1285963207483292,-0.9484201073646545,-0.2897625863552094,-4.634305953979492,-41.89844512939453,3.140362739562988,1,0.0.0.0,10.97.20.126,1,0
2015-02-21 11:24:47.872,81,1424543084.156653,39.63851022464696,-106.3701300646443,2515.248,-1,-1,10,65,-9999,1424543087.869589,-5.237052917480469,-41.96270751953125,1.543922424316406,180.8937225341797,171.7671661376953,25,14500.39082916667,0.16107177734375,-1.248977661132812,-0.4542083740234375,14500.334833375,0.2814580440177873,0.7973352503515104,0.3145251836927562,14500.324477375,2.083990419852476,-0.4176851455712802,1.248214604331037,0.3010250627994537,0.77534419298172,0.41203573346138,0.06421948969364166,-0.006505405064672232,0.05053529143333435,XTrueNorthZVertical,0.4336729531940645,0.4087131947759043,0.6242990877310017,0.5051059553682552,-0.1285963207483292,-0.9484201073646545,-0.2897625863552094,-4.634305953979492,-41.89844512939453,3.140362739562988,1,0.0.0.0,10.97.20.126,1,0
2015-02-21 11:24:47.919,82,1424543084.156653,39.63851022464696,-106.3701300646443,2515.248,-1,-1,10,65,-9999,1424543087.869589,-5.237052917480469,-41.96270751953125,1.543922424316406,180.8937225341797,171.7671661376953,25,14500.439859625,-0.2248992919921875,-1.077362060546875,-0.4435577392578125,14500.43838741667,-0.3674730872212756,0.2198660522230888,-0.2213995003787564,14500.42803220833,2.056629171671811,-0.3239734017355339,1.243525251705348,-0.4693444073200226,0.3682366013526917,-0.1805712580680847,0.1350471675395966,-0.3283607065677643,-0.2037465572357178,XTrueNorthZVertical,0.4090453149315256,0.4246330971822102,0.6385406039294812,0.4946055430841952,-0.102332316339016,-0.9469231367111206,-0.3047373294830322,-5.13887882232666,-41.84074020385742,3.124547004699707,1,0.0.0.0,10.97.20.126,1,0
2015-02-21 11:24:47.958,83,1424543084.156653,39.63851022464696,-106.3701300646443,2515.248,-1,-1,10,65,-9999,1424543087.923241,-4.947223663330078,-42.25157165527344,1.02789306640625,179.9127197265625,170.7861633300781,25,14500.48904316667,-0.0670318603515625,-0.848388671875,-0.085418701171875,14500.490164875,0.2052098777960557,-0.0468649772826694,-0.2952020857714683,14500.42803220833,2.056629171671811,-0.3239734017355339,1.243525251705348,-0.4693444073200226,0.3682366013526917,-0.1805712580680847,0.1350471675395966,-0.3283607065677643,-0.2037465572357178,XTrueNorthZVertical,0.4090453149315256,0.4246330971822102,0.6385406039294812,0.4946055430841952,-0.102332316339016,-0.9469231367111206,-0.3047373294830322,-5.13887882232666,-41.84074020385742,3.124547004699707,1,0.0.0.0,10.97.20.126,1,0
2015-02-21 11:24:48.018,84,1424543084.156653,39.63851022464696,-106.3701300646443,2515.248,-1,-1,10,65,-9999,1424543087.973378,-4.248218536376953,-42.23457336425781,0.878082275390625,180.6457366943359,171.5191802978516,25,14500.53806691667,-0.0782470703125,-0.8637237548828125,-0.2125091552734375,14500.54194133333,0.4099204128877215,-1.013420945407232,-0.5940969107104405,14500.53158608333,1.977380827380731,-0.2657889969177594,1.257824251917269,0.317654550075531,-0.819411039352417,-0.4541349411010742,0.003602599492296576,0.07750608026981354,0.04428420960903168,XTrueNorthZVertical,0.410071631096047,0.4281389644154451,0.6266755105044077,0.5057827320695751,-0.08087310940027237,-0.9514226913452148,-0.2970765829086304,-4.232844352722168,-41.97129440307617,2.704076766967773,1,0.0.0.0,10.97.20.126,1,0
2015-02-21 11:24:48.056,85,1424543084.156653,39.63851022464696,-106.3701300646443,2515.248,-1,-1,10,65,-9999,1424543088.025016,-3.446922302246094,-42.76132202148438,1.127777099609375,182.6565399169922,173.5299835205078,25,14500.587254,-0.1119384765625,-1.079147338867188,-0.1788787841796875,14500.54194133333,0.4099204128877215,-1.013420945407232,-0.5940969107104405,14500.53158608333,1.977380827380731,-0.2657889969177594,1.257824251917269,0.317654550075531,-0.819411039352417,-0.4541349411010742,0.003602599492296576,0.07750608026981354,0.04428420960903168,XTrueNorthZVertical,0.410071631096047,0.4281389644154451,0.6266755105044077,0.5057827320695751,-0.08087310940027237,-0.9514226913452148,-0.2970765829086304,-4.232844352722168,-41.97129440307617,2.704076766967773,1,0.0.0.0,10.97.20.126,1,0
2015-02-21 11:24:48.116,86,1424543084.156653,39.63851022464696,-106.3701300646443,2515.248,-1,-1,10,65,-9999,1424543088.076143,-2.560379028320312,-42.65934753417969,1.89349365234375,184.8757019042969,175.7491455078125,25,14500.63638041667,-0.2038421630859375,-0.9970855712890625,-0.2118377685546875,14500.645496125,-0.3131477967769672,0.3293177119676013,-0.6670621982564314,14500.58336366667,1.907692834661053,-0.249706493684501,1.283383441535155,0.1361503601074219,-0.8542476892471313,-0.3734214305877686,-0.003007506253197789,-0.09549342095851898,0.1491769552230835,XTrueNorthZVertical,0.4249640250838724,0.4266911390187575,0.6051924194698943,0.5206558053933432,-0.07005157321691513,-0.9589804410934448,-0.274680495262146,-2.93447208404541,-42.00280380249023,3.73786735534668,1,0.0.0.0,10.97.20.126,1,0
2015-02-21 11:24:48.155,87,1424543084.156653,39.63851022464696,-106.3701300646443,2515.248,-1,-1,10,65,-9999,1424543088.128526,-1.707935333251953,-42.65934753417969,2.226409912109375,187.125732421875,177.9991760253906,25,14500.68546754167,-0.063446044921875,-0.904876708984375,-0.266143798828125,14500.645496125,-0.3131477967769672,0.3293177119676013,-0.6670621982564314,14500.635140125,1.833396987628702,-0.1925267138519241,1.283402115201419,-0.1894747614860535,0.1517013311386108,-0.5939458012580872,-0.1895231008529663,-0.01042037550359964,0.04486469551920891,XTrueNorthZVertical,0.4236066416331888,0.4259679974353967,0.5977865984993491,0.5308106479583216,-0.05423605069518089,-0.9589857459068298,-0.2782173454761505,-2.091469764709473,-42.02825164794922,4.008748054504395,1,0.0.0.0,10.97.20.126,1,0
2015-02-21 11:24:48.213,88,1424543084.156653,39.63851022464696,-106.3701300646443,2515.248,-1,-1,10,65,-9999,1424543088.180292,-0.2928733825683594,-42.64234924316406,1.910125732421875,188.6783447265625,179.5517883300781,25,14500.73458833333,0.1118011474609375,-0.9156646728515625,-0.216522216796875,14500.69727254167,-0.5190881796600316,1.250896617706251,-0.8269567922081348,14500.68691754167,1.709502024093907,-0.0377311567859706,1.262653923693978,-0.6332554817199707,1.207054734230042,-0.7311034798622131,-0.05200530588626862,0.04802189394831657,0.03692958876490593,XTrueNorthZVertical,0.3988412055512415,0.4351884633664568,0.6015748425595658,0.5381862929440274,-0.01144073903560638,-0.9528986215591431,-0.30307337641716,-1.048131227493286,-42.10646820068359,3.572797775268555,1,0.0.0.0,10.97.20.126,1,0
2015-02-21 11:24:48.252,89,1424543084.156653,39.63851022464696,-106.3701300646443,2515.248,-1,-1,10,65,-9999,1424543088.233302,1.872337341308594,-43.373046875,1.294227600097656,190.8143310546875,181.6877746582031,25,14500.783670125,0.0256805419921875,-0.8976898193359375,-0.318817138671875,14500.749049875,-0.595021826557025,1.006993672432434,-0.9197434551153675,14500.73869495833,1.573569161288359,0.1472548478760451,1.23661762663565,-0.5498363971710205,1.001247644424438,-0.9462360143661499,0.0636768639087677,0.02901533618569374,0.1079216822981834,XTrueNorthZVertical,0.3657584461628055,0.4516622719108302,0.605537360165718,0.5436419222637984,0.0481242835521698,-0.9446800351142883,-0.324443906545639,0.7169928550720215,-42.20662307739258,2.214799880981445,1,0.0.0.0,10.97.20.126,1,0
2015-02-21 11:24:48.312,90,1424543084.156653,39.63851022464696,-106.3701300646443,2515.248,-1,-1,10,65,-9999,1424543088.283819,3.628376007080078,-43.55995178222656,0.012481689453125,190.6516876220703,181.5251312255859,25,14500.83270979167,0.030731201171875,-0.893524169921875,-0.3004302978515625,14500.80082725,-0.4234870881128032,-0.3317009748271132,-0.9584256036326595,14500.79047125,1.469221464670192,0.2720136422811273,1.205092058253349,-0.3592123091220856,-0.2330195605754852,-0.8530360460281372,-0.07039836049079895,0.03618232160806656,0.02564153447747231,XTrueNorthZVertical,0.3418114861646848,0.4592772274680996,0.6041805743275224,0.5542519759699527,0.09607890248298645,-0.9338721632957458,-0.344458669424057,2.35076379776001,-42.18547439575195,1.295345306396484,1,0.0.0.0,10.97.20.126,1,0
2015-02-21 11:24:48.351,91,1424543084.156653,39.63851022464696,-106.3701300646443,2515.248,-1,-1,10,65,-9999,1424543088.336012,5.537845611572266,-43.72987365722656,-0.5201950073242188,193.3380737304688,184.2115173339844,25,14500.88179704167,0.1703948974609375,-0.9845733642578125,-0.414886474609375,14500.85260404167,-0.09391877268662541,0.4019493054290054,-0.9396183600145199,14500.84224883333,1.366898838132367,0.3648355168827034,1.171718561939656,-0.1510986685752869,0.2755833268165588,-0.8674724698066711,-0.1079084798693657,0.02789556793868542,0.0625639334321022,XTrueNorthZVertical,0.3261662534426549,0.4605631984678263,0.5952103637657916,0.572033059537898,0.1386396884918213,-0.9214197397232056,-0.3629942238330841,3.988526344299316,-42.07903671264648,0.51434326171875,1,0.0.0.0,10.97.20.126,1,0
2015-02-21 11:24:48.410,92,1424543084.156653,39.63851022464696,-106.3701300646443,2515.248,-1,-1,10,65,-9999,1424543088.390318,7.703060150146484,-43.23710632324219,-1.235984802246094,196.2729644775391,187.1464080810547,25,14500.931041625,0.2971343994140625,-0.7483062744140625,-0.267364501953125,14500.90438120833,-0.5246757579431269,0.9277169594190647,-1.160063649774701,14500.89402625,1.267580253371901,0.4970533508242952,1.127333561613474,-0.6394211053848267,1.161590218544006,-1.233908534049988,-0.05054393038153648,-0.07216203957796097,-0.0569484569132328,XTrueNorthZVertical,0.2941636061799612,0.474229223380762,0.5911087273652055,0.5823787186443147,0.2045966684818268,-0.9032713174819946,-0.37714883685112,6.436296463012695,-41.77731323242188,-0.2200126647949219,1,0.0.0.0,10.97.20.126,1,0
2015-02-21 11:24:48.449,93,1424543084.156653,39.63851022464696,-106.3701300646443,2515.248,-1,-1,10,65,-9999,1424543088.390318,7.703060150146484,-43.23710632324219,-1.235984802246094,196.2729644775391,187.1464080810547,25,14500.98012658333,0.45245361328125,-0.9388885498046875,-0.2830657958984375,14500.95615879167,-0.2673353007570972,0.2296675502990164,-1.064618353151242,14500.94580279167,1.193748345281954,0.5969318448885058,1.0812502612084,-0.3408555686473846,0.3619584143161774,-1.018544316291809,0.07720495015382767,0.1856164634227753,0.08154880255460739,XTrueNorthZVertical,0.2651578889578928,0.4850134023219417,0.5857713669082716,0.5927269879195057,0.2643172740936279,-0.8825464248657227,-0.3889065980911255,8.633495330810547,-41.36817169189453,-0.977564811706543,1,0.0.0.0,10.97.20.126,1,0
2015-02-21 11:24:48.508,94,1424543084.156653,39.63851022464696,-106.3701300646443,2515.248,-1,-1,10,65,-9999,1424543088.464905,11.89707946777344,-42.18354797363281,-1.069526672363281,199.3961486816406,190.2695922851562,25,14501.02926933333,0.553497314453125,-0.854583740234375,-0.293304443359375,14501.00793520833,0.008967662338623819,0.4282956917770503,-1.132511650401177,14500.99758,1.117768351519032,0.6751271930502992,1.04363062545862,-0.07436123490333557,0.3674017786979675,-1.052066087722778,0.09986436367034912,-0.03272096067667007,0.106849305331707,XTrueNorthZVertical,0.2465240244266247,0.4928128922725067,0.5736968145220138,0.6059978602305695,0.3144270181655884,-0.8642364144325256,-0.3927227258682251,10.54068374633789,-40.91104888916016,-1.413695335388184,1,0.0.0.0,10.97.20.126,1,0
2015-02-21 11:24:48.547,95,1424543084.156653,39.63851022464696,-106.3701300646443,2515.248,-1,-1,10,65,-9999,1424543088.51713,14.21573257446289,-41.91169738769531,-1.635490417480469,204.0330963134766,194.9065399169922,25,14501.078284375,0.4158935546875,-0.7526397705078125,-0.4651336669921875,14501.05971270833,-0.1985849982683746,0.08317078715928361,-0.5644199751031425,14501.049357625,1.046465324690167,0.7521815863428769,1.012484742664892,-0.0911233052611351,0.1391290426254272,-0.6230431795120239,0.202079564332962,-0.1751494109630585,0.1795212477445602,XTrueNorthZVertical,0.2301555161963617,0.503601887607217,0.5607332240530609,0.6156231896315478,0.361946314573288,-0.8481507897377014,-0.386827141046524,13.16119289398193,-40.14926147460938,-1.279891014099121,1,0.0.0.0,10.97.20.126,1,0
2015-02-21 11:24:48.607,96,1424543084.156653,39.63851022464696,-106.3701300646443,2515.248,-1,-1,10,65,-9999,1424543088.567877,16.14225387573242,-41.35096740722656,-2.118232727050781,207.1979522705078,198.0713958740234,25,14501.12737825,0.503387451171875,-0.8042144775390625,-0.2015838623046875,14501.11148995833,0.01691480134752927,0.3745879883895313,-0.721394945551792,14501.10113395833,1.012326579094997,0.7840468598295225,0.9840429045297625,-0.01543509028851986,0.1989677250385284,-0.7726981639862061,0.1262289732694626,0.05529200285673141,-0.05687256529927254,XTrueNorthZVertical,0.2185698810555035,0.5061761873717593,0.5527548178513126,0.6248800435136026,0.3909676969051361,-0.8327425718307495,-0.3920257389545441,14.35867977142334,-39.73171234130859,-1.427523612976074,1,0.0.0.0,10.97.20.126,1,0
2015-02-21 11:24:48.646,97,1424543084.156653,39.63851022464696,-106.3701300646443,2515.248,-1,-1,10,65,-9999,1424543088.621168,16.93278503417969,-40.91752624511719,-2.674591064453125,204.1320495605469,195.0054931640625,25,14501.17656675,0.5021820068359375,-0.6515960693359375,-0.3184814453125,14501.16326675,-0.4118227088543651,0.7959024696850479,-0.6933422718933333,14501.15291154167,0.9856971554093585,0.8400248641484425,0.9567892401099567,-0.3929101228713989,0.8876930475234985,-0.5912473797798157,0.02195505425333977,0.166009247303009,0.04883764684200287,XTrueNorthZVertical,0.1990443103257329,0.5177916858479503,0.548892921786862,0.6252917527140427,0.4290337264537811,-0.817345917224884,-0.3845462799072266,15.64285278320312,-39.2462158203125,-1.361593246459961,1,0.0.0.0,10.97.20.126,1,0
2015-02-21 11:24:48.704,98,1424543084.156653,39.63851022464696,-106.3701300646443,2515.248,-1,-1,10,65,-9999,1424543088.671934,18.19428634643555,-40.13591003417969,-2.641304016113281,203.4719696044922,194.3454132080078,25,14501.22559854167,0.702728271484375,-0.91510009765625,-0.402557373046875,14501.215044,-0.7418267174348799,0.4907151277224365,-1.147418960919005,14501.20468879167,0.9757192428684586,0.8811770184645182,0.9082680980311642,-0.7261459827423096,0.5107237696647644,-1.025158286094666,0.06809642165899277,-0.02235140651464462,0.09976573288440704,XTrueNorthZVertical,0.1708591203852224,0.524525085635586,0.5462596678612134,0.6303023510939439,0.4745518863201141,-0.7884396314620972,-0.3913611769676208,17.20418548583984,-38.58486938476562,-1.429035186767578,1,0.0.0.0,10.97.20.126,1,0
2015-02-21 11:24:48.744,99,1424543084.156653,39.63851022464696,-106.3701300646443,2515.248,-1,-1,10,65,-9999,1424543088.724404,19.91606521606445,-38.82748413085938,-2.724533081054688,205.5886383056641,196.4620819091797,25,14501.2747905,0.5738067626953125,-0.7073516845703125,-0.5886383056640625,14501.26682158333,-1.330835392566615,-1.400722065892474,-1.223380304691335,14501.20468879167,0.9757192428684586,0.8811770184645182,0.9082680980311642,-0.7261459827423096,0.5107237696647644,-1.025158286094666,0.06809642165899277,-0.02235140651464462,0.09976573288440704,XTrueNorthZVertical,0.1708591203852224,0.524525085635586,0.5462596678612134,0.6303023510939439,0.4745518863201141,-0.7884396314620972,-0.3913611769676208,17.20418548583984,-38.58486938476562,-1.429035186767578,1,0.0.0.0,10.97.20.126,1,0
2015-02-21 11:24:48.803,100,1424543084.156653,39.63851022464696,-106.3701300646443,2515.248,-1,-1,10,65,-9999,1424543088.775276,22.43906593322754,-37.60403442382812,-4.78863525390625,208.6246185302734,199.4980621337891,25,14501.323829625,0.387115478515625,-0.6576995849609375,-0.3575439453125,14501.31859795833,-0.8646399890005381,-1.378344322200866,0.2002571971168353,14501.30824279167,1.000999266045251,0.7868986296942111,0.7612489260191241,-1.001551747322083,-1.553646087646484,-0.1260890811681747,0.02661139145493507,-0.007668332662433386,0.1503496617078781,XTrueNorthZVertical,0.1302269114120002,0.4769291949180327,0.5364351952113658,0.683971387503673,0.5126952528953552,-0.6898261904716492,-0.5111590027809143,22.79863357543945,-36.88171005249023,-6.106977462768555,1,0.0.0.0,10.97.20.126,1,0
2015-02-21 11:24:48.842,101,1424543084.156653,39.63851022464696,-106.3701300646443,2515.248,-1,-1,10,65,-9999,1424543088.827582,22.79706001281738,-37.21322631835938,-7.468673706054688,211.2437438964844,202.1171875,25,14501.37292008333,0.0816802978515625,-0.5772552490234375,-0.4437713623046875,14501.3703755,0.06377684915299958,-0.4068596418468935,1.819283637569176,14501.36002041667,1.073030748031257,0.6837710609534685,0.7743220984626119,-0.0666404590010643,-0.6162076592445374,1.7310870885849,-0.3319395482540131,0.06641910970211029,0.1523894965648651,XTrueNorthZVertical,0.1470461558222535,0.4486484844613682,0.5547154603426949,0.6851151775515085,0.4516142308712006,-0.6992316246032715,-0.5541839599609375,22.04914474487305,-36.44970321655273,-10.12855434417725,1,0.0.0.0,10.97.20.126,1,0
2015-02-21 11:24:48.902,102,1424543084.156653,39.63851022464696,-106.3701300646443,2515.248,-1,-1,10,65,-9999,1424543088.879155,21.02413558959961,-38.16477966308594,-9.266464233398438,210.1865997314453,201.0600433349609,25,14501.422060875,0.3813018798828125,-0.6945953369140625,-0.46759033203125,14501.42215279167,0.2194524633057995,0.2666346230742973,2.062545559968611,14501.36002041667,1.073030748031257,0.6837710609534685,0.7743220984626119,-0.0666404590010643,-0.6162076592445374,1.7310870885849,-0.3319395482540131,0.06641910970211029,0.1523894965648651,XTrueNorthZVertical,0.1470461558222535,0.4486484844613682,0.5547154603426949,0.6851151775515085,0.4516142308712006,-0.6992316246032715,-0.5541839599609375,22.04914474487305,-36.44970321655273,-10.12855434417725,1,0.0.0.0,10.97.20.126,1,0
2015-02-21 11:24:48.940,103,1424543084.156653,39.63851022464696,-106.3701300646443,2515.248,-1,-1,10,65,-9999,1424543088.931463,17.85333633422852,-39.89797973632812,-9.233161926269531,207.5624542236328,198.4358978271484,25,14501.47124829167,0.246978759765625,-0.902313232421875,-0.495697021484375,14501.42215279167,0.2194524633057995,0.2666346230742973,2.062545559968611,14501.41179679167,1.173070311208117,0.6048536090842126,0.8361793112667034,0.2185386717319489,0.1624999493360519,1.916415929794312,-0.1302619725465775,0.1261817663908005,0.08060204982757568,XTrueNorthZVertical,0.1721607588303094,0.4412141628647388,0.5835656079893364,0.659652938888931,0.3811622560024261,-0.7420875430107117,-0.5513814687728882,18.9442310333252,-38.01065444946289,-10.66019725799561,1,0.0.0.0,10.97.20.126,1,0
2015-02-21 11:24:49.001,104,1424543084.156653,39.63851022464696,-106.3701300646443,2515.248,-1,-1,10,65,-9999,1424543088.98283,13.45513916015625,-42.20892333984375,-9.033401489257812,202.1891021728516,193.0625457763672,25,14501.52027083333,0.2582244873046875,-0.826202392578125,-0.4166107177734375,14501.52570679167,0.4293465751431955,0.3085847365652254,2.288627163859835,14501.515351625,1.517762287206214,0.3763330694257499,0.9744253525437059,0.3007813096046448,0.4130972325801849,2.35519003868103,0.142801508307457,-0.1491527110338211,0.1062013208866119,XTrueNorthZVertical,0.2199679020500776,0.4363996025539878,0.660853981078946,0.5695977595257422,0.206411138176918,-0.8273792862892151,-0.5223390460014343,9.259098052978516,-41.76914596557617,-9.324225425720215,1,0.0.0.0,10.97.20.126,1,0
2015-02-21 11:24:49.038,105,1424543084.156653,39.63851022464696,-106.3701300646443,2515.248,-1,-1,10,65,-9999,1424543089.035066,8.835315704345703,-44.19700622558594,-8.151168823242188,194.0308990478516,184.9043426513672,25,14501.569357625,0.43988037109375,-0.8944854736328125,-0.520660400390625,14501.52570679167,0.4293465751431955,0.3085847365652254,2.288627163859835,14501.515351625,1.517762287206214,0.3763330694257499,0.9744253525437059,0.3007813096046448,0.4130972325801849,2.35519003868103,0.142801508307457,-0.1491527110338211,0.1062013208866119,XTrueNorthZVertical,0.2199679020500776,0.4363996025539878,0.660853981078946,0.5695977595257422,0.206411138176918,-0.8273792862892151,-0.5223390460014343,9.259098052978516,-41.76914596557617,-9.324225425720215,1,0.0.0.0,10.97.20.126,1,0
2015-02-21 11:24:49.102,106,1424543084.156653,39.63851022464696,-106.3701300646443,2515.248,-1,-1,10,65,-9999,1424543089.086535,4.573486328125,-45.42044067382812,-7.4520263671875,187.8585815429688,178.7320251464844,25,14501.61851195833,0.2024993896484375,-0.8555908203125,-0.6063995361328125,14501.57748416667,0.5082136939809111,-0.005719138440945164,1.571056517633397,14501.56712816667,1.687612123737855,0.2318749561663679,1.032312106196089,0.5816104412078857,-0.1775566041469574,1.764107704162598,0.2633898854255676,0.05010688677430153,0.001536640455015004,XTrueNorthZVertical,0.2506449273096416,0.4331534068945332,0.6834198453867381,0.5315003710698603,0.1178509593009949,-0.8584870100021362,-0.4991104900836945,4.991598606109619,-42.65890884399414,-8.522613525390625,1,0.0.0.0,10.97.20.126,1,0
2015-02-21 11:24:49.137,107,1424543084.156653,39.63851022464696,-106.3701300646443,2515.248,-1,-1,10,65,-9999,1424543089.086535,4.573486328125,-45.42044067382812,-7.4520263671875,187.8585815429688,178.7320251464844,25,14501.667599,0.25091552734375,-0.8609771728515625,-0.463897705078125,14501.62926075,-0.0196583899025289,0.4526273967604502,0.5170348824595805,14501.618905625,1.803228728775601,0.1384439300493792,1.057111863881344,0.01455936580896378,0.2637159824371338,0.7387210130691528,0.1346865892410278,0.01534909661859274,-0.1197115778923035,XTrueNorthZVertical,0.2652360579523777,0.4316316176696691,0.6973123135850501,0.5070498994365746,0.06781280040740967,-0.8709399104118347,-0.486687958240509,1.557019472122192,-43.11526870727539,-7.482166290283203,1,0.0.0.0,10.97.20.126,1,0
2015-02-21 11:24:49.201,108,1424543084.156653,39.63851022464696,-106.3701300646443,2515.248,-1,-1,10,65,-9999,1424543089.190462,1.283355712890625,-45.9132080078125,-5.737480163574219,180.6781005859375,171.5515441894531,25,14501.7167535,0.4199066162109375,-0.61895751953125,-0.418304443359375,14501.68103829167,0.2901498028674789,1.18151248287809,0.307257683394039,14501.67068316667,1.831215528911723,0.1551354753141178,1.064888178601389,0.2555041909217834,1.172980427742004,0.1881292015314102,0.1760377436876297,0.01375757157802582,0.01488463580608368,XTrueNorthZVertical,0.2554412808380062,0.4419938705800302,0.7050807110571832,0.4921914711927131,0.0748777836561203,-0.8747347593307495,-0.4787823259830475,3.698027372360229,-45.57657241821289,-7.012377738952637,1,0.0.0.0,10.97.20.126,1,0
2015-02-21 11:24:49.235,109,1424543084.156653,39.63851022464696,-106.3701300646443,2515.248,-1,-1,10,65,-9999,1424543089.190462,1.283355712890625,-45.9132080078125,-5.737480163574219,180.6781005859375,171.5515441894531,25,14501.7659485,0.29974365234375,-1.347412109375,-0.5588226318359375,14501.732815625,0.9905257495158205,2.017102977024153,-0.8257679570975235,14501.722459625,1.815145246906394,0.2443593463909981,1.094339602653469,0.9602901339530945,2.110773086547852,-0.7395387291908264,0.3089472353458405,0.2696680426597595,0.02670422755181789,XTrueNorthZVertical,0.2359053667529219,0.4710035273621429,0.7069837646280666,0.4718880955355231,0.1109593883156776,-0.8886255621910095,-0.4450086653232574,3.574735879898071,-45.70755004882812,-6.173670768737793,1,0.0.0.0,10.97.20.126,1,0
2015-02-21 11:24:49.302,110,1424543084.156653,39.63851022464696,-106.3701300646443,2515.248,-1,-1,10,65,-9999,1424543089.293984,2.766464233398438,-46.54191589355469,-2.95758056640625,178.3198089599609,169.1932525634766,25,14501.81498779167,0.2074127197265625,-0.9347991943359375,-0.26092529296875,14501.78459233333,0.6666946820260005,-0.9733438331109563,-0.03900838575082664,14501.77423716667,1.757635190813307,0.3287369785406461,1.139532325315993,0.74688720703125,-0.8446373343467712,0.2271722108125687,0.1647869348526001,-0.4389740228652954,-0.1631876975297928,XTrueNorthZVertical,0.2334652359516217,0.4976710907365367,0.6959298315721375,0.4620597597512294,0.1349567174911499,-0.9084380865097046,-0.3956349492073059,5.027664184570312,-45.81868362426758,-3.92985725402832,1,0.0.0.0,10.97.20.126,1,0
2015-02-21 11:24:49.334,111,1424543084.156653,39.63851022464696,-106.3701300646443,2515.248,-1,-1,10,65,-9999,1424543089.293984,2.766464233398438,-46.54191589355469,-2.95758056640625,178.3198089599609,169.1932525634766,25,14501.864188375,0.2043609619140625,-1.033126831054688,-0.241424560546875,14501.836369625,0.8426795626517446,-0.1973436988842887,0.3031556163669899,14501.82601445833,1.718374311985674,0.3244296198154112,1.179347446583039,1.022650718688965,-0.5502767562866211,0.2375942021608353,0.05164447426795959,0.05002862960100174,0.4210426509380341,XTrueNorthZVertical,0.2567349594859459,0.5032640372411036,0.6798070846318552,0.4676268598873475,0.1216190755367279,-0.9243572354316711,-0.3616249263286591,4.973109722137451,-45.96210861206055,-1.681008338928223,1,0.0.0.0,10.97.20.126,1,0
2015-02-21 11:24:49.401,112,1424543084.156653,39.63851022464696,-106.3701300646443,2515.248,-1,-1,10,65,-9999,1424543089.346006,2.971031188964844,-46.43995666503906,-0.6937103271484375,180.4914093017578,171.3648529052734,25,14501.91321195833,0.3732757568359375,-0.841827392578125,-0.3337554931640625,14501.88814716667,0.7483040578381707,1.12459167563539,-0.182634527551563,14501.87779116667,1.694272078720741,0.3718977407728966,1.222718677223975,1.054634928703308,1.208333611488342,-0.1114383637905121,0.1434020102024078,-0.1736630946397781,0.2895760834217072,XTrueNorthZVertical,0.2600487346219953,0.5229603191782314,0.6733345816522317,0.453329664089991,0.1239472404122353,-0.9400301575660706,-0.3177743256092072,4.585519790649414,-46.03299713134766,0.09660053253173828,1,0.0.0.0,10.97.20.126,1,0
2015-02-21 11:24:49.431,113,1424543084.156653,39.63851022464696,-106.3701300646443,2515.248,-1,-1,10,65,-9999,1424543089.397947,2.664173126220703,-46.13409423828125,1.137367248535156,179.2236633300781,170.0971069335938,25,14501.96241583333,0.1151885986328125,-0.9855499267578125,-0.0263824462890625,14501.93992375,0.3752572407714682,-0.7170470687561287,-0.07308939085278866,14501.92956845833,1.650298883256501,0.4389913236556712,1.246332619659509,0.4503986239433289,-0.3852545022964478,-0.006517517846077681,0.1852714717388153,0.02234575897455215,0.01850698329508305,XTrueNorthZVertical,0.2565546964887693,0.5384176280689945,0.6684602312561981,0.4443502534366913,0.1354987919330597,-0.9478218555450439,-0.2885722815990448,4.688704013824463,-45.97609710693359,2.070644378662109,1,0.0.0.0,10.97.20.126,1,0
2015-02-21 11:24:49.506,114,1424543084.156653,39.63851022464696,-106.3701300646443,2515.248,-1,-1,10,65,-9999,1424543089.448892,2.851696014404297,-45.74327087402344,2.851913452148438,178.7160034179688,169.5894470214844,25,14502.01143091667,0.1193695068359375,-1.043777465820312,0.0100860595703125,14501.99170125,0.1392990376615756,-0.1151340465624146,-0.310485434635215,14501.981346,1.629228827754937,0.422630702621191,1.256642149274241,0.09566238522529602,-0.4208211004734039,-0.09904016554355621,-0.08488998562097549,0.03414219617843628,0.2024470865726471,XTrueNorthZVertical,0.270897061319476,0.534512048019878,0.6600286584676291,0.453071634179098,0.1267448514699936,-0.9510580897331238,-0.2818233072757721,4.845216274261475,-45.90687561035156,3.025796890258789,1,0.0.0.0,10.97.20.126,1,0
2015-02-21 11:24:49.529,115,1424543084.156653,39.63851022464696,-106.3701300646443,2515.248,-1,-1,10,65,-9999,1424543089.503373,3.090351104736328,-45.36944580078125,3.051673889160156,180.291259765625,171.1647033691406,25,14502.06051270833,0.1111602783203125,-0.8491668701171875,-0.225433349609375,14502.04347845833,-0.04710679230964859,0.2654942574955254,-0.05921618578623888,14502.03312245833,1.576564020718286,0.483789987219283,1.254745452039764,-0.003088039811700583,0.4620635211467743,-0.08934815227985382,0.07265208661556244,-0.1873013377189636,0.2605433166027069,XTrueNorthZVertical,0.2643147524513751,0.5408925301725368,0.6565318359997045,0.4544656354062491,0.1445720344781876,-0.9504702687263489,-0.2751459777355194,5.307911396026611,-45.83908843994141,3.267603874206543,1,0.0.0.0,10.97.20.126,1,0
2015-02-21 11:24:49.604,116,1424543084.156653,39.63851022464696,-106.3701300646443,2515.248,-1,-1,10,65,-9999,1424543089.553646,3.959762573242188,-45.31846618652344,3.168197631835938,180.5839080810547,171.4573516845703,25,14502.10963441667,0.1556243896484375,-1.073013305664062,-0.02484130859375,14502.095255,-0.1985045708034542,-0.1332565914642948,-0.5956527294192647,14502.08490004167,1.537569521328593,0.5208960891880925,1.243509284112511,-0.1360774040222168,-0.136490061879158,-0.6452382802963257,0.04353703185915947,0.07721277326345444,0.02731343545019627,XTrueNorthZVertical,0.2589957755336638,0.5417578155436096,0.6538970627031018,0.4602590270137213,0.1599846929311752,-0.9469179511070251,-0.2788393199443817,5.633392810821533,-45.79235076904297,3.37615966796875,1,0.0.0.0,10.97.20.126,1,0
2015-02-21 11:24:49.628,117,1424543084.156653,39.63851022464696,-106.3701300646443,2515.248,-1,-1,10,65,-9999,1424543089.605275,4.675746917724609,-45.08058166503906,3.134910583496094,185.8998413085938,176.7732849121094,25,14502.15882345833,0.203521728515625,-0.858917236328125,-0.2946929931640625,14502.14703258333,-0.1307050168238899,-0.3633771454647337,-0.4847690879566166,14502.13667733333,1.503838995340488,0.5377674501440087,1.225471155985012,-0.1702853292226791,-0.5297067761421204,-0.275626927614212,-0.1134208291769028,-0.1582929939031601,0.2441243082284927,XTrueNorthZVertical,0.2565101274010053,0.5374385826436004,0.6502910077741492,0.4716821097318286,0.1733878701925278,-0.9409654140472412,-0.2907246351242065,6.979572772979736,-45.63901519775391,2.905032157897949,1,0.0.0.0,10.97.20.126,1,0
2015-02-21 11:24:49.700,118,1424543084.156653,39.63851022464696,-106.3701300646443,2515.248,-1,-1,10,65,-9999,1424543089.657169,6.022491455078125,-45.09757995605469,3.251434326171875,189.4144744873047,180.2879180908203,25,14502.20784116667,0.052734375,-0.9604339599609375,-0.1001434326171875,14502.19880983333,-0.2811001151672807,-0.06506715070114297,-0.4149676357856397,14502.18845383333,1.448342766082811,0.5820916409217579,1.200602215708247,-0.2530799508094788,-0.07285252958536148,-0.5426623821258545,-0.02954843267798424,-0.07953790575265884,0.2715132534503937,XTrueNorthZVertical,0.2484623461440882,0.5358726497520518,0.6451125011060862,0.4847029087174628,0.198905736207962,-0.9322571158409119,-0.3022139370441437,7.845389842987061,-45.52600860595703,2.430103302001953,1,0.0.0.0,10.97.20.126,1,0
2015-02-21 11:24:49.726,119,1424543084.156653,39.63851022464696,-106.3701300646443,2515.248,-1,-1,10,65,-9999,1424543089.70969,6.908950805664062,-45.33544921875,2.652168273925781,190.1430969238281,181.0165405273438,25,14502.25701970834,0.6345672607421875,-1.284591674804688,0.041015625,14502.250586625,0.08685260736631817,-0.02859276272752673,-0.8605741409643141,14502.24023145833,1.391048283568212,0.6364745001712253,1.168645240193953,0.002785216085612774,0.0009746839059516788,-1.146805047988892,0.129259318113327,-0.003591675078496337,0.004367187153548002,XTrueNorthZVertical,0.2350026661534478,0.5360904865390932,0.6401455056690879,0.4975887375342682,0.2326333820819855,-0.920221209526062,-0.3147614598274231,8.97536563873291,-45.34485626220703,1.833016395568848,1,0.0.0.0,10.97.20.126,1,0
2015-02-21 11:24:49.806,120,1424543084.156653,39.63851022464696,-106.3701300646443,2515.248,-1,-1,10,65,-9999,1424543089.762561,8.340927124023438,-45.2335205078125,1.953033447265625,191.0850524902344,181.95849609375,25,14502.30603608333,0.15960693359375,-0.7623443603515625,-0.2851409912109375,14502.302363875,-0.2335243401896691,-0.8456140998569029,-0.7439633715774505,14502.292008875,1.369052206059511,0.6513957037235973,1.15474324447432,-0.3312634825706482,-0.5212804079055786,-0.3391582667827606,-0.155879944562912,0.140216127038002,-0.06152091175317764,XTrueNorthZVertical,0.2311059502020662,0.5346876102607003,0.6372583610269498,0.5045800863315723,0.2450370490550995,-0.9146912097930908,-0.3213984072208405,10.83078670501709,-44.95013427734375,1.500796318054199,1,0.0.0.0,10.97.20.126,1,0
2015-02-21 11:24:49.825,121,1424543084.156653,39.63851022464696,-106.3701300646443,2515.248,-1,-1,10,65,-9999,1424543089.813155,9.397861480712891,-44.89366149902344,1.287185668945312,193.5912933349609,184.4647369384766,25,14502.35511179167,0.274444580078125,-0.85357666015625,-0.31427001953125,14502.35414154167,-0.178199299072145,0.006000368252057532,-0.1319385930408146,14502.292008875,1.369052206059511,0.6513957037235973,1.15474324447432,-0.3312634825706482,-0.5212804079055786,-0.3391582667827606,-0.155879944562912,0.140216127038002,-0.06152091175317764,XTrueNorthZVertical,0.2311059502020662,0.5346876102607003,0.6372583610269498,0.5045800863315723,0.2450370490550995,-0.9146912097930908,-0.3213984072208405,10.83078670501709,-44.95013427734375,1.500796318054199,1,0.0.0.0,10.97.20.126,1,0
2015-02-21 11:24:49.904,122,1424543084.156653,39.63851022464696,-106.3701300646443,2515.248,-1,-1,10,65,-9999,1424543089.864615,10.35250854492188,-44.28195190429688,0.7877960205078125,195.6525573730469,186.5260009765625,25,14502.404238125,0.419891357421875,-0.999725341796875,-0.1293487548828125,14502.40591791667,-0.1368883442428359,0.2689592963898275,-0.2328383098928647,14502.39556270833,1.30352241601687,0.6886299588197942,1.114970749980013,-0.09553276002407074,0.2858744263648987,-0.3978778123855591,0.1381974965333939,-0.1087549179792404,0.2645411491394043,XTrueNorthZVertical,0.2221675797919198,0.5298084917168818,0.6265077431082072,0.5267187669200469,0.2797407209873199,-0.8978978991508484,-0.3398890495300293,12.35739898681641,-44.57847595214844,0.356572151184082,1,0.0.0.0,10.97.20.126,1,0
2015-02-21 11:24:49.923,123,1424543084.156653,39.63851022464696,-106.3701300646443,2515.248,-1,-1,10,65,-9999,1424543089.916438,11.221923828125,-44.26495361328125,0.3383560180664062,195.6660308837891,186.5394744873047,25,14502.4533115,0.4135589599609375,-0.776336669921875,-0.3510589599609375,14502.40591791667,-0.1368883442428359,0.2689592963898275,-0.2328383098928647,14502.39556270833,1.30352241601687,0.6886299588197942,1.114970749980013,-0.09553276002407074,0.2858744263648987,-0.3978778123855591,0.1381974965333939,-0.1087549179792404,0.2645411491394043,XTrueNorthZVertical,0.2221675797919198,0.5298084917168818,0.6265077431082072,0.5267187669200469,0.2797407209873199,-0.8978978991508484,-0.3398890495300293,12.35739898681641,-44.57847595214844,0.356572151184082,1,0.0.0.0,10.97.20.126,1,0
2015-02-21 11:24:50.002,124,1424543084.156653,39.63851022464696,-106.3701300646443,2515.248,-1,-1,10,65,-9999,1424543089.967591,11.92086410522461,-44.24797058105469,-0.077789306640625,195.951416015625,186.8248596191406,25,14502.50243758333,0.3303680419921875,-0.8961181640625,-0.2735748291015625,14502.50947275,-0.2607485044330042,0.2145109679031574,-0.4819994004229342,14502.447340375,1.29985799341103,0.6955758723294805,1.095957433342468,-0.3462532758712769,-0.290476381778717,-0.4452621042728424,0.1255194395780563,0.1533129215240479,-0.09684833139181137,XTrueNorthZVertical,0.2138789184870023,0.5279818868690106,0.6269568740212245,0.5314283549913714,0.2929833829402924,-0.8893663883209229,-0.3509818613529205,13.26291847229004,-44.31882095336914,0.1022920608520508,1,0.0.0.0,10.97.20.126,1,0
2015-02-21 11:24:50.021,125,1424543084.156653,39.63851022464696,-106.3701300646443,2515.248,-1,-1,10,65,-9999,1424543089.967591,11.92086410522461,-44.24797058105469,-0.077789306640625,195.951416015625,186.8248596191406,25,14502.551590875,0.5382537841796875,-0.729248046875,-0.4546356201171875,14502.50947275,-0.2607485044330042,0.2145109679031574,-0.4819994004229342,14502.49911675,1.296045306952879,0.6751975996630318,1.070644477371085,-0.3546317517757416,-0.1235477104783058,-0.4213274419307709,0.008890480734407902,-0.02770265191793442,0.07221172004938126,XTrueNorthZVertical,0.2117888227310083,0.5176655503501698,0.6245731122238357,0.5450471383652356,0.2997490465641022,-0.8775097727775574,-0.3743357360363007,13.97829151153564,-44.09088516235352,-0.8211698532104492,1,0.0.0.0,10.97.20.126,1,0
2015-02-21 11:24:50.102,126,1424543084.156653,39.63851022464696,-106.3701300646443,2515.248,-1,-1,10,65,-9999,1424543090.072142,13.88129806518555,-44.02708435058594,-0.5938186645507812,197.6912689208984,188.5647125244141,25,14502.600658625,0.4415740966796875,-0.7183837890625,-0.285003662109375,14502.56124954167,-0.2340814734897137,0.2629474765450826,-0.5725644543488227,14502.550894375,1.281246923743084,0.7100926362772366,1.04750107777728,-0.2824402451515198,0.5142856240272522,-0.488934189081192,0.1614476889371872,0.1262479275465012,0.06028692796826363,XTrueNorthZVertical,0.1960326479604876,0.5216277048363643,0.6246828047145526,0.5470349303115271,0.3257806897163391,-0.8661771416664124,-0.3789514899253845,14.73469161987305,-43.82398223876953,-1.555747032165527,1,0.0.0.0,10.97.20.126,1,0
2015-02-21 11:24:50.119,127,1424543084.156653,39.63851022464696,-106.3701300646443,2515.248,-1,-1,10,65,-9999,1424543090.072142,13.88129806518555,-44.02708435058594,-0.5938186645507812,197.6912689208984,188.5647125244141,25,14502.649852125,0.405517578125,-1.024261474609375,-0.0989990234375,14502.61302679167,-0.3869421263702998,-1.271811753327189,-0.8381250245554911,14502.602671625,1.270425494891422,0.6956114578151151,1.020019451312539,-0.5058652758598328,-1.304895401000977,-0.5037690997123718,0.1061829924583435,0.1337344199419022,0.1167518347501755,XTrueNorthZVertical,0.1929353689849863,0.5117598999179281,0.6207681271083284,0.5617159100499721,0.335391104221344,-0.852118194103241,-0.4017554819583893,15.89028835296631,-43.39788818359375,-2.048150062561035,1,0.0.0.0,10.97.20.126,1,0
2015-02-21 11:24:50.205,128,1424543084.156653,39.63851022464696,-106.3701300646443,2515.248,-1,-1,10,65,-9999,1424543090.175111,15.82468795776367,-43.38137817382812,-3.856475830078125,202.7115631103516,193.5850067138672,25,14502.698881125,0.5081787109375,-1.26397705078125,-0.372100830078125,14502.66480441667,-0.5542038228454895,-1.579510988829963,-0.2832817767322736,14502.65444841667,1.241991166724575,0.6657002555234426,0.9879706680530412,-0.4674178659915924,-1.329181432723999,-0.1313697099685669,0.06559404730796814,-0.1893506944179535,0.3338705599308014,XTrueNorthZVertical,0.1970688642488263,0.4947009963013872,0.6101644985332538,0.5866294867614362,0.3399235308170319,-0.8349108099937439,-0.4328695833683014,17.00320434570312,-42.87363815307617,-3.579854011535645,1,0.0.0.0,10.97.20.126,1,0
2015-02-21 11:24:50.217,129,1424543084.156653,39.63851022464696,-106.3701300646443,2515.248,-1,-1,10,65,-9999,1424543090.175111,15.82468795776367,-43.38137817382812,-3.856475830078125,202.7115631103516,193.5850067138672,25,14502.74807241667,0.46905517578125,-0.4427642822265625,-0.5231781005859375,14502.71658083333,-0.1500225221068887,-0.5391729416530823,0.3123432558116543,14502.706225625,1.228338658372776,0.6174577690643859,0.9615865308847336,-0.08156859874725342,-0.7419657111167908,0.07818406820297241,0.1768839955329895,-0.4438765943050385,0.09446016699075699,XTrueNorthZVertical,0.204845251578027,0.474086410850881,0.6016326602898672,0.6093592725406187,0.3312947154045105,-0.8201004266738892,-0.4665609896183014,17.53172874450684,-42.47617340087891,-5.337247848510742,1,0.0.0.0,10.97.20.126,1,0
2015-02-21 11:24:50.302,130,1424543084.156653,39.63851022464696,-106.3701300646443,2515.248,-1,-1,10,65,-9999,1424543090.278905,16.14859390258789,-42.54875183105469,-5.937232971191406,201.6386871337891,192.5121307373047,25,14502.79711158333,0.44122314453125,-0.7747650146484375,-0.5028533935546875,14502.76835841667,0.10583641856473,0.3367977325213069,-0.2875843797894056,14502.75800308333,1.216222878815263,0.6217634002202179,0.9551112679086793,0.1805158704519272,0.3069323599338531,-0.6582273840904236,0.3438654839992523,0.182512640953064,-0.1125789880752563,XTrueNorthZVertical,0.2039199342422634,0.472967396063633,0.5984666298054462,0.6136418162861447,0.3363865911960602,-0.8163779973983765,-0.4694370031356812,17.78218269348145,-42.21890258789062,-6.436728477478027,1,0.0.0.0,10.97.20.126,1,0
2015-02-21 11:24:50.316,131,1424543084.156653,39.63851022464696,-106.3701300646443,2515.248,-1,-1,10,65,-9999,1424543090.278905,16.14859390258789,-42.54875183105469,-5.937232971191406,201.6386871337891,192.5121307373047,25,14502.846304625,0.3602752685546875,-0.952056884765625,-0.680145263671875,14502.82013570833,-0.152084341422828,-1.211696750673048,0.2339144932893658,14502.80977970833,1.242424917726437,0.5922985935645835,0.9599480566315002,-0.2336340695619583,-0.9405709505081177,0.4663349688053131,0.0560944564640522,0.1384671926498413,0.02247734926640987,XTrueNorthZVertical,0.2084777243223315,0.4675533807679856,0.6033651632787038,0.6114584510346567,0.3202025294303894,-0.8191617727279663,-0.4758617579936981,18.37611198425293,-42.01152038574219,-6.117490768432617,1,0.0.0.0,10.97.20.126,1,0
2015-02-21 11:24:50.401,132,1424543084.156653,39.63851022464696,-106.3701300646443,2515.248,-1,-1,10,65,-9999,1424543090.382775,13.0289421081543,-43.21142578125,-7.418739318847656,202.3031005859375,193.1765441894531,25,14502.89534191667,-0.21075439453125,-0.7579498291015625,-0.480194091796875,14502.87191241667,-0.4929338072265815,-1.990454588208493,1.41011876348271,14502.86155733333,1.293206083315521,0.4750224819973184,0.9638873981206444,-0.4211508333683014,-1.936198472976685,1.164571046829224,0.00155960361007601,-0.2287407666444778,-0.2366499155759811,XTrueNorthZVertical,0.233944551262653,0.4378095278593373,0.6059071383904916,0.6216666203873064,0.2608457803726196,-0.8214148879051208,-0.5071855187416077,17.25189208984375,-42.32466125488281,-7.146211624145508,1,0.0.0.0,10.97.20.126,1,0
2015-02-21 11:24:50.414,133,1424543084.156653,39.63851022464696,-106.3701300646443,2515.248,-1,-1,10,65,-9999,1424543090.382775,13.0289421081543,-43.21142578125,-7.418739318847656,202.3031005859375,193.1765441894531,25,14502.944434625,0.0460968017578125,-0.762969970703125,-0.36480712890625,14502.92368975,-0.4280165924948099,-0.0218429809447209,0.7853965655007943,14502.91333458333,1.413427864487553,0.3032437646563084,0.9597867625243933,-0.5929672718048096,-0.5849865078926086,0.8653313517570496,-0.3947497606277466,0.1221088021993637,0.05363744869828224,XTrueNorthZVertical,0.2600841724505216,0.3982422448050035,0.6224159192649865,0.6215769012319798,0.1713152974843979,-0.8190692663192749,-0.5475186705589294,13.63706970214844,-43.08814239501953,-9.875,1,0.0.0.0,10.97.20.126,1,0
2015-02-21 11:24:50.502,134,1424543084.156653,39.63851022464696,-106.3701300646443,2515.248,-1,-1,10,65,-9999,1424543090.486542,9.551292419433594,-44.09504699707031,-9.216529846191406,196.76904296875,187.6424865722656,25,14502.99356925,0.37457275390625,-1.044876098632812,-0.5823211669921875,14502.97546745833,-0.2933855435919252,2.423850766105263,0.4579774210743104,14502.96511145833,1.488455125416023,0.2922421470962847,0.9603697759200527,-0.2719506025314331,2.128379821777344,0.6740732192993164,-0.04031170904636383,0.05707448348402977,-0.1302863508462906,XTrueNorthZVertical,0.2487125244996383,0.4045808241728599,0.6438703626891228,0.5999062226093618,0.1651438623666763,-0.8194035887718201,-0.5489128828048706,11.74363231658936,-43.39225769042969,-10.92118740081787,1,0.0.0.0,10.97.20.126,1,0
2015-02-21 11:24:50.512,135,1424543084.156653,39.63851022464696,-106.3701300646443,2515.248,-1,-1,10,65,-9999,1424543090.486542,9.551292419433594,-44.09504699707031,-9.216529846191406,196.76904296875,187.6424865722656,25,14503.042766375,0.69952392578125,-0.8410491943359375,-0.666259765625,14503.02724379167,0.2334697453873225,1.953479259633833,-0.2894832136466321,14503.016888625,1.506527434372231,0.4051184855181825,0.9586287903244426,0.1559380143880844,2.358265399932861,-0.2425662875175476,0.2596776485443115,0.08624190837144852,0.1363745927810669,XTrueNorthZVertical,0.2074254570522608,0.4392155606730886,0.6622096034722599,0.570563664374649,0.2264826148748398,-0.8184043765068054,-0.5281287431716919,11.74382495880127,-43.64923477172852,-9.843778610229492,1,0.0.0.0,10.97.20.126,1,0
2015-02-21 11:24:50.575,136,1424543084.156653,39.63851022464696,-106.3701300646443,2515.248,-1,-1,10,65,-9999,1424543090.538466,9.892238616943359,-44.536865234375,-8.251052856445312,189.8637237548828,180.7371673583984,25,14503.09180254167,0.240203857421875,-0.6291351318359375,-0.405059814453125,14503.079021375,-0.2986034751157175,-0.9113686124353954,0.6400404342559424,14503.06866620833,1.526816201193881,0.4345262285422493,0.9632914862397033,-0.3075888156890869,-0.4580005705356598,0.7981432676315308,0.2842774391174316,-0.05810604616999626,-0.01861820556223392,XTrueNorthZVertical,0.1947351815876672,0.4507673524392933,0.6704698896267964,0.5561988971015219,0.2403044551610947,-0.8210748434066772,-0.5177739858627319,12.6677131652832,-43.66374588012695,-8.548628807067871,1,0.0.0.0,10.97.20.126,1,0
2015-02-21 11:24:50.612,137,1424543090.573949,39.63853180347905,-106.370303811539,2515.976,-1,-1,10,65,-9999,1424543090.593653,9.977474212646484,-44.72378540039062,-8.400871276855469,190.9177856445312,181.7912292480469,25,14503.14089866667,0.092681884765625,-0.8881378173828125,-0.224578857421875,14503.13079866667,-0.2198716448613779,-0.4028619707345755,-0.07750677615290309,14503.06866620833,1.526816201193881,0.4345262285422493,0.9632914862397033,-0.3075888156890869,-0.4580005705356598,0.7981432676315308,0.2842774391174316,-0.05810604616999626,-0.01861820556223392,XTrueNorthZVertical,0.1947351815876672,0.4507673524392933,0.6704698896267964,0.5561988971015219,0.2403044551610947,-0.8210748434066772,-0.5177739858627319,12.6677131652832,-43.66374588012695,-8.548628807067871,1,0.0.0.0,10.97.20.126,1,0
2015-02-21 11:24:50.673,138,1424543090.573949,39.63853180347905,-106.370303811539,2515.976,-1,-1,10,65,-9999,1424543090.666797,9.295581817626953,-44.18003845214844,-9.366340637207031,191.9299774169922,182.8034210205078,25,14503.19003966667,0.3599090576171875,-0.882232666015625,-0.552703857421875,14503.18257520834,-0.2176833253936598,0.8542384807310155,0.04732490520292608,14503.17222008333,1.56775590216419,0.3616988781656686,0.9483670010735999,-0.1251614987850189,0.7666939496994019,0.1002488285303116,0.182747021317482,-0.06949347257614136,0.08338934183120728,XTrueNorthZVertical,0.2051113510733222,0.4304477445582164,0.6760495801980276,0.5617838739105288,0.2063063234090805,-0.8124645352363586,-0.5452881455421448,10.95679473876953,-43.75679016113281,-10.26475143432617,1,0.0.0.0,10.97.20.126,1,0
2015-02-21 11:24:50.708,139,1424543090.573949,39.63853180347905,-106.370303811539,2515.976,-1,-1,10,65,-9999,1424543090.666797,9.295581817626953,-44.18003845214844,-9.366340637207031,191.9299774169922,182.8034210205078,25,14503.239127625,0.2608184814453125,-0.6484222412109375,-0.5076904296875,14503.23435270833,-0.2734152975257481,-1.269882825749644,0.06802139529836787,14503.22399758333,1.580960380103716,0.3558185326060557,0.9352360616280816,-0.2712187170982361,-1.05606472492218,0.03888346254825592,-0.1583331823348999,0.2553160190582275,0.2364525645971298,XTrueNorthZVertical,0.1998368889990137,0.4264304189556974,0.6805012875069016,0.5613736690406329,0.2067950963973999,-0.804739236831665,-0.5564446449279785,11.08522033691406,-43.69211196899414,-10.40144538879395,1,0.0.0.0,10.97.20.126,1,0
2015-02-21 11:24:50.804,140,1424543090.573949,39.63853180347905,-106.370303811539,2515.976,-1,-1,10,65,-9999,1424543090.771827,8.426170349121094,-43.82316589355469,-10.74797821044922,191.2572937011719,182.1307373046875,25,14503.288282125,0.018798828125,-0.8047027587890625,-0.3017120361328125,14503.28613008333,-0.6971812186046825,-0.2918619491322909,-0.2507017292206802,14503.27577408333,1.602821042959796,0.2988597682111143,0.9143197856008941,-0.7109181880950928,-0.2566331624984741,-0.007419831585139036,-0.03759467601776123,-0.3475923836231232,0.1225362867116928,XTrueNorthZVertical,0.2076981180968252,0.4064772837198339,0.6831051447800641,0.5700922326606626,0.1796997785568237,-0.7921476364135742,-0.5832754373550415,10.47216606140137,-43.55742645263672,-11.53938007354736,1,0.0.0.0,10.97.20.126,1,0
2015-02-21 11:24:50.807,141,1424543090.573949,39.63853180347905,-106.370303811539,2515.976,-1,-1,10,65,-9999,1424543090.771827,8.426170349121094,-43.82316589355469,-10.74797821044922,191.2572937011719,182.1307373046875,25,14503.33737079167,0.201629638671875,-0.9357757568359375,-0.651885986328125,14503.28613008333,-0.6971812186046825,-0.2918619491322909,-0.2507017292206802,14503.27577408333,1.602821042959796,0.2988597682111143,0.9143197856008941,-0.7109181880950928,-0.2566331624984741,-0.007419831585139036,-0.03759467601776123,-0.3475923836231232,0.1225362867116928,XTrueNorthZVertical,0.2076981180968252,0.4064772837198339,0.6831051447800641,0.5700922326606626,0.1796997785568237,-0.7921476364135742,-0.5832754373550415,10.47216606140137,-43.55742645263672,-11.53938007354736,1,0.0.0.0,10.97.20.126,1,0
2015-02-21 11:24:50.904,142,1424543090.573949,39.63853180347905,-106.370303811539,2515.976,-1,-1,10,65,-9999,1424543090.875749,9.619483947753906,-42.36184692382812,-12.84539031982422,190.7107849121094,181.584228515625,25,14503.38651616667,0.2364044189453125,-0.8296966552734375,-0.8360595703125,14503.38968433334,-0.8210389819498697,0.2964979799579008,-0.06717264585895961,14503.37932916667,1.569570560876851,0.3483669196467892,0.8453519954332969,-0.722247838973999,0.1914149075746536,0.01920854300260544,-0.02938583679497242,-0.1713967472314835,-0.1170319244265556,XTrueNorthZVertical,0.1741515782356343,0.3973210399137314,0.6850289042203592,0.5852714775459265,0.2264836132526398,-0.7482047080993652,-0.6236144304275513,12.3037166595459,-42.34371948242188,-13.98931503295898,1,0.0.0.0,10.97.20.126,1,0
2015-02-21 11:24:50.907,143,1424543090.573949,39.63853180347905,-106.370303811539,2515.976,-1,-1,10,65,-9999,1424543090.875749,9.619483947753906,-42.36184692382812,-12.84539031982422,190.7107849121094,181.584228515625,25,14503.43560920833,0.281707763671875,-0.5444793701171875,-0.5296630859375,14503.38968433334,-0.8210389819498697,0.2964979799579008,-0.06717264585895961,14503.37932916667,1.569570560876851,0.3483669196467892,0.8453519954332969,-0.722247838973999,0.1914149075746536,0.01920854300260544,-0.02938583679497242,-0.1713967472314835,-0.1170319244265556,XTrueNorthZVertical,0.1741515782356343,0.3973210399137314,0.6850289042203592,0.5852714775459265,0.2264836132526398,-0.7482047080993652,-0.6236144304275513,12.3037166595459,-42.34371948242188,-13.98931503295898,1,0.0.0.0,10.97.20.126,1,0
2015-02-21 11:24:50.970,144,1424543090.573949,39.63853180347905,-106.370303811539,2515.976,-1,-1,10,65,-9999,1424543090.928085,10.60822296142578,-41.81806945800781,-14.70974731445312,192.0738983154297,182.9473419189453,25,14503.48474775,0.2103118896484375,-0.528106689453125,-0.5426025390625,14503.44146166667,-0.7426901142602836,0.3172205690320254,-0.2745585925817191,14503.43110566667,1.581956369185849,0.3367290079440419,0.7941680492890583,-1.018149375915527,-0.2521746456623077,-0.2809808254241943,-0.08484283089637756,0.2520380914211273,0.1752198338508606,XTrueNorthZVertical,0.1582061883069322,0.3797526546099688,0.6920127440456605,0.5931923536111174,0.2315713465213776,-0.7132807374000549,-0.6615174412727356,12.5092945098877,-41.77458190917969,-15.4426326751709,1,0.0.0.0,10.97.20.126,1,0
2015-02-21 11:24:51.004,145,1424543090.573949,39.63853180347905,-106.370303811539,2515.976,-1,-1,10,65,-9999,1424543090.97986,11.35829925537109,-41.10440063476562,-15.90826416015625,191.30859375,182.1820373535156,25,14503.53383275,0.455474853515625,-0.6909332275390625,-0.6797027587890625,14503.49323820833,-1.057498391976915,0.3535673915894268,-0.5684812957655133,14503.48288325,1.58021635376279,0.3806902708786852,0.7547583930419842,-0.9981820583343506,0.6777190566062927,-0.4769642055034637,0.0128796910867095,0.07564613968133926,0.1066460236907005,XTrueNorthZVertical,0.1296910402332364,0.3808367983176749,0.6975751804712167,0.5929017774700476,0.2706591188907623,-0.6851127147674561,-0.6762871146202087,13.53744220733643,-40.73044967651367,-17.25807762145996,1,0.0.0.0,10.97.20.126,1,0
2015-02-21 11:24:51.103,146,1424543090.573949,39.63853180347905,-106.370303811539,2515.976,-1,-1,10,65,-9999,1424543091.0835,13.761962890625,-38.77645874023438,-18.18878936767578,193.2565002441406,184.1299438476562,25,14503.58295845833,0.5406646728515625,-0.6497802734375,-0.590850830078125,14503.59679329167,-0.6466530632426092,0.6702894168653895,-0.3558135016527997,14503.53466054167,1.57696988213461,0.4085511156796308,0.7065932332760575,-0.7929486036300659,0.6732841730117798,-0.3047482371330261,0.1533122807741165,-0.04168679565191269,0.01827783137559891,XTrueNorthZVertical,0.1038288230223997,0.3744720027500316,0.7011186037193348,0.597848710955408,0.3021625578403473,-0.6492464542388916,-0.6979805827140808,14.83387088775635,-39.68141937255859,-18.58531761169434,1,0.0.0.0,10.97.20.126,1,0
2015-02-21 11:24:51.106,147,1424543090.573949,39.63853180347905,-106.370303811539,2515.976,-1,-1,10,65,-9999,1424543091.0835,13.761962890625,-38.77645874023438,-18.18878936767578,193.2565002441406,184.1299438476562,25,14503.63203716667,0.1714935302734375,-0.4427032470703125,-0.45037841796875,14503.59679329167,-0.6466530632426092,0.6702894168653895,-0.3558135016527997,14503.58643729167,1.569802560188281,0.4123697289905518,0.6541357106397753,-0.6258867979049683,0.2577542066574097,-0.4046476781368256,0.2226148098707199,-0.04130668193101883,0.1362009048461914,XTrueNorthZVertical,0.08544776741416624,0.359406197997455,0.7016440446023193,0.6092795594513868,0.3180498778820038,-0.6084735989570618,-0.7270517349243164,15.85531234741211,-38.63284683227539,-19.90439987182617,1,0.0.0.0,10.97.20.126,1,0
2015-02-21 11:24:51.172,148,1424543090.573949,39.63853180347905,-106.370303811539,2515.976,-1,-1,10,65,-9999,1424543091.136214,14.88708877563477,-37.34909057617188,-19.68693542480469,193.3704376220703,184.2438812255859,25,14503.681182125,0.4962615966796875,-0.6088104248046875,-0.6747894287109375,14503.64856991667,-1.011152198474593,-0.3871690276951746,-0.4948203905427936,14503.638214625,1.570577775025501,0.4266189402281099,0.605315387384571,-1.11941659450531,-0.379347562789917,-0.4635173678398132,-0.1687796264886856,0.1263182014226913,0.2982394993305206,XTrueNorthZVertical,0.06313284529358006,0.3488628355378367,0.7042189885233563,0.6151297952749538,0.3402731418609619,-0.569021463394165,-0.748617947101593,17.1889533996582,-37.16934585571289,-21.51865386962891,1,0.0.0.0,10.97.20.126,1,0
2015-02-21 11:24:51.207,149,1424543090.573949,39.63853180347905,-106.370303811539,2515.976,-1,-1,10,65,-9999,1424543091.186904,15.50078964233398,-35.81979370117188,-21.25167083740234,193.6347351074219,184.5081787109375,25,14503.73025958333,0.5226287841796875,-0.4192047119140625,-0.7055511474609375,14503.70034716667,-0.8432678549365431,0.03865658217082717,-0.8532632311398285,14503.68999220833,1.559209027345816,0.4398876662110757,0.5596781882230881,-0.6567329168319702,0.4443618953227997,-0.7774897217750549,0.1353955417871475,-0.07789690792560577,0.09196122735738754,XTrueNorthZVertical,0.04428961629174268,0.3386194070165495,0.7022313363335563,0.6246971749239046,0.3608660697937012,-0.5309135317802429,-0.7667506337165833,17.7828369140625,-35.87176895141602,-23.17455291748047,1,0.0.0.0,10.97.20.126,1,0
