loggingTime,loggingSample,locationTimestamp_since1970,locationLatitude,locationLongitude,locationAltitude,locationSpeed,locationCourse,locationVerticalAccuracy,locationHorizontalAccuracy,locationFloor,locationHeadingTimestamp_since1970,locationHeadingX,locationHeadingY,locationHeadingZ,locationTrueHeading,locationMagneticHeading,locationHeadingAccuracy,accelerometerTimestamp_sinceReboot,accelerometerAccelerationX,accelerometerAccelerationY,accelerometerAccelerationZ,gyroTimestamp_sinceReboot,gyroRotationX,gyroRotationY,gyroRotationZ,motionTimestamp_sinceReboot,motionYaw,motionRoll,motionPitch,motionRotationRateX,motionRotationRateY,motionRotationRateZ,motionUserAccelerationX,motionUserAccelerationY,motionUserAccelerationZ,motionAttitudeReferenceFrame,motionQuaternionX,motionQuaternionY,motionQuaternionZ,motionQuaternionW,motionGravityX,motionGravityY,motionGravityZ,motionMagneticFieldX,motionMagneticFieldY,motionMagneticFieldZ,motionMagneticFieldCalibrationAccuracy,IP_en0,IP_pdp_ip0,deviceOrientation,state
2015-03-15 18:33:28.941,1,1426469605.115576,37.28919474959787,-121.9015531372516,44.55293,-1,-1,10,2000,-9999,1426469608.867352,1.195076942443848,6.164947509765625,-33.61720657348633,10.29518795013428,356.71728515625,10,438593.70128675,0.0028228759765625,-0.6791534423828125,-0.769561767578125,438593.6789761667,-0.02664705723511484,0.1385216609393815,-0.009565542003346608,438593.6789761667,-1.146264534518393,-0.009960760071400869,0.7329426353286828,-0.04491324350237846,0.154782697558403,0.02523435279726982,0.009737397544085979,-0.0003588138497434556,-0.003974626306444407,XTrueNorthZVertical,-0.2985405038924212,0.1982109416297874,0.5077517687514638,-0.7834374274536953,-0.007402802817523479,-0.6690595149993896,-0.7431719899177551,1.643934369087219,5.593380928039551,-33.5289306640625,2,0.0.0.0,10.71.35.210,1,0
2015-03-15 18:33:29.027,2,1426469605.115576,37.28919474959787,-121.9015531372516,44.55293,-1,-1,10,2000,-9999,1426469608.970879,1.928306579589844,6.181915283203125,-33.30100631713867,9.163413047790527,355.5855102539062,10,438593.7503462083,0.013092041015625,-0.669830322265625,-0.753021240234375,438593.7307485417,-0.04798510283715672,0.01170033193315412,-0.02467365486736613,438593.7307485417,-1.145786224275316,-0.001409421038090597,0.7283798347387657,-0.06626024842262268,0.02797354385256767,0.01011485513299704,0.03158462420105934,-0.0004152055480517447,-0.03067861683666706,XTrueNorthZVertical,-0.2989644067419,0.1936329273502521,0.5067236403031407,-0.7850845792376645,-0.001051785540767014,-0.6656614542007446,-0.7462531328201294,1.968350410461426,5.681849479675293,-33.49656295776367,2,0.0.0.0,10.71.35.210,1,0
2015-03-15 18:33:29.030,3,1426469605.115576,37.28919474959787,-121.9015531372516,44.55293,-1,-1,10,2000,-9999,1426469608.970879,1.928306579589844,6.181915283203125,-33.30100631713867,9.163413047790527,355.5855102539062,10,438593.799424125,-0.007110595703125,-0.6559295654296875,-0.72003173828125,438593.7825182084,-0.05234869228325156,-0.0810559709376517,-0.05779725355744467,438593.7825182084,-1.14707035298324,-0.002512702358914546,0.7242704337944597,-0.07062376290559769,-0.06477966159582138,-0.02301192656159401,0.006429088767617941,0.007895583286881447,0.01204220671206713,XTrueNorthZVertical,-0.2969463158854108,0.1932163134533914,0.5077864036004271,-0.7852664396672749,-0.001881969510577619,-0.6625891923904419,-0.748980700969696,2.067019939422607,5.815507888793945,-33.46766662597656,2,0.0.0.0,10.71.35.210,1,0
2015-03-15 18:33:29.034,4,1426469605.115576,37.28919474959787,-121.9015531372516,44.55293,-1,-1,10,2000,-9999,1426469609.023517,1.996513366699219,6.351837158203125,-33.30100631713867,9.155051231384277,355.5771484375,10,438593.8484739584,0.0135955810546875,-0.632965087890625,-0.7259368896484375,438593.834290625,-0.03458380991576899,0.02656982556350255,-0.0532072954186931,438593.7825182084,-1.14707035298324,-0.002512702358914546,0.7242704337944597,-0.07062376290559769,-0.06477966159582138,-0.02301192656159401,0.006429088767617941,0.007895583286881447,0.01204220671206713,XTrueNorthZVertical,-0.2969463158854108,0.1932163134533914,0.5077864036004271,-0.7852664396672749,-0.001881969510577619,-0.6625891923904419,-0.748980700969696,2.067019939422607,5.815507888793945,-33.46766662597656,2,0.0.0.0,10.71.35.210,1,0
2015-03-15 18:33:29.045,5,1426469605.115576,37.28919474959787,-121.9015531372516,44.55293,-1,-1,10,2000,-9999,1426469609.023517,1.996513366699219,6.351837158203125,-33.30100631713867,9.155051231384277,355.5771484375,10,438593.8975607083,0.00823974609375,-0.6435699462890625,-0.7326202392578125,438593.886063,0.0247434296879262,-0.03351002336424904,-0.04078764367510857,438593.886063,-1.14994670867976,0.0003848361166937891,0.7204086251653207,0.006733807735145092,-0.01743092760443687,-0.005875894334167242,0.01142953149974346,0.0179834496229887,0.008356872014701366,XTrueNorthZVertical,-0.2958893055907703,0.1915239470104234,0.508856239707657,-0.7853874808785501,0.0002892182965297252,-0.6596918106079102,-0.7515361905097961,2.025996446609497,6.023246765136719,-33.43341827392578,2,0.0.0.0,10.71.35.210,1,0
2015-03-15 18:33:29.095,6,1426469605.115576,37.28919474959787,-121.9015531372516,44.55293,-1,-1,10,2000,-9999,1426469609.074694,1.825994491577148,6.589752197265625,-33.60055160522461,9.587515830993652,356.0096130371094,10,438593.9466152917,-0.0007781982421875,-0.656463623046875,-0.7529449462890625,438593.937832875,0.01968821730673779,-0.009373261772642886,-0.03160266739153429,438593.886063,-1.14994670867976,0.0003848361166937891,0.7204086251653207,0.006733807735145092,-0.01743092760443687,-0.005875894334167242,0.01142953149974346,0.0179834496229887,0.008356872014701366,XTrueNorthZVertical,-0.2958893055907703,0.1915239470104234,0.508856239707657,-0.7853874808785501,0.0002892182965297252,-0.6596918106079102,-0.7515361905097961,2.025996446609497,6.023246765136719,-33.43341827392578,2,0.0.0.0,10.71.35.210,1,0
2015-03-15 18:33:29.144,7,1426469605.115576,37.28919474959787,-121.9015531372516,44.55293,-1,-1,10,2000,-9999,1426469609.127236,1.843046188354492,6.538818359375,-33.68375778198242,9.584708213806152,356.0068054199219,10,438593.995824,0.012969970703125,-0.6543426513671875,-0.76959228515625,438593.9896054167,-0.008523180752689595,-0.01519306770279305,-0.03140506083865041,438593.937832875,-1.150083485359578,0.000221898705816941,0.7204093590619258,0.001677653170190752,0.00670685013756156,0.003307620529085398,-0.00257765338756144,0.002755729714408517,0.002100321231409907,XTrueNorthZVertical,-0.295835033844302,0.191608349740978,0.5089339824476825,-0.7853369632338933,0.0001667648175498471,-0.6596923470497131,-0.7515357732772827,2.017284154891968,6.027397155761719,-33.43319320678711,2,0.0.0.0,10.71.35.210,1,0
2015-03-15 18:33:29.194,8,1426469605.115576,37.28919474959787,-121.9015531372516,44.55293,-1,-1,10,2000,-9999,1426469609.17867,2.013565063476562,6.300933837890625,-33.85016250610352,9.576651573181152,355.9987487792969,10,438594.0447559584,0.0165252685546875,-0.6475067138671875,-0.7516632080078125,438594.0413777084,-0.04653288109473652,-0.02678128055405483,-0.04449955760246101,438593.9896054167,-1.150399129967945,0.001353050599891575,0.7185965782272585,-0.02655138447880745,0.000894366588909179,0.003497873665764928,0.01253132242709398,0.008991153910756111,-0.01471107825636864,XTrueNorthZVertical,-0.2953809201291445,0.1907491892555628,0.5090646040154093,-0.7856323306816306,0.001018482027575374,-0.6583289504051208,-0.7527297139167786,2.022643566131592,6.036615371704102,-33.43120956420898,2,0.0.0.0,10.71.35.210,1,0
2015-03-15 18:33:29.242,9,1426469605.115576,37.28919474959787,-121.9015531372516,44.55293,-1,-1,10,2000,-9999,1426469609.230544,1.757789611816406,6.114013671875,-33.73367691040039,9.581381797790527,356.0034790039062,10,438594.0938364167,0.0083770751953125,-0.6397705078125,-0.735870361328125,438594.0931477083,-0.04024915250269455,-0.04988766511990933,-0.04270405439552959,438594.0413777084,-1.150734964738701,0.001706041889284872,0.7156479363634465,-0.06436450034379959,-0.01078528445214033,-0.009632714092731476,0.008737529627978802,0.007760584354400635,0.004163669422268867,XTrueNorthZVertical,-0.2942807151437499,0.1899085465589629,0.5094268988029769,-0.7860139379590784,0.001287495135329664,-0.6561065316200256,-0.7546672224998474,2.055735111236572,6.138927459716797,-33.41055297851562,2,0.0.0.0,10.71.35.210,1,0
2015-03-15 18:33:29.296,10,1426469605.115576,37.28919474959787,-121.9015531372516,44.55293,-1,-1,10,2000,-9999,1426469609.282009,1.723684310913086,6.55584716796875,-33.99994277954102,9.585715293884277,356.0078125,10,438594.1428758751,0.0057220458984375,-0.636138916015625,-0.7360992431640625,438594.0931477083,-0.04024915250269455,-0.04988766511990933,-0.04270405439552959,438594.0931477083,-1.151961110693056,0.001814552849465992,0.7122858797945194,-0.0580846332013607,-0.03388256952166557,-0.007845601066946983,0.006118685938417912,0.01214713323861361,0.01791602186858654,XTrueNorthZVertical,-0.2928712601879984,0.1891879894842972,0.5102138749600995,-0.7862036648608258,0.001373379724100232,-0.6535655856132507,-0.7568686604499817,2.050391435623169,6.241517066955566,-33.39186859130859,2,0.0.0.0,10.71.35.210,1,0
2015-03-15 18:33:29.339,11,1426469605.115576,37.28919474959787,-121.9015531372516,44.55293,-1,-1,10,2000,-9999,1426469609.333184,1.911255836486816,6.7427978515625,-33.98330307006836,9.590262413024902,356.0123596191406,10,438594.1919609167,0.0086669921875,-0.6514129638671875,-0.7420654296875,438594.1966925,-0.01231738635772548,0.001924666519800266,-0.03916950699677643,438594.1449200417,-1.153084493160747,0.002029319512021438,0.7106163337171224,-0.03480677679181099,-0.02320163510739803,-0.005717168096452951,0.004183903802186251,0.01616213470697403,0.02185920439660549,XTrueNorthZVertical,-0.2921639237853472,0.1888412512780622,0.5107831061694373,-0.7861805855893397,0.001538141979835927,-0.6523010730743408,-0.7579584717750549,2.012211561203003,6.328838348388672,-33.37775039672852,2,0.0.0.0,10.71.35.210,1,0
2015-03-15 18:33:29.402,12,1426469605.115576,37.28919474959787,-121.9015531372516,44.55293,-1,-1,10,2000,-9999,1426469609.38459,1.621374130249023,7.303558349609375,-34.29949569702148,9.599600791931152,356.0216979980469,10,438594.2410202083,0.0149688720703125,-0.65057373046875,-0.7578125,438594.1966925,-0.01231738635772548,0.001924666519800266,-0.03916950699677643,438594.1966925,-1.153817834613551,0.00208840563371511,0.7095170986046124,-0.0299540814012289,0.017890689894557,-0.004430144093930721,0.007082568947225809,5.45171569683589e-05,0.01660949736833572,XTrueNorthZVertical,-0.2916779350619142,0.1886438936176659,0.5111673729903705,-0.7861586682346752,0.001584423240274191,-0.651467502117157,-0.7586749196052551,1.977850317955017,6.388577461242676,-33.36842346191406,2,0.0.0.0,10.71.35.210,1,0
2015-03-15 18:33:29.438,13,1426469605.115576,37.28919474959787,-121.9015531372516,44.55293,-1,-1,10,2000,-9999,1426469609.38459,1.621374130249023,7.303558349609375,-34.29949569702148,9.599600791931152,356.0216979980469,10,438594.2901128334,0.000946044921875,-0.6305389404296875,-0.7529754638671875,438594.248462375,0.01362127002742828,-0.01934253899724551,-0.01054558528449577,438594.248462375,-1.154008912045247,0.003014902541254049,0.7086747805095812,-0.004016774240881205,-0.003368678502738476,0.0241865236312151,0.01267988607287407,0.0002544725430198014,0.001409104675985873,XTrueNorthZVertical,-0.2915658126233219,0.1880919311455649,0.5111875734394763,-0.7863193615573155,0.002288985997438431,-0.6508281826972961,-0.759221613407135,1.995120167732239,6.408538818359375,-33.36357116699219,2,0.0.0.0,10.71.35.210,1,0
2015-03-15 18:33:29.496,14,1426469605.115576,37.28919474959787,-121.9015531372516,44.55293,-1,-1,10,2000,-9999,1426469609.436446,1.757787704467773,6.963714599609375,-34.16636276245117,9.610312461853027,356.0324096679688,10,438594.3391649167,0.0050201416015625,-0.635162353515625,-0.7457427978515625,438594.300235,-0.003469299952046223,-0.03720942043447811,-0.02107279475746999,438594.300235,-1.152881065899618,0.001424737911644131,0.7074242464853658,-0.02111711166799068,-0.02123157866299152,0.01365487836301327,0.001602691831067204,0.01477693952620029,0.007016332354396582,XTrueNorthZVertical,-0.2907740254200418,0.1882330465073692,0.5110943066932431,-0.7866393501859305,0.001082855043932796,-0.6498782634735107,-0.7600376009941101,2.009897947311401,6.430946350097656,-33.35836791992188,2,0.0.0.0,10.71.35.210,1,0
2015-03-15 18:33:29.536,15,1426469605.115576,37.28919474959787,-121.9015531372516,44.55293,-1,-1,10,2000,-9999,1426469609.489466,1.29738712310791,6.708831787109375,-33.98330307006836,9.629508018493652,356.0516052246094,10,438594.38836,-0.0003662109375,-0.64434814453125,-0.741790771484375,438594.3520073334,0.001381381657424101,-0.0264542443721931,-0.01401355365599695,438594.3520073334,-1.152313444585425,0.0006416536657532259,0.7057573702800471,-0.01614748127758503,-0.01050481759011745,0.02054912038147449,0.007385159377008677,0.01147972792387009,0.01256998255848885,XTrueNorthZVertical,-0.2899717119551585,0.1880324640068965,0.5111421732763796,-0.7869523166591479,0.0004883757792413235,-0.6486104726791382,-0.7611203789710999,1.97516405582428,6.49681282043457,-33.34767913818359,2,0.0.0.0,10.71.35.210,1,0
2015-03-15 18:33:29.599,16,1426469605.115576,37.28919474959787,-121.9015531372516,44.55293,-1,-1,10,2000,-9999,1426469609.540744,1.399701118469238,6.77679443359375,-33.81689071655273,9.648764610290527,356.0708618164062,10,438594.4372989584,-0.0140228271484375,-0.6412506103515625,-0.7340545654296875,438594.4037774584,0.003826163538116841,-0.02516793756568483,-0.02016598840629801,438594.4037774584,-1.151241526272619,-0.0006494190807759934,0.7052331919396898,-0.01369802374392748,-0.009219073690474033,0.01439693942666054,-0.002908203052356839,0.003680163528770208,0.02153107710182667,XTrueNorthZVertical,-0.2895363655196571,0.1882513074903319,0.5109566936654436,-0.7871807077920142,-0.0004945069085806608,-0.6482114195823669,-0.7614603042602539,1.968404054641724,6.537729263305664,-33.34008026123047,2,0.0.0.0,10.71.35.210,1,0
2015-03-15 18:33:29.634,17,1426469605.115576,37.28919474959787,-121.9015531372516,44.55293,-1,-1,10,2000,-9999,1426469609.597099,1.399701118469238,7.320556640625,-34.1164436340332,9.666403770446777,356.0885009765625,10,438594.486473625,-0.0443115234375,-0.664276123046875,-0.7239227294921875,438594.4555497917,0.01717472586992101,0.00239098602667314,-0.00743075207353909,438594.4555497917,-1.149145976063422,-0.002638472515384526,0.7055033010844385,-0.0003375645901542157,0.01833020336925983,0.02714045532047749,-0.02382450178265572,0.002863478381186724,0.02693818882107735,XTrueNorthZVertical,-0.2893323924286229,0.1887999757853404,0.5103943073804144,-0.7874890844197535,-0.002008628100156784,-0.648417055606842,-0.7612826824188232,1.95272433757782,6.536245346069336,-33.34129333496094,2,0.0.0.0,10.71.35.210,1,0
2015-03-15 18:33:29.700,18,1426469605.115576,37.28919474959787,-121.9015531372516,44.55293,-1,-1,10,2000,-9999,1426469609.669888,1.638425827026367,7.35455322265625,-33.65047073364258,9.739829063415527,356.1619262695312,10,438594.5354110417,-0.0698699951171875,-0.650909423828125,-0.7299957275390625,438594.5073224167,0.05097183799968059,0.1136623837440369,0.1438237483536202,438594.5073224167,-1.138919367839305,-0.007481840327240361,0.7083835291325178,0.03348781913518906,0.1295744776725769,0.1784186959266663,-0.05782531574368477,-0.01333337929099798,0.04436646774411201,XTrueNorthZVertical,-0.2902057691421363,0.189957759288017,0.5067979721503514,-0.7892100784447691,-0.005681765731424093,-0.6506070494651794,-0.7593933343887329,1.974244236946106,6.477416038513184,-33.35150909423828,2,0.0.0.0,10.71.35.210,1,0
2015-03-15 18:33:29.733,19,1426469605.115576,37.28919474959787,-121.9015531372516,44.55293,-1,-1,10,2000,-9999,1426469609.721779,2.115880012512207,7.048675537109375,-33.45077133178711,8.637686729431152,355.0597839355469,10,438594.58461925,-0.0139923095703125,-0.7010498046875,-0.715911865234375,438594.5590922917,0.0484516886601386,0.3297313008848907,0.1995341488808788,438594.5590922917,-1.122884835743352,-0.004628016213665953,0.7103789977335641,0.0311084371060133,0.3455877304077148,0.2339388281106949,-0.0327005498111248,-0.02823774516582489,0.02748534455895424,XTrueNorthZVertical,-0.2932255989294071,0.1869903932835364,0.4998550250744435,-0.7932202506943432,-0.003508555004373193,-0.6521211266517639,-0.7581067085266113,2.223727464675903,6.382318496704102,-33.35414123535156,2,0.0.0.0,10.71.35.210,1,0
2015-03-15 18:33:29.791,20,1426469605.115576,37.28919474959787,-121.9015531372516,44.55293,-1,-1,10,2000,-9999,1426469609.773216,2.661537170410156,6.77679443359375,-33.61718368530273,7.518240928649902,353.9403381347656,10,438594.6335275,-0.093231201171875,-0.6637115478515625,-0.6417388916015625,438594.6108647501,0.1178281003211388,0.248912351284256,0.3714760846557737,438594.6108647501,-1.10124323137051,-0.003581035785671166,0.7143583818728056,0.1004956364631653,0.2647669613361359,0.4058817625045776,-0.03281694650650024,-0.04603907465934753,0.07598926872014999,XTrueNorthZVertical,-0.297078733892794,0.1843631351219883,0.490727866099974,-0.7980856426231601,-0.002705516060814261,-0.6551327705383301,-0.7555088996887207,2.773862838745117,6.285809516906738,-33.33124542236328,2,0.0.0.0,10.71.35.210,1,0
2015-03-15 18:33:29.830,21,1426469605.115576,37.28919474959787,-121.9015531372516,44.55293,-1,-1,10,2000,-9999,1426469609.773216,2.661537170410156,6.77679443359375,-33.61718368530273,7.518240928649902,353.9403381347656,10,438594.6825915001,-0.1646881103515625,-0.72772216796875,-0.58050537109375,438594.6626373334,0.3342299125982525,0.4344968623752998,0.63061603979037,438594.6626373334,-1.064158266889279,-0.01279973157682159,0.7265641116202349,0.3169119358062744,0.4503462612628937,0.6650256514549255,-0.1266939491033554,0.0001513149327365682,0.1504610031843185,XTrueNorthZVertical,-0.3031779833984567,0.1854267191592678,0.476165828406542,-0.8043421021641209,-0.00956704281270504,-0.6643053889274597,-0.7474001049995422,3.459872007369995,5.912976264953613,-33.33531951904297,2,0.0.0.0,10.71.35.210,1,0
2015-03-15 18:33:29.905,22,1426469605.115576,37.28919474959787,-121.9015531372516,44.55293,-1,-1,10,2000,-9999,1426469609.880561,4.059784889221191,4.873565673828125,-33.05137252807617,3.519675254821777,349.9417724609375,10,438594.73162675,-0.153228759765625,-0.777008056640625,-0.5498199462890625,438594.7144073333,0.4524313881042204,0.8175350609036525,0.9485543307361718,438594.6626373334,-1.064158266889279,-0.01279973157682159,0.7265641116202349,0.3169119358062744,0.4503462612628937,0.6650256514549255,-0.1266939491033554,0.0001513149327365682,0.1504610031843185,XTrueNorthZVertical,-0.3031779833984567,0.1854267191592678,0.476165828406542,-0.8043421021641209,-0.00956704281270504,-0.6643053889274597,-0.7474001049995422,3.459872007369995,5.912976264953613,-33.33531951904297,2,0.0.0.0,10.71.35.210,1,0
2015-03-15 18:33:29.931,23,1426469605.115576,37.28919474959787,-121.9015531372516,44.55293,-1,-1,10,2000,-9999,1426469609.880561,4.059784889221191,4.873565673828125,-33.05137252807617,3.519675254821777,349.9417724609375,10,438594.7807070834,-0.095001220703125,-0.816680908203125,-0.568328857421875,438594.766179875,0.6114476715284157,1.36669805243784,1.393109153600374,438594.766179875,-0.9229637770328355,-0.0206845983463424,0.7710695836770922,0.5942797064781189,1.382497072219849,1.427324175834656,-0.1164686530828476,-0.09840063750743866,0.161912813782692,XTrueNorthZVertical,-0.3324319259622711,0.1760195046162632,0.4160514032386693,-0.827893380641737,-0.0148332267999649,-0.6969026923179626,-0.7170122861862183,5.703102588653564,4.473374366760254,-33.25117874145508,2,0.0.0.0,10.71.35.210,1,0
2015-03-15 18:33:29.992,24,1426469605.115576,37.28919474959787,-121.9015531372516,44.55293,-1,-1,10,2000,-9999,1426469609.932082,5.782020568847656,3.191253662109375,-32.46892166137695,359.2821350097656,345.7042236328125,10,438594.8297426667,-0.08502197265625,-0.91064453125,-0.6174468994140625,438594.8179524167,0.5980969786677395,1.573718613459041,1.725512936639159,438594.8179524167,-0.8082493652224741,-0.02656595152927846,0.8001197011715933,0.5809541344642639,1.589513301849365,1.759730696678162,-0.06046001240611076,-0.1533185690641403,0.1013280674815178,XTrueNorthZVertical,-0.3532580964642451,0.1643812231874922,0.3668895410317488,-0.8447364480587799,-0.01850421912968159,-0.7174394726753235,-0.6963750720024109,8.586490631103516,2.659748077392578,-32.82339859008789,2,0.0.0.0,10.71.35.210,1,0
2015-03-15 18:33:30.027,25,1426469605.115576,37.28919474959787,-121.9015531372516,44.55293,-1,-1,10,2000,-9999,1426469610.00557,9.36290168762207,0.030487060546875,-31.00445938110352,349.4849243164062,335.9070129394531,10,438594.878832375,0.090484619140625,-0.8865814208984375,-0.7652740478515625,438594.869722625,0.3570076630855912,2.060131138124345,1.983995623616724,438594.8179524167,-0.8082493652224741,-0.02656595152927846,0.8001197011715933,0.5809541344642639,1.589513301849365,1.759730696678162,-0.06046001240611076,-0.1533185690641403,0.1013280674815178,XTrueNorthZVertical,-0.3532580964642451,0.1643812231874922,0.3668895410317488,-0.8447364480587799,-0.01850421912968159,-0.7174394726753235,-0.6963750720024109,8.586490631103516,2.659748077392578,-32.82339859008789,2,0.0.0.0,10.71.35.210,1,0
2015-03-15 18:33:30.097,26,1426469605.115576,37.28919474959787,-121.9015531372516,44.55293,-1,-1,10,2000,-9999,1426469610.058125,11.66489601135254,-2.0596923828125,-29.09066390991211,341.8612365722656,328.2833251953125,10,438594.927839375,0.029876708984375,-0.775909423828125,-0.7497711181640625,438594.9214950417,0.1457169895725576,1.480632611245283,2.117655683986166,438594.869722625,-0.6665049189179071,-0.03423615075152183,0.8218864631942114,0.3398653864860535,2.075925588607788,2.018213033676147,0.08195959776639938,-0.1838587671518326,-0.04772289842367172,XTrueNorthZVertical,-0.3723079912751934,0.1454849543066162,0.3063016048438081,-0.8639446080766688,-0.02330481261014938,-0.7324315309524536,-0.6804417967796326,11.12008094787598,1.038713455200195,-32.14719772338867,2,0.0.0.0,10.71.35.210,1,0
2015-03-15 18:33:30.125,27,1426469605.115576,37.28919474959787,-121.9015531372516,44.55293,-1,-1,10,2000,-9999,1426469610.110648,13.52354431152344,-4.251800537109375,-27.17687606811523,332.375,318.7970886230469,10,438594.9769141667,0.0075836181640625,-0.69305419921875,-0.76165771484375,438594.97326775,-0.1138456092270343,1.533794632925445,1.958985345187572,438594.97326775,-0.3565642229378412,-0.0990503475794145,0.8195251474074338,-0.1309879720211029,1.549588918685913,1.993202090263367,0.05344479158520699,0.02339381352066994,-0.07527858763933182,XTrueNorthZVertical,-0.3835438436442414,0.1152507750508015,0.1818685243874218,-0.8980730983286062,-0.06749813258647919,-0.7308217883110046,-0.6792227625846863,16.65244102478027,-2.865475654602051,-29.54086685180664,2,0.0.0.0,10.71.35.210,1,0
2015-03-15 18:33:30.195,28,1426469605.115576,37.28919474959787,-121.9015531372516,44.55293,-1,-1,10,2000,-9999,1426469610.162026,14.81948184967041,-6.528900146484375,-25.97867202758789,324.2976379394531,310.7197265625,10,438595.0259615417,0.0153045654296875,-0.6944427490234375,-0.7209930419921875,438594.97326775,-0.1138456092270343,1.533794632925445,1.958985345187572,438594.97326775,-0.3565642229378412,-0.0990503475794145,0.8195251474074338,-0.1309879720211029,1.549588918685913,1.993202090263367,0.05344479158520699,0.02339381352066994,-0.07527858763933182,XTrueNorthZVertical,-0.3835438436442414,0.1152507750508015,0.1818685243874218,-0.8980730983286062,-0.06749813258647919,-0.7308217883110046,-0.6792227625846863,16.65244102478027,-2.865475654602051,-29.54086685180664,2,0.0.0.0,10.71.35.210,1,0
2015-03-15 18:33:30.222,29,1426469605.115576,37.28919474959787,-121.9015531372516,44.55293,-1,-1,10,2000,-9999,1426469610.215448,15.45039939880371,-8.279205322265625,-25.39621353149414,317.1391906738281,303.561279296875,10,438595.075049875,-0.047698974609375,-0.621612548828125,-0.6890716552734375,438595.0768102917,-0.09455526818715435,0.9395999842029983,1.428399500153341,438595.02503775,-0.23198520775349,-0.121543856918924,0.7977073419753358,-0.2564661800861359,1.147786617279053,1.639053702354431,0.1078951433300972,0.03190374746918678,-0.0523773692548275,XTrueNorthZVertical,-0.3785632295297983,0.1004544231782455,0.1298800656132715,-0.9108951805338509,-0.0846712663769722,-0.715756893157959,-0.6931976079940796,18.30239105224609,-4.251936912536621,-28.37465286254883,2,0.0.0.0,10.71.35.210,1,0
2015-03-15 18:33:30.264,30,1426469605.115576,37.28919474959787,-121.9015531372516,44.55293,-1,-1,10,2000,-9999,1426469610.215448,15.45039939880371,-8.279205322265625,-25.39621353149414,317.1391906738281,303.561279296875,10,438595.1241018334,-0.0789642333984375,-0.5953369140625,-0.669647216796875,438595.0768102917,-0.09455526818715435,0.9395999842029983,1.428399500153341,438595.0768102917,-0.1251405154122149,-0.1452944677489866,0.7774903551866489,-0.1116985753178596,0.9553943276405334,1.462615132331848,0.05548501014709473,0.07988052070140839,0.01609540730714798,XTrueNorthZVertical,-0.3730880541231042,0.09067399125949549,0.08516844897972733,-0.9194182604939418,-0.1031839847564697,-0.7014930844306946,-0.7051670551300049,19.45890617370605,-5.340579986572266,-27.40450286865234,2,0.0.0.0,10.71.35.210,1,0
2015-03-15 18:33:30.321,31,1426469605.115576,37.28919474959787,-121.9015531372516,44.55293,-1,-1,10,2000,-9999,1426469610.266569,15.87669658660889,-9.655670166015625,-24.71390914916992,310.9970703125,297.4191589355469,10,438595.1731950833,-0.03607177734375,-0.5806732177734375,-0.67181396484375,438595.1285829584,0.1165436577273936,1.135952987161778,1.152734364138694,438595.1285829584,-0.03356555547431291,-0.156406744123558,0.7680451366590549,0.09940038621425629,1.151747107505798,1.186949729919434,0.03307635709643364,0.0993935763835907,0.04084309935569763,XTrueNorthZVertical,-0.37223981616364,0.07869155395845452,0.04477727098773509,-0.9237100334263797,-0.1120405867695808,-0.6947305202484131,-0.710490345954895,20.54011154174805,-6.908463001251221,-26.24032020568848,2,0.0.0.0,10.71.35.210,1,0
2015-03-15 18:33:30.367,32,1426469605.115576,37.28919474959787,-121.9015531372516,44.55293,-1,-1,10,2000,-9999,1426469610.321,16.28594017028809,-10.81124877929688,-23.28273391723633,306.0897521972656,292.5118408203125,10,438595.2222461667,-0.0110321044921875,-0.60089111328125,-0.6737823486328125,438595.180353,0.3161188192890596,1.218219897447088,0.9729337063030842,438595.180353,0.04218203013657756,-0.1478024310198691,0.7702323585205231,0.2989756762981415,1.234013915061951,1.007148742675781,0.06962743401527405,0.1156288161873817,0.03810941055417061,XTrueNorthZVertical,-0.3760011692354996,0.0605097794075388,0.00823939481349664,-0.9246047106489913,-0.105699211359024,-0.696302056312561,-0.7099233865737915,21.46895217895508,-8.154352188110352,-25.11509704589844,2,0.0.0.0,10.71.35.210,1,0
2015-03-15 18:33:30.419,33,1426469605.115576,37.28919474959787,-121.9015531372516,44.55293,-1,-1,10,2000,-9999,1426469610.371184,16.26888656616211,-12.35763549804688,-21.96804428100586,301.5082092285156,287.9302978515625,10,438595.2713308751,0.0345306396484375,-0.620513916015625,-0.71240234375,438595.2838982917,0.3792692929536726,0.9089960022202438,0.7176369589375812,438595.2321256667,0.1136323840511633,-0.1390698875796065,0.7831546926106799,0.4850360453128815,1.128054857254028,0.9385434985160828,0.09975086897611618,0.09794417023658752,0.02944018505513668,XTrueNorthZVertical,-0.3837569741957718,0.04249662981454714,-0.02588696067129415,-0.9220924887067041,-0.09824024885892868,-0.7055186033248901,-0.7018492221832275,22.42001152038574,-9.466763496398926,-23.78867340087891,2,0.0.0.0,10.71.35.210,1,0
2015-03-15 18:33:30.466,34,1426469605.115576,37.28919474959787,-121.9015531372516,44.55293,-1,-1,10,2000,-9999,1426469610.423369,17.10442733764648,-13.73410034179688,-20.68664169311523,296.9072570800781,283.329345703125,10,438595.32037975,0.0343475341796875,-0.6134033203125,-0.6862640380859375,438595.2838982917,0.3792692929536726,0.9089960022202438,0.7176369589375812,438595.2838982917,0.1778766820164792,-0.1317688184546402,0.7979592219966497,0.3621262311935425,0.9247897267341614,0.7518512606620789,0.1515759080648422,0.11235611140728,-0.03703964129090309,XTrueNorthZVertical,-0.3914917510100048,0.02599580025424466,-0.05619230198937818,-0.9180963586187483,-0.09173094481229782,-0.7159327864646912,-0.6921168565750122,23.39455795288086,-11.37024116516113,-21.94515228271484,2,0.0.0.0,10.71.35.210,1,0
2015-03-15 18:33:30.518,35,1426469605.115576,37.28919474959787,-121.9015531372516,44.55293,-1,-1,10,2000,-9999,1426469610.473853,17.5648250579834,-15.34844970703125,-19.07239151000977,292.1220397949219,278.5441284179688,10,438595.3694601667,-0.05975341796875,-0.6649932861328125,-0.67388916015625,438595.3356684584,0.6678363791853175,0.3027827738143788,0.5782979738596543,438595.3356684584,0.2300722587026753,-0.1413790342495679,0.8210174874660282,0.6506927013397217,0.3185764253139496,0.6125119924545288,0.08983084559440613,0.1041845753788948,-0.0009510600939393044,XTrueNorthZVertical,-0.4028817165961794,0.01864192682971103,-0.07698266069949943,-0.9118182616068983,-0.09602591395378113,-0.7318395972251892,-0.6746776103973389,23.85584259033203,-12.55640411376953,-20.77048301696777,2,0.0.0.0,10.71.35.210,1,0
2015-03-15 18:33:30.563,36,1426469605.115576,37.28919474959787,-121.9015531372516,44.55293,-1,-1,10,2000,-9999,1426469610.526746,17.90586280822754,-16.77584838867188,-17.20852279663086,287.8428344726562,274.2649230957031,10,438595.4185212917,-0.099456787109375,-0.7752838134765625,-0.6378631591796875,438595.3874412084,0.6989575470517654,0.4262658303941919,0.4907233835218157,438595.3874412084,0.2794353396128608,-0.1596156774804704,0.8502750643626269,0.6818132400512695,0.4420591294765472,0.5249372720718384,0.03290362656116486,0.06905835121870041,-0.02407109551131725,XTrueNorthZVertical,-0.4172411097196421,0.01466276339176519,-0.09390168965819561,-0.9038127038610289,-0.1048640757799149,-0.751461923122406,-0.6513897180557251,23.84965515136719,-13.80309677124023,-19.97112655639648,2,0.0.0.0,10.71.35.210,1,0
2015-03-15 18:33:30.616,37,1426469605.115576,37.28919474959787,-121.9015531372516,44.55293,-1,-1,10,2000,-9999,1426469610.577475,17.93996810913086,-18.54318237304688,-15.57764053344727,281.0480346679688,267.4701232910156,10,438595.4676270834,-0.0943603515625,-0.9119415283203125,-0.584564208984375,438595.4392137083,0.6540284215654746,0.5325011904902157,0.3853727255399161,438595.4392137083,0.3222059612456714,-0.1667516412249062,0.8790837813792826,0.6368842124938965,0.5482945442199707,0.4195859730243683,0.0037596570327878,-0.06990258395671844,0.01534673199057579,XTrueNorthZVertical,-0.4306445532864104,0.006367340017986723,-0.1096770152047155,-0.8958101078315859,-0.1058714762330055,-0.7701547741889954,-0.6290094256401062,17.83625793457031,-18.37762260437012,-15.69145202636719,2,0.0.0.0,10.71.35.210,1,0
2015-03-15 18:33:30.694,38,1426469605.115576,37.28919474959787,-121.9015531372516,44.55293,-1,-1,10,2000,-9999,1426469610.680245,17.49662017822266,-21.70388793945312,-12.41573715209961,274.0223693847656,260.4444580078125,10,438595.5166790417,-0.0602569580078125,-0.913116455078125,-0.528564453125,438595.490983875,0.6316006104453723,0.5942308677132714,0.4804883228204232,438595.490983875,0.3664548277679592,-0.1724236947673738,0.9060373208358454,0.614456832408905,0.6100243926048279,0.5147009491920471,0.02943591959774494,-0.1337871849536896,0.03512115031480789,XTrueNorthZVertical,-0.4428630642637935,-0.003327403091570613,-0.1261607801390801,-0.887662527938325,-0.1058366745710373,-0.7870654463768005,-0.6077224612236023,17.84715461730957,-19.1610050201416,-14.71141815185547,2,0.0.0.0,10.71.35.210,1,0
2015-03-15 18:33:30.714,39,1426469605.115576,37.28919474959787,-121.9015531372516,44.55293,-1,-1,10,2000,-9999,1426469610.680245,17.49662017822266,-21.70388793945312,-12.41573715209961,274.0223693847656,260.4444580078125,10,438595.5657667917,-0.0644378662109375,-0.9565582275390625,-0.426849365234375,438595.5427565834,0.4902368239906582,0.6242476226756635,0.5766175192118144,438595.5427565834,0.4213320375484414,-0.1841778803460283,0.9283343985695859,0.4730935990810394,0.6400419473648071,0.6108288168907166,0.05058766156435013,-0.1214197725057602,0.1064755246043205,XTrueNorthZVertical,-0.4531209793883262,-0.01280671152651818,-0.1459360385420568,-0.8793293524523681,-0.1097307279706001,-0.8006230592727661,-0.5890347361564636,17.79205513000488,-19.95198249816895,-13.69130992889404,2,0.0.0.0,10.71.35.210,1,0
2015-03-15 18:33:30.760,40,1426469605.115576,37.28919474959787,-121.9015531372516,44.55293,-1,-1,10,2000,-9999,1426469610.733983,17.12147903442383,-22.51956176757812,-10.95126724243164,271.8093566894531,258.2314453125,10,438595.6148190834,-0.10797119140625,-0.9653472900390625,-0.36187744140625,438595.5945292084,0.3508578914963802,0.5181182563910248,0.5428505008023726,438595.5945292084,0.4777646663468051,-0.2002939709217303,0.9412402929184203,0.3337156772613525,0.5339136719703674,0.5770600438117981,0.03123637102544308,-0.1505275368690491,0.1879464834928513,XTrueNorthZVertical,-0.459440404009596,-0.02017359757170792,-0.1657895678970519,-0.8723654231757652,-0.1171433553099632,-0.8082889914512634,-0.5770151019096375,17.543701171875,-20.97266578674316,-12.42806053161621,2,0.0.0.0,10.71.35.210,1,0
2015-03-15 18:33:30.812,41,1426469605.115576,37.28919474959787,-121.9015531372516,44.55293,-1,-1,10,2000,-9999,1426469610.784922,17.10442733764648,-23.14828491210938,-9.802997589111328,267.8512878417969,254.2733917236328,10,438595.663929125,-0.093597412109375,-0.9698944091796875,-0.37481689453125,438595.6462995,0.3516046418660385,0.5884645913210318,0.4603417754900828,438595.6462995,0.5278547598938663,-0.2128057442352876,0.9522966070731725,0.3346843421459198,0.6042048931121826,0.4943043291568756,0.03252315521240234,-0.1728606075048447,0.2073134034872055,XTrueNorthZVertical,-0.4646088001706297,-0.0277771449420079,-0.1835517203968187,-0.8658382817904596,-0.1224584579467773,-0.8147492408752441,-0.5667341947555542,17.28609466552734,-21.61798095703125,-11.65953063964844,2,0.0.0.0,10.71.35.210,1,0
2015-03-15 18:33:30.863,42,1426469605.115576,37.28919474959787,-121.9015531372516,44.55293,-1,-1,10,2000,-9999,1426469610.836971,16.76339149475098,-24.03195190429688,-8.638080596923828,264.3027648925781,250.7248687744141,10,438595.712985375,-0.1342926025390625,-0.9300994873046875,-0.3567352294921875,438595.6980723334,0.393398960433197,0.587328220483895,0.5104467545549426,438595.6462995,0.5278547598938663,-0.2128057442352876,0.9522966070731725,0.3346843421459198,0.6042048931121826,0.4943043291568756,0.03252315521240234,-0.1728606075048447,0.2073134034872055,XTrueNorthZVertical,-0.4646088001706297,-0.0277771449420079,-0.1835517203968187,-0.8658382817904596,-0.1224584579467773,-0.8147492408752441,-0.5667341947555542,17.28609466552734,-21.61798095703125,-11.65953063964844,2,0.0.0.0,10.71.35.210,1,0
2015-03-15 18:33:30.910,43,1426469605.115576,37.28919474959787,-121.9015531372516,44.55293,-1,-1,10,2000,-9999,1426469610.891409,16.21773338317871,-24.74566650390625,-7.805995941162109,261.6958312988281,248.117919921875,10,438595.7620882083,-0.170806884765625,-0.938507080078125,-0.3077239990234375,438595.7498448333,0.3167081768382942,0.6785063340927199,0.5339696575152855,438595.7498448333,0.6337429969191314,-0.2376270220167656,0.9745155527537578,0.2997894585132599,0.6942480802536011,0.5679296255111694,-0.02685069665312767,-0.09459765255451202,0.2102325111627579,XTrueNorthZVertical,-0.474394643018582,-0.04533708924171487,-0.2206555533514944,-0.8510026257545368,-0.1321916580200195,-0.8274299502372742,-0.5457885265350342,16.73439788818359,-22.94975471496582,-9.765222549438477,2,0.0.0.0,10.71.35.210,1,0
2015-03-15 18:33:30.949,44,1426469605.115576,37.28919474959787,-121.9015531372516,44.55293,-1,-1,10,2000,-9999,1426469610.891409,16.21773338317871,-24.74566650390625,-7.805995941162109,261.6958312988281,248.117919921875,10,438595.811147625,-0.1703338623046875,-1.00836181640625,-0.277435302734375,438595.8016150417,0.2451727404815667,0.9296980849539748,0.5509979095252521,438595.7498448333,0.6337429969191314,-0.2376270220167656,0.9745155527537578,0.2997894585132599,0.6942480802536011,0.5679296255111694,-0.02685069665312767,-0.09459765255451202,0.2102325111627579,XTrueNorthZVertical,-0.474394643018582,-0.04533708924171487,-0.2206555533514944,-0.8510026257545368,-0.1321916580200195,-0.8274299502372742,-0.5457885265350342,16.73439788818359,-22.94975471496582,-9.765222549438477,2,0.0.0.0,10.71.35.210,1,0
2015-03-15 18:33:31.014,45,1426469605.115576,37.28919474959787,-121.9015531372516,44.55293,-1,-1,10,2000,-9999,1426469610.965022,15.36514568328857,-25.86724853515625,-5.775722503662109,256.7197570800781,243.141845703125,10,438595.8602370833,-0.1246795654296875,-1.070404052734375,-0.287689208984375,438595.8533878333,0.2309381444550932,1.051613871232276,0.5895351820792437,438595.8533878333,0.7462413623869428,-0.2388581466221214,0.9841050926291748,0.2140197902917862,1.067355275154114,0.6234944462776184,-0.001466165180318058,-0.2356128990650177,0.2567936182022095,XTrueNorthZVertical,-0.4750747068530263,-0.07320186634699284,-0.2665738590411841,-0.8353944927992571,-0.1309801191091537,-0.8327770233154297,-0.5378910303115845,15.22446441650391,-26.01761245727539,-5.464508056640625,2,0.0.0.0,10.71.35.210,1,0
2015-03-15 18:33:31.047,46,1426469605.115576,37.28919474959787,-121.9015531372516,44.55293,-1,-1,10,2000,-9999,1426469611.016985,15.21167850494385,-27.07376098632812,-4.494312286376953,249.0504913330078,235.4725952148438,10,438595.9092957083,-0.0989532470703125,-0.9917755126953125,-0.3263092041015625,438595.9051606667,0.1550851913391293,1.215309062375632,0.7029672023889887,438595.8533878333,0.7462413623869428,-0.2388581466221214,0.9841050926291748,0.2140197902917862,1.067355275154114,0.6234944462776184,-0.001466165180318058,-0.2356128990650177,0.2567936182022095,XTrueNorthZVertical,-0.4750747068530263,-0.07320186634699284,-0.2665738590411841,-0.8353944927992571,-0.1309801191091537,-0.8327770233154297,-0.5378910303115845,15.22446441650391,-26.01761245727539,-5.464508056640625,2,0.0.0.0,10.71.35.210,1,0
2015-03-15 18:33:31.114,47,1426469605.115576,37.28919474959787,-121.9015531372516,44.55293,-1,-1,10,2000,-9999,1426469611.06919,14.66601848602295,-27.71951293945312,-3.262836456298828,245.3617858886719,231.7838897705078,10,438595.958385625,-0.079620361328125,-0.94976806640625,-0.3229217529296875,438595.9569307917,0.107383448841957,1.18304273524045,0.7001972485391973,438595.9051606667,0.8117336244870244,-0.234948008278738,0.9842467305400158,0.1381669938564301,1.231050252914429,0.7369261980056763,0.02557695470750332,-0.1738584637641907,0.2122955620288849,XTrueNorthZVertical,-0.4719035022913617,-0.09035991978513032,-0.2946852110940254,-0.8260162631786681,-0.1288484334945679,-0.8328554034233093,-0.5382843613624573,14.53985786437988,-26.63992500305176,-4.179512023925781,2,0.0.0.0,10.71.35.210,1,0
2015-03-15 18:33:31.145,48,1426469605.115576,37.28919474959787,-121.9015531372516,44.55293,-1,-1,10,2000,-9999,1426469611.121265,14.03509998321533,-28.58615112304688,-2.247692108154297,241.2492218017578,227.6713256835938,10,438596.0074382084,-0.0963134765625,-0.9663543701171875,-0.3066253662109375,438595.9569307917,0.107383448841957,1.18304273524045,0.7001972485391973,438595.9569307917,0.8784128121113345,-0.2286197370964711,0.9812158470309444,0.09046541899442673,1.198783874511719,0.7341558337211609,0.04619225859642029,-0.1202420070767403,0.2153121531009674,XTrueNorthZVertical,-0.4664411222659938,-0.1079821522674514,-0.3239765856208314,-0.8159729024128231,-0.1260109841823578,-0.8311740159988403,-0.5415450930595398,13.85786437988281,-27.13198089599609,-3.221263885498047,2,0.0.0.0,10.71.35.210,1,0
2015-03-15 18:33:31.204,49,1426469605.115576,37.28919474959787,-121.9015531372516,44.55293,-1,-1,10,2000,-9999,1426469611.184754,13.09724903106689,-28.97702026367188,-1.299114227294922,237.6094818115234,224.0315856933594,10,438596.0565309583,-0.0851287841796875,-0.97393798828125,-0.3233642578125,438596.06047625,-0.04339168258898805,0.917073369806454,0.5090224960039682,438596.0087035417,0.9404742797686042,-0.227161933883519,0.9763283546384383,0.03420952335000038,0.9520412683486938,0.6573075652122498,0.02982130460441113,-0.1379077881574631,0.239054337143898,XTrueNorthZVertical,-0.4607603214122742,-0.1219019165972973,-0.3502091554044406,-0.8063457494552074,-0.1261347830295563,-0.8284465670585632,-0.5456796884536743,13.10906982421875,-27.58747482299805,-2.375907897949219,2,0.0.0.0,10.71.35.210,1,0
2015-03-15 18:33:31.243,50,1426469605.115576,37.28919474959787,-121.9015531372516,44.55293,-1,-1,10,2000,-9999,1426469611.184754,13.09724903106689,-28.97702026367188,-1.299114227294922,237.6094818115234,224.0315856933594,10,438596.1055772917,-0.02960205078125,-0.966766357421875,-0.410400390625,438596.06047625,-0.04339168258898805,0.917073369806454,0.5090224960039682,438596.06047625,0.9920328681183325,-0.2233529014706839,0.9682630162431821,-0.06030935421586037,0.9328141808509827,0.5429803729057312,0.04040252417325974,-0.1500354409217834,0.2292898297309875,XTrueNorthZVertical,-0.4537415743055693,-0.1333849376969447,-0.3729886839793389,-0.7982521876056804,-0.1255313158035278,-0.8239025473594666,-0.5526540875434875,12.11826419830322,-28.09262084960938,-1.585479736328125,2,0.0.0.0,10.71.35.210,1,0
2015-03-15 18:33:31.302,51,1426469605.115576,37.28919474959787,-121.9015531372516,44.55293,-1,-1,10,2000,-9999,1426469611.249978,11.59669017791748,-29.31686401367188,-0.333892822265625,232.3993225097656,218.8214263916016,10,438596.1546576667,-0.1186370849609375,-0.925933837890625,-0.4826812744140625,438596.1122465833,-0.3902239397816045,0.7850309134831264,0.3857642102201578,438596.1122465833,1.026155974882698,-0.2069522073927477,0.9517412292255754,-0.4071409702301025,0.8007733821868896,0.4197196364402771,0.0896298885345459,-0.1523392498493195,0.1574836522340775,XTrueNorthZVertical,-0.4420585787733233,-0.1436739146712753,-0.3927636290658024,-0.7935230444735736,-0.1192319393157959,-0.8144271373748779,-0.5678840279579163,11.50329780578613,-28.36906814575195,-1.196438789367676,2,0.0.0.0,10.71.35.210,1,0
2015-03-15 18:33:31.342,52,1426469611.310055,37.28696881952604,-121.9047568128931,44.81797,-1,-1,10,65,-9999,1426469611.301438,10.91461944580078,-29.58871459960938,-0.1341896057128906,229.8880920410156,216.3101959228516,10,438596.2038249167,-0.0772247314453125,-1.002227783203125,-0.6307830810546875,438596.1640193334,-0.4326097464268696,0.4652872656343599,0.1639489903952401,438596.1640193334,1.043880383641234,-0.1927441863171304,0.9269522683319339,-0.4495265781879425,0.481029599905014,0.1979040503501892,-0.003652738174423575,-0.1261396557092667,0.1064773797988892,XTrueNorthZVertical,-0.4286496816447177,-0.1472417125932447,-0.4066072506262816,-0.7932527614122963,-0.1149843484163284,-0.7997941970825195,-0.5891586542129517,11.01201915740967,-28.56130218505859,-1.244489669799805,2,0.0.0.0,10.71.35.210,1,0
2015-03-15 18:33:31.401,53,1426469611.310055,37.28696881952604,-121.9047568128931,44.81797,-1,-1,10,65,-9999,1426469611.353558,10.48832225799561,-29.4697265625,-0.7499313354492188,228.4441986083984,214.8663024902344,10,438596.2527948334,0.028167724609375,-0.83685302734375,-0.578155517578125,438596.21579225,-0.4896149758761247,0.753422120821085,0.2130448977230688,438596.21579225,1.054604056518713,-0.1697058816186964,0.8994522324254414,-0.5065315961837769,0.7691643238067627,0.246999591588974,0.06774996221065521,-0.1966127008199692,-0.04754144325852394,XTrueNorthZVertical,-0.4127250028460834,-0.152008313792492,-0.4196993071353625,-0.7939799162481168,-0.1050577014684677,-0.7829862833023071,-0.6131030917167664,10.64807987213135,-28.67499923706055,-1.710030555725098,2,0.0.0.0,10.71.35.210,1,0
2015-03-15 18:33:31.439,54,1426469611.310055,37.28696881952604,-121.9047568128931,44.81797,-1,-1,10,65,-9999,1426469611.405814,10.50537395477295,-29.69064331054688,-1.1326904296875,227.5116882324219,213.9337921142578,10,438596.301837375,0.0699005126953125,-0.6912078857421875,-0.717803955078125,438596.2675625834,-0.1006541733995448,0.7858269323329511,-0.06002365622875091,438596.2675625834,1.060133687534697,-0.1356632881646297,0.8887427881216203,-0.117570661008358,0.8015689253807068,-0.02606929652392864,0.1258011013269424,-0.02100715786218643,0.02538375928997993,XTrueNorthZVertical,-0.4009856239293651,-0.1640497691317873,-0.4302994399950424,-0.7919221336983476,-0.08525849133729935,-0.7762798070907593,-0.6245964169502258,10.42691898345947,-28.74246215820312,-1.926551818847656,2,0.0.0.0,10.71.35.210,1,0
2015-03-15 18:33:31.498,55,1426469611.310055,37.28696881952604,-121.9047568128931,44.81797,-1,-1,10,65,-9999,1426469611.456558,10.74409866333008,-29.724609375,-0.9662704467773438,226.5507965087891,212.972900390625,10,438596.350926375,0.093994140625,-0.6352691650390625,-0.6870269775390625,438596.3193352083,-0.2696812793613479,0.6711770484567128,-0.4653778131114226,438596.3193352083,1.03397839895774,-0.0717915214544107,0.8758902881032888,-0.2866326570510864,0.6869102716445923,-0.4314130246639252,0.1190497055649757,0.0883042961359024,-0.08727296441793442,XTrueNorthZVertical,-0.3844836935263977,-0.1812190046119501,-0.4341000505567949,-0.7942853260245634,-0.04592958837747574,-0.7681138515472412,-0.6386639475822449,10.48569869995117,-28.73380661010742,-1.726200103759766,2,0.0.0.0,10.71.35.210,1,0
2015-03-15 18:33:31.538,56,1426469611.310055,37.28696881952604,-121.9047568128931,44.81797,-1,-1,10,65,-9999,1426469611.509566,12.15940093994141,-29.40170288085938,-1.215900421142578,227.7670440673828,214.1891479492188,10,438596.39996375,0.090911865234375,-0.692138671875,-0.6808624267578125,438596.3711081667,-0.2916949689319429,0.4431228411460664,-0.5941344612818106,438596.3711081667,0.9905992716665548,-0.0107671721803578,0.861141834948886,-0.3086479902267456,0.4588552415370941,-0.5601692795753479,0.1063654273748398,0.08607117831707001,-0.02494917251169682,XTrueNorthZVertical,-0.3695503326701657,-0.1940761730282743,-0.429930679821657,-0.8005789608063418,-0.007015449460595846,-0.7585870623588562,-0.6515339612960815,11.33792686462402,-28.40392684936523,-1.797118186950684,2,0.0.0.0,10.71.35.210,1,0
2015-03-15 18:33:31.596,57,1426469611.310055,37.28696881952604,-121.9047568128931,44.81797,-1,-1,10,65,-9999,1426469611.560421,13.40418338775635,-28.97689819335938,-1.199253082275391,229.3342895507812,215.7563934326172,10,438596.4490447083,0.0606689453125,-0.677978515625,-0.6798858642578125,438596.4228783334,-0.2094179386344899,0.2542669029719693,-0.4953271900982357,438596.4228783334,0.9504315000631011,0.03674938951708918,0.8451465317455096,-0.2263868004083633,0.2699930369853973,-0.4613548517227173,0.03323498368263245,0.08037427067756653,-0.02157977409660816,XTrueNorthZVertical,-0.3569376148461564,-0.2025060914910059,-0.4239141977636797,-0.807393117510271,0.02438220381736755,-0.7480683326721191,-0.6631736159324646,12.10022926330566,-28.07712364196777,-1.954728126525879,2,0.0.0.0,10.71.35.210,1,0
2015-03-15 18:33:31.636,58,1426469611.310055,37.28696881952604,-121.9047568128931,44.81797,-1,-1,10,65,-9999,1426469611.613253,14.76832675933838,-28.60302734375,-1.765068054199219,231.6783294677734,218.1004333496094,10,438596.4981978334,0.1072540283203125,-0.69049072265625,-0.7158355712890625,438596.474651125,-0.174536120992741,0.1833874031917284,-0.3981902535503585,438596.474651125,0.9170660954885037,0.07568972112011266,0.8315394848978557,-0.1915219873189926,0.1991085708141327,-0.3642122149467468,0.0518825426697731,0.04734958335757256,-0.02690523117780685,XTrueNorthZVertical,-0.3465931204259786,-0.2096860012652461,-0.4183365047242382,-0.8129573357892079,0.0509464368224144,-0.7389694452285767,-0.67180997133255,12.74306583404541,-27.7775764465332,-2.140538215637207,2,0.0.0.0,10.71.35.210,1,0
2015-03-15 18:33:31.697,59,1426469611.310055,37.28696881952604,-121.9047568128931,44.81797,-1,-1,10,65,-9999,1426469611.664933,15.58681488037109,-28.0252685546875,-1.798358917236328,232.6944274902344,219.1165313720703,10,438596.5471787917,0.080963134765625,-0.66644287109375,-0.688690185546875,438596.5264239167,-0.1304203249033604,-0.1885557999192452,-0.2714517488540326,438596.5264239167,0.8951864431416872,0.0932454457555888,0.8185651603551165,-0.1474339216947556,-0.1728426963090897,-0.2374642193317413,0.03350269794464111,0.05295062437653542,-0.02535660937428474,XTrueNorthZVertical,-0.3398548966518702,-0.2105895871788524,-0.4133392553765827,-0.8181084318169104,0.06361949443817139,-0.7301661968231201,-0.6803013682365417,13.48997116088867,-27.39882850646973,-2.426129341125488,2,0.0.0.0,10.71.35.210,1,0
2015-03-15 18:33:31.735,60,1426469611.310055,37.28696881952604,-121.9047568128931,44.81797,-1,-1,10,65,-9999,1426469611.716348,16.26888656616211,-27.65142822265625,-1.964775085449219,233.9579315185547,220.3800354003906,10,438596.5962298334,0.0765228271484375,-0.6561279296875,-0.675689697265625,438596.5781945,-0.1342747179490321,-0.3418063395834189,-0.07675496577717372,438596.5264239167,0.8951864431416872,0.0932454457555888,0.8185651603551165,-0.1474339216947556,-0.1728426963090897,-0.2374642193317413,0.03350269794464111,0.05295062437653542,-0.02535660937428474,XTrueNorthZVertical,-0.3398548966518702,-0.2105895871788524,-0.4133392553765827,-0.8181084318169104,0.06361949443817139,-0.7301661968231201,-0.6803013682365417,13.48997116088867,-27.39882850646973,-2.426129341125488,2,0.0.0.0,10.71.35.210,1,0
2015-03-15 18:33:31.796,61,1426469611.310055,37.28696881952604,-121.9047568128931,44.81797,-1,-1,10,65,-9999,1426469611.768075,16.54171562194824,-27.68539428710938,-2.097904205322266,234.4179229736328,220.8400268554688,10,438596.6453161667,-0.008056640625,-0.6678924560546875,-0.6557159423828125,438596.6299671667,-0.06253368555615059,-0.4038569277178291,0.1338510090196005,438596.6299671667,0.8889684933334355,0.06623056927252451,0.7994095698256886,-0.07939103990793228,-0.3882015645503998,0.1676641553640366,-0.02564502693712711,0.0470379926264286,0.04438715055584908,XTrueNorthZVertical,-0.3380269004004007,-0.1947740734502592,-0.4075137707244142,-0.8256715284172426,0.04613757878541946,-0.7169446349143982,-0.695601761341095,13.87373733520508,-27.12817192077637,-3.184806823730469,2,0.0.0.0,10.71.35.210,1,0
2015-03-15 18:33:31.832,62,1426469611.310055,37.28696881952604,-121.9047568128931,44.81797,-1,-1,10,65,-9999,1426469611.820107,16.18362808227539,-27.43051147460938,-2.713645935058594,234.7927398681641,221.21484375,10,438596.69437625,-0.025054931640625,-0.650909423828125,-0.6614990234375,438596.681740125,0.06281358378671792,-0.203338208181948,0.2618941963339563,438596.681740125,0.9099312158586097,0.03593634243026178,0.7990983535918371,0.0459660105407238,-0.1876906752586365,0.2957142889499664,-0.053375244140625,0.05565584078431129,0.03085687570273876,XTrueNorthZVertical,-0.3421022696514811,-0.1857808593331228,-0.411033204257976,-0.8243198927927058,0.025054931640625,-0.716727614402771,-0.6969029903411865,13.47690868377686,-27.26450538635254,-3.685242652893066,2,0.0.0.0,10.71.35.210,1,0
2015-03-15 18:33:31.894,63,1426469611.310055,37.28696881952604,-121.9047568128931,44.81797,-1,-1,10,65,-9999,1426469611.871599,15.29693603515625,-27.192626953125,-2.680362701416016,233.9467315673828,220.3688354492188,10,438596.7434507917,0.0116424560546875,-0.7287445068359375,-0.683380126953125,438596.7335104584,0.1727443462113357,-0.1028472865572251,0.2848471828210222,438596.681740125,0.9099312158586097,0.03593634243026178,0.7990983535918371,0.0459660105407238,-0.1876906752586365,0.2957142889499664,-0.053375244140625,0.05565584078431129,0.03085687570273876,XTrueNorthZVertical,-0.3421022696514811,-0.1857808593331228,-0.411033204257976,-0.8243198927927058,0.025054931640625,-0.716727614402771,-0.6969029903411865,13.47690868377686,-27.26450538635254,-3.685242652893066,2,0.0.0.0,10.71.35.210,1,0
2015-03-15 18:33:31.930,64,1426469611.310055,37.28696881952604,-121.9047568128931,44.81797,-1,-1,10,65,-9999,1426469611.924438,14.5296049118042,-27.65145874023438,-2.364177703857422,233.6212921142578,220.0433959960938,10,438596.792511625,-0.074462890625,-0.7215423583984375,-0.7444000244140625,438596.7852834584,0.1730119939008887,-0.1360017779159485,0.390879610041982,438596.7335104584,0.9320411528765891,0.01306026622955502,0.8054869762126874,0.1558969467878342,-0.08719991147518158,0.318666934967041,-0.01019178424030542,0.03838305175304413,0.031003687530756,XTrueNorthZVertical,-0.3474413560935249,-0.1814771782795954,-0.4156608013992757,-0.820717190797954,0.009047375060617924,-0.7211681008338928,-0.6927011013031006,13.08504486083984,-27.44722366333008,-3.740694046020508,2,0.0.0.0,10.71.35.210,1,0
2015-03-15 18:33:31.992,65,1426469611.310055,37.28696881952604,-121.9047568128931,44.81797,-1,-1,10,65,-9999,1426469611.978338,13.67701244354248,-28.09326171875,-2.763572692871094,231.7271118164062,218.1492156982422,10,438596.8415939584,-0.093170166015625,-0.70562744140625,-0.6507415771484375,438596.837056125,0.1385693315228939,0.07905167590125806,0.4515658607499446,438596.837056125,0.9996962580957129,-0.04537175524969447,0.8171284560757255,0.1217378973960876,0.09467413276433945,0.4854087829589844,-0.07578872889280319,0.03838789090514183,0.01744548231363297,XTrueNorthZVertical,-0.358573208758588,-0.1720999887424218,-0.4318200090865739,-0.8095297393175278,-0.03103805519640446,-0.7291837930679321,-0.6836137175559998,11.94390678405762,-27.99893569946289,-3.458897590637207,2,0.0.0.0,10.71.35.210,1,0
2015-03-15 18:33:32.029,66,1426469611.310055,37.28696881952604,-121.9047568128931,44.81797,-1,-1,10,65,-9999,1426469611.978338,13.67701244354248,-28.09326171875,-2.763572692871094,231.7271118164062,218.1492156982422,10,438596.8906429583,-0.006927490234375,-0.6672821044921875,-0.6220855712890625,438596.837056125,0.1385693315228939,0.07905167590125806,0.4515658607499446,438596.837056125,0.9996962580957129,-0.04537175524969447,0.8171284560757255,0.1217378973960876,0.09467413276433945,0.4854087829589844,-0.07578872889280319,0.03838789090514183,0.01744548231363297,XTrueNorthZVertical,-0.358573208758588,-0.1720999887424218,-0.4318200090865739,-0.8095297393175278,-0.03103805519640446,-0.7291837930679321,-0.6836137175559998,11.94390678405762,-27.99893569946289,-3.458897590637207,2,0.0.0.0,10.71.35.210,1,0
2015-03-15 18:33:32.097,67,1426469611.310055,37.28696881952604,-121.9047568128931,44.81797,-1,-1,10,65,-9999,1426469612.08177,11.97182846069336,-29.14688110351562,-1.931488037109375,227.0983428955078,213.5204467773438,10,438596.939718,-0.03826904296875,-0.6862030029296875,-0.620635986328125,438596.9405994167,0.2455599641040642,0.05000990421394397,0.3897235318127786,438596.8888265417,1.037375274572993,-0.06010797495964967,0.8194264705943075,0.05848093330860138,0.397049605846405,0.4791135787963867,0.009986313991248608,0.05440860986709595,0.06130572408437729,XTrueNorthZVertical,-0.3594596092032594,-0.1734501726846329,-0.4441098486953124,-0.8021660305015059,-0.04100743308663368,-0.7307544350624084,-0.681407630443573,11.1831750869751,-28.32518196105957,-3.343928337097168,2,0.0.0.0,10.71.35.210,1,0
2015-03-15 18:33:32.128,68,1426469611.310055,37.28696881952604,-121.9047568128931,44.81797,-1,-1,10,65,-9999,1426469612.08177,11.97182846069336,-29.14688110351562,-1.931488037109375,227.0983428955078,213.5204467773438,10,438596.98878075,-0.041534423828125,-0.7447509765625,-0.6086273193359375,438596.9923724583,0.3788160229361411,0.1369341506135853,0.2588528663690858,438596.9405994167,1.070074387518713,-0.07262599281703339,0.8247282145226524,0.2287348806858063,0.0656309574842453,0.4235661625862122,0.01098300609737635,0.04816032946109772,0.05633135139942169,XTrueNorthZVertical,-0.3614997387441686,-0.1755968962052767,-0.4543086262607416,-0.7950392520420955,-0.04925204813480377,-0.734363317489624,-0.6769673228263855,10.62163639068604,-28.56841278076172,-3.096430778503418,2,0.0.0.0,10.71.35.210,1,0
2015-03-15 18:33:32.197,69,1426469611.310055,37.28696881952604,-121.9047568128931,44.81797,-1,-1,10,65,-9999,1426469612.156948,10.88051223754883,-30.03048706054688,-1.332386016845703,224.2553253173828,210.6774291992188,10,438597.0378438334,-0.0282745361328125,-0.77264404296875,-0.5921173095703125,438596.9923724583,0.3788160229361411,0.1369341506135853,0.2588528663690858,438596.9923724583,1.098564227015786,-0.08812399211841866,0.8399227669244171,0.3619951009750366,0.1525601744651794,0.2926892638206482,0.01721402816474438,-0.0001594090135768056,0.05630280077457428,XTrueNorthZVertical,-0.3684090624784051,-0.1783527477486127,-0.4609289690814042,-0.787406894030946,-0.05874845385551453,-0.7445915937423706,-0.6649301052093506,9.924975395202637,-28.86111068725586,-2.66315746307373,2,0.0.0.0,10.71.35.210,1,0
2015-03-15 18:33:32.225,70,1426469611.310055,37.28696881952604,-121.9047568128931,44.81797,-1,-1,10,65,-9999,1426469612.209539,10.52242469787598,-30.285400390625,-0.4170951843261719,223.0674896240234,209.4895935058594,10,438597.0869901667,0.012115478515625,-0.8799285888671875,-0.5622711181640625,438597.0441427917,0.4149346125881228,0.2522277205252956,0.2277436827275432,438597.0441427917,1.120904010510658,-0.09274460020446257,0.8601180958196241,0.3981176912784576,0.2678611874580383,0.2615712583065033,0.03214051946997643,-0.01472443528473377,0.05742710083723068,XTrueNorthZVertical,-0.3751590578989836,-0.1856972721356361,-0.4662755102064442,-0.7793326787906791,-0.06041505560278893,-0.7579196095466614,-0.6495444178581238,9.574356079101562,-29.03115272521973,-2.02116870880127,2,0.0.0.0,10.71.35.210,1,0
2015-03-15 18:33:32.297,71,1426469611.310055,37.28696881952604,-121.9047568128931,44.81797,-1,-1,10,65,-9999,1426469612.260827,9.925609588623047,-30.23443603515625,0.930877685546875,222.1862182617188,208.6083221435547,10,438597.135958,0.006744384765625,-0.8610382080078125,-0.5402679443359375,438597.1476885834,0.3507859861469481,0.09985948613026516,0.2427141101632056,438597.0959157917,1.13824943053782,-0.09350925436122105,0.8864724655920483,0.435679167509079,0.1482339203357697,0.2204595953226089,0.07114118337631226,-0.1050819456577301,0.06711643934249878,XTrueNorthZVertical,-0.3836225003991685,-0.1952946463195804,-0.4694040680416443,-0.7709433639794561,-0.05902570113539696,-0.7748466730117798,-0.6293875575065613,9.191165924072266,-29.20442771911621,-1.088677406311035,2,0.0.0.0,10.71.35.210,1,0
2015-03-15 18:33:32.323,72,1426469611.310055,37.28696881952604,-121.9047568128931,44.81797,-1,-1,10,65,-9999,1426469612.313169,9.175331115722656,-30.60824584960938,1.796245574951172,221.7294311523438,208.1515350341797,10,438597.1850043334,-0.013092041015625,-0.8618621826171875,-0.536773681640625,438597.1476885834,0.3507859861469481,0.09985948613026516,0.2427141101632056,438597.1476885834,1.159546495706393,-0.1031896331696532,0.9090395516716825,0.3339845538139343,0.1155367195606232,0.2764919400215149,0.06639548391103745,-0.06562405824661255,0.06889190524816513,XTrueNorthZVertical,-0.3921831370083452,-0.2014320383557901,-0.4726169874843667,-0.7630535861674013,-0.06329794973134995,-0.788913905620575,-0.6112350225448608,8.941799163818359,-29.29979705810547,-0.3570823669433594,2,0.0.0.0,10.71.35.210,1,0
2015-03-15 18:33:32.401,73,1426469611.310055,37.28696881952604,-121.9047568128931,44.81797,-1,-1,10,65,-9999,1426469612.363704,8.697879791259766,-30.94808959960938,2.428630828857422,219.1404571533203,205.5625610351562,10,438597.2340760833,0.01507568359375,-0.8571319580078125,-0.5517425537109375,438597.1994592084,0.2356287700830498,0.04300126317318244,0.1440530465234761,438597.1994592084,1.178216309043916,-0.1135677293439405,0.9251405390083176,0.2188338935375214,0.05869592353701591,0.1778106987476349,0.04665929451584816,-0.0625159740447998,0.06810679286718369,XTrueNorthZVertical,-0.3986497112412614,-0.2053176150020374,-0.4753702758100001,-0.7569321348873113,-0.06818944215774536,-0.7987053394317627,-0.5978461503982544,8.702088356018066,-29.3714599609375,0.3902482986450195,2,0.0.0.0,10.71.35.210,1,0
2015-03-15 18:33:32.424,74,1426469611.310055,37.28696881952604,-121.9047568128931,44.81797,-1,-1,10,65,-9999,1426469612.415992,8.271585464477539,-31.44088745117188,2.977802276611328,217.2487945556641,203.6708984375,10,438597.2831316667,0.02752685546875,-0.8587188720703125,-0.6060638427734375,438597.251232,0.1659562149088328,-0.01201458494178348,0.13578126817769,438597.251232,1.185350275306367,-0.1134854830390794,0.9396375663788038,0.1491610407829285,0.003713326761499047,0.1694986522197723,0.09627141058444977,-0.05433478951454163,0.01618611067533493,XTrueNorthZVertical,-0.403153960752652,-0.2105335846365807,-0.4759619876465845,-0.752730198169728,-0.06682194769382477,-0.8073443174362183,-0.5862849950790405,8.430050849914551,-29.43861961364746,0.9291362762451172,2,0.0.0.0,10.71.35.210,1,0
2015-03-15 18:33:32.505,75,1426469611.310055,37.28696881952604,-121.9047568128931,44.81797,-1,-1,10,65,-9999,1426469612.467672,7.725927352905273,-31.67880249023438,2.844673156738281,216.42822265625,202.8503265380859,10,438597.3321995,0.0262298583984375,-0.8336944580078125,-0.599761962890625,438597.3030050417,0.08581424085729628,-0.342683318530382,0.3265307138868334,438597.3030050417,1.204726476966536,-0.1356946332312363,0.9443561283826452,0.06900520622730255,-0.3269447088241577,0.360232412815094,0.09414060413837433,-0.0347595289349556,-0.03048315644264221,XTrueNorthZVertical,-0.4081239078016257,-0.2073575002936219,-0.4780257318160601,-0.7496193793693138,-0.07930906116962433,-0.81011962890625,-0.5808754563331604,8.263628959655762,-29.47655868530273,1.185813903808594,2,0.0.0.0,10.71.35.210,1,0
2015-03-15 18:33:32.520,76,1426469611.310055,37.28696881952604,-121.9047568128931,44.81797,-1,-1,10,65,-9999,1426469612.467672,7.725927352905273,-31.67880249023438,2.844673156738281,216.42822265625,202.8503265380859,10,438597.3812385417,-0.0078887939453125,-0.855560302734375,-0.5172271728515625,438597.3547754583,0.04405427706819977,-0.7265649401759628,0.4891981911655273,438597.3547754583,1.238560883584151,-0.1876184934820336,0.942023498147799,0.02723513916134834,-0.7108213305473328,0.5228915214538574,0.142416924238205,-0.04250744357705116,0.01182189118117094,XTrueNorthZVertical,-0.416344387258085,-0.1942720893361961,-0.4803563872934987,-0.747110111657968,-0.1097020879387856,-0.8087498545646667,-0.5778313875198364,7.95670747756958,-29.5610179901123,1.182538032531738,2,0.0.0.0,10.71.35.210,1,0
2015-03-15 18:33:32.605,77,1426469611.310055,37.28696881952604,-121.9047568128931,44.81797,-1,-1,10,65,-9999,1426469612.571911,5.509190559387207,-31.64486694335938,2.6116943359375,214.0042266845703,200.4263305664062,10,438597.4303217084,-0.084136962890625,-0.7397613525390625,-0.375213623046875,438597.4065485417,0.2667328937185212,-0.963888545976739,0.7443247625373742,438597.4065485417,1.296467906888672,-0.2779483025993039,0.9407113367983063,0.2499132752418518,-0.9481437802314758,0.7780160903930664,0.115573525428772,0.003778215264901519,0.1223248094320297,XTrueNorthZVertical,-0.4323457080615327,-0.1725610977137948,-0.4829783221460262,-0.7416413337086841,-0.1616703271865845,-0.8079774379730225,-0.5665997266769409,7.039445400238037,-29.80096054077148,0.9541521072387695,2,0.0.0.0,10.71.35.210,1,0
2015-03-15 18:33:32.618,78,1426469611.310055,37.28696881952604,-121.9047568128931,44.81797,-1,-1,10,65,-9999,1426469612.571911,5.509190559387207,-31.64486694335938,2.6116943359375,214.0042266845703,200.4263305664062,10,438597.4793590417,-0.3586578369140625,-0.6215057373046875,-0.1705780029296875,438597.4583212917,0.5716240921679158,-1.20018816633838,0.8879655517241061,438597.4583212917,1.37694504708375,-0.3961491549667883,0.9460486574249456,0.5548046231269836,-1.184443593025208,0.9216565489768982,0.04704181849956512,0.1032707691192627,0.2380049675703049,XTrueNorthZVertical,-0.4562268611739038,-0.1485246897751262,-0.4853043805104386,-0.7309426770818583,-0.2256917208433151,-0.8111107349395752,-0.5395949482917786,6.021468162536621,-30.02011871337891,1.046811103820801,2,0.0.0.0,10.71.35.210,1,0
2015-03-15 18:33:32.705,79,1426469611.310055,37.28696881952604,-121.9047568128931,44.81797,-1,-1,10,65,-9999,1426469612.680072,1.723684310913086,-32.63046264648438,4.042877197265625,209.1460723876953,195.5681762695312,10,438597.5284312083,-0.5767364501953125,-0.7196197509765625,-0.1322174072265625,438597.5100919583,0.6984835043777313,-1.12430725003097,0.2228424010573613,438597.5100919583,1.457921179615922,-0.5177529282498563,0.9611995839537275,0.6816642880439758,-1.108562827110291,0.2565330564975739,-0.3022978007793427,0.1391538679599762,0.4426717162132263,XTrueNorthZVertical,-0.4845326999583829,-0.1283736430972372,-0.4826841975526043,-0.7181673252895777,-0.2833650410175323,-0.8198789358139038,-0.4974965453147888,4.864137649536133,-30.20930290222168,1.516426086425781,2,0.0.0.0,10.71.35.210,1,0
2015-03-15 18:33:32.716,80,1426469611.310055,37.28696881952604,-121.9047568128931,44.81797,-1,-1,10,65,-9999,1426469612.680072,1.723684310913086,-32.63046264648438,4.042877197265625,209.1460723876953,195.5681762695312,10,438597.577474125,-0.527862548828125,-0.6291351318359375,-0.25604248046875,438597.5618647917,0.8455200902704232,-0.7136792352416144,-0.2379286760004422,438597.5100919583,1.457921179615922,-0.5177529282498563,0.9611995839537275,0.6816642880439758,-1.108562827110291,0.2565330564975739,-0.3022978007793427,0.1391538679599762,0.4426717162132263,XTrueNorthZVertical,-0.4845326999583829,-0.1283736430972372,-0.4826841975526043,-0.7181673252895777,-0.2833650410175323,-0.8198789358139038,-0.4974965453147888,4.864137649536133,-30.20930290222168,1.516426086425781,2,0.0.0.0,10.71.35.210,1,0
2015-03-15 18:33:32.803,81,1426469611.310055,37.28696881952604,-121.9047568128931,44.81797,-1,-1,10,65,-9999,1426469612.73199,0.8369884490966797,-32.90234375,5.573909759521484,207.7241973876953,194.1463012695312,10,438597.62656425,-0.5418548583984375,-0.751983642578125,-0.1086273193359375,438597.6136378333,1.196573990423033,-0.2679608772971567,-0.1054718318114981,438597.6136378333,1.525914784104616,-0.6452330495250304,1.040312373843011,1.179906249046326,-0.2522600889205933,-0.07191774249076843,-0.2164045423269272,0.1863233000040054,0.1793503314256668,XTrueNorthZVertical,-0.5308298350809404,-0.1268956387185684,-0.4548291628803884,-0.70373836537969,-0.3042711317539215,-0.8625622987747192,-0.404234379529953,0.6153144836425781,-32.85138702392578,6.322784423828125,2,0.0.0.0,10.71.35.210,1,0
2015-03-15 18:33:32.813,82,1426469611.310055,37.28696881952604,-121.9047568128931,44.81797,-1,-1,10,65,-9999,1426469612.804222,0.649418830871582,-32.34152221679688,8.552764892578125,207.0126800537109,193.4347839355469,10,438597.6756135834,-0.2381439208984375,-0.8258514404296875,-0.099212646484375,438597.6654085,0.5434752783941053,1.088647523034809,-0.09573478223395043,438597.6136378333,1.525914784104616,-0.6452330495250304,1.040312373843011,1.179906249046326,-0.2522600889205933,-0.07191774249076843,-0.2164045423269272,0.1863233000040054,0.1793503314256668,XTrueNorthZVertical,-0.5308298350809404,-0.1268956387185684,-0.4548291628803884,-0.70373836537969,-0.3042711317539215,-0.8625622987747192,-0.404234379529953,0.6153144836425781,-32.85138702392578,6.322784423828125,2,0.0.0.0,10.71.35.210,1,0
2015-03-15 18:33:32.908,83,1426469611.310055,37.28696881952604,-121.9047568128931,44.81797,-1,-1,10,65,-9999,1426469612.856326,0.6835222244262695,-32.13763427734375,10.28349685668945,202.2204742431641,188.642578125,10,438597.72467625,-0.1801910400390625,-0.8680419921875,-0.3321533203125,438597.7171812084,-0.1305843756265093,1.691314752449233,0.2511070623385903,438597.7171812084,1.589470702111652,-0.5975199635065563,1.076422147422403,-0.1472517997026443,1.707015156745911,0.2846604585647583,0.1208982020616531,0.03967439010739326,0.05733883008360863,XTrueNorthZVertical,-0.5235214514971481,-0.1725997229419824,-0.4799534878843007,-0.6824802899585962,-0.2669400870800018,-0.8802658319473267,-0.3922692537307739,0.2531294822692871,-32.24332427978516,8.937203407287598,2,0.0.0.0,10.71.35.210,1,0
2015-03-15 18:33:32.914,84,1426469611.310055,37.28696881952604,-121.9047568128931,44.81797,-1,-1,10,65,-9999,1426469612.856326,0.6835222244262695,-32.13763427734375,10.28349685668945,202.2204742431641,188.642578125,10,438597.7737234167,-0.1622467041015625,-0.878509521484375,-0.2440338134765625,438597.7689542084,-0.04956142788637462,0.5146742564693343,0.4396831022821201,438597.7171812084,1.589470702111652,-0.5975199635065563,1.076422147422403,-0.1472517997026443,1.707015156745911,0.2846604585647583,0.1208982020616531,0.03967439010739326,0.05733883008360863,XTrueNorthZVertical,-0.5235214514971481,-0.1725997229419824,-0.4799534878843007,-0.6824802899585962,-0.2669400870800018,-0.8802658319473267,-0.3922692537307739,0.2531294822692871,-32.24332427978516,8.937203407287598,2,0.0.0.0,10.71.35.210,1,0
2015-03-15 18:33:33.006,85,1426469612.904013,37.28689391169444,-121.9047439658287,43.4422,0.58,230.625,6,30,-9999,1426469612.91472,0.1378641128540039,-32.61346435546875,10.71617889404297,199.6827697753906,186.1048736572266,10,438597.8227946667,-0.406341552734375,-1.04290771484375,-0.1568450927734375,438597.8207248333,-0.1351080210541179,0.02009035463133976,0.1856628080270921,438597.7689542084,1.623380822142494,-0.5750662328246229,1.062153231317673,-0.06622868031263351,0.5303745269775391,0.4732361733913422,0.1445092856884003,0.002434434136375785,0.1624013483524323,XTrueNorthZVertical,-0.5116658564750005,-0.1840287461444023,-0.5009952938052952,-0.6733017590551612,-0.2648706138134003,-0.8734061121940613,-0.4086629450321198,-0.8032102584838867,-32.28471374511719,8.753376960754395,2,0.0.0.0,10.71.35.210,1,0
2015-03-15 18:33:31.175,86,1426469612.904013,37.28689391169444,-121.9047439658287,43.4422,0.58,230.625,6,30,-9999,1426469613.000011,-1.072812080383301,-32.39254760742188,9.93402099609375,197.1287231445312,183.5508270263672,10,438597.871845625,-0.29412841796875,-0.861083984375,-0.3673248291015625,438597.8207248333,-0.1351080210541179,0.02009035463133976,0.1856628080270921,438597.8207248333,1.64800210750013,-0.5897278242486153,1.051326445028897,-0.151775136590004,0.03579051420092583,0.2192155569791794,-0.09626845270395279,-0.1602378487586975,0.2695349156856537,XTrueNorthZVertical,-0.5106243750254081,-0.1815966395442734,-0.5083374557004177,-0.6692372602595953,-0.2760765254497528,-0.8680824637413025,-0.4125708043575287,-1.662883281707764,-32.27452087402344,8.669466972351074,2,0.0.0.0,10.71.35.210,1,0
2015-03-15 18:33:31.566,87,1426469612.904013,37.28689391169444,-121.9047439658287,43.4422,0.58,230.625,6,30,-9999,1426469613.000011,-1.072812080383301,-32.39254760742188,9.93402099609375,197.1287231445312,183.5508270263672,10,438597.9209275417,-0.206573486328125,-0.8038787841796875,-0.2195892333984375,438597.92427075,-0.4626440782524562,-0.2717699966042971,-0.1134069865954982,438597.87249775,1.657188797556587,-0.5791186530562402,1.031292834694299,-0.3422527313232422,0.4690024852752686,0.3639681041240692,-0.01298178359866142,-0.003120136214420199,0.06262248009443283,XTrueNorthZVertical,-0.5024846182394237,-0.1803761490737463,-0.5192994921267733,-0.6673093450616333,-0.2811466455459595,-0.8579638600349426,-0.4299473166465759,-2.254773616790771,-32.32128524780273,8.355839729309082,2,0.0.0.0,10.71.35.210,1,0
2015-03-15 18:33:31.573,88,1426469612.904013,37.28689391169444,-121.9047439658287,43.4422,0.58,230.625,6,30,-9999,1426469613.000011,-1.072812080383301,-32.39254760742188,9.93402099609375,197.1287231445312,183.5508270263672,10,438597.969969625,-0.3729095458984375,-0.9681854248046875,-0.3715667724609375,438597.92427075,-0.4626440782524562,-0.2717699966042971,-0.1134069865954982,438597.92427075,1.648122646057709,-0.5690160903079896,1.010161786870884,-0.4793108403682709,-0.2560701668262482,-0.07985494285821915,0.07992111146450043,0.04303909838199615,0.2283516377210617,XTrueNorthZVertical,-0.495735780037674,-0.173998851306083,-0.5241981296352736,-0.67021401676859,-0.2864946126937866,-0.8469178676605225,-0.4479408860206604,-2.84307336807251,-32.41296005249023,7.80299186706543,2,0.0.0.0,10.71.35.210,1,0
2015-03-15 18:33:31.578,89,1426469612.904013,37.28689391169444,-121.9047439658287,43.4422,0.58,230.625,6,30,-9999,1426469613.000011,-1.072812080383301,-32.39254760742188,9.93402099609375,197.1287231445312,183.5508270263672,10,438598.019051375,-0.3884124755859375,-1.031158447265625,-0.4444580078125,438598.027814375,-0.6173471059751592,-0.1135188393612816,-0.464516280498782,438597.976041375,1.606353852639387,-0.550129226469439,0.9954035334312266,-0.6547910571098328,-0.09093884378671646,-0.2378383427858353,-0.08842179179191589,-0.1292068064212799,0.09231000393629074,XTrueNorthZVertical,-0.4907906868529646,-0.1648821197760802,-0.5184563964415971,-0.6805449467279434,-0.2844877541065216,-0.83897864818573,-0.4638767838478088,-2.659094333648682,-32.54960632324219,7.281615257263184,2,0.0.0.0,10.71.35.210,1,0
2015-03-15 18:33:31.581,90,1426469612.904013,37.28689391169444,-121.9047439658287,43.4422,0.58,230.625,6,30,-9999,1426469613.000011,-1.072812080383301,-32.39254760742188,9.93402099609375,197.1287231445312,183.5508270263672,10,438598.0681113334,-0.215087890625,-0.9751434326171875,-0.5915985107421875,438598.027814375,-0.6173471059751592,-0.1135188393612816,-0.464516280498782,438598.027814375,1.553635659784256,-0.5109228088123229,0.9761185141941979,-0.6339870691299438,-0.09781502187252045,-0.4309698045253754,-0.1144639998674393,-0.2028294056653976,0.04423750191926956,XTrueNorthZVertical,-0.4800098789563791,-0.1588797070737519,-0.514571363910739,-0.6925056949073324,-0.273948460817337,-0.8283290266990662,-0.488695502281189,-2.083940505981445,-32.83729553222656,6.077728271484375,2,0.0.0.0,10.71.35.210,1,0
2015-03-15 18:33:31.584,91,1426469612.904013,37.28689391169444,-121.9047439658287,43.4422,0.58,230.625,6,30,-9999,1426469613.000011,-1.072812080383301,-32.39254760742188,9.93402099609375,197.1287231445312,183.5508270263672,10,438598.117201625,-0.14288330078125,-0.94482421875,-0.5834808349609375,438598.079587375,-0.7016145828713375,0.2042886903749973,-0.5164231543571893,438598.079587375,1.487778514803146,-0.4497447174284822,0.9559109956025212,-0.7182543277740479,0.2199923396110535,-0.4828770458698273,0.06563360244035721,-0.1186004653573036,-0.09361302107572556,XTrueNorthZVertical,-0.46401168077901,-0.1579334312742948,-0.5106619441327226,-0.706381371111072,-0.2507837414741516,-0.8168395757675171,-0.5195003747940063,-1.433897972106934,-33.03643798828125,5.109537124633789,2,0.0.0.0,10.71.35.210,1,0
2015-03-15 18:33:31.587,92,1426469612.904013,37.28689391169444,-121.9047439658287,43.4422,0.58,230.625,6,30,-9999,1426469613.000011,-1.072812080383301,-32.39254760742188,9.93402099609375,197.1287231445312,183.5508270263672,10,438598.166251125,-0.1700897216796875,-0.94097900390625,-0.5945587158203125,438598.131358,-0.6121787092476424,0.03573882288053636,-0.5588105588991086,438598.131358,1.423197672540399,-0.3924477009302079,0.9375227532068694,-0.6288182735443115,0.05144231021404266,-0.5252647399902344,0.08739827573299408,-0.1574064046144485,-0.02647609077394009,XTrueNorthZVertical,-0.4491647743937716,-0.1576473868155289,-0.5047137165298333,-0.7201822286562437,-0.2263295501470566,-0.8060945868492126,-0.5467966198921204,-0.7267289161682129,-33.20596694946289,4.050341606140137,2,0.0.0.0,10.71.35.210,1,0
2015-03-15 18:33:31.596,93,1426469612.904013,37.28689391169444,-121.9047439658287,43.4422,0.58,230.625,6,30,-9999,1426469613.000011,-1.072812080383301,-32.39254760742188,9.93402099609375,197.1287231445312,183.5508270263672,10,438598.2153336667,-0.1485443115234375,-1.03118896484375,-0.58294677734375,438598.1831310417,-0.5670000455672112,-0.1294373521450122,-0.6379003180039547,438598.1831310417,1.364643893717139,-0.3456748228755344,0.9188147413705586,-0.5836394429206848,-0.1137340068817139,-0.6043547987937927,0.01139182969927788,-0.1632316112518311,-0.04453127458691597,XTrueNorthZVertical,-0.4362175987002929,-0.1558163457947767,-0.4976077260038428,-0.7333635491624872,-0.2055904418230057,-0.7948830127716064,-0.5708709359169006,0.2964911460876465,-33.34027862548828,2.812041282653809,2,0.0.0.0,10.71.35.210,1,0
2015-03-15 18:33:31.656,94,1426469612.904013,37.28689391169444,-121.9047439658287,43.4422,0.58,230.625,6,30,-9999,1426469613.000011,-1.072812080383301,-32.39254760742188,9.93402099609375,197.1287231445312,183.5508270263672,10,438598.2643731667,-0.013214111328125,-0.99078369140625,-0.6503448486328125,438598.2349040417,-0.6259669594754187,0.2849201534348904,-0.5222639992599512,438598.2349040417,1.303778866189134,-0.2944876261863246,0.8983228617293932,-0.642606258392334,0.30062335729599,-0.4887188673019409,0.0735032930970192,-0.2329907715320587,-0.003563740290701389,XTrueNorthZVertical,-0.4216158023838779,-0.1555209960192746,-0.4899583754430836,-0.7469900913413434,-0.1808031052350998,-0.7822833061218262,-0.5961066484451294,1.199330806732178,-33.38310623168945,1.923380851745605,2,0.0.0.0,10.71.35.210,1,0
2015-03-15 18:33:31.664,95,1426469612.904013,37.28689391169444,-121.9047439658287,43.4422,0.58,230.625,6,30,-9999,1426469613.000011,-1.072812080383301,-32.39254760742188,9.93402099609375,197.1287231445312,183.5508270263672,10,438598.3134555417,-0.0324859619140625,-0.94635009765625,-0.6655731201171875,438598.28667475,-0.6198901585000759,0.1093485954103265,-0.3783968413805626,438598.28667475,1.259429677943919,-0.2473595917848789,0.8727189054168741,-0.636529266834259,0.1250516176223755,-0.3448520600795746,0.1344085335731506,-0.2063785493373871,-0.05102724209427834,XTrueNorthZVertical,-0.4048124153542551,-0.1566388594802463,-0.4875152348041171,-0.7575751732740921,-0.1573730111122131,-0.766079306602478,-0.6231823563575745,1.929111957550049,-33.3902473449707,0.9692964553833008,2,0.0.0.0,10.71.35.210,1,0
2015-03-15 18:33:31.669,96,1426469612.904013,37.28689391169444,-121.9047439658287,43.4422,0.58,230.625,6,30,-9999,1426469613.000011,-1.072812080383301,-32.39254760742188,9.93402099609375,197.1287231445312,183.5508270263672,10,438598.36250675,-0.1155853271484375,-0.8755950927734375,-0.5765838623046875,438598.33844775,-0.5850517503840953,-0.1364638363650773,-0.09703200800092804,438598.33844775,1.232238125284876,-0.2286743267716266,0.8455871005176955,-0.6016907095909119,-0.1207609623670578,-0.06348753720521927,0.07791066914796829,-0.170615166425705,0.03442231193184853,XTrueNorthZVertical,-0.3928015615582959,-0.1506465581046687,-0.4853433446838478,-0.7664557761484211,-0.1503593921661377,-0.7483606338500977,-0.6460251212120056,2.58653450012207,-33.35861206054688,-0.2869634628295898,2,0.0.0.0,10.71.35.210,1,0
2015-03-15 18:33:31.717,97,1426469612.904013,37.28689391169444,-121.9047439658287,43.4422,0.58,230.625,6,30,-9999,1426469613.000011,-1.072812080383301,-32.39254760742188,9.93402099609375,197.1287231445312,183.5508270263672,10,438598.411592875,-0.1374969482421875,-0.7308807373046875,-0.5440521240234375,438598.3902207917,-0.8983385641699647,0.1059155144491054,0.1530622541751051,438598.3902207917,1.226748726785533,-0.2254482120044354,0.8074984600432913,-0.9149773120880127,0.1216182336211205,0.1866063922643661,0.02566153928637505,-0.0846603587269783,0.1028910502791405,XTrueNorthZVertical,-0.3787578133460783,-0.1401269669943515,-0.4898502924330447,-0.7726277979759233,-0.1545372754335403,-0.7225601077079773,-0.6738138794898987,2.631608486175537,-33.33251953125,-1.259986877441406,2,0.0.0.0,10.71.35.210,1,0
2015-03-15 18:33:31.767,98,1426469612.904013,37.28689391169444,-121.9047439658287,43.4422,0.58,230.625,6,30,-9999,1426469613.000011,-1.072812080383301,-32.39254760742188,9.93402099609375,197.1287231445312,183.5508270263672,10,438598.4606388333,-0.0988922119140625,-0.7891387939453125,-0.615631103515625,438598.4419915,-1.191892685858892,0.3096846220954282,0.1472219419045614,438598.3902207917,1.226748726785533,-0.2254482120044354,0.8074984600432913,-0.9149773120880127,0.1216182336211205,0.1866063922643661,0.02566153928637505,-0.0846603587269783,0.1028910502791405,XTrueNorthZVertical,-0.3787578133460783,-0.1401269669943515,-0.4898502924330447,-0.7726277979759233,-0.1545372754335403,-0.7225601077079773,-0.6738138794898987,2.631608486175537,-33.33251953125,-1.259986877441406,2,0.0.0.0,10.71.35.210,1,0
2015-03-15 18:33:31.821,99,1426469612.904013,37.28689391169444,-121.9047439658287,43.4422,0.58,230.625,6,30,-9999,1426469613.000011,-1.072812080383301,-32.39254760742188,9.93402099609375,197.1287231445312,183.5508270263672,10,438598.5097193751,-0.0893096923828125,-0.7317047119140625,-0.9403228759765625,438598.4937645,-0.951553582755819,0.6094676112579418,0.5306497609003926,438598.4937645,1.228747695802545,-0.1953455013742997,0.6897402325081334,-0.9681919813156128,0.6251699924468994,0.5641931891441345,-0.04711846634745598,-0.3394474983215332,-0.1263322681188583,XTrueNorthZVertical,-0.327839414125766,-0.1189600890803949,-0.5129802919804621,-0.7843603171010765,-0.1497351676225662,-0.6363368034362793,-0.756739616394043,2.021270513534546,-33.02313995361328,-4.995647430419922,2,0.0.0.0,10.71.35.210,1,0
2015-03-15 18:33:31.867,100,1426469612.904013,37.28689391169444,-121.9047439658287,43.4422,0.58,230.625,6,30,-9999,1426469613.000011,-1.072812080383301,-32.39254760742188,9.93402099609375,197.1287231445312,183.5508270263672,10,438598.5587755833,-0.05572509765625,-0.553253173828125,-0.9095458984375,438598.5455375834,-0.416992703478536,0.1975530233459689,0.9315159587140628,438598.5455375834,1.27948702926869,-0.1943218453203381,0.6487229411542095,-0.4336309731006622,0.2132552713155746,0.9650590419769287,0.08983270823955536,0.04899348691105843,-0.1806203573942184,XTrueNorthZVertical,-0.3093666808506043,-0.1155989509577608,-0.5383874925589122,-0.7752858301456793,-0.1538738459348679,-0.6041692495346069,-0.7818582653999329,1.179253101348877,-32.83687591552734,-6.318113327026367,2,0.0.0.0,10.71.35.210,1,0
2015-03-15 18:33:31.915,101,1426469612.904013,37.28689391169444,-121.9047439658287,43.4422,0.58,230.625,6,30,-9999,1426469613.000011,-1.072812080383301,-32.39254760742188,9.93402099609375,197.1287231445312,183.5508270263672,10,438598.6078665833,-0.0814361572265625,-0.5968475341796875,-0.7321929931640625,438598.5973082917,-0.3767105277783244,-0.3856947017157067,0.699079519829691,438598.5455375834,1.27948702926869,-0.1943218453203381,0.6487229411542095,-0.4336309731006622,0.2132552713155746,0.9650590419769287,0.08983270823955536,0.04899348691105843,-0.1806203573942184,XTrueNorthZVertical,-0.3093666808506043,-0.1155989509577608,-0.5383874925589122,-0.7752858301456793,-0.1538738459348679,-0.6041692495346069,-0.7818582653999329,1.179253101348877,-32.83687591552734,-6.318113327026367,2,0.0.0.0,10.71.35.210,1,0
2015-03-15 18:33:31.966,102,1426469612.904013,37.28689391169444,-121.9047439658287,43.4422,0.58,230.625,6,30,-9999,1426469613.000011,-1.072812080383301,-32.39254760742188,9.93402099609375,197.1287231445312,183.5508270263672,10,438598.656921125,-0.1605987548828125,-0.4764556884765625,-0.6120452880859375,438598.6490813334,-0.4946627314062609,-0.1806057314331407,0.6672033457942056,438598.5973082917,1.323261850181807,-0.2262435503451767,0.6212023977306199,-0.3933523297309875,-0.369990736246109,0.7326196432113647,0.1164015457034111,-0.003618978429585695,-0.009469541721045971,XTrueNorthZVertical,-0.3056348104871649,-0.1017806651778335,-0.554046090248786,-0.767633415079144,-0.1824110597372055,-0.5820133686065674,-0.7924560904502869,-0.1582989692687988,-32.72175598144531,-6.98792552947998,2,0.0.0.0,10.71.35.210,1,0
2015-03-15 18:33:32.016,103,1426469612.904013,37.28689391169444,-121.9047439658287,43.4422,0.58,230.625,6,30,-9999,1426469613.000011,-1.072812080383301,-32.39254760742188,9.93402099609375,197.1287231445312,183.5508270263672,10,438598.705993125,-0.0285186767578125,-0.43743896484375,-0.66650390625,438598.7008544167,-0.7146741922248681,0.610082268837532,0.2818974655976504,438598.7008544167,1.378691561633143,-0.2640833387437422,0.5549256962974393,-0.7311916351318359,0.6257491707801819,0.315333366394043,0.1450423151254654,0.08481776714324951,0.1959165632724762,XTrueNorthZVertical,-0.2900672504635535,-0.07499309656654167,-0.5785529109598618,-0.7586261438596407,-0.2218550592660904,-0.526880145072937,-0.8204740285873413,-0.1423568725585938,-28.11434745788574,-10.76929187774658,2,0.0.0.0,10.71.35.210,1,0
2015-03-15 18:33:32.064,104,1426469612.904013,37.28689391169444,-121.9047439658287,43.4422,0.58,230.625,6,30,-9999,1426469613.000011,-1.072812080383301,-32.39254760742188,9.93402099609375,197.1287231445312,183.5508270263672,10,438598.7550366667,0.036224365234375,-0.51104736328125,-0.840911865234375,438598.7008544167,-0.7146741922248681,0.610082268837532,0.2818974655976504,438598.7008544167,1.378691561633143,-0.2640833387437422,0.5549256962974393,-0.7311916351318359,0.6257491707801819,0.315333366394043,0.1450423151254654,0.08481776714324951,0.1959165632724762,XTrueNorthZVertical,-0.2900672504635535,-0.07499309656654167,-0.5785529109598618,-0.7586261438596407,-0.2218550592660904,-0.526880145072937,-0.8204740285873413,-0.1423568725585938,-28.11434745788574,-10.76929187774658,2,0.0.0.0,10.71.35.210,1,0
2015-03-15 18:33:32.113,105,1426469612.904013,37.28689391169444,-121.9047439658287,43.4422,0.58,230.625,6,30,-9999,1426469613.000011,-1.072812080383301,-32.39254760742188,9.93402099609375,197.1287231445312,183.5508270263672,10,438598.80411125,0.09722900390625,-0.398834228515625,-0.9986572265625,438598.80439825,-0.8205585476892194,-0.2188196962307966,-0.4382519195123115,438598.7526251667,1.371485892090055,-0.223551818567167,0.5124701472066551,-0.8813194632530212,0.6364821195602417,-0.05897127464413643,0.2253954708576202,-0.007547465618699789,0.02032003924250603,XTrueNorthZVertical,-0.263254234212439,-0.07597884330511867,-0.586871355655926,-0.7619097759586868,-0.1932146847248077,-0.4903315603733063,-0.8498488664627075,-0.2427105903625488,-27.74153327941895,-11.69456577301025,2,0.0.0.0,10.71.35.210,1,0
2015-03-15 18:33:32.163,106,1426469612.904013,37.28689391169444,-121.9047439658287,43.4422,0.58,230.625,6,30,-9999,1426469613.000011,-1.072812080383301,-32.39254760742188,9.93402099609375,197.1287231445312,183.5508270263672,10,438598.8531599584,-0.03021240234375,-0.359222412109375,-0.879638671875,438598.8561713333,-0.6147273544108482,-1.183012108887914,-0.8901091300855108,438598.80439825,1.347770061778219,-0.1973216796859495,0.4718605455698174,-0.8370768427848816,-0.2031518965959549,-0.4048183858394623,0.2718498408794403,0.0557100772857666,-0.1252174377441406,XTrueNorthZVertical,-0.2415272066658633,-0.07031868290877229,-0.5857973661652174,-0.7704293662105937,-0.1746208518743515,-0.4545443058013916,-0.8734397888183594,0.3415999412536621,-27.07879638671875,-13.15433692932129,2,0.0.0.0,10.71.35.210,1,0
2015-03-15 18:33:32.213,107,1426469612.904013,37.28689391169444,-121.9047439658287,43.4422,0.58,230.625,6,30,-9999,1426469613.000011,-1.072812080383301,-32.39254760742188,9.93402099609375,197.1287231445312,183.5508270263672,10,438598.9022403334,-0.0764312744140625,-0.436767578125,-0.6644744873046875,438598.8561713333,-0.6147273544108482,-1.183012108887914,-0.8901091300855108,438598.8561713333,1.304409899162344,-0.2173414234126357,0.4436689992036437,-0.631248950958252,-1.167342662811279,-0.8566782474517822,0.1645448356866837,0.0700337141752243,0.00229602656327188,XTrueNorthZVertical,-0.2380423203200723,-0.04866728373846585,-0.5696101672523546,-0.7851825761213136,-0.1947572380304337,-0.4292561113834381,-0.8819347023963928,0.6999239921569824,-26.58124542236328,-14.11955547332764,2,0.0.0.0,10.71.35.210,1,0
2015-03-15 18:33:32.259,108,1426469612.904013,37.28689391169444,-121.9047439658287,43.4422,0.58,230.625,6,30,-9999,1426469613.000011,-1.072812080383301,-32.39254760742188,9.93402099609375,197.1287231445312,183.5508270263672,10,438598.9512976667,-0.0126800537109375,-0.2703704833984375,-0.6107177734375,438598.9079420834,-0.1625257971087017,-1.246142076212133,-1.132746008577104,438598.9079420834,1.243379494044108,-0.255848665396217,0.4375816364935028,-0.1790472269058228,-1.230472683906555,-1.099315404891968,0.1527911126613617,-0.01301737502217293,0.2118204832077026,XTrueNorthZVertical,-0.2475268029961104,-0.02414528350563098,-0.5413705071540238,-0.8031597178135584,-0.2292223870754242,-0.4237501919269562,-0.8762949705123901,0.978456974029541,-26.1528434753418,-14.882399559021,2,0.0.0.0,10.71.35.210,1,0
2015-03-15 18:33:32.317,109,1426469612.904013,37.28689391169444,-121.9047439658287,43.4422,0.58,230.625,6,30,-9999,1426469613.000011,-1.072812080383301,-32.39254760742188,9.93402099609375,197.1287231445312,183.5508270263672,10,438599.0003809167,-0.010498046875,-0.23297119140625,-0.6409912109375,438599.0114882917,0.6100777414636789,-1.472798123950488,-1.2446155522753,438598.9597151667,1.185979343197701,-0.2861024754076223,0.4584948815896909,0.2722061574459076,-0.9134640097618103,-1.083664059638977,0.2403879463672638,0.1722284555435181,0.2495512515306473,XTrueNorthZVertical,-0.2641095625544607,-0.01056547827189301,-0.5117973705694971,-0.8174338091649557,-0.2530680000782013,-0.4425989389419556,-0.8602690100669861,1.581005096435547,-25.95492362976074,-15.17421531677246,2,0.0.0.0,10.71.35.210,5,0
2015-03-15 18:33:32.370,110,1426469612.904013,37.28689391169444,-121.9047439658287,43.4422,0.58,230.625,6,30,-9999,1426469613.000011,-1.072812080383301,-32.39254760742188,9.93402099609375,197.1287231445312,183.5508270263672,10,438599.0494394167,-0.2524566650390625,-0.42034912109375,-0.4961395263671875,438599.0114882917,0.6100777414636789,-1.472798123950488,-1.2446155522753,438599.0114882917,1.131558073436336,-0.3183752142699032,0.4963441908934543,0.5935566425323486,-1.457129120826721,-1.211185693740845,0.2166725695133209,0.1807428747415543,0.2182871252298355,XTrueNorthZVertical,-0.2871070281415434,-0.0002971156608668995,-0.4802104412015892,-0.8288350074210141,-0.2752510607242584,-0.4762140810489655,-0.8351389169692993,2.209747314453125,-26.06758117675781,-14.90008735656738,2,0.0.0.0,10.71.35.210,5,0
2015-03-15 18:33:32.397,111,1426469612.904013,37.28689391169444,-121.9047439658287,43.4422,0.58,230.625,6,30,-9999,1426469613.000011,-1.072812080383301,-32.39254760742188,9.93402099609375,197.1287231445312,183.5508270263672,10,438599.0985219583,-0.3995208740234375,-0.6644287109375,-0.4227294921875,438599.0632590834,0.9333175871915014,-1.724359255254937,-1.377067602774281,438599.0632590834,1.077477188309076,-0.3731054591740309,0.5535081602697289,0.9167966842651367,-1.708690404891968,-1.343638062477112,0.04416764155030251,0.06176183372735977,0.2966139018535614,XTrueNorthZVertical,-0.3219998778178506,0.01539176141722888,-0.4414682140925822,-0.8373679355953827,-0.3100825548171997,-0.5256748199462891,-0.7921583652496338,2.696971416473389,-26.32604598999023,-14.35548973083496,2,0.0.0.0,10.71.35.210,5,0
2015-03-15 18:33:32.445,112,1426469612.904013,37.28689391169444,-121.9047439658287,43.4422,0.58,230.625,6,30,-9999,1426469613.000011,-1.072812080383301,-32.39254760742188,9.93402099609375,197.1287231445312,183.5508270263672,10,438599.1475644584,-0.2599639892578125,-0.6313018798828125,-0.608428955078125,438599.115032125,1.094221252880236,-0.518697493928117,-1.305043210041416,438599.115032125,1.02660389871042,-0.4062344730846693,0.6282596865084109,1.07770049571991,-0.5030287504196167,-1.271613955497742,-0.1066618636250496,-0.09960976988077164,0.37006875872612,XTrueNorthZVertical,-0.3578457339016757,0.01851603464985693,-0.4031282105634885,-0.8420755929776724,-0.319699227809906,-0.5877376198768616,-0.7432071566581726,2.022784233093262,-24.24596405029297,-15.77115631103516,2,0.0.0.0,10.71.35.210,5,0
2015-03-15 18:33:32.501,113,1426469612.904013,37.28689391169444,-121.9047439658287,43.4422,0.58,230.625,6,30,-9999,1426469613.000011,-1.072812080383301,-32.39254760742188,9.93402099609375,197.1287231445312,183.5508270263672,10,438599.1966629584,-0.029327392578125,-0.5796051025390625,-0.658843994140625,438599.1668052084,1.210221093113035,-0.36953623811776,-0.9078042376324333,438599.1668052084,0.9959767374225453,-0.3951556622123411,0.7013991575914352,1.193700432777405,-0.3538676500320435,-0.8743753433227539,0.07418575137853622,0.02043977938592434,0.04785702005028725,XTrueNorthZVertical,-0.3840113813938299,0.001047575522742031,-0.3806106692930327,-0.8412310926359291,-0.2940801680088043,-0.6452872157096863,-0.7050683498382568,3.050360679626465,-24.87310409545898,-14.58464336395264,2,0.0.0.0,10.71.35.210,5,0
2015-03-15 18:33:32.582,114,1426469612.904013,37.28689391169444,-121.9047439658287,43.4422,0.58,230.625,6,30,-9999,1426469613.000011,-1.072812080383301,-32.39254760742188,9.93402099609375,197.1287231445312,183.5508270263672,10,438599.24571975,-0.279449462890625,-0.6218414306640625,-0.4831085205078125,438599.2185760834,1.234410585294225,-1.694267665465913,-0.7496377689120823,438599.2185760834,0.9788387644793024,-0.4379140815367437,0.773698101400919,1.21789014339447,-1.678598761558533,-0.716209888458252,0.2770768404006958,0.08614499866962433,0.06419801712036133,XTrueNorthZVertical,-0.4196007049573801,0.004419085690332608,-0.3526507855288236,-0.8363929786879118,-0.3033372163772583,-0.6987853646278381,-0.6478314399719238,3.804055213928223,-25.48059844970703,-13.30248832702637,2,0.0.0.0,10.71.35.210,5,0
2015-03-15 18:33:32.598,115,1426469612.904013,37.28689391169444,-121.9047439658287,43.4422,0.58,230.625,6,30,-9999,1426469613.000011,-1.072812080383301,-32.39254760742188,9.93402099609375,197.1287231445312,183.5508270263672,10,438599.2948163333,-0.487762451171875,-0.7886199951171875,-0.3542327880859375,438599.2703492084,0.9016725755386349,-1.910555228132263,-0.761928523658907,438599.2703492084,0.96904447005475,-0.5311235839353921,0.8348651942637039,0.885152280330658,-1.894886493682861,-0.7285009622573853,-0.01963061839342117,0.04926571995019913,0.2135213017463684,XTrueNorthZVertical,-0.4579238362948283,0.03008382443981732,-0.3167093592712221,-0.8301180498349112,-0.3400037884712219,-0.7412060499191284,-0.5788014531135559,3.680700302124023,-26.19603729248047,-11.87046432495117,2,0.0.0.0,10.71.35.210,5,0
2015-03-15 18:33:32.655,116,1426469612.904013,37.28689391169444,-121.9047439658287,43.4422,0.58,230.625,6,30,-9999,1426469613.000011,-1.072812080383301,-32.39254760742188,9.93402099609375,197.1287231445312,183.5508270263672,10,438599.343868375,-0.7338104248046875,-0.8775177001953125,-0.3868408203125,438599.3221222917,0.9621721386541829,-1.122374860344008,-0.3599272865886451,438599.3221222917,0.9715053639990223,-0.6061405488811609,0.8863479977331017,0.9456520676612854,-1.106706261634827,-0.3265000581741333,-0.2023554891347885,0.02669056318700314,0.1295678019523621,XTrueNorthZVertical,-0.4878021524290573,0.04735580914071269,-0.2893746572440682,-0.8222340703368403,-0.3601902723312378,-0.7747679352760315,-0.5196129679679871,3.562478065490723,-26.54406929016113,-11.10896301269531,2,0.0.0.0,10.71.35.210,5,0
2015-03-15 18:33:32.688,117,1426469612.904013,37.28689391169444,-121.9047439658287,43.4422,0.58,230.625,6,30,-9999,1426469613.000011,-1.072812080383301,-32.39254760742188,9.93402099609375,197.1287231445312,183.5508270263672,10,438599.3930570417,-0.5296783447265625,-0.9524383544921875,-0.6519775390625,438599.3738930834,0.8767656277597778,-0.3814517534669925,-0.03353319286573272,438599.3738930834,1.002072090750512,-0.6654905580099711,0.9318392141597112,0.8602457046508789,-0.365783303976059,-0.0001063110757968388,-0.2551485598087311,-0.2004099190235138,-0.1408660113811493,XTrueNorthZVertical,-0.5125854201143567,0.05200140123961857,-0.2768924852019504,-0.8110996635713733,-0.3682187497615814,-0.8027181029319763,-0.4691040813922882,3.453775405883789,-26.94361877441406,-10.13906860351562,2,0.0.0.0,10.71.35.210,5,0
2015-03-15 18:33:32.754,118,1426469612.904013,37.28689391169444,-121.9047439658287,43.4422,0.58,230.625,6,30,-9999,1426469613.000011,-1.072812080383301,-32.39254760742188,9.93402099609375,197.1287231445312,183.5508270263672,10,438599.4420081667,-0.569183349609375,-0.937408447265625,-0.4791412353515625,438599.4256662501,0.4714511519773483,-0.7119124941744558,0.6360699273867433,438599.3738930834,1.002072090750512,-0.6654905580099711,0.9318392141597112,0.8602457046508789,-0.365783303976059,-0.0001063110757968388,-0.2551485598087311,-0.2004099190235138,-0.1408660113811493,XTrueNorthZVertical,-0.5125854201143567,0.05200140123961857,-0.2768924852019504,-0.8110996635713733,-0.3682187497615814,-0.8027181029319763,-0.4691040813922882,3.453775405883789,-26.94361877441406,-10.13906860351562,2,0.0.0.0,10.71.35.210,5,0
2015-03-15 18:33:32.786,119,1426469612.904013,37.28689391169444,-121.9047439658287,43.4422,0.58,230.625,6,30,-9999,1426469613.000011,-1.072812080383301,-32.39254760742188,9.93402099609375,197.1287231445312,183.5508270263672,10,438599.4910948334,-1.587890625,-0.8926544189453125,-0.0171051025390625,438599.477439375,1.116174222377977,-1.616856230480035,1.511558569403828,438599.477439375,1.166790544986615,-0.8864098444363185,0.9259361724501209,1.09965455532074,-1.601188063621521,1.544984817504883,-0.6098810434341431,0.2581377029418945,0.3755806684494019,XTrueNorthZVertical,-0.5480845824931866,0.09798181674167222,-0.2854089162196763,-0.7800927353944427,-0.4657262563705444,-0.7991838455200195,-0.3800057172775269,1.899752616882324,-27.70055198669434,-8.352144241333008,2,0.0.0.0,10.71.35.210,5,0
2015-03-15 18:33:32.848,120,1426469612.904013,37.28689391169444,-121.9047439658287,43.4422,0.58,230.625,6,30,-9999,1426469613.000011,-1.072812080383301,-32.39254760742188,9.93402099609375,197.1287231445312,183.5508270263672,10,438599.5401442084,0.48150634765625,-1.57794189453125,-0.3170928955078125,438599.5292102083,-0.4748003433642319,3.880064320683391,1.597046040395372,438599.477439375,1.166790544986615,-0.8864098444363185,0.9259361724501209,1.09965455532074,-1.601188063621521,1.544984817504883,-0.6098810434341431,0.2581377029418945,0.3755806684494019,XTrueNorthZVertical,-0.5480845824931866,0.09798181674167222,-0.2854089162196763,-0.7800927353944427,-0.4657262563705444,-0.7991838455200195,-0.3800057172775269,1.899752616882324,-27.70055198669434,-8.352144241333008,2,0.0.0.0,10.71.35.210,5,0
2015-03-15 18:33:32.885,121,1426469612.904013,37.28689391169444,-121.9047439658287,43.4422,0.58,230.625,6,30,-9999,1426469613.000011,-1.072812080383301,-32.39254760742188,9.93402099609375,197.1287231445312,183.5508270263672,10,438599.5892352917,-0.5091705322265625,-0.9674835205078125,-0.07208251953125,438599.5809833333,0.1370033928019273,-1.837828826136052,0.7531645931436742,438599.5809833333,1.320457602422146,-0.8634283032617759,0.8366513889717421,0.1204841285943985,-1.822160959243774,0.7865901589393616,0.5766427516937256,-0.1182376071810722,-0.008412323892116547,XTrueNorthZVertical,-0.5259159359882476,0.07571597761823717,-0.3747372705977159,-0.759770734026718,-0.5092141628265381,-0.7424038648605347,-0.4353590309619904,-0.8246040344238281,-30.73598480224609,-2.822630882263184,2,0.0.0.0,10.71.35.210,5,0
2015-03-15 18:33:32.955,122,1426469612.904013,37.28689391169444,-121.9047439658287,43.4422,0.58,230.625,6,30,-9999,1426469613.000011,-1.072812080383301,-32.39254760742188,9.93402099609375,197.1287231445312,183.5508270263672,10,438599.638295625,-1.099822998046875,-0.675323486328125,0.1015167236328125,438599.6327564584,0.4272749021312229,0.104257696670531,0.8540709678984495,438599.5809833333,1.320457602422146,-0.8634283032617759,0.8366513889717421,0.1204841285943985,-1.822160959243774,0.7865901589393616,0.5766427516937256,-0.1182376071810722,-0.008412323892116547,XTrueNorthZVertical,-0.5259159359882476,0.07571597761823717,-0.3747372705977159,-0.759770734026718,-0.5092141628265381,-0.7424038648605347,-0.4353590309619904,-0.8246040344238281,-30.73598480224609,-2.822630882263184,2,0.0.0.0,10.71.35.210,5,0
2015-03-15 18:33:32.982,123,1426469612.904013,37.28689391169444,-121.9047439658287,43.4422,0.58,230.625,6,30,-9999,1426469613.000011,-1.072812080383301,-32.39254760742188,9.93402099609375,197.1287231445312,183.5508270263672,10,438599.6873892084,-0.42742919921875,-0.868133544921875,-0.3476409912109375,438599.6845275417,0.2605104178315511,0.8189145783483135,0.4192140461437711,438599.6327564584,1.381163420834791,-0.9862250174232425,0.8174278326741682,0.4108603894710541,0.1198938935995102,0.8874179720878601,-0.6465827822685242,-0.008328048512339592,0.5413484573364258,XTrueNorthZVertical,-0.5465627227735019,0.1118559677756352,-0.3698558442466566,-0.742942903779011,-0.5705040097236633,-0.7293886542320251,-0.3775148689746857,-2.142804145812988,-30.7048397064209,-2.443173408508301,2,0.0.0.0,10.71.35.210,5,0
2015-03-15 18:33:33.063,124,1426469612.904013,37.28689391169444,-121.9047439658287,43.4422,0.58,230.625,6,30,-9999,1426469613.000011,-1.072812080383301,-32.39254760742188,9.93402099609375,197.1287231445312,183.5508270263672,10,438599.7364392084,-0.744110107421875,-0.733642578125,-0.2725067138671875,438599.6845275417,0.2605104178315511,0.8189145783483135,0.4192140461437711,438599.6845275417,1.417485173433879,-0.9599673361861882,0.8018357903951483,0.244096040725708,0.8345506191253662,0.4525607228279114,0.1337456852197647,-0.1989991664886475,0.1413000673055649,XTrueNorthZVertical,-0.5395220062169898,0.09745279704433403,-0.3947393502620351,-0.7372922580375715,-0.569643497467041,-0.7186338901519775,-0.3988379240036011,-3.270153999328613,-30.64430999755859,-1.892160892486572,2,0.0.0.0,10.71.35.210,5,0
2015-03-15 18:33:33.080,125,1426469613.033353,37.28693791668609,-121.9047536888364,43.53296,0.68,230.625,3,10,-9999,1426469613.05356,-7.364935874938965,-30.88018798828125,-0.8331184387207031,214.6107940673828,201.0328979492188,10,438599.7855427917,-0.6909942626953125,-0.4877471923828125,-0.3707427978515625,438599.7880736667,0.2065574373076358,0.158839715843923,-0.04230031917427358,438599.7363005001,1.444569591492635,-0.9699212654203279,0.7999849260257802,0.2628904283046722,0.133050411939621,0.04333561286330223,-0.1275891363620758,0.01390015427023172,0.100549153983593,XTrueNorthZVertical,-0.5423451280244332,0.0944037916083076,-0.4024999920731415,-0.731398327774176,-0.5746813416481018,-0.7173455953598022,-0.3938993811607361,-3.910614013671875,-30.58683967590332,-1.581233978271484,2,0.0.0.0,10.71.35.210,5,0
2015-03-15 18:33:33.150,126,1426469613.033353,37.28693791668609,-121.9047536888364,43.53296,0.68,230.625,3,10,-9999,1426469613.104053,-7.160313606262207,-30.98214721679688,-0.5002861022949219,214.1666412353516,200.5887451171875,10,438599.834594125,-0.6572418212890625,-0.768341064453125,-0.3118438720703125,438599.7880736667,0.2065574373076358,0.158839715843923,-0.04230031917427358,438599.7880736667,1.455421785935713,-0.962467911138602,0.8081173641915382,0.1901434063911438,0.1744754463434219,-0.008954320102930069,-0.1240707710385323,0.2352406233549118,0.02408178895711899,XTrueNorthZVertical,-0.5433178177905994,0.08598520367366382,-0.4062514365334179,-0.7296383591798046,-0.5669234991073608,-0.7229878306388855,-0.3948245942592621,-3.921295166015625,-30.60013961791992,-1.266047477722168,2,0.0.0.0,10.71.35.210,5,0
2015-03-15 18:33:33.179,127,1426469613.033353,37.28693791668609,-121.9047536888364,43.53296,0.68,230.625,3,10,-9999,1426469613.159278,-6.955691337585449,-31.28799438476562,0.09881210327148438,208.3470306396484,194.7691345214844,10,438599.8836768334,-0.4905548095703125,-0.7419891357421875,-0.2800750732421875,438599.891617875,0.3044299389485928,0.4220114305527903,-0.03199441838788494,438599.8398445417,1.469109949279666,-0.9653709504579898,0.8131576930775455,0.2355837374925613,0.3772923350334167,0.01520104799419641,-0.09217812120914459,-0.0418802797794342,0.07925436645746231,XTrueNorthZVertical,-0.5457031516013445,0.08160238888744055,-0.4090579492886717,-0.7267879923578627,-0.5650637149810791,-0.7264607548713684,-0.3910982310771942,-3.90078067779541,-30.61148452758789,-1.033868789672852,2,0.0.0.0,10.71.35.210,5,0
2015-03-15 18:33:33.248,128,1426469613.033353,37.28693791668609,-121.9047536888364,43.53296,0.68,230.625,3,10,-9999,1426469613.234495,-6.768122673034668,-31.30499267578125,0.8809700012207031,206.5780334472656,193.0001373291016,10,438599.9327339167,-0.623809814453125,-0.731170654296875,-0.2555694580078125,438599.891617875,0.3044299389485928,0.4220114305527903,-0.03199441838788494,438599.891617875,1.489414642637674,-0.9512190158923899,0.8215885480781591,0.2880342900753021,0.4376381039619446,0.001356836874037981,0.06391161680221558,-0.009760487824678421,0.115409791469574,XTrueNorthZVertical,-0.5455519973401304,0.0680484080047102,-0.4179602071101202,-0.7232231805537542,-0.5544664263725281,-0.7322286367416382,-0.3954848647117615,-3.924750328063965,-30.62018585205078,-0.5904684066772461,2,0.0.0.0,10.71.35.210,5,0
2015-03-15 18:33:33.278,129,1426469613.033353,37.28693791668609,-121.9047536888364,43.53296,0.68,230.625,3,10,-9999,1426469613.234495,-6.768122673034668,-31.30499267578125,0.8809700012207031,206.5780334472656,193.0001373291016,10,438599.9818249167,-0.597076416015625,-0.775299072265625,-0.2257537841796875,438599.943390875,0.08532182237174062,0.2932872729477013,-0.1274317255280735,438599.943390875,1.515115542372526,-0.9720672620626805,0.8340665472111971,0.0689980685710907,0.3088700175285339,-0.09404489398002625,-0.1016014888882637,0.02178234793245792,0.1224201023578644,XTrueNorthZVertical,-0.553668920702332,0.06418918528326732,-0.4180374157112699,-0.7173390168240064,-0.5549994707107544,-0.7406696677207947,-0.3786609470844269,-6.768124580383301,-31.30499649047852,0.8809318542480469,2,0.0.0.0,10.71.35.210,5,0
2015-03-15 18:33:33.348,130,1426469613.033353,37.28693791668609,-121.9047536888364,43.53296,0.68,230.625,3,10,-9999,1426469613.287339,-6.392983436584473,-31.81478881835938,1.546638488769531,206.2646636962891,192.686767578125,10,438600.030873,-0.4566497802734375,-0.825469970703125,-0.4696502685546875,438599.9951619167,0.2765711434174919,0.5643669781974499,0.02439855032676094,438599.9951619167,1.534488689740632,-0.9654012102380395,0.8391160806994639,0.2602845132350922,0.5799202919006348,0.05781246721744537,0.0361207127571106,-0.07491688430309296,0.1119846403598785,XTrueNorthZVertical,-0.5539857212113188,0.05468431555560203,-0.4254098497284736,-0.7135376495545218,-0.5493806004524231,-0.7440528273582458,-0.380218893289566,-6.960721969604492,-31.2380256652832,1.523280143737793,2,0.0.0.0,10.71.35.210,5,0
2015-03-15 18:33:33.380,131,1426469613.033353,37.28693791668609,-121.9047536888364,43.53296,0.68,230.625,3,10,-9999,1426469613.338181,-6.188363075256348,-31.88278198242188,1.746334075927734,206.1321716308594,192.5542755126953,10,438600.079968,-0.7917938232421875,-0.7409515380859375,-0.0225067138671875,438600.0469349584,0.01006861313326258,-0.08087567493185333,-0.4163143963488928,438600.0469349584,1.535047763649398,-0.9500780049485887,0.8523887244550683,-0.0062037562020123,-0.06531142443418503,-0.3829256594181061,0.03852194547653198,-0.07142500579357147,-0.05375488847494125,XTrueNorthZVertical,-0.553731810649907,0.04442880165014745,-0.4261677743225649,-0.7139945817993736,-0.535409152507782,-0.7528547644615173,-0.3828143179416656,-6.863870620727539,-31.25004959106445,1.705254554748535,2,0.0.0.0,10.71.35.210,5,0
2015-03-15 18:33:33.449,132,1426469613.033353,37.28693791668609,-121.9047536888364,43.53296,0.68,230.625,3,10,-9999,1426469613.395251,-5.506287574768066,-31.8148193359375,1.613201141357422,207.2787628173828,193.7008666992188,10,438600.1290155417,-0.7584991455078125,-0.7497100830078125,-0.1694488525390625,438600.098708125,0.1218297661750918,-0.09843735810816286,-0.5958836254857746,438600.098708125,1.517080690664524,-0.9506026713985248,0.8783149610862647,0.1055730879306793,-0.08287438750267029,-0.5625011920928955,-0.2954849004745483,-0.008381493389606476,0.4483629763126373,XTrueNorthZVertical,-0.5593047040075595,0.04058656679535287,-0.4123580288341122,-0.7179776500549525,-0.5195480585098267,-0.7696641683578491,-0.3710619509220123,-6.23906135559082,-31.37224578857422,1.85546875,2,0.0.0.0,10.71.35.210,5,0
2015-03-15 18:33:33.477,133,1426469613.033353,37.28693791668609,-121.9047536888364,43.53296,0.68,230.625,3,10,-9999,1426469613.468118,-3.272500038146973,-32.3416748046875,1.629848480224609,210.7887420654297,197.2108459472656,10,438600.178214875,-0.04742431640625,-0.7464599609375,-0.5052032470703125,438600.1504790834,-0.05733093405057179,1.259633383978365,-0.7864168225144036,438600.1504790834,1.485756933280151,-0.8902253450879557,0.9047050027264997,-0.07358742505311966,1.275196194648743,-0.7530348300933838,0.1281421333551407,-0.04592567309737206,0.04460880160331726,XTrueNorthZVertical,-0.5524977892298181,0.01838231948823247,-0.410492603249468,-0.7251925104104946,-0.4802539646625519,-0.7862429022789001,-0.3888165652751923,-5.13162088394165,-31.56875610351562,1.914795875549316,2,0.0.0.0,10.71.35.210,5,0
2015-03-15 18:33:33.548,134,1426469613.033353,37.28693791668609,-121.9047536888364,43.53296,0.68,230.625,3,10,-9999,1426469613.519315,-1.737835884094238,-32.03579711914062,1.396862030029297,211.4755859375,197.8976898193359,10,438600.2271519167,-0.4077606201171875,-0.9207305908203125,-0.2955780029296875,438600.202252375,-0.4401310459774714,-0.1846228436214162,-0.5878065242156733,438600.202252375,1.43346994508661,-0.8126923374008979,0.9186686586594727,-0.4563873708248138,-0.1690602004528046,-0.5544248223304749,0.2242031544446945,0.05248479172587395,-0.08281918615102768,XTrueNorthZVertical,-0.5397881724143203,-0.0004172453309121597,-0.4087656223180534,-0.7358935331217969,-0.4406796097755432,-0.7947943806648254,-0.4172571003437042,-4.214430332183838,-31.72877502441406,1.452499389648438,2,0.0.0.0,10.71.35.210,5,0
2015-03-15 18:33:33.572,135,1426469613.033353,37.28693791668609,-121.9047536888364,43.53296,0.68,230.625,3,10,-9999,1426469613.519315,-1.737835884094238,-32.03579711914062,1.396862030029297,211.4755859375,197.8976898193359,10,438600.2763472084,-0.1656646728515625,-0.8712615966796875,-0.60931396484375,438600.2540254584,-0.3114774621412695,0.2943794353107428,-0.2906576676873571,438600.2540254584,1.38562276614261,-0.786729082922197,0.9218205113431944,-0.3277336359024048,0.3099419474601746,-0.2572762668132782,0.0119532523676753,-0.09138883650302887,0.06960781663656235,XTrueNorthZVertical,-0.5353541476502489,0.001777855519055508,-0.39718814543088,-0.7454088973202639,-0.4279231131076813,-0.7967032194137573,-0.4267855584621429,-3.427653312683105,-31.84450531005859,0.8746614456176758,2,0.0.0.0,10.71.35.210,1,0
2015-03-15 18:33:33.654,136,1426469613.033353,37.28693791668609,-121.9047536888364,43.53296,0.68,230.625,3,10,-9999,1426469613.628499,0.7346782684326172,-32.05282592773438,0.514862060546875,217.9949340820312,204.4170379638672,10,438600.3253736667,-0.09552001953125,-0.8938446044921875,-0.5503387451171875,438600.3057963334,0.01076875818384441,0.009354619645012332,-0.3745581609853224,438600.2540254584,1.38562276614261,-0.786729082922197,0.9218205113431944,-0.3277336359024048,0.3099419474601746,-0.2572762668132782,0.0119532523676753,-0.09138883650302887,0.06960781663656235,XTrueNorthZVertical,-0.5353541476502489,0.001777855519055508,-0.39718814543088,-0.7454088973202639,-0.4279231131076813,-0.7967032194137573,-0.4267855584621429,-3.427653312683105,-31.84450531005859,0.8746614456176758,2,0.0.0.0,10.71.35.210,1,0
2015-03-15 18:33:33.670,137,1426469613.033353,37.28693791668609,-121.9047536888364,43.53296,0.68,230.625,3,10,-9999,1426469613.628499,0.7346782684326172,-32.05282592773438,0.514862060546875,217.9949340820312,204.4170379638672,10,438600.3743987083,-0.3860626220703125,-0.9753265380859375,-0.3735198974609375,438600.3575695833,0.1685767654214707,-0.2910470218387267,-0.3917219678947741,438600.3575695833,1.347931258781416,-0.7507432635044736,0.9400647115515427,0.152320921421051,-0.2754848301410675,-0.3583412766456604,0.0512942299246788,-0.06728166341781616,-0.03791196644306183,XTrueNorthZVertical,-0.5332357258536997,-0.007585419666798977,-0.3879259634064497,-0.7517417377321407,-0.4023074209690094,-0.8075962662696838,-0.431204229593277,-2.423284530639648,-31.94586563110352,0.4191837310791016,2,0.0.0.0,10.71.35.210,1,0
2015-03-15 18:33:33.754,138,1426469613.033353,37.28693791668609,-121.9047536888364,43.53296,0.68,230.625,3,10,-9999,1426469613.701332,2.030619621276855,-31.95083618164062,0.6479873657226562,220.8195037841797,207.2416076660156,10,438600.4234445834,-0.2017974853515625,-0.9063873291015625,-0.5496826171875,438600.4093429584,0.4554695222757828,0.5993864812675558,-0.3009569105710205,438600.4093429584,1.340582907390448,-0.7306567010636542,0.9641406293324256,0.4392138123512268,0.6149485111236572,-0.2675765156745911,-0.04741021245718002,-0.1621595919132233,-0.01914941146969795,XTrueNorthZVertical,-0.5359717329489556,-0.02094240931906957,-0.3843012197762132,-0.7514042591719351,-0.3804767429828644,-0.8215592503547668,-0.4245914220809937,-1.878456115722656,-31.9774055480957,0.7094030380249023,2,0.0.0.0,10.71.35.210,1,0
2015-03-15 18:33:33.768,139,1426469613.033353,37.28693791668609,-121.9047536888364,43.53296,0.68,230.625,3,10,-9999,1426469613.752662,2.54217529296875,-31.88287353515625,0.747833251953125,221.6331329345703,208.0552368164062,10,438600.4725415834,-0.2693328857421875,-0.178558349609375,-0.6500091552734375,438600.46111375,-0.3517708231180594,-0.8789867041089039,0.3787744776231358,438600.4093429584,1.340582907390448,-0.7306567010636542,0.9641406293324256,0.4392138123512268,0.6149485111236572,-0.2675765156745911,-0.04741021245718002,-0.1621595919132233,-0.01914941146969795,XTrueNorthZVertical,-0.5359717329489556,-0.02094240931906957,-0.3843012197762132,-0.7514042591719351,-0.3804767429828644,-0.8215592503547668,-0.4245914220809937,-1.878456115722656,-31.9774055480957,0.7094030380249023,2,0.0.0.0,10.71.35.210,1,0
2015-03-15 18:33:33.849,140,1426469613.033353,37.28693791668609,-121.9047536888364,43.53296,0.68,230.625,3,10,-9999,1426469613.804625,1.348546028137207,-31.57699584960938,0.4482841491699219,220.3055267333984,206.7276306152344,10,438600.5216055834,-0.6846923828125,-0.4373016357421875,-0.0946044921875,438600.5128869584,-0.9762272376231851,-1.514354888548411,1.139646525277608,438600.46111375,1.350012053004017,-0.7420398079181998,0.970124936636557,-0.3680263459682465,-0.8634248375892639,0.4121545255184174,0.2401253283023834,0.3454793989658356,-0.1676879227161407,XTrueNorthZVertical,-0.5396779888761807,-0.02113894704947113,-0.3832232725965654,-0.7492935391635134,-0.3819557726383209,-0.8249563574790955,-0.4166016280651093,-1.508734703063965,-31.97753524780273,1.321846961975098,2,0.0.0.0,10.71.35.210,1,0
2015-03-15 18:33:33.866,141,1426469613.033353,37.28693791668609,-121.9047536888364,43.53296,0.68,230.625,3,10,-9999,1426469613.804625,1.348546028137207,-31.57699584960938,0.4482841491699219,220.3055267333984,206.7276306152344,10,438600.5706830417,-0.6380767822265625,-0.7418975830078125,-0.226043701171875,438600.5646602084,-1.609726415609675,-0.08660466706883178,1.786068426137599,438600.5646602084,1.376510496030671,-0.8572814387705223,0.8090174869801895,-1.625981569290161,-0.07104311883449554,1.819447755813599,-0.09091825783252716,0.2276987433433533,0.08790848404169083,XTrueNorthZVertical,-0.519174581418924,0.06773645568126141,-0.4047589178105903,-0.7496931480843548,-0.521844208240509,-0.7236093878746033,-0.4517390429973602,-0.5549812316894531,-31.58732604980469,-1.029162406921387,2,0.0.0.0,10.71.35.210,1,0
2015-03-15 18:33:33.919,142,1426469613.033353,37.28693791668609,-121.9047536888364,43.53296,0.68,230.625,3,10,-9999,1426469613.863705,-1.686680793762207,-30.89727783203125,-1.415576934814453,218.9033508300781,205.3254547119141,10,438600.61973675,-0.1244354248046875,-0.8393096923828125,-0.180908203125,438600.5646602084,-1.609726415609675,-0.08660466706883178,1.786068426137599,438600.5646602084,1.376510496030671,-0.8572814387705223,0.8090174869801895,-1.625981569290161,-0.07104311883449554,1.819447755813599,-0.09091825783252716,0.2276987433433533,0.08790848404169083,XTrueNorthZVertical,-0.519174581418924,0.06773645568126141,-0.4047589178105903,-0.7496931480843548,-0.521844208240509,-0.7236093878746033,-0.4517390429973602,-0.5549812316894531,-31.58732604980469,-1.029162406921387,2,0.0.0.0,10.71.35.210,1,0
2015-03-15 18:33:33.966,143,1426469613.033353,37.28693791668609,-121.9047536888364,43.53296,0.68,230.625,3,10,-9999,1426469613.934534,-7.927647590637207,-28.6881103515625,-6.274936676025391,211.5340881347656,197.9561920166016,10,438600.6688267917,-0.5182952880859375,-0.5244903564453125,-0.7689208984375,438600.6682044167,-1.454845488726155,-0.4665727734925412,2.212496975674394,438600.6164311667,1.388758733071565,-0.8306799479857149,0.6771158073058926,-1.575338006019592,0.9439785480499268,2.287853002548218,0.2875553965568542,-0.2035914212465286,0.2628850042819977,XTrueNorthZVertical,-0.4770709047011452,0.09800799023672498,-0.4492838512442873,-0.7489605316704576,-0.5754887461662292,-0.6265477538108826,-0.5255955457687378,-4.102211952209473,-31.08151245117188,-4.029604911804199,2,0.0.0.0,10.71.35.210,1,0
2015-03-15 18:33:34.062,144,1426469614.034821,37.28689508516089,-121.9047456422093,48.62674,0.27,230.625,3,10,-9999,1426469613.986483,-12.34406757354736,-26.52996826171875,-9.187229156494141,204.6584320068359,191.0805358886719,10,438600.7178679584,-0.836669921875,-0.7423858642578125,-0.588470458984375,438600.7199775834,-1.328927237645573,-0.3918002648308224,2.009777153497563,438600.6682044167,1.411782581412066,-0.8397114120860835,0.5346759703964696,-1.47100830078125,-0.451038658618927,2.245814561843872,0.07509015500545502,-0.02266430296003819,-0.3264627158641815,XTrueNorthZVertical,-0.4386181890671162,0.1427159740887996,-0.4893788018817917,-0.7401045159163095,-0.6405503749847412,-0.5095622539520264,-0.5744924545288086,-7.203439235687256,-30.09253120422363,-6.455719947814941,2,0.0.0.0,10.71.35.210,1,0
2015-03-15 18:33:34.067,145,1426469614.034821,37.28689508516089,-121.9047456422093,48.62674,0.27,230.625,3,10,-9999,1426469614.039212,-17.15267944335938,-23.7091064453125,-11.94974899291992,199.0094757080078,185.4315795898438,10,438600.7669598334,-0.4212493896484375,-0.215118408203125,-0.718048095703125,438600.7199775834,-1.328927237645573,-0.3918002648308224,2.009777153497563,438600.7199775834,1.426329664556981,-0.8655524666144691,0.4107666626564057,-1.345089912414551,-0.3762663304805756,2.043094158172607,-0.1385579407215118,-0.3430735170841217,0.005826926790177822,XTrueNorthZVertical,-0.408633294799802,0.1893941327650566,-0.5167439841087235,-0.728096435229756,-0.6981119513511658,-0.3993123471736908,-0.5942974090576172,-10.20536518096924,-28.7281494140625,-8.346864700317383,2,0.0.0.0,10.71.35.210,1,0
2015-03-15 18:33:34.113,146,1426469614.034821,37.28689508516089,-121.9047456422093,48.62674,0.27,230.625,3,10,-9999,1426469614.09716,-21.17691040039062,-20.14053344726562,-13.98003005981445,192.1260833740234,178.5481872558594,10,438600.8160007084,-0.8992156982421875,-0.4980621337890625,-0.40081787109375,438600.771748625,-1.862606344285931,-0.2999230714358517,1.850621586748356,438600.771748625,1.425993998917588,-0.8665702502414189,0.2848511474113105,-1.878768801689148,-0.2843892872333527,1.883938312530518,0.3101530075073242,0.06589619070291519,-0.09669361263513565,XTrueNorthZVertical,-0.3692935629760618,0.2300978530709906,-0.5425690502064059,-0.7185375003201229,-0.7314023971557617,-0.2810145914554596,-0.6213544607162476,-13.58353042602539,-26.48163986206055,-10.64597606658936,2,0.0.0.0,10.71.35.210,1,0
