loggingTime,loggingSample,locationTimestamp_since1970,locationLatitude,locationLongitude,locationAltitude,locationSpeed,locationCourse,locationVerticalAccuracy,locationHorizontalAccuracy,locationFloor,locationHeadingTimestamp_since1970,locationHeadingX,locationHeadingY,locationHeadingZ,locationTrueHeading,locationMagneticHeading,locationHeadingAccuracy,accelerometerTimestamp_sinceReboot,accelerometerAccelerationX,accelerometerAccelerationY,accelerometerAccelerationZ,gyroTimestamp_sinceReboot,gyroRotationX,gyroRotationY,gyroRotationZ,motionTimestamp_sinceReboot,motionYaw,motionRoll,motionPitch,motionRotationRateX,motionRotationRateY,motionRotationRateZ,motionUserAccelerationX,motionUserAccelerationY,motionUserAccelerationZ,motionAttitudeReferenceFrame,motionQuaternionX,motionQuaternionY,motionQuaternionZ,motionQuaternionW,motionGravityX,motionGravityY,motionGravityZ,motionMagneticFieldX,motionMagneticFieldY,motionMagneticFieldZ,motionMagneticFieldCalibrationAccuracy,IP_en0,IP_pdp_ip0,deviceOrientation,state
2015-03-01 20:11:12.259,1,1425269471.733868,37.76573598465028,-122.460366164262,81.65486,-1,-1,10,65,-9999,1425269472.222022,-16.67455291748047,39.05722045898438,-15.37194061279297,170.7704162597656,156.9933471679688,10,196593.520543875,-0.1316680908203125,0.993133544921875,0.0988922119140625,196593.5244684167,-0.1031048142346357,-0.02152100476893033,-0.1179231751720546,196593.4726892083,-0.3934863517976368,-2.304209253196449,-1.397922432329946,-0.09890533238649368,-0.02794791199266911,-0.08341546356678009,-0.05603402853012085,-0.01176684815436602,0.03287741914391518,XTrueNorthZVertical,-0.3932606954869469,-0.6347598537645979,0.5156662148695551,0.4201361422185857,-0.1277886033058167,0.9850944876670837,0.115148089826107,-16.54630851745605,39.2823486328125,-15.58065223693848,2,0.0.0.0,10.83.46.32,2,0
2015-03-01 20:11:12.315,2,1425269471.733868,37.76573598465028,-122.460366164262,81.65486,-1,-1,10,65,-9999,1425269472.29717,-16.82801818847656,39.07421875,-14.88933563232422,171.4175720214844,157.6405029296875,10,196593.569563,-0.1638641357421875,0.9791412353515625,0.1453094482421875,196593.5244684167,-0.1031048142346357,-0.02152100476893033,-0.1179231751720546,196593.5244684167,-0.4038324729616753,-2.310649528220404,-1.388440374628223,-0.1125269010663033,-0.009665454737842083,-0.08263491839170456,0.002269207499921322,0.009714366868138313,-0.02336848340928555,XTrueNorthZVertical,-0.3940036984129018,-0.6370960943058168,0.5112544069220326,0.4212940224859236,-0.1339372992515564,0.9834191799163818,0.1222606971859932,-16.76410293579102,39.2788200378418,-15.35508918762207,2,0.0.0.0,10.83.46.32,2,0
2015-03-01 20:11:12.364,3,1425269471.733868,37.76573598465028,-122.460366164262,81.65486,-1,-1,10,65,-9999,1425269472.350009,-17.16905975341797,39.31210327148438,-14.78948211669922,171.0069274902344,157.2298583984375,10,196593.6186087083,-0.168670654296875,0.9759063720703125,0.1398468017578125,196593.57624775,-0.1198339932541865,-0.08614394020024808,-0.00495001751813028,196593.57624775,-0.4191711728359136,-2.329705711013671,-1.386019491024395,-0.1292560398578644,-0.07428798824548721,0.03033442795276642,-0.0305537898093462,-0.003836041083559394,0.01888087950646877,XTrueNorthZVertical,-0.3938082109348454,-0.6388500429258253,0.5108858056012593,0.4192630188932246,-0.1333103477954865,0.9829772710800171,0.1264285743236542,-16.91387557983398,39.29412460327148,-15.1503324508667,2,0.0.0.0,10.83.46.32,2,0
2015-03-01 20:11:12.401,4,1425269471.733868,37.76573598465028,-122.460366164262,81.65486,-1,-1,10,65,-9999,1425269472.350009,-17.16905975341797,39.31210327148438,-14.78948211669922,171.0069274902344,157.2298583984375,10,196593.6676311667,-0.1219329833984375,0.976226806640625,0.135467529296875,196593.628026875,-0.03609382225384392,0.08204000896043598,0.0432518666317589,196593.628026875,-0.4462555549975165,-2.355941059643688,-1.384208729220402,-0.0455181822180748,0.09389661997556686,0.07852858304977417,-0.03746399283409119,-0.006736606825143099,0.008706626482307911,XTrueNorthZVertical,-0.3956203417302617,-0.6395737899377243,0.509719911367242,0.4178703077655055,-0.1312066614627838,0.9826430082321167,0.1311401724815369,-16.9187126159668,39.40807723999023,-14.84588527679443,2,0.0.0.0,10.83.46.32,2,0
2015-03-01 20:11:12.464,5,1425269471.733868,37.76573598465028,-122.460366164262,81.65486,-1,-1,10,65,-9999,1425269472.453308,-16.24825286865234,39.1761474609375,-14.78948211669922,172.0202941894531,158.2432250976562,10,196593.716676875,-0.1366424560546875,0.984832763671875,0.1444549560546875,196593.6798062917,0.001200286703298713,0.006883206153418799,0.02428749650930464,196593.6798062917,-0.4635722636830991,-2.368940063041749,-1.385373238513453,-0.008226653560996056,0.01873995177447796,0.0595596507191658,0.008025581948459148,-0.01143804937601089,0.003879646770656109,XTrueNorthZVertical,-0.3979306188725318,-0.6384816261209688,0.5091155173555501,0.4180835985538998,-0.128692090511322,0.9828583598136902,0.132015123963356,-16.78071975708008,39.48299026489258,-14.80339908599854,2,0.0.0.0,10.83.46.32,2,0
2015-03-01 20:11:12.501,6,1425269471.733868,37.76573598465028,-122.460366164262,81.65486,-1,-1,10,65,-9999,1425269472.453308,-16.24825286865234,39.1761474609375,-14.78948211669922,172.0202941894531,158.2432250976562,10,196593.7656974584,-0.121673583984375,0.9843292236328125,0.129425048828125,196593.7315857917,-0.02372130846155379,0.06318402949434794,0.002116680434394978,196593.7315857917,-0.4773780742969712,-2.380849012146769,-1.385556824245809,-0.03315197303891182,0.07504048198461533,0.03738628700375557,-0.01095302402973175,0.006960738450288773,0.01342770643532276,XTrueNorthZVertical,-0.3993197170981078,-0.6381595208571894,0.5086729597885596,0.4177895154001552,-0.1269864290952682,0.9828921556472778,0.1334076225757599,-16.60337829589844,39.55856323242188,-14.80161380767822,2,0.0.0.0,10.83.46.32,2,0
2015-03-01 20:11:12.563,7,1425269471.733868,37.76573598465028,-122.460366164262,81.65486,-1,-1,10,65,-9999,1425269472.55721,-16.02657318115234,39.39706420898438,-14.57315063476562,172.0588836669922,158.2818145751953,10,196593.814730625,-0.1439971923828125,0.9797515869140625,0.1373443603515625,196593.7833649583,-0.03230387770655215,0.06187402055413797,0.01317412528040398,196593.7833649583,-0.4908047798106631,-2.389850819706613,-1.385207859513803,-0.04173273593187332,0.07373046875,0.04844425246119499,0.0001448670809622854,0.001348801772110164,-0.01361055485904217,XTrueNorthZVertical,-0.4012913509369254,-0.6374662189408173,0.5075370721190867,0.4183398875551337,-0.1260146200656891,0.9828278422355652,0.1347958594560623,-16.50376510620117,39.60934448242188,-14.77719306945801,2,0.0.0.0,10.83.46.32,2,0
2015-03-01 20:11:12.601,8,1425269471.733868,37.76573598465028,-122.460366164262,81.65486,-1,-1,10,65,-9999,1425269472.55721,-16.02657318115234,39.39706420898438,-14.57315063476562,172.0588836669922,158.2818145751953,10,196593.863747875,-0.1316070556640625,0.98046875,0.115509033203125,196593.8351441667,-0.06571083673661512,0.09900301352369568,-0.01828339983172099,196593.8351441667,-0.5027776194546315,-2.39602543187245,-1.383694440027898,-0.07513792812824249,0.110861174762249,0.01697489246726036,-0.01246779691427946,-0.0007511802250519395,-0.01059592142701149,XTrueNorthZVertical,-0.403445576788403,-0.6368388217478991,0.5057026680392087,0.4194435157980011,-0.1261888146400452,0.9825474619865417,0.1366640329360962,-16.38722991943359,39.65602111816406,-14.78169441223145,2,0.0.0.0,10.83.46.32,2,0
2015-03-01 20:11:12.663,9,1425269471.733868,37.76573598465028,-122.460366164262,81.65486,-1,-1,10,65,-9999,1425269472.611301,-15.94130706787109,39.78793334960938,-14.88933563232422,172.0865631103516,158.3094940185547,10,196593.9128651667,-0.12982177734375,0.9737396240234375,0.139434814453125,196593.8869235833,0.009859821303800363,-0.009232114234868687,-0.03525838861988606,196593.8869235833,-0.5027325966322246,-2.393130696801957,-1.383695359870381,0.0004418051103129983,0.002627518260851502,-3.332726464577718e-06,-0.002414521295577288,-0.004520272370427847,-0.006689364556223154,XTrueNorthZVertical,-0.4041628266900278,-0.6362398675255287,0.5051280132108779,0.4203534233059086,-0.1265832781791687,0.9825476408004761,0.1362975239753723,-16.305419921875,39.68760681152344,-14.78738784790039,2,0.0.0.0,10.83.46.32,2,0
2015-03-01 20:11:12.702,10,1425269471.733868,37.76573598465028,-122.460366164262,81.65486,-1,-1,10,65,-9999,1425269472.690252,-16.0606689453125,39.73696899414062,-15.17223358154297,172.1520385742188,158.3749694824219,10,196593.9618047083,-0.12786865234375,0.980377197265625,0.1397247314453125,196593.93870275,-0.07828148971400714,-0.05783906518655891,-0.05589069653305694,196593.93870275,-0.5104144347827769,-2.402513251912283,-1.380959933303858,-0.08770058304071426,-0.04597955197095871,-0.02063694968819618,0.005343745462596416,-0.002939661499112844,-0.006561043672263622,XTrueNorthZVertical,-0.404073945521035,-0.6375396416630453,0.5043813393303118,0.4193649796024003,-0.1271088868379593,0.9820351004600525,0.1394650936126709,-16.31466865539551,39.69754791259766,-14.75045967102051,2,0.0.0.0,10.83.46.32,2,0
2015-03-01 20:11:12.761,11,1425269471.733868,37.76573598465028,-122.460366164262,81.65486,-1,-1,10,65,-9999,1425269472.690252,-16.0606689453125,39.73696899414062,-15.17223358154297,172.1520385742188,158.3749694824219,10,196594.0109622084,-0.1660003662109375,0.980865478515625,0.1417694091796875,196593.99048225,-0.07847297099638384,-0.02008902305079472,0.01043293357038542,196593.99048225,-0.5237527672931046,-2.417571665077349,-1.378728737722027,-0.08789028972387314,-0.008229400962591171,0.0456862710416317,-0.002292892662808299,0.004273966420441866,0.000275647034868598,XTrueNorthZVertical,-0.404406364600588,-0.638715651447424,0.5037910323204935,0.4179622881821057,-0.1264455169439316,0.9816116690635681,0.1430043876171112,-16.37236022949219,39.72750854492188,-14.60515308380127,2,0.0.0.0,10.83.46.32,2,0
2015-03-01 20:11:12.792,12,1425269471.733868,37.76573598465028,-122.460366164262,81.65486,-1,-1,10,65,-9999,1425269472.765317,-16.21414947509766,40.059814453125,-14.72290802001953,172.2198486328125,158.4427795410156,10,196594.05985775,-0.1317138671875,0.9832916259765625,0.1486663818359375,196594.0422615,-0.04647828629238989,-0.03636626363335902,-0.05159714822363119,196594.0422615,-0.5334315266803004,-2.425053910007382,-1.374927104974493,-0.05589639768004417,-0.02450604550540447,-0.01635025069117546,-0.0006722734542563558,0.00497622974216938,0.001937450841069221,XTrueNorthZVertical,-0.4054141458811908,-0.6395460066555454,0.501845722089914,0.4180564754106355,-0.1278219819068909,0.9808788895606995,0.1467594504356384,-16.36880683898926,39.80268096923828,-14.4030704498291,2,0.0.0.0,10.83.46.32,2,0
2015-03-01 20:11:12.844,13,1425269471.733868,37.76573598465028,-122.460366164262,81.65486,-1,-1,10,65,-9999,1425269472.81627,-16.28236389160156,39.92388916015625,-14.32351684570312,172.2398376464844,158.4627685546875,10,196594.1088779167,-0.1663818359375,0.976318359375,0.17041015625,196594.0940407917,-0.03124527117324566,-0.1176046611056811,-0.05691255144332034,196594.0940407917,-0.5374711566891507,-2.433178517890355,-1.370762299475,-0.04066797345876694,-0.1057444289326668,-0.02167143486440182,-0.02521299384534359,-0.002047732239589095,0.01344310119748116,XTrueNorthZVertical,-0.4044565392133505,-0.6417647048342932,0.5010702298542078,0.4165113035593438,-0.1292822510004044,0.980059802532196,0.1508940607309341,-16.43639755249023,39.82380294799805,-14.2670783996582,2,0.0.0.0,10.83.46.32,2,0
2015-03-01 20:11:12.893,14,1425269471.733868,37.76573598465028,-122.460366164262,81.65486,-1,-1,10,65,-9999,1425269472.872757,-16.70865631103516,39.94085693359375,-14.17375183105469,172.2350616455078,158.4579925537109,10,196594.15789175,-0.121307373046875,0.978851318359375,0.132415771484375,196594.1458200417,-0.06505223699903853,-0.0108827414784998,-0.04364441657643657,196594.0940407917,-0.5374711566891507,-2.433178517890355,-1.370762299475,-0.04066797345876694,-0.1057444289326668,-0.02167143486440182,-0.02521299384534359,-0.002047732239589095,0.01344310119748116,XTrueNorthZVertical,-0.4044565392133505,-0.6417647048342932,0.5010702298542078,0.4165113035593438,-0.1292822510004044,0.980059802532196,0.1508940607309341,-16.43639755249023,39.82380294799805,-14.2670783996582,2,0.0.0.0,10.83.46.32,2,0
2015-03-01 20:11:12.943,15,1425269471.733868,37.76573598465028,-122.460366164262,81.65486,-1,-1,10,65,-9999,1425269472.872757,-16.70865631103516,39.94085693359375,-14.17375183105469,172.2350616455078,158.4579925537109,10,196594.2069770417,-0.1535186767578125,0.9662933349609375,0.1696624755859375,196594.1975995833,-0.03591246098360952,-0.1554681539038827,-0.03515372638904594,196594.1975995833,-0.5412638794547562,-2.442614708854154,-1.363810738568488,-0.04533231630921364,-0.1436056792736053,7.189811003627256e-05,-0.01290839537978172,-0.02011298388242722,0.005248300265520811,XTrueNorthZVertical,-0.4029702630656151,-0.6451932937371636,0.4995472983279099,0.4144793689160496,-0.132233202457428,0.9786548614501953,0.1573188453912735,-16.69257354736328,39.84561157226562,-13.90414047241211,2,0.0.0.0,10.83.46.32,2,0
2015-03-01 20:11:12.988,16,1425269471.733868,37.76573598465028,-122.460366164262,81.65486,-1,-1,10,65,-9999,1425269472.945818,-16.55517578125,39.75396728515625,-13.92411804199219,172.2488861083984,158.4718170166016,10,196594.2559399584,-0.1409912109375,0.9805755615234375,0.1674346923828125,196594.2493785417,-0.05776982299821685,0.002503637740783492,-0.05133429422404037,196594.1975995833,-0.5412638794547562,-2.442614708854154,-1.363810738568488,-0.04533231630921364,-0.1436056792736053,7.189811003627256e-05,-0.01290839537978172,-0.02011298388242722,0.005248300265520811,XTrueNorthZVertical,-0.4029702630656151,-0.6451932937371636,0.4995472983279099,0.4144793689160496,-0.132233202457428,0.9786548614501953,0.1573188453912735,-16.69257354736328,39.84561157226562,-13.90414047241211,2,0.0.0.0,10.83.46.32,2,0
2015-03-01 20:11:13.040,17,1425269471.733868,37.76573598465028,-122.460366164262,81.65486,-1,-1,10,65,-9999,1425269472.997774,-16.31645202636719,39.78793334960938,-13.82426452636719,172.2711639404297,158.4940948486328,10,196594.3049803333,-0.1458740234375,0.9787750244140625,0.17071533203125,196594.3011579167,-0.03040291332045359,-0.0535705505913799,-0.04507506671402714,196594.2493785417,-0.545954078288878,-2.4497691237806,-1.359523169811288,-0.06719540804624557,0.01436688844114542,-0.01612105034291744,-0.01551206409931183,-0.002483958145603538,0.004479152150452137,XTrueNorthZVertical,-0.4024944614532727,-0.6471039768408715,0.4983851873340854,0.4133605283822811,-0.1337799280881882,0.9777647256851196,0.1614906936883926,-16.82933044433594,39.85620498657227,-13.70753002166748,2,0.0.0.0,10.83.46.32,2,0
2015-03-01 20:11:13.096,18,1425269471.733868,37.76573598465028,-122.460366164262,81.65486,-1,-1,10,65,-9999,1425269473.049941,-16.29939270019531,39.53305053710938,-13.70775604248047,172.3090515136719,158.531982421875,10,196594.3539952917,-0.1441497802734375,0.9751739501953125,0.17608642578125,196594.3529373333,-0.01836116413555131,-0.01588442432177762,-0.05950354086785843,196594.3011579167,-0.5513299351129883,-2.455572712337441,-1.356442731634163,-0.03982997313141823,-0.04170741513371468,-0.009863627143204212,-0.0008418269571848214,0.001691443147137761,0.003084671916440129,XTrueNorthZVertical,-0.4026477334820762,-0.6482066671387408,0.4972684970534384,0.412828088868949,-0.1347477734088898,0.9771140813827515,0.1645941585302353,-16.89432334899902,39.87549209594727,-13.57081413269043,2,0.0.0.0,10.83.46.32,2,0
2015-03-01 20:11:13.141,19,1425269471.733868,37.76573598465028,-122.460366164262,81.65486,-1,-1,10,65,-9999,1425269473.103351,-16.19708251953125,39.83892822265625,-13.60790252685547,172.3703918457031,158.5933227539062,10,196594.4030199167,-0.1512451171875,0.9691314697265625,0.164276123046875,196594.4047166667,-0.03066177257840929,-0.01013545847662357,-0.03271613504329642,196594.3529373333,-0.5480502309040919,-2.453979226222685,-1.353141628081934,-0.02779208309948444,-0.004020622931420803,-0.02430161088705063,-0.0137004554271698,0.001513953087851405,0.004515799693763256,XTrueNorthZVertical,-0.4018270578484615,-0.6495925453958559,0.4963646481499941,0.4125369635999374,-0.1370563805103302,0.9764065742492676,0.1668709218502045,-17.00602722167969,39.88136672973633,-13.41310882568359,2,0.0.0.0,10.83.46.32,2,0
2015-03-01 20:11:13.195,20,1425269471.733868,37.76573598465028,-122.460366164262,81.65486,-1,-1,10,65,-9999,1425269473.153471,-16.23119354248047,39.77093505859375,-13.64118194580078,172.4372406005859,158.6601715087891,10,196594.4520328333,-0.1390380859375,0.9669952392578125,0.1628570556640625,196594.4047166667,-0.03066177257840929,-0.01013545847662357,-0.03271613504329642,196594.4047166667,-0.5492997137039218,-2.454544654292164,-1.350766974676738,-0.04009264335036278,0.001729324925690889,0.002477993257343769,-0.01281289476901293,-0.006759573705494404,-0.004464370664209127,XTrueNorthZVertical,-0.4019819662545803,-0.6502159223561131,0.4953132377446509,0.4126676863505827,-0.1384322196245193,0.9758910536766052,0.1687404960393906,-17.07391166687012,39.87779235839844,-13.33727645874023,2,0.0.0.0,10.83.46.32,2,0
2015-03-01 20:11:13.238,21,1425269471.733868,37.76573598465028,-122.460366164262,81.65486,-1,-1,10,65,-9999,1425269473.205214,-16.77685546875,39.635009765625,-13.40819549560547,172.4608917236328,158.6838226318359,10,196594.5011081667,-0.1475067138671875,0.9690399169921875,0.1739044189453125,196594.5082754167,-0.08448319294447466,-0.04700798903320665,-0.04759015604749797,196594.456495875,-0.5533196073872799,-2.459012542483087,-1.349216856649079,-0.0581589937210083,-0.04313143715262413,0.009901480749249458,-0.000407087616622448,-0.008556305430829525,-0.007673858199268579,XTrueNorthZVertical,-0.4021122356105109,-0.6508234836618089,0.4947896954301323,0.4122108321055163,-0.1386310011148453,0.9755515456199646,0.1705309152603149,-17.11272430419922,39.87660598754883,-13.2909984588623,2,0.0.0.0,10.83.46.32,2,0
2015-03-01 20:11:13.289,22,1425269471.733868,37.76573598465028,-122.460366164262,81.65486,-1,-1,10,65,-9999,1425269473.256832,-16.67455291748047,39.83892822265625,-13.14193725585938,172.4785003662109,158.7014312744141,10,196594.5500595,-0.1508636474609375,0.981689453125,0.18975830078125,196594.5082754167,-0.08448319294447466,-0.04700798903320665,-0.04759015604749797,196594.5082754167,-0.5609616766786767,-2.468372798458456,-1.345562268568988,-0.0938347727060318,-0.0352095291018486,-0.01225630380213261,-0.008255951106548309,-0.005701943300664425,-0.0007028383552096784,XTrueNorthZVertical,-0.4021280187537946,-0.6523777166571432,0.4936996875963835,0.4110438657028396,-0.1392507553100586,0.9747418761253357,0.1746072620153427,-17.147705078125,39.91427993774414,-13.13187599182129,2,0.0.0.0,10.83.46.32,2,0
2015-03-01 20:11:13.342,23,1425269471.733868,37.76573598465028,-122.460366164262,81.65486,-1,-1,10,65,-9999,1425269473.308677,-16.81096649169922,40.314697265625,-13.17522430419922,172.5111541748047,158.7340850830078,10,196594.5991944583,-0.145172119140625,0.969207763671875,0.18170166015625,196594.5600544167,-0.08573967234677406,-0.04428810261190872,-0.06600484972095987,196594.5600544167,-0.5663439517311767,-2.475335476295188,-1.340158847688959,-0.09509364515542984,-0.03248925507068634,-0.03067725524306297,-0.005062196403741837,0.005483040120452642,0.001350249513052404,XTrueNorthZVertical,-0.4019445199621372,-0.6544431782821318,0.491921872688282,0.4100703234392653,-0.141284853219986,0.9735208749771118,0.1797105371952057,-17.23848724365234,39.94083404541016,-12.93074607849121,2,0.0.0.0,10.83.46.32,2,0
2015-03-01 20:11:13.393,24,1425269471.733868,37.76573598465028,-122.460366164262,81.65486,-1,-1,10,65,-9999,1425269473.359954,-17.11789703369141,40.484619140625,-12.87567901611328,172.5361328125,158.7590637207031,10,196594.648104375,-0.1483001708984375,0.9628448486328125,0.1919708251953125,196594.6118339167,-0.102945024569231,-0.04181109648202602,-0.05992059189456484,196594.6118339167,-0.5759727955299078,-2.48559520411302,-1.335181858265944,-0.1122988238930702,-0.03001219965517521,-0.02459433674812317,-0.000389235676266253,-0.006764393765479326,0.0006810752092860639,XTrueNorthZVertical,-0.4023838131548835,-0.6561868651338012,0.4901002122838369,0.4090329040291126,-0.142387256026268,0.9723711013793945,0.184987872838974,-17.32705497741699,39.9686279296875,-12.7248477935791,2,0.0.0.0,10.83.46.32,2,0
2015-03-01 20:11:13.432,25,1425269471.733868,37.76573598465028,-122.460366164262,81.65486,-1,-1,10,65,-9999,1425269473.413818,-17.83406829833984,40.24673461914062,-12.77582550048828,172.5252685546875,158.7481994628906,10,196594.6971226667,-0.16033935546875,0.9680328369140625,0.2030487060546875,196594.6636132083,-0.1028518139310782,-0.05435245468742717,-0.03269349817403074,196594.6636132083,-0.5871357964498205,-2.498083916112851,-1.329438014454728,-0.1122066229581833,-0.04255330935120583,0.002629155293107033,-0.004229303449392319,-0.006521406583487988,0.000998352188616991,XTrueNorthZVertical,-0.4027898078743113,-0.6583074338572774,0.4881227034515462,0.4075880141740142,-0.1434147357940674,0.9710142016410828,0.1912166178226471,-17.41551971435547,40.02531814575195,-12.42228984832764,2,0.0.0.0,10.83.46.32,2,0
2015-03-01 20:11:13.489,26,1425269471.733868,37.76573598465028,-122.460366164262,81.65486,-1,-1,10,65,-9999,1425269473.413818,-17.83406829833984,40.24673461914062,-12.77582550048828,172.5252685546875,158.7481994628906,10,196594.7461350833,-0.1581573486328125,0.963714599609375,0.2088775634765625,196594.7153925,-0.09045080431512423,-0.07593790795473741,-0.0541886702803873,196594.7153925,-0.5954855797386384,-2.509062303008982,-1.32450401647164,-0.09980637580156326,-0.06413791328668594,-0.01887313276529312,-0.01809392124414444,-0.001256162417121232,0.004530629143118858,XTrueNorthZVertical,-0.4027042238460785,-0.6604164829723068,0.4867309605211522,0.4059216906097947,-0.144137516617775,0.9698230624198914,0.1966412514448166,-17.47413444519043,40.07115173339844,-12.19005870819092,2,0.0.0.0,10.83.46.32,2,0
2015-03-01 20:11:13.530,27,1425269471.733868,37.76573598465028,-122.460366164262,81.65486,-1,-1,10,65,-9999,1425269473.489979,-17.85112762451172,40.059814453125,-12.19337463378906,172.4985504150391,158.7214813232422,10,196594.7951687917,-0.1595458984375,0.9627838134765625,0.208648681640625,196594.7671717917,-0.1005497774848137,-0.03105432252308697,-0.0516341661627833,196594.7671717917,-0.6018753207232316,-2.517140271557788,-1.318052792572182,-0.1099094897508621,-0.01925364322960377,-0.01632801443338394,-0.01238530594855547,-0.00617862306535244,0.005548968911170959,XTrueNorthZVertical,-0.4026592892761451,-0.6627977912680844,0.4845675849375753,0.4046713604888361,-0.1461992859840393,0.9682300090789795,0.2028708308935165,-17.58027648925781,40.09874725341797,-11.94419860839844,2,0.0.0.0,10.83.46.32,2,0
2015-03-01 20:11:13.594,28,1425269471.733868,37.76573598465028,-122.460366164262,81.65486,-1,-1,10,65,-9999,1425269473.542599,-17.59535217285156,40.17877197265625,-11.77733612060547,172.4857177734375,158.7086486816406,10,196594.84418075,-0.149383544921875,0.968048095703125,0.221160888671875,196594.8189513333,-0.105332548486487,-0.05273937801516618,-0.0571935149383237,196594.8189513333,-0.6088383467190562,-2.525396782279267,-1.312044332767373,-0.1146946176886559,-0.04093795269727707,-0.02189507894217968,-0.0182588305324316,-0.002140971831977367,0.005479532293975353,XTrueNorthZVertical,-0.4028028452762492,-0.6649491097236789,0.4824948534497749,0.4034740827263456,-0.1478788703680038,0.966710090637207,0.2088149040937424,-17.7009162902832,40.14084243774414,-11.62025356292725,2,0.0.0.0,10.83.46.32,2,0
2015-03-01 20:11:13.629,29,1425269471.733868,37.76573598465028,-122.460366164262,81.65486,-1,-1,10,65,-9999,1425269473.593883,-18.12395477294922,40.16180419921875,-11.56098937988281,172.4590148925781,158.6819458007812,10,196594.8933394167,-0.155181884765625,0.957000732421875,0.2064971923828125,196594.8707305417,-0.09196081665319915,-0.02779487966493899,-0.03216033332379688,196594.8707305417,-0.6185997595870213,-2.536183450659795,-1.307112966470659,-0.1013255715370178,-0.0159938633441925,0.003136861836537719,0.008650156669318676,0.006975605152547359,0.0003149387193843722,XTrueNorthZVertical,-0.4033269048250975,-0.6666970841102436,0.480788337741853,0.4021007956929107,-0.148329108953476,0.9654365181922913,0.214315190911293,-17.79193687438965,40.16907501220703,-11.38121604919434,2,0.0.0.0,10.83.46.32,2,0
2015-03-01 20:11:13.689,30,1425269471.733868,37.76573598465028,-122.460366164262,81.65486,-1,-1,10,65,-9999,1425269473.645742,-17.69765472412109,40.38272094726562,-11.47779083251953,172.4583587646484,158.6812896728516,10,196594.9422322084,-0.163970947265625,0.952850341796875,0.215850830078125,196594.9225108333,-0.1014408711855542,-0.08563687432869699,-0.04780800262466645,196594.9225108333,-0.6276197681791393,-2.547238488176235,-1.303006242971774,-0.1108014136552811,-0.0738348513841629,-0.01251365430653095,-0.01076577883213758,-0.01777901686728001,-0.01046937797218561,XTrueNorthZVertical,-0.4035894778817836,-0.6683771158821167,0.4796121460846818,0.4004495266055375,-0.1481697708368301,0.9643579721450806,0.2192248702049255,-17.78932571411133,40.22634506225586,-11.1812744140625,2,0.0.0.0,10.83.46.32,2,0
2015-03-01 20:11:13.726,31,1425269471.733868,37.76573598465028,-122.460366164262,81.65486,-1,-1,10,65,-9999,1425269473.697982,-17.42482757568359,40.41668701171875,-11.21153259277344,172.4710540771484,158.6939849853516,10,196594.991266375,-0.1607513427734375,0.9641876220703125,0.235931396484375,196594.9742891667,-0.1139721093788131,-0.04755047494725579,-0.07443428720327867,196594.9742891667,-0.6305819969418551,-2.552522952993172,-1.296872066583098,-0.1233306303620338,-0.03574678674340248,-0.03914840146899223,-0.005422910675406456,-0.003839191049337387,-0.001484705950133502,XTrueNorthZVertical,-0.4031887857016663,-0.6707446460493537,0.4776973580700626,0.3991813205747047,-0.1502930372953415,0.9627167582511902,0.2249191552400589,-17.92387390136719,40.25052261352539,-10.87520122528076,2,0.0.0.0,10.83.46.32,2,0
2015-03-01 20:11:13.790,32,1425269471.733868,37.76573598465028,-122.460366164262,81.65486,-1,-1,10,65,-9999,1425269473.750065,-17.61238861083984,40.53564453125,-10.89533233642578,172.5042877197266,158.7272186279297,10,196595.0402910417,-0.1439056396484375,0.9626617431640625,0.2542877197265625,196595.0260682917,-0.1251033237870172,-0.03527569916697158,-0.07839387511200849,196594.9742891667,-0.6305819969418551,-2.552522952993172,-1.296872066583098,-0.1233306303620338,-0.03574678674340248,-0.03914840146899223,-0.005422910675406456,-0.003839191049337387,-0.001484705950133502,XTrueNorthZVertical,-0.4031887857016663,-0.6707446460493537,0.4776973580700626,0.3991813205747047,-0.1502930372953415,0.9627167582511902,0.2249191552400589,-17.92387390136719,40.25052261352539,-10.87520122528076,2,0.0.0.0,10.83.46.32,2,0
2015-03-01 20:11:13.825,33,1425269471.733868,37.76573598465028,-122.460366164262,81.65486,-1,-1,10,65,-9999,1425269473.80216,-17.74879455566406,40.56964111328125,-10.59577941894531,172.5342102050781,158.7571411132812,10,196595.0894267083,-0.1591033935546875,0.97247314453125,0.255279541015625,196595.0778479167,-0.1100407509776381,-0.0855061131191741,-0.05146532174967227,196595.0778479167,-0.6499912214811336,-2.575284312070819,-1.282101085202781,-0.1194124668836594,-0.07370489835739136,-0.01618031971156597,-0.004035631194710732,0.004991629626601934,0.01963126473128796,XTrueNorthZVertical,-0.4040584088878255,-0.6759179071249484,0.4726655932691252,0.3955491014991115,-0.1527484208345413,0.9586161375045776,0.2402564287185669,-18.1171760559082,40.31447982788086,-10.30293846130371,2,0.0.0.0,10.83.46.32,2,0
2015-03-01 20:11:13.886,34,1425269471.733868,37.76573598465028,-122.460366164262,81.65486,-1,-1,10,65,-9999,1425269473.853133,-17.9193115234375,40.46771240234375,-9.930122375488281,172.5482940673828,158.7712249755859,10,196595.1383334167,-0.18670654296875,0.9639434814453125,0.2518463134765625,196595.12962725,-0.02380280119091022,-0.1318552360986951,-0.07980721470251353,196595.0778479167,-0.6499912214811336,-2.575284312070819,-1.282101085202781,-0.1194124668836594,-0.07370489835739136,-0.01618031971156597,-0.004035631194710732,0.004991629626601934,0.01963126473128796,XTrueNorthZVertical,-0.4040584088878255,-0.6759179071249484,0.4726655932691252,0.3955491014991115,-0.1527484208345413,0.9586161375045776,0.2402564287185669,-18.1171760559082,40.31447982788086,-10.30293846130371,2,0.0.0.0,10.83.46.32,2,0
2015-03-01 20:11:13.923,35,1425269471.733868,37.76573598465028,-122.460366164262,81.65486,-1,-1,10,65,-9999,1425269473.9053,-18.36266326904297,40.53570556640625,-9.863555908203125,172.546630859375,158.7695617675781,10,196595.1874750833,-0.183502197265625,0.94744873046875,0.25408935546875,196595.1814065,0.01126810088823427,-0.04464390093354331,-0.09674997924148865,196595.12962725,-0.6514524763334151,-2.581747719534078,-1.27719358359968,-0.03317985311150551,-0.1200537905097008,-0.04452882334589958,-0.02305371500551701,0.01061176788061857,0.008333318866789341,XTrueNorthZVertical,-0.4029587725485996,-0.678406380519686,0.4717595603246407,0.3934869724157932,-0.153688833117485,0.9572074413299561,0.2452219724655151,-18.21928024291992,40.36961364746094,-9.899101257324219,2,0.0.0.0,10.83.46.32,2,0
2015-03-01 20:11:13.994,36,1425269471.733868,37.76573598465028,-122.460366164262,81.65486,-1,-1,10,65,-9999,1425269473.956349,-18.56727600097656,40.16180419921875,-9.996688842773438,172.5332183837891,158.7561492919922,10,196595.2363935417,-0.1689910888671875,0.9471893310546875,0.2418975830078125,196595.23318575,-0.05643770982095921,-0.01552063651687279,-0.06189079846900546,196595.1814065,-0.6375946552258878,-2.572042633867524,-1.27368920520521,0.001887117978185415,-0.03283989802002907,-0.06148797646164894,-0.0293864794075489,-0.008677628822624683,0.008706736378371716,XTrueNorthZVertical,-0.400484444020978,-0.6803553142069495,0.4711616688763545,0.393364472253863,-0.1578693836927414,0.95618736743927,0.246542289853096,-18.41617965698242,40.31762313842773,-9.745426177978516,2,0.0.0.0,10.83.46.32,2,0
2015-03-01 20:11:14.022,37,1425269471.733868,37.76573598465028,-122.460366164262,81.65486,-1,-1,10,65,-9999,1425269474.008506,-18.60137939453125,40.33172607421875,-10.29623413085938,172.5556182861328,158.7785491943359,10,196595.2855853333,-0.179840087890625,0.950469970703125,0.25860595703125,196595.2849653334,-0.05980900544489053,-0.06222262834082934,-0.01789351304813339,196595.23318575,-0.6311938580448512,-2.565359699161015,-1.26994271129504,-0.06581798940896988,-0.003714593825861812,-0.02663845382630825,-0.01053281594067812,-0.009252581745386124,-0.008234268985688686,XTrueNorthZVertical,-0.3998053282129095,-0.6814672778606564,0.469612897387067,0.3939820364785921,-0.1614642590284348,0.9550839066505432,0.2484838962554932,-18.62518119812012,40.23684310913086,-9.681882858276367,2,0.0.0.0,10.83.46.32,2,0
2015-03-01 20:11:14.064,38,1425269471.733868,37.76573598465028,-122.460366164262,81.65486,-1,-1,10,65,-9999,1425269474.060091,-18.56727600097656,40.63763427734375,-10.19638061523438,172.5879821777344,158.8109130859375,10,196595.3344602083,-0.1810760498046875,0.9526214599609375,0.264495849609375,196595.2849653334,-0.05980900544489053,-0.06222262834082934,-0.01789351304813339,196595.2849653334,-0.6355830762459587,-2.57128130955007,-1.266512187702704,-0.06918914616107941,-0.05041529610753059,0.01735211536288261,-0.01863141357898712,-0.0004941713996231556,0.001958311535418034,XTrueNorthZVertical,-0.3998457611808456,-0.682802611930076,0.4685843068692331,0.3928521063777005,-0.1617579907178879,0.9540616869926453,0.2521920800209045,-18.71514892578125,40.22994613647461,-9.535965919494629,2,0.0.0.0,10.83.46.32,2,0
2015-03-01 20:11:14.119,39,1425269471.733868,37.76573598465028,-122.460366164262,81.65486,-1,-1,10,65,-9999,1425269474.112702,-18.39675903320312,40.63763427734375,-9.963401794433594,172.6274719238281,158.8504028320312,10,196595.38359625,-0.1673431396484375,0.9554443359375,0.263580322265625,196595.388524,-0.01461303121737379,-0.02360812411522542,-0.03240481151186615,196595.3367444167,-0.638151991440137,-2.575708648239886,-1.26357458234468,-0.02629839815199375,-0.03611914813518524,0.009563487954437733,-0.01893419772386551,-0.0005559643032029271,0.009225418791174889,XTrueNorthZVertical,-0.3996328239520829,-0.6840532299409771,0.4678090674803089,0.3918156846438688,-0.1621418446302414,0.9531774520874023,0.2552704215049744,-18.7614803314209,40.24682235717773,-9.372299194335938,2,0.0.0.0,10.83.46.32,2,0
2015-03-01 20:11:14.159,40,1425269471.733868,37.76573598465028,-122.460366164262,81.65486,-1,-1,10,65,-9999,1425269474.112702,-18.39675903320312,40.63763427734375,-9.963401794433594,172.6274719238281,158.8504028320312,10,196595.4324988333,-0.176239013671875,0.94659423828125,0.2635040283203125,196595.388524,-0.01461303121737379,-0.02360812411522542,-0.03240481151186615,196595.388524,-0.6402441353994153,-2.578200913917684,-1.26130660198604,-0.02399892173707485,-0.01179858017712831,0.002823959104716778,-0.004683892242610455,0.002955226227641106,0.006079564336687326,XTrueNorthZVertical,-0.3997261471803515,-0.6848133952233212,0.4670042090467837,0.391352474679779,-0.1626592427492142,0.9524891376495361,0.2575007677078247,-18.80865097045898,40.25238800048828,-9.253096580505371,2,0.0.0.0,10.83.46.32,2,0
2015-03-01 20:11:14.217,41,1425269471.733868,37.76573598465028,-122.460366164262,81.65486,-1,-1,10,65,-9999,1425269474.163719,-18.36265563964844,40.63763427734375,-9.996688842773438,172.6742706298828,158.8972015380859,10,196595.4815642083,-0.1651763916015625,0.9532928466796875,0.25933837890625,196595.4403032083,-0.006117813656130026,-0.008848619037897278,-0.05114068241279161,196595.4403032083,-0.6394687348686479,-2.577926148943835,-1.259401487608555,-0.01550617162138224,0.002961962483823299,-0.0159192681312561,-0.01253979559987783,-0.005312897730618715,0.004514557309448719,XTrueNorthZVertical,-0.3994910742020754,-0.6854937032898956,0.4663501837327696,0.3911813393268249,-0.1636992245912552,0.9519071578979492,0.2589894831180573,-18.84685516357422,40.25547790527344,-9.16146183013916,2,0.0.0.0,10.83.46.32,2,0
2015-03-01 20:11:14.262,42,1425269471.733868,37.76573598465028,-122.460366164262,81.65486,-1,-1,10,65,-9999,1425269474.216244,-18.48201751708984,40.68856811523438,-9.680496215820312,172.7238311767578,158.9467620849609,10,196595.5305551667,-0.1585235595703125,0.9479217529296875,0.264251708984375,196595.4920825833,-0.0269615765598532,-0.0136521626960732,-0.04241962879110913,196595.4920825833,-0.6421483040402469,-2.58006858940309,-1.257676684201338,-0.03627877682447433,-0.001905525103211403,-0.007055262103676796,0.001054111053235829,-0.00311981700360775,-0.0007039178744889796,XTrueNorthZVertical,-0.3998804902457391,-0.6859009146047954,0.4655742609373915,0.3909938696962832,-0.1640179753303528,0.951377272605896,0.2607289552688599,-18.88087844848633,40.25214385986328,-9.105896949768066,2,0.0.0.0,10.83.46.32,2,0
2015-03-01 20:11:14.315,43,1425269471.733868,37.76573598465028,-122.460366164262,81.65486,-1,-1,10,65,-9999,1425269474.267472,-18.53317260742188,40.80755615234375,-9.231170654296875,172.7454223632812,158.9683532714844,10,196595.5797031667,-0.1726226806640625,0.951507568359375,0.267333984375,196595.5438619167,-0.03532470133102903,-0.05123682252814347,-0.03656280492180687,196595.5438619167,-0.6458613195608216,-2.585096563471014,-1.255614350409644,-0.04464202374219894,-0.0394904650747776,-0.001198312267661095,0.001280684373341501,0.005833502393215895,-0.002885567490011454,XTrueNorthZVertical,-0.3999509471613534,-0.6867656978143661,0.4650410886952929,0.3900371414592711,-0.1637410074472427,0.9507399797439575,0.2632157802581787,-18.89122772216797,40.26556396484375,-9.024716377258301,2,0.0.0.0,10.83.46.32,2,0
2015-03-01 20:11:14.358,44,1425269471.733868,37.76573598465028,-122.460366164262,81.65486,-1,-1,10,65,-9999,1425269474.319625,-18.77190399169922,40.67160034179688,-8.931625366210938,172.7488250732422,158.9717559814453,10,196595.6286157084,-0.180572509765625,0.949981689453125,0.277862548828125,196595.5956415,-0.04265265538649107,-0.05941325970690475,-0.05224509531684747,196595.5956415,-0.6464894627700998,-2.587498102858802,-1.253197972419392,-0.05196959897875786,-0.04766613617539406,-0.01688422821462154,-0.01062527485191822,0.001107423799112439,0.002688434207811952,XTrueNorthZVertical,-0.3995710076768706,-0.6878397695856352,0.4644449322907834,0.3892434145778436,-0.1643167436122894,0.9499881863594055,0.2655610740184784,-18.93010330200195,40.27976608276367,-8.878716468811035,2,0.0.0.0,10.83.46.32,2,0
2015-03-01 20:11:14.413,45,1425269471.733868,37.76573598465028,-122.460366164262,81.65486,-1,-1,10,65,-9999,1425269474.371394,-18.66959381103516,40.80755615234375,-8.765213012695312,172.7548522949219,158.977783203125,10,196595.6776486667,-0.1743621826171875,0.9455718994140625,0.2731475830078125,196595.6474205417,-0.04281936927073002,-0.03164368007232151,-0.04560663366760696,196595.6474205417,-0.6462896026721243,-2.588781499602436,-1.249282506122012,-0.05214040353894234,-0.0198957547545433,-0.01025318820029497,-0.01823068410158157,-0.003949173260480165,0.007233516313135624,XTrueNorthZVertical,-0.3991437060289522,-0.6893126687857127,0.4631930594395746,0.3885673763947991,-0.1659276485443115,0.9487581253051758,0.2689352929592133,-19.01300430297852,40.27239608764648,-8.733819961547852,2,0.0.0.0,10.83.46.32,2,0
2015-03-01 20:11:14.460,46,1425269471.733868,37.76573598465028,-122.460366164262,81.65486,-1,-1,10,65,-9999,1425269474.422978,-18.51612854003906,40.75656127929688,-8.781852722167969,172.7767028808594,158.9996337890625,10,196595.7266644167,-0.1797027587890625,0.9437713623046875,0.2778167724609375,196595.6991999584,-0.01827114929070663,-0.0283496161200025,-0.03717133723088997,196595.6991999584,-0.6453039722031948,-2.588115495275749,-1.24610681489246,-0.02759506553411484,-0.01660075038671494,-0.001824862090870738,-0.01019732840359211,-0.002101629041135311,0.005743616726249456,XTrueNorthZVertical,-0.3989072190314536,-0.6903378055286935,0.4619955630180075,0.3884159038150127,-0.167689636349678,0.9477497935295105,0.2713865041732788,-19.10458183288574,40.25594329833984,-8.60893440246582,2,0.0.0.0,10.83.46.32,2,0
2015-03-01 20:11:14.512,47,1425269471.733868,37.76573598465028,-122.460366164262,81.65486,-1,-1,10,65,-9999,1425269474.474905,-18.60138702392578,40.60360717773438,-8.865058898925781,172.8076782226562,159.0306091308594,10,196595.7758209167,-0.1804351806640625,0.954498291015625,0.278839111328125,196595.7509794167,-0.02429655125701091,-0.04761838555505281,-0.04156715092617477,196595.7509794167,-0.6458190640357845,-2.589852846777758,-1.243953640897642,-0.03362201526761055,-0.03586833924055099,-0.006227319128811359,-0.02031147666275501,-0.002648500725626945,0.00228113355115056,XTrueNorthZVertical,-0.3986493537036835,-0.6912206785161751,0.4613896877007863,0.3878302363006049,-0.1682871580123901,0.9470607042312622,0.273414671421051,-19.16216850280762,40.25250244140625,-8.496326446533203,2,0.0.0.0,10.83.46.32,2,0
2015-03-01 20:11:14.592,48,1425269471.733868,37.76573598465028,-122.460366164262,81.65486,-1,-1,10,65,-9999,1425269474.578553,-18.56729125976562,40.26373291015625,-8.498947143554688,172.8872222900391,159.1101531982422,10,196595.8247223333,-0.176727294921875,0.9465789794921875,0.2738494873046875,196595.8027588333,-0.02709553356268419,0.00816977927603608,-0.04297037050453752,196595.8027588333,-0.6448503217965172,-2.588635424116716,-1.241688225484481,-0.03642118722200394,0.01992043107748032,-0.007633802946656942,0.01078021619468927,0.0006142096826806664,-0.002100679324939847,XTrueNorthZVertical,-0.3985579747913885,-0.6918589887977212,0.4604375782702317,0.3879174997199326,-0.1697462797164917,0.9463309645652771,0.275034636259079,-19.24367141723633,40.23054504394531,-8.415718078613281,2,0.0.0.0,10.83.46.32,2,0
2015-03-01 20:11:14.611,49,1425269471.733868,37.76573598465028,-122.460366164262,81.65486,-1,-1,10,65,-9999,1425269474.578553,-18.56729125976562,40.26373291015625,-8.498947143554688,172.8872222900391,159.1101531982422,10,196595.8737611667,-0.1773834228515625,0.944183349609375,0.2865142822265625,196595.854538125,-0.02062325316546461,-0.04530116909057486,-0.03673910618597011,196595.854538125,-0.6472930359254843,-2.591370353848712,-1.239980846669325,-0.02995018102228642,-0.0335502102971077,-0.001405656919814646,-0.004646217916160822,-0.005210761912167072,0.007503325585275888,XTrueNorthZVertical,-0.3987463393478171,-0.6924151355158514,0.4598325441541975,0.3874490134511849,-0.1698380410671234,0.9457777738571167,0.2768747210502625,-19.23919868469238,40.24450302124023,-8.359016418457031,2,0.0.0.0,10.83.46.32,2,0
2015-03-01 20:11:14.659,50,1425269471.733868,37.76573598465028,-122.460366164262,81.65486,-1,-1,10,65,-9999,1425269474.630485,-18.72075653076172,40.17877197265625,-8.4822998046875,172.9113159179688,159.1342468261719,10,196595.9228044584,-0.177703857421875,0.9485015869140625,0.2797393798828125,196595.9063177083,-0.02198705795969419,-0.0244912283326957,-0.04949404991079562,196595.9063177083,-0.6482777672274196,-2.594081143495208,-1.237833787704858,-0.03131644427776337,-0.01273935940116644,-0.01416672021150589,-0.01464038528501987,0.006185224279761314,-0.0002739336632657796,XTrueNorthZVertical,-0.3984309712377218,-0.6933876228161695,0.4593308602353212,0.3866284990035327,-0.1701435446739197,0.9450781941413879,0.2790672779083252,-19.28267860412598,40.25164794921875,-8.22331714630127,2,0.0.0.0,10.83.46.32,2,0
2015-03-01 20:11:14.707,51,1425269471.733868,37.76573598465028,-122.460366164262,81.65486,-1,-1,10,65,-9999,1425269474.682191,-19.02768707275391,40.24673461914062,-8.415733337402344,172.9183197021484,159.1412506103516,10,196595.9718165417,-0.1751708984375,0.949615478515625,0.2835235595703125,196595.9580968333,-0.01088487200737186,-0.0319358288439032,-0.04443324489131804,196595.9580968333,-0.6482944910571116,-2.594545474423107,-1.236212475302726,-0.02021459303796291,-0.02018330432474613,-0.009109346196055412,-0.00323098455555737,-0.003522264305502176,0.003709901124238968,XTrueNorthZVertical,-0.3983051399251535,-0.6939598542371724,0.4587768731229206,0.3863891647370812,-0.1708107590675354,0.9445470571517944,0.2804545164108276,-19.32903480529785,40.24193954467773,-8.161779403686523,2,0.0.0.0,10.83.46.32,2,0
2015-03-01 20:11:14.761,52,1425269471.733868,37.76573598465028,-122.460366164262,81.65486,-1,-1,10,65,-9999,1425269474.734684,-19.18114471435547,40.4676513671875,-8.199394226074219,172.9188079833984,159.1417388916016,10,196596.0209390833,-0.176910400390625,0.943695068359375,0.28863525390625,196596.0098764167,-0.01215227037014057,-0.02372397162264387,-0.02629019364904422,196595.9580968333,-0.6482944910571116,-2.594545474423107,-1.236212475302726,-0.02021459303796291,-0.02018330432474613,-0.009109346196055412,-0.00323098455555737,-0.003522264305502176,0.003709901124238968,XTrueNorthZVertical,-0.3983051399251535,-0.6939598542371724,0.4587768731229206,0.3863891647370812,-0.1708107590675354,0.9445470571517944,0.2804545164108276,-19.32903480529785,40.24193954467773,-8.161779403686523,2,0.0.0.0,10.83.46.32,2,0
2015-03-01 20:11:14.805,53,1425269471.733868,37.76573598465028,-122.460366164262,81.65486,-1,-1,10,65,-9999,1425269474.785939,-19.02767944335938,40.75653076171875,-7.916488647460938,172.9262237548828,159.1491546630859,10,196596.0698707917,-0.1702423095703125,0.9490509033203125,0.287750244140625,196596.0616556667,-0.02694746180607578,-0.01605806242485078,-0.04358183229081971,196596.0616556667,-0.6513695891140464,-2.598228429657762,-1.232843566957203,-0.03628036007285118,-0.004305477254092693,-0.008262362331151962,0.0007819013553671539,0.002304328605532646,0.002985040890052915,XTrueNorthZVertical,-0.3984785295518371,-0.6950660481177625,0.457579513268984,0.3856411661104395,-0.1714209467172623,0.9434354305267334,0.2838039100170135,-19.37767028808594,40.25025177001953,-8.003944396972656,2,0.0.0.0,10.83.46.32,2,0
2015-03-01 20:11:14.845,54,1425269471.733868,37.76573598465028,-122.460366164262,81.65486,-1,-1,10,65,-9999,1425269474.838245,-18.80601501464844,40.87548828125,-7.799995422363281,172.9411315917969,159.1640625,10,196596.118997125,-0.1787872314453125,0.9447021484375,0.2940521240234375,196596.0616556667,-0.02694746180607578,-0.01605806242485078,-0.04358183229081971,196596.0616556667,-0.6513695891140464,-2.598228429657762,-1.232843566957203,-0.03628036007285118,-0.004305477254092693,-0.008262362331151962,0.0007819013553671539,0.002304328605532646,0.002985040890052915,XTrueNorthZVertical,-0.3984785295518371,-0.6950660481177625,0.457579513268984,0.3856411661104395,-0.1714209467172623,0.9434354305267334,0.2838039100170135,-19.37767028808594,40.25025177001953,-8.003944396972656,2,0.0.0.0,10.83.46.32,2,0
2015-03-01 20:11:14.904,55,1425269471.733868,37.76573598465028,-122.460366164262,81.65486,-1,-1,10,65,-9999,1425269474.890267,-18.80602264404297,40.16177368164062,-7.933128356933594,172.9565887451172,159.1795196533203,10,196596.167930875,-0.1808013916015625,0.9404449462890625,0.2928466796875,196596.1652145417,-0.009654757899864263,-0.03198456469185165,-0.04198793037840728,196596.1134350833,-0.6530039682182845,-2.600700867310982,-1.231318430575521,-0.01890803314745426,-0.03354860842227936,-0.007557216100394726,-0.008701118640601635,0.0001102885289583355,0.008332728408277035,XTrueNorthZVertical,-0.3984595037630669,-0.6956723525853076,0.4571513437479922,0.3850749541856199,-0.1714594066143036,0.942928671836853,0.2854599952697754,-19.38832092285156,40.25878143310547,-7.934948921203613,2,0.0.0.0,10.83.46.32,2,0
2015-03-01 20:11:14.943,56,1425269471.733868,37.76573598465028,-122.460366164262,81.65486,-1,-1,10,65,-9999,1425269474.890267,-18.80602264404297,40.16177368164062,-7.933128356933594,172.9565887451172,159.1795196533203,10,196596.2170069167,-0.183013916015625,0.9454803466796875,0.28863525390625,196596.216994,0.0001283643645418193,-0.02589258369829539,-0.04949831096853975,196596.1652145417,-0.6528520409905647,-2.601825819816365,-1.2295993840373,-0.01899227313697338,-0.02023178152740002,-0.006674115546047688,-0.006938330829143524,-0.00242867786437273,0.001806113868951797,XTrueNorthZVertical,-0.3981254889339126,-0.6964319612163101,0.4567214153214212,0.3845571959626725,-0.1719709634780884,0.9423547983169556,0.2870427668094635,-19.42537498474121,40.25683975219727,-7.853753089904785,2,0.0.0.0,10.83.46.32,2,0
2015-03-01 20:11:15.002,57,1425269471.733868,37.76573598465028,-122.460366164262,81.65486,-1,-1,10,65,-9999,1425269474.993566,-18.9083251953125,39.889892578125,-7.833274841308594,172.9879913330078,159.2109222412109,10,196596.2660305417,-0.1803741455078125,0.941864013671875,0.2864990234375,196596.2687732917,-0.01099912161813626,-0.01369370800907843,-0.04856300879370392,196596.216994,-0.6501742754453325,-2.59983105276489,-1.227905448723687,-0.009210238233208656,-0.01413855608552694,-0.01419038884341717,-0.01285217888653278,0.0009013313101604581,-0.001582674914970994,XTrueNorthZVertical,-0.3976232964464278,-0.6970860305030463,0.4561658551110845,0.3845511182582809,-0.1733660846948624,0.9417866468429565,0.2880664467811584,-19.4919319152832,40.24097442626953,-7.769708633422852,2,0.0.0.0,10.83.46.32,2,0
2015-03-01 20:11:15.041,58,1425269471.733868,37.76573598465028,-122.460366164262,81.65486,-1,-1,10,65,-9999,1425269474.993566,-18.9083251953125,39.889892578125,-7.833274841308594,172.9879913330078,159.2109222412109,10,196596.315095,-0.183990478515625,0.9378662109375,0.294219970703125,196596.2687732917,-0.01099912161813626,-0.01369370800907843,-0.04856300879370392,196596.2687732917,-0.6478539395540446,-2.597954270677786,-1.226473101873195,-0.02033757418394089,-0.001938506844453514,-0.0132598876953125,-0.005770152434706688,0.0005598934949375689,-0.002395730465650558,XTrueNorthZVertical,-0.397220005633827,-0.6976128181464256,0.4556691841786812,0.3846014656684741,-0.1746039986610413,0.9413041472434998,0.2888947427272797,-19.55238914489746,40.21923446655273,-7.730263710021973,2,0.0.0.0,10.83.46.32,2,0
2015-03-01 20:11:15.099,59,1425269471.733868,37.76573598465028,-122.460366164262,81.65486,-1,-1,10,65,-9999,1425269475.045174,-18.66959381103516,40.399658203125,-7.633583068847656,173.0142364501953,159.2371673583984,10,196596.3640239167,-0.1822357177734375,0.942596435546875,0.2949676513671875,196596.3723322084,-0.02323634682705036,-0.02086240503135373,-0.04836007591863988,196596.3205525417,-0.6482906766428838,-2.598889427760695,-1.224771635222563,-0.03127419576048851,-0.02016167156398296,-0.00422089546918869,-0.008829827420413494,-0.002862200373783708,0.003791007678955793,XTrueNorthZVertical,-0.3971325929291475,-0.6982121347488585,0.4550936206132478,0.3842855510193932,-0.1751606464385986,0.9407284259796143,0.2904289662837982,-19.59752655029297,40.20379257202148,-7.696216583251953,2,0.0.0.0,10.83.46.32,2,0
2015-03-01 20:11:15.139,60,1425269471.733868,37.76573598465028,-122.460366164262,81.65486,-1,-1,10,65,-9999,1425269475.097283,-19.01063537597656,40.60357666015625,-7.833274841308594,173.0408782958984,159.2638092041016,10,196596.41314375,-0.178466796875,0.9398956298828125,0.30224609375,196596.3723322084,-0.02323634682705036,-0.02086240503135373,-0.04836007591863988,196596.3723322084,-0.6486093742707927,-2.599729012165419,-1.222594082867824,-0.03257612138986588,-0.009106003679335117,-0.01306355278939009,-0.006262911949306726,0.002608794486150146,0.002637382131069899,XTrueNorthZVertical,-0.3970187026176231,-0.6989572836665668,0.4543317813024858,0.3839499545541367,-0.1759728044271469,0.9399876594543457,0.292330265045166,-19.6488151550293,40.19757461547852,-7.597297668457031,2,0.0.0.0,10.83.46.32,2,0
2015-03-01 20:11:15.197,61,1425269471.733868,37.76573598465028,-122.460366164262,81.65486,-1,-1,10,65,-9999,1425269475.1494,-18.97653198242188,40.569580078125,-7.700141906738281,173.0768890380859,159.2998199462891,10,196596.4621741667,-0.179473876953125,0.9434967041015625,0.2961578369140625,196596.4241112917,-0.009734652732566639,-0.02078836915304953,-0.06061860641627461,196596.4241112917,-0.6484788039827324,-2.600148087551435,-1.220148196381761,-0.01907862350344658,-0.009032255969941616,-0.02532505057752132,-0.004667006898671389,-0.0006126753869466484,0.008086354471743107,XTrueNorthZVertical,-0.3968391609791982,-0.6997895124110547,0.4534651634142108,0.383644019795548,-0.1770346462726593,0.9391502737998962,0.2943733632564545,-19.68817710876465,40.19458770751953,-7.51069164276123,2,0.0.0.0,10.83.46.32,2,0
2015-03-01 20:11:15.237,62,1425269471.733868,37.76573598465028,-122.460366164262,81.65486,-1,-1,10,65,-9999,1425269475.202333,-19.30052185058594,40.82449340820312,-7.417228698730469,173.0994110107422,159.3223419189453,10,196596.511199375,-0.18316650390625,0.9414215087890625,0.2968292236328125,196596.4758909583,0.007494667939700992,-0.02798156725735355,-0.07514641647876587,196596.4758909583,-0.6436283971705465,-2.596117493415634,-1.218600191228292,-0.001775482553057373,-0.01629083044826984,-0.03970323130488396,-0.003918076865375042,0.0008967620669864118,0.00215820618905127,XTrueNorthZVertical,-0.3960286460202456,-0.7004364790743316,0.4529795132744254,0.3838745636133355,-0.1789737641811371,0.9386174082756042,0.2948999106884003,-19.75705146789551,40.17312622070312,-7.444375991821289,2,0.0.0.0,10.83.46.32,2,0
2015-03-01 20:11:15.306,63,1425269471.733868,37.76573598465028,-122.460366164262,81.65486,-1,-1,10,65,-9999,1425269475.252454,-19.45399475097656,40.63754272460938,-7.400588989257812,173.1162872314453,159.3392181396484,10,196596.5601318333,-0.182952880859375,0.9333343505859375,0.2892608642578125,196596.527670375,-0.00119549301333657,-0.01224255153109426,-0.06941183170349824,196596.527670375,-0.6397391727080406,-2.59267460826111,-1.216832281385814,-0.010466692969203,-0.0005517096142284572,-0.03397045657038689,-0.004006688017398119,-0.002733856672421098,-7.333487883443013e-05,XTrueNorthZVertical,-0.3954127625302403,-0.7010686873012268,0.4523394253708009,0.3841100843397528,-0.180853545665741,0.9380061030387878,0.2956971228122711,-19.86526489257812,40.12603759765625,-7.4102783203125,2,0.0.0.0,10.83.46.32,2,0
2015-03-01 20:11:15.335,64,1425269471.733868,37.76573598465028,-122.460366164262,81.65486,-1,-1,10,65,-9999,1425269475.30443,-19.57334899902344,40.4166259765625,-8.016326904296875,173.1436920166016,159.3666229248047,10,196596.6091517083,-0.181427001953125,0.937347412109375,0.289306640625,196596.5794496667,-0.02075987332938568,-0.02552400220342843,-0.06170224666382786,196596.5794496667,-0.6373050876935347,-2.590727203514664,-1.215230283826947,-0.03003013506531715,-0.01383271068334579,-0.02626248262822628,-0.001775130047462881,-0.0007888209074735641,-0.0002986889739986509,XTrueNorthZVertical,-0.3949680965793346,-0.7016497623228388,0.4517823691295404,0.3841621719831881,-0.1822153478860855,0.93744957447052,0.2966243624687195,-19.93270874023438,40.09785461425781,-7.381649971008301,2,0.0.0.0,10.83.46.32,2,0
2015-03-01 20:11:15.393,65,1425269471.733868,37.76573598465028,-122.460366164262,81.65486,-1,-1,10,65,-9999,1425269475.356152,-19.77796936035156,40.45059204101562,-8.049606323242188,173.1757354736328,159.3986663818359,10,196596.658264375,-0.1894989013671875,0.9429779052734375,0.291900634765625,196596.6312289167,-0.0352663781031563,-0.06299947243080545,-0.05950700297727553,196596.6312289167,-0.6356978849758733,-2.590878373538267,-1.21351601280886,-0.04453279823064804,-0.05130743235349655,-0.02406786382198334,-0.003390170866623521,-0.006553585175424814,-0.008790574036538601,XTrueNorthZVertical,-0.3943352264802229,-0.7025028037645366,0.4514357127926567,0.3836605358874984,-0.1830111891031265,0.936851441860199,0.2980209290981293,-19.9849681854248,40.08058547973633,-7.334016799926758,2,0.0.0.0,10.83.46.32,2,0
2015-03-01 20:11:15.433,66,1425269471.733868,37.76573598465028,-122.460366164262,81.65486,-1,-1,10,65,-9999,1425269475.408356,-19.726806640625,40.19570922851562,-7.933113098144531,173.2055816650391,159.4285125732422,10,196596.70727075,-0.1831817626953125,0.93310546875,0.29278564453125,196596.683008625,-0.04646497048693949,-0.03875298860228803,-0.05398307424423318,196596.683008625,-0.6349654606783885,-2.591733550094733,-1.210879028124935,-0.05572817102074623,-0.02705983445048332,-0.01854604855179787,0.0004986402345821261,0.002428538165986538,-0.007237546145915985,XTrueNorthZVertical,-0.3938309967262082,-0.7035896822704222,0.4506901713307038,0.3830628462909038,-0.1840466111898422,0.9359259605407715,0.3002825975418091,-20.08391189575195,40.05474090576172,-7.203766822814941,2,0.0.0.0,10.83.46.32,2,0
2015-03-01 20:11:15.492,67,1425269471.733868,37.76573598465028,-122.460366164262,81.65486,-1,-1,10,65,-9999,1425269475.459807,-19.82911682128906,40.02578735351562,-7.433868408203125,173.2255859375,159.4485168457031,10,196596.7562959167,-0.1846923828125,0.9276275634765625,0.3077850341796875,196596.73478775,-0.06703309621783947,-0.08945424943521657,-0.05511252086253578,196596.73478775,-0.6372020061501001,-2.596748692215719,-1.20825637946192,-0.07629238814115524,-0.07776013761758804,-0.01967671699821949,-0.005399084184318781,-0.00488430168479681,-0.006074036471545696,XTrueNorthZVertical,-0.3934365490143149,-0.7048813206642056,0.450200135033079,0.3816672815646231,-0.183809906244278,0.9349990487098694,0.3032999932765961,-20.12151336669922,40.05545043945312,-7.094028472900391,2,0.0.0.0,10.83.46.32,2,0
2015-03-01 20:11:15.531,68,1425269471.733868,37.76573598465028,-122.460366164262,81.65486,-1,-1,10,65,-9999,1425269475.511913,-19.89732360839844,39.88983154296875,-7.067756652832031,173.2357177734375,159.4586486816406,10,196596.8053,-0.1877899169921875,0.9391021728515625,0.3073883056640625,196596.7865671667,-0.08910777217739727,-0.0931488528154835,-0.0390778942552777,196596.7865671667,-0.642118881660168,-2.605584203684459,-1.203751737255298,-0.09836972504854202,-0.08145435154438019,-0.003646146738901734,-0.01347470283508301,-0.00103420636150986,0.008196465671062469,XTrueNorthZVertical,-0.3931022508957079,-0.7069198892457845,0.4491976360308072,0.3794159248583664,-0.183272123336792,0.9333919882774353,0.3085302114486694,-20.17262268066406,40.06367111206055,-6.899815559387207,2,0.0.0.0,10.83.46.32,2,0
2015-03-01 20:11:15.590,69,1425269471.733868,37.76573598465028,-122.460366164262,81.65486,-1,-1,10,65,-9999,1425269475.563394,-20.20424652099609,40.12774658203125,-6.967910766601562,173.2312469482422,159.4541778564453,10,196596.8542164583,-0.193695068359375,0.931121826171875,0.319305419921875,196596.8383466667,-0.07905753485565624,-0.1296221755246637,-0.03695215907317646,196596.8383466667,-0.6473811151873466,-2.614925650156922,-1.199547127590992,-0.08831804245710373,-0.1179275438189507,-0.001520621706731617,-0.0007065495592541993,-0.004750865045934916,-0.001835891045629978,XTrueNorthZVertical,-0.3928002014578555,-0.7088845926713908,0.4483518596536659,0.3770561174085677,-0.182353138923645,0.9318748712539673,0.3136187195777893,-20.24919891357422,40.08230972290039,-6.558828353881836,2,0.0.0.0,10.83.46.32,2,0
2015-03-01 20:11:15.630,70,1425269471.733868,37.76573598465028,-122.460366164262,81.65486,-1,-1,10,65,-9999,1425269475.615617,-20.03373718261719,40.33163452148438,-6.668357849121094,173.2386627197266,159.4615936279297,10,196596.9033297917,-0.2006683349609375,0.9297943115234375,0.3340911865234375,196596.890126125,-0.07804686522197116,-0.09549722826471536,-0.05004772110142309,196596.8383466667,-0.6473811151873466,-2.614925650156922,-1.199547127590992,-0.08831804245710373,-0.1179275438189507,-0.001520621706731617,-0.0007065495592541993,-0.004750865045934916,-0.001835891045629978,XTrueNorthZVertical,-0.3928002014578555,-0.7088845926713908,0.4483518596536659,0.3770561174085677,-0.182353138923645,0.9318748712539673,0.3136187195777893,-20.24919891357422,40.08230972290039,-6.558828353881836,2,0.0.0.0,10.83.46.32,2,0
2015-03-01 20:11:15.688,71,1425269471.733868,37.76573598465028,-122.460366164262,81.65486,-1,-1,10,65,-9999,1425269475.668855,-19.72679901123047,40.36563110351562,-6.83477783203125,173.2662811279297,159.4892120361328,10,196596.952253125,-0.18524169921875,0.9290313720703125,0.3301239013671875,196596.9419054583,-0.07102890311739435,-0.03960306962224133,-0.06370307959080439,196596.9419054583,-0.6519156621531719,-2.625848819388242,-1.189522764851853,-0.08029767125844955,-0.02790602296590805,-0.02828658185899258,-0.002535825362429023,0.005875280126929283,-0.0001243487349711359,XTrueNorthZVertical,-0.3918280133850204,-0.7129669857180536,0.4456166350874185,0.3735970683216982,-0.1835145950317383,0.9281914830207825,0.3237022161483765,-20.42836761474609,40.08176803588867,-5.981098175048828,2,0.0.0.0,10.83.46.32,2,0
2015-03-01 20:11:15.727,72,1425269471.733868,37.76573598465028,-122.460366164262,81.65486,-1,-1,10,65,-9999,1425269475.719339,-19.91436767578125,40.0087890625,-6.4520263671875,173.2878570556641,159.5107879638672,10,196597.0013986667,-0.193267822265625,0.9329986572265625,0.3252105712890625,196596.9936849167,-0.05851284494234896,-0.07734725280360735,-0.05910326775601953,196596.9419054583,-0.6519156621531719,-2.625848819388242,-1.189522764851853,-0.08029767125844955,-0.02790602296590805,-0.02828658185899258,-0.002535825362429023,0.005875280126929283,-0.0001243487349711359,XTrueNorthZVertical,-0.3918280133850204,-0.7129669857180536,0.4456166350874185,0.3735970683216982,-0.1835145950317383,0.9281914830207825,0.3237022161483765,-20.42836761474609,40.08176803588867,-5.981098175048828,2,0.0.0.0,10.83.46.32,2,0
2015-03-01 20:11:15.785,73,1425269471.733868,37.76573598465028,-122.460366164262,81.65486,-1,-1,10,65,-9999,1425269475.771175,-20.52823638916016,40.21270751953125,-6.618453979492188,173.3001403808594,159.5230712890625,10,196597.0502955,-0.192596435546875,0.9239501953125,0.3239593505859375,196597.04546425,-0.0781251621580195,-0.08433938224561038,-0.06623095209750759,196596.9936849167,-0.6540020514104614,-2.630424724577997,-1.185315627804778,-0.06778325885534286,-0.06564986705780029,-0.02368981577455997,-0.008518955670297146,0.002077884040772915,-0.003249790519475937,XTrueNorthZVertical,-0.3915001605248367,-0.7146316574106741,0.4444305595894736,0.3721703453538808,-0.1839401572942734,0.9266178011894226,0.3279415667057037,-20.49053764343262,40.07784271240234,-5.791747093200684,2,0.0.0.0,10.83.46.32,2,0
2015-03-01 20:11:15.825,74,1425269471.733868,37.76573598465028,-122.460366164262,81.65486,-1,-1,10,65,-9999,1425269475.771175,-20.52823638916016,40.21270751953125,-6.618453979492188,173.3001403808594,159.5230712890625,10,196597.0993056667,-0.18414306640625,0.922576904296875,0.334075927734375,196597.0972439167,-0.09520907423476879,-0.1023580638649775,-0.06696838140335054,196597.04546425,-0.6549943113931894,-2.634390746473855,-1.181560052627665,-0.08739429712295532,-0.07264111936092377,-0.03082008473575115,-0.004454603418707848,0.005312324967235327,-0.003216832876205444,XTrueNorthZVertical,-0.3909288563699411,-0.7162601839463599,0.4435090108450138,0.3707368408615918,-0.1843271404504776,0.9251991510391235,0.3317080438137054,-20.55635833740234,40.06859588623047,-5.61994457244873,2,0.0.0.0,10.83.46.32,2,0
2015-03-01 20:11:15.892,75,1425269471.733868,37.76573598465028,-122.460366164262,81.65486,-1,-1,10,65,-9999,1425269475.875363,-20.56233978271484,39.87283325195312,-5.686515808105469,173.2906188964844,159.5135498046875,10,196597.14834375,-0.192657470703125,0.917022705078125,0.338714599609375,196597.1490232084,-0.1023652543999207,-0.1363354720005354,-0.05998184459963667,196597.0972439167,-0.6556692204088191,-2.638730048183687,-1.176519483751702,-0.1044770777225494,-0.09065844118595123,-0.03156159073114395,-0.002689223969355226,-0.002757631940767169,-0.003227977082133293,XTrueNorthZVertical,-0.3901511881192227,-0.7183838954851577,0.442198342442012,0.3690085700639005,-0.1851312071084976,0.9232745766639709,0.3365867435932159,-20.6375617980957,40.05449295043945,-5.419288635253906,2,0.0.0.0,10.83.46.32,2,0
2015-03-01 20:11:15.923,76,1425269471.733868,37.76573598465028,-122.460366164262,81.65486,-1,-1,10,65,-9999,1425269475.875363,-20.56233978271484,39.87283325195312,-5.686515808105469,173.2906188964844,159.5135498046875,10,196597.197364625,-0.195404052734375,0.9154205322265625,0.334716796875,196597.1490232084,-0.1023652543999207,-0.1363354720005354,-0.05998184459963667,196597.1490232084,-0.65871314286029,-2.646765533014563,-1.171267211527703,-0.1116319596767426,-0.1246353313326836,-0.02457659691572189,-0.007936544716358185,-0.004221558105200529,-0.003611815627664328,XTrueNorthZVertical,-0.389415923092718,-0.7207762804424453,0.4410832840022158,0.3664456285583981,-0.1847209185361862,0.9212442636489868,0.3423264026641846,-20.75304412841797,40.04116058349609,-5.065237045288086,2,0.0.0.0,10.83.46.32,2,0
2015-03-01 20:11:15.987,77,1425269471.733868,37.76573598465028,-122.460366164262,81.65486,-1,-1,10,65,-9999,1425269475.978411,-21.27852630615234,39.66888427734375,-5.486808776855469,172.112548828125,158.3354797363281,10,196597.2464095833,-0.184722900390625,0.9070892333984375,0.341705322265625,196597.252582,-0.194632334578479,-0.1144051393720599,-0.09461945036942525,196597.2008026667,-0.660188538744653,-2.654425953318702,-1.16450328534347,-0.1508890986442566,-0.1335956603288651,-0.04997313767671585,-0.01039808616042137,-0.003171614138409495,-0.01451299712061882,XTrueNorthZVertical,-0.3881990168346713,-0.7238207101149061,0.4395669943994195,0.3635464620847625,-0.1850059628486633,0.9185921549797058,0.3492297828197479,-20.85260391235352,40.02868270874023,-4.744833946228027,2,0.0.0.0,10.83.46.32,2,0
2015-03-01 20:11:16.021,78,1425269471.733868,37.76573598465028,-122.460366164262,81.65486,-1,-1,10,65,-9999,1425269475.978411,-21.27852630615234,39.66888427734375,-5.486808776855469,172.112548828125,158.3354797363281,10,196597.2955248333,-0.1905975341796875,0.8988494873046875,0.3508148193359375,196597.252582,-0.194632334578479,-0.1144051393720599,-0.09461945036942525,196597.252582,-0.6623049349599639,-2.661785362171563,-1.155785079153628,-0.2038895934820175,-0.1026999205350876,-0.05922436341643333,0.001397751620970666,-0.008022552356123924,-0.01596731133759022,XTrueNorthZVertical,-0.3872813358631371,-0.7272203815243802,0.4370765622877991,0.3607323550897797,-0.1861206591129303,0.915111780166626,0.3576726317405701,-20.99314117431641,39.99603652954102,-4.386907577514648,2,0.0.0.0,10.83.46.32,2,0
2015-03-01 20:11:16.092,79,1425269471.733868,37.76573598465028,-122.460366164262,81.65486,-1,-1,10,65,-9999,1425269476.081827,-21.72187042236328,40.00872802734375,-4.554862976074219,172.0719604492188,158.2948913574219,10,196597.3444501667,-0.187957763671875,0.8861846923828125,0.35003662109375,196597.3043616667,-0.2936848828984501,-0.1849293734628843,-0.1024470134453861,196597.3043616667,-0.6680425242206721,-2.673671624943483,-1.143918188191926,-0.3029343783855438,-0.173222154378891,-0.06705329567193985,-0.003856248455122113,-0.01141324359923601,-0.01871142350137234,XTrueNorthZVertical,-0.3867060218795539,-0.7315883909205537,0.4335248560303809,0.3567816528894706,-0.1867412924766541,0.9102627038955688,0.3695262372493744,-21.16791534423828,39.9650993347168,-3.788140296936035,2,0.0.0.0,10.83.46.32,2,0
2015-03-01 20:11:16.121,80,1425269471.733868,37.76573598465028,-122.460366164262,81.65486,-1,-1,10,65,-9999,1425269476.081827,-21.72187042236328,40.00872802734375,-4.554862976074219,172.0719604492188,158.2948913574219,10,196597.3934635417,-0.2066802978515625,0.8857421875,0.4005279541015625,196597.3561408333,-0.3964791725499826,-0.2457804738423228,-0.1068425608245619,196597.3561408333,-0.6776364731032192,-2.691883639621067,-1.126720212679662,-0.405719667673111,-0.2340703904628754,-0.07145201414823532,-0.000145846075611189,-0.02159928344190121,-0.03127146139740944,XTrueNorthZVertical,-0.3862361188506259,-0.7377504248840043,0.4283351143972594,0.3508205674918494,-0.1867590546607971,0.903007984161377,0.3869080543518066,-21.33802032470703,39.93441772460938,-3.093707084655762,2,0.0.0.0,10.83.46.32,2,0
2015-03-01 20:11:16.188,81,1425269471.733868,37.76573598465028,-122.460366164262,81.65486,-1,-1,10,65,-9999,1425269476.135057,-21.55135345458984,40.00872802734375,-2.990547180175781,171.6079406738281,157.8308715820312,10,196597.44249375,-0.1912078857421875,0.8830718994140625,0.4080657958984375,196597.4079204584,-0.4334869916899417,-0.2209523556317321,-0.1245278146754511,196597.4079204584,-0.6889097220525219,-2.712880675352976,-1.105301519058195,-0.4427266716957092,-0.209239587187767,-0.08914558589458466,-0.01895800791680813,-0.00645357696339488,-0.004648828878998756,XTrueNorthZVertical,-0.3859429231589819,-0.7450972821214324,0.4216630046766017,0.3436254944677354,-0.1865931451320648,0.8935995697975159,0.4082438051700592,-21.50862884521484,39.90279388427734,-2.187654495239258,2,0.0.0.0,10.83.46.32,2,0
2015-03-01 20:11:16.217,82,1425269471.733868,37.76573598465028,-122.460366164262,81.65486,-1,-1,10,65,-9999,1425269476.187477,-21.70481872558594,40.05972290039062,-2.008689880371094,171.9119415283203,158.1348724365234,10,196597.491504125,-0.191131591796875,0.841156005859375,0.4070587158203125,196597.4596997917,-0.5330841564528341,-0.2050588765622482,-0.156553924680308,196597.4596997917,-0.7006905025474248,-2.732592854192322,-1.08034490800996,-0.542256772518158,-0.1934079378843307,-0.1210267394781113,-0.002466283971443772,-0.00931758526712656,-0.02395543456077576,XTrueNorthZVertical,-0.3863158175860325,-0.7528924217205409,0.4132012731422453,0.3364191849383498,-0.1873225271701813,0.8821203112602234,0.4321738183498383,-21.75840187072754,39.81853485107422,-0.8344383239746094,2,0.0.0.0,10.83.46.32,2,0
2015-03-01 20:11:16.287,83,1425269471.733868,37.76573598465028,-122.460366164262,81.65486,-1,-1,10,65,-9999,1425269476.237658,-22.01175689697266,40.26361083984375,-0.9103469848632812,171.917724609375,158.1406555175781,10,196597.5405337084,-0.18426513671875,0.8161773681640625,0.455780029296875,196597.5114792083,-0.709833097995322,-0.227031553452056,-0.2046101339185699,196597.5114792083,-0.7120354126193223,-2.752544326767671,-1.047771116438157,-0.7190050482749939,-0.2153804451227188,-0.169083833694458,0.005078444723039865,-0.04413797333836555,-0.03996504470705986,XTrueNorthZVertical,-0.3867404918825322,-0.7625743643844858,0.4016981690426236,0.3279493580298638,-0.189465656876564,0.8663120269775391,0.462175726890564,-21.99099349975586,39.69759368896484,0.3703823089599609,2,0.0.0.0,10.83.46.32,2,0
2015-03-01 20:11:16.316,84,1425269471.733868,37.76573598465028,-122.460366164262,81.65486,-1,-1,10,65,-9999,1425269476.289689,-22.50626373291016,40.17864990234375,0.271209716796875,172.8183441162109,159.0412750244141,10,196597.5895452083,-0.1826171875,0.823944091796875,0.5005035400390625,196597.5632585833,-0.8237380957146651,-0.2812891996046763,-0.2372860552294061,196597.5632585833,-0.7233641764669186,-2.77435293490947,-1.007677935130039,-0.8329100012779236,-0.2696381807327271,-0.2017601132392883,-0.003601574338972569,-0.01923956722021103,-0.01513815112411976,XTrueNorthZVertical,-0.3871174658114936,-0.7741161243751783,0.3873843801448278,0.3175180394689237,-0.1916651427745819,0.8455945253372192,0.4982314109802246,-22.38646697998047,39.40378952026367,2.414018630981445,2,0.0.0.0,10.83.46.32,2,0
2015-03-01 20:11:16.392,85,1425269471.733868,37.76573598465028,-122.460366164262,81.65486,-1,-1,10,65,-9999,1425269476.34172,-22.77909088134766,39.63491821289062,2.201644897460938,172.3834686279297,158.6063995361328,10,196597.6385814583,-0.2153778076171875,0.7659149169921875,0.5411376953125,196597.6150382083,-0.9041224174253988,-0.3898574888156096,-0.2246155337111361,196597.6150382083,-0.7321414526989056,-2.797761342858385,-0.9631028559287601,-0.9132941365242004,-0.3782065808773041,-0.1890898644924164,0.02407794445753098,-0.0339798666536808,-0.03657985106110573,XTrueNorthZVertical,-0.3865479390398824,-0.7869935821658828,0.3718208222174898,0.3049116894144628,-0.1924739331007004,0.8209671974182129,0.5375564098358154,-22.7273006439209,39.0581169128418,4.192056655883789,2,0.0.0.0,10.83.46.32,2,0
2015-03-01 20:11:16.414,86,1425269471.733868,37.76573598465028,-122.460366164262,81.65486,-1,-1,10,65,-9999,1425269476.393444,-23.25654602050781,39.02316284179688,3.998931884765625,172.7219085693359,158.9448394775391,10,196597.687604875,-0.22216796875,0.7261962890625,0.592315673828125,196597.6668175,-1.013635329874983,-0.3488610533110388,-0.150837982032671,196597.6150382083,-0.7321414526989056,-2.797761342858385,-0.9631028559287601,-0.9132941365242004,-0.3782065808773041,-0.1890898644924164,0.02407794445753098,-0.0339798666536808,-0.03657985106110573,XTrueNorthZVertical,-0.3865479390398824,-0.7869935821658828,0.3718208222174898,0.3049116894144628,-0.1924739331007004,0.8209671974182129,0.5375564098358154,-22.7273006439209,39.0581169128418,4.192056655883789,2,0.0.0.0,10.83.46.32,2,0
2015-03-01 20:11:16.488,87,1425269471.733868,37.76573598465028,-122.460366164262,81.65486,-1,-1,10,65,-9999,1425269476.445606,-23.0689697265625,38.76824951171875,6.212272644042969,173.5672760009766,159.7902069091797,10,196597.73662425,-0.213836669921875,0.74493408203125,0.70343017578125,196597.7185970417,-1.105565786491755,-0.3773206579840616,-0.1401688260735955,196597.7185970417,-0.7643075923248419,-2.858388826599048,-0.8612445003302525,-1.114737629890442,-0.3656699061393738,-0.1046442836523056,-0.02403609827160835,-0.02261572703719139,0.01953875459730625,XTrueNorthZVertical,-0.39014546263411,-0.812746838515423,0.3356222216824491,0.2731060023223186,-0.1820491105318069,0.7586539387702942,0.6255418062210083,-23.07148742675781,38.01515579223633,9.066116333007812,2,0.0.0.0,10.83.46.32,2,0
2015-03-01 20:11:16.512,88,1425269471.733868,37.76573598465028,-122.460366164262,81.65486,-1,-1,10,65,-9999,1425269476.496853,-23.18832397460938,38.47933959960938,8.059494018554688,173.5843963623047,159.8073272705078,10,196597.7856444583,-0.2125091552734375,0.7064056396484375,0.80401611328125,196597.770376375,-0.9777449731284212,-0.3970703943119802,-0.1876047850939779,196597.770376375,-0.7754203566742786,-2.88664858213778,-0.8082507249755714,-0.986916720867157,-0.3854197561740875,-0.1520806550979614,-0.04182913899421692,0.005130504723638296,0.1004531607031822,XTrueNorthZVertical,-0.3910723569538364,-0.8253974928593248,0.3168843798492617,0.2556672641109957,-0.1742047965526581,0.7230799198150635,0.6684372425079346,-23.09737014770508,37.38809967041016,11.32613754272461,2,0.0.0.0,10.83.46.32,2,0
2015-03-01 20:11:16.598,89,1425269471.733868,37.76573598465028,-122.460366164262,81.65486,-1,-1,10,65,-9999,1425269476.549122,-23.56346893310547,37.56170654296875,10.35604095458984,172.2514953613281,158.4744262695312,10,196597.834667625,-0.2271270751953125,0.72943115234375,0.888092041015625,196597.8221556667,-0.6347127804952389,-0.2530213425301392,-0.1331426081696394,196597.8221556667,-0.7816992761343821,-2.906522404389013,-0.7663867697085348,-0.6438845992088318,-0.24137082695961,-0.09761885553598404,-0.06497853249311447,0.01793483458459377,0.1680439412593842,XTrueNorthZVertical,-0.391443277708501,-0.8349109882347844,0.3018681332593515,0.2420154993104696,-0.1677943021059036,0.6935366988182068,0.7006083726882935,-23.13557052612305,36.70206069946289,13.317063331604,2,0.0.0.0,10.83.46.32,2,0
2015-03-01 20:11:16.611,90,1425269471.733868,37.76573598465028,-122.460366164262,81.65486,-1,-1,10,65,-9999,1425269476.60002,-23.92156219482422,36.52508544921875,11.50431823730469,317.0865173339844,303.3094482421875,10,196597.8836863333,-0.21563720703125,0.7180633544921875,0.8581695556640625,196597.8739351667,-0.2119356911290508,-0.09300584106494625,-0.05843268379353758,196597.8221556667,-0.7816992761343821,-2.906522404389013,-0.7663867697085348,-0.6438845992088318,-0.24137082695961,-0.09761885553598404,-0.06497853249311447,0.01793483458459377,0.1680439412593842,XTrueNorthZVertical,-0.391443277708501,-0.8349109882347844,0.3018681332593515,0.2420154993104696,-0.1677943021059036,0.6935366988182068,0.7006083726882935,-23.13557052612305,36.70206069946289,13.317063331604,2,0.0.0.0,10.83.46.32,2,0
2015-03-01 20:11:16.696,91,1425269471.733868,37.76573598465028,-122.460366164262,81.65486,-1,-1,10,65,-9999,1425269476.654958,-23.76808929443359,36.20223999023438,12.48617553710938,319.4741821289062,305.6971130371094,10,196597.9327267084,-0.1880950927734375,0.672149658203125,0.7904052734375,196597.9257148333,0.0334346559053998,-0.04194025979489487,0.02913205284826778,196597.9257148333,-0.7859401127542079,-2.919734749026564,-0.7431404236477946,0.02426299266517162,-0.03028999641537666,0.06465505808591843,-0.04167717695236206,0.00319062452763319,0.08951566368341446,XTrueNorthZVertical,-0.3917384281124748,-0.8400541339198569,0.2938435068340356,0.2334654561984327,-0.1620276570320129,0.6766036748886108,0.7182998657226562,-23.10174179077148,35.97578430175781,15.22145080566406,2,0.0.0.0,10.83.46.32,2,0
2015-03-01 20:11:16.709,92,1425269471.733868,37.76573598465028,-122.460366164262,81.65486,-1,-1,10,65,-9999,1425269476.654958,-23.76808929443359,36.20223999023438,12.48617553710938,319.4741821289062,305.6971130371094,10,196597.981727625,-0.1952667236328125,0.6713714599609375,0.752532958984375,196597.9257148333,0.0334346559053998,-0.04194025979489487,0.02913205284826778,196597.9257148333,-0.7859401127542079,-2.919734749026564,-0.7431404236477946,0.02426299266517162,-0.03028999641537666,0.06465505808591843,-0.04167717695236206,0.00319062452763319,0.08951566368341446,XTrueNorthZVertical,-0.3917384281124748,-0.8400541339198569,0.2938435068340356,0.2334654561984327,-0.1620276570320129,0.6766036748886108,0.7182998657226562,-23.10174179077148,35.97578430175781,15.22145080566406,2,0.0.0.0,10.83.46.32,2,0
2015-03-01 20:11:16.788,93,1425269471.733868,37.76573598465028,-122.460366164262,81.65486,-1,-1,10,65,-9999,1425269476.78198,-23.12012481689453,37.15386962890625,12.28648376464844,321.6354064941406,307.8583374023438,10,196598.0307416667,-0.1766357421875,0.6648712158203125,0.731842041015625,196598.0292734583,0.1043213462205839,0.01547083540448831,0.03856443679711043,196597.9774939583,-0.7910202365451252,-2.923166241018146,-0.744926111225769,0.09781020879745483,-0.004987807944417,0.1115766689181328,-0.03857617452740669,-0.01483155600726604,0.03762378543615341,XTrueNorthZVertical,-0.3933265959687147,-0.8391243625061625,0.2947015066909006,0.2330570420063355,-0.1592998057603836,0.67791748046875,0.7176710367202759,-22.98865699768066,36.03530120849609,15.25183868408203,2,0.0.0.0,10.83.46.32,2,0
2015-03-01 20:11:16.805,94,1425269471.733868,37.76573598465028,-122.460366164262,81.65486,-1,-1,10,65,-9999,1425269476.78198,-23.12012481689453,37.15386962890625,12.28648376464844,321.6354064941406,307.8583374023438,10,196598.0797740833,-0.1588287353515625,0.692657470703125,0.7280731201171875,196598.081053125,0.1064345645455618,0.06703256358562144,-0.005553223505033227,196598.0292734583,-0.7947566858670442,-2.925027273680902,-0.749865651005822,0.09513133764266968,0.02712527103722095,0.0740698054432869,-0.02293332293629646,-0.01566215604543686,0.02209878154098988,XTrueNorthZVertical,-0.3945018349103162,-0.8376824311900799,0.2967783582781935,0.2336217509306679,-0.1572424620389938,0.6815404295921326,0.7146871089935303,-22.82761001586914,36.20364761352539,15.09424495697021,2,0.0.0.0,10.83.46.32,2,0
2015-03-01 20:11:16.886,95,1425269471.733868,37.76573598465028,-122.460366164262,81.65486,-1,-1,10,65,-9999,1425269476.834075,-22.89845275878906,36.96694946289062,12.53610229492188,321.3893737792969,307.6123046875,10,196598.1288039584,-0.1714935302734375,0.6745452880859375,0.7180633544921875,196598.081053125,0.1064345645455618,0.06703256358562144,-0.005553223505033227,196598.081053125,-0.7965231288110903,-2.922850407753143,-0.7540048372480954,0.09724054485559464,0.07868742197751999,0.02994890511035919,-0.0006443985039368272,0.008093889802694321,0.0164899155497551,XTrueNorthZVertical,-0.3954648432707226,-0.8363008791271644,0.2979374761273167,0.235460670493438,-0.1581843346357346,0.6845635771751404,0.7115831971168518,-22.76328086853027,36.31384658813477,14.92573642730713,2,0.0.0.0,10.83.46.32,2,0
2015-03-01 20:11:16.904,96,1425269471.733868,37.76573598465028,-122.460366164262,81.65486,-1,-1,10,65,-9999,1425269476.886845,-23.49527740478516,36.74603271484375,12.45289611816406,321.2388000488281,307.4617309570312,10,196598.1779244167,-0.175872802734375,0.6822662353515625,0.7169342041015625,196598.1328323334,0.0960663457896653,-0.04440741222874427,-0.002721218001842966,196598.1328323334,-0.7969270416885698,-2.922393107580881,-0.7586139013313961,0.08686856925487518,-0.03275253623723984,0.03277868032455444,-0.01367157697677612,-0.01337080169469118,0.009639807045459747,XTrueNorthZVertical,-0.3955895924251534,-0.8352967426452568,0.2997976391759123,0.2364522602091474,-0.1578219532966614,0.687916100025177,0.7084235548973083,-22.74724769592285,36.41056823730469,14.71303176879883,2,0.0.0.0,10.83.46.32,2,0
2015-03-01 20:11:16.991,97,1425269471.733868,37.76573598465028,-122.460366164262,81.65486,-1,-1,10,65,-9999,1425269476.937457,-23.34181213378906,36.76303100585938,12.33641052246094,321.0428771972656,307.2658081054688,10,196598.2268392083,-0.16448974609375,0.6751708984375,0.7070159912109375,196598.2363912917,-0.02089915665439682,-0.0004447479020432328,-0.0378712159653628,196598.1846119583,-0.7959480889366271,-2.92213762713439,-0.7608394493488626,0.04250694066286087,-0.01149257924407721,0.01518420409411192,-0.01820354908704758,-0.007263429928570986,0.01004702411592007,XTrueNorthZVertical,-0.395164375119444,-0.8350381468137501,0.3008273237104372,0.2367686656504052,-0.1576692461967468,0.6895296573638916,0.7068871855735779,-22.72260284423828,36.47700500488281,14.58599853515625,2,0.0.0.0,10.83.46.32,2,0
2015-03-01 20:11:17.004,98,1425269471.733868,37.76573598465028,-122.460366164262,81.65486,-1,-1,10,65,-9999,1425269476.98897,-23.5634765625,36.54214477539062,11.92036437988281,320.2413635253906,306.4642944335938,10,196598.2759586667,-0.160491943359375,0.67413330078125,0.7112579345703125,196598.2363912917,-0.02089915665439682,-0.0004447479020432328,-0.0378712159653628,196598.2363912917,-0.7944340210716604,-2.919341557543739,-0.759491053233653,-0.03011205419898033,0.01122205331921577,-0.002397791715338826,-0.004639808554202318,-0.01338155474513769,-0.0003338198002893478,XTrueNorthZVertical,-0.3949846818496099,-0.8352616396094515,0.2998701091296065,0.2374933301674606,-0.1598499417304993,0.6885524392127991,0.7073498368263245,-22.77889823913574,36.45573425292969,14.55132961273193,2,0.0.0.0,10.83.46.32,2,0
2015-03-01 20:11:17.066,99,1425269471.733868,37.76573598465028,-122.460366164262,81.65486,-1,-1,10,65,-9999,1425269477.041199,-23.41000366210938,36.62710571289062,12.10343170166016,320.3445739746094,306.5675048828125,10,196598.3248827917,-0.174957275390625,0.682220458984375,0.732452392578125,196598.2881707917,-0.0647457071575704,-0.05746409210507575,-0.009442503960984948,196598.2881707917,-0.7957763754536458,-2.920968222849545,-0.7556189801132144,-0.07396730780601501,-0.04579567536711693,0.02602410316467285,-0.005895025562494993,-0.01035480108112097,0.004806509241461754,XTrueNorthZVertical,-0.3953944597898291,-0.835922104489099,0.2983535086802103,0.236395241015067,-0.1592813730239868,0.6857393383979797,0.710205078125,-22.80872535705566,36.40737152099609,14.62550926208496,2,0.0.0.0,10.83.46.32,2,0
2015-03-01 20:11:17.101,100,1425269471.733868,37.76573598465028,-122.460366164262,81.65486,-1,-1,10,65,-9999,1425269477.092684,-23.59757995605469,37.05194091796875,12.25320434570312,320.3990478515625,306.6219787597656,10,196598.3738947917,-0.1761474609375,0.6734161376953125,0.742462158203125,196598.3399501667,-0.09800352916658894,-0.04458184928014446,-0.0402877683385007,196598.3399501667,-0.7971701201411576,-2.923460600288714,-0.7493057467494029,-0.1072357520461082,-0.03290977329015732,-0.004831281024962664,-0.02234163135290146,6.46654325464624e-06,0.02513213269412518,XTrueNorthZVertical,-0.3957579331185255,-0.8371271234068108,0.2959433165721823,0.2345452210747163,-0.1584445089101791,0.6811306476593018,0.7148123383522034,-22.76218032836914,36.31975555419922,14.91302680969238,2,0.0.0.0,10.83.46.32,2,0
2015-03-01 20:11:17.159,101,1425269471.733868,37.76573598465028,-122.460366164262,81.65486,-1,-1,10,65,-9999,1425269477.144913,-23.39295959472656,36.64410400390625,12.58604431152344,320.5868835449219,306.809814453125,10,196598.422933375,-0.174896240234375,0.6593475341796875,0.7419281005859375,196598.3917297917,-0.1154269942823234,-0.0100526341667221,-0.06926216205023579,196598.3917297917,-0.7958763390306295,-2.922088500552352,-0.7410319448486734,-0.1246725171804428,0.001624870230443776,-0.03381918370723724,-0.01423419173806906,-0.006180592812597752,0.02097304537892342,XTrueNorthZVertical,-0.3956103713528238,-0.838765436249413,0.2922292302533648,0.2335960696143626,-0.1606467962265015,0.6750496029853821,0.7200700640678406,-22.84249496459961,36.16949844360352,15.15347003936768,2,0.0.0.0,10.83.46.32,2,0
2015-03-01 20:11:17.198,102,1425269471.733868,37.76573598465028,-122.460366164262,81.65486,-1,-1,10,65,-9999,1425269477.144913,-23.39295959472656,36.64410400390625,12.58604431152344,320.5868835449219,306.809814453125,10,196598.4719755834,-0.179718017578125,0.665863037109375,0.744781494140625,196598.443509,-0.09545674821614616,-0.05917011309938051,-0.0387013232771405,196598.443509,-0.7954391810679514,-2.922053053269053,-0.7331196661032494,-0.1047153770923615,-0.04748851805925369,-0.003269636072218418,-0.01474423054605722,0.002088825684040785,0.01696328073740005,XTrueNorthZVertical,-0.3956081534200431,-0.8403103935902972,0.2888308342449644,0.2322702096339541,-0.1618304699659348,0.6691910624504089,0.7252547144889832,-22.93717193603516,36.00161743164062,15.40811157226562,2,0.0.0.0,10.83.46.32,2,0
2015-03-01 20:11:17.263,103,1425269471.733868,37.76573598465028,-122.460366164262,81.65486,-1,-1,10,65,-9999,1425269477.248348,-23.25653839111328,36.40618896484375,12.65260314941406,320.8904724121094,307.1134033203125,10,196598.520977875,-0.1728973388671875,0.6640472412109375,0.753936767578125,196598.495288625,-0.08806487829452224,-0.06182901313171563,-0.02763828579284234,196598.495288625,-0.7957734834315638,-2.924126275372913,-0.7265219114572568,-0.0972646027803421,-0.0502001941204071,0.007922926917672157,-0.02279115468263626,-0.001905049663037062,0.02684509195387363,XTrueNorthZVertical,-0.3955941925966109,-0.8416930864303005,0.2863284345819796,0.2303781246373929,-0.1612756103277206,0.6642737984657288,0.7298840284347534,-22.95376586914062,35.84809112548828,15.73781871795654,2,0.0.0.0,10.83.46.32,2,0
2015-03-01 20:11:17.296,104,1425269471.733868,37.76573598465028,-122.460366164262,81.65486,-1,-1,10,65,-9999,1425269477.248348,-23.25653839111328,36.40618896484375,12.65260314941406,320.8904724121094,307.1134033203125,10,196598.5699932917,-0.1652679443359375,0.6569976806640625,0.754150390625,196598.547068,-0.09449694495928161,-0.01449531949719229,-0.02882179458127355,196598.547068,-0.7968758470188426,-2.925162324387927,-0.7204687511184164,-0.1037048250436783,-0.002864811103790998,0.006733570713549852,-0.005612319335341454,0.001365285599604249,0.01548620313405991,XTrueNorthZVertical,-0.3960411139794222,-0.8426942958428529,0.2837679533128232,0.229114770774053,-0.161379873752594,0.6597369909286499,0.7339645028114319,-22.98544692993164,35.72549057006836,15.96867752075195,2,0.0.0.0,10.83.46.32,2,0
2015-03-01 20:11:17.359,105,1425269471.733868,37.76573598465028,-122.460366164262,81.65486,-1,-1,10,65,-9999,1425269477.351901,-23.92156219482422,36.15130615234375,13.26833343505859,320.9188537597656,307.1417846679688,10,196598.6190265,-0.1600799560546875,0.655487060546875,0.7564849853515625,196598.5988474583,-0.07961280394293775,-0.03983316674042418,-0.04411046976720044,196598.5988474583,-0.7981529539294361,-2.926669120481417,-0.7148059909385732,-0.08882708847522736,-0.02820326760411263,-0.008557557128369808,-0.0004921096260659397,0.003846107283607125,0.01677841320633888,XTrueNorthZVertical,-0.3964874707958191,-0.8436351023076838,0.2814502120885122,0.227735257467766,-0.1610679477453232,0.6554709076881409,0.7378450036048889,-22.98642730712891,35.63820648193359,16.16113662719727,2,0.0.0.0,10.83.46.32,2,0
2015-03-01 20:11:17.393,106,1425269471.733868,37.76573598465028,-122.460366164262,81.65486,-1,-1,10,65,-9999,1425269477.351901,-23.92156219482422,36.15130615234375,13.26833343505859,320.9188537597656,307.1417846679688,10,196598.6680381667,-0.17327880859375,0.659759521484375,0.7663726806640625,196598.6506268333,-0.06102740164360178,-0.06452253425822177,-0.02517246493953797,196598.6506268333,-0.7994366161448044,-2.930116852974309,-0.7100783243491652,-0.07024890184402466,-0.05289329588413239,0.01037784852087498,-0.01453426666557789,0.006203146185725927,0.02611486613750458,XTrueNorthZVertical,-0.3966469647605602,-0.8446182134862015,0.2799247398017511,0.2256844446630609,-0.1591717898845673,0.651893138885498,0.7414174675941467,-22.94692993164062,35.54064559936523,16.42987823486328,2,0.0.0.0,10.83.46.32,2,0
2015-03-01 20:11:17.460,107,1425269471.733868,37.76573598465028,-122.460366164262,81.65486,-1,-1,10,65,-9999,1425269477.45583,-23.66578674316406,36.13427734375,13.41810607910156,320.8889770507812,307.1119079589844,10,196598.717073125,-0.17047119140625,0.650421142578125,0.7674713134765625,196598.7024062917,-0.04647961787293493,-0.03528688444354991,-0.04306145061381823,196598.7024062917,-0.7996440950605646,-2.931745640585453,-0.7061033196737949,-0.0557076707482338,-0.02365480363368988,-0.007516989484429359,-0.01219756714999676,0.0006013617385178804,0.02419777773320675,XTrueNorthZVertical,-0.3965934005781577,-0.8454678206915044,0.2784884827952472,0.2243703934697108,-0.1585025042295456,0.6488737463951111,0.7442043423652649,-22.93249130249023,35.4656867980957,16.61101913452148,2,0.0.0.0,10.83.46.32,2,0
2015-03-01 20:11:17.492,108,1425269471.733868,37.76573598465028,-122.460366164262,81.65486,-1,-1,10,65,-9999,1425269477.45583,-23.66578674316406,36.13427734375,13.41810607910156,320.8889770507812,307.1119079589844,10,196598.7661774167,-0.163787841796875,0.64361572265625,0.7629852294921875,196598.7541856667,-0.03669969140183695,-0.0291192696750354,-0.05546698760362533,196598.7024062917,-0.7996440950605646,-2.931745640585453,-0.7061033196737949,-0.0557076707482338,-0.02365480363368988,-0.007516989484429359,-0.01219756714999676,0.0006013617385178804,0.02419777773320675,XTrueNorthZVertical,-0.3965934005781577,-0.8454678206915044,0.2784884827952472,0.2243703934697108,-0.1585025042295456,0.6488737463951111,0.7442043423652649,-22.93249130249023,35.4656867980957,16.61101913452148,2,0.0.0.0,10.83.46.32,2,0
2015-03-01 20:11:17.590,109,1425269471.733868,37.76573598465028,-122.460366164262,81.65486,-1,-1,10,65,-9999,1425269477.559312,-23.78514862060547,35.94735717773438,14.03385162353516,320.9345092773438,307.1574401855469,10,196598.8150859583,-0.173004150390625,0.6483154296875,0.7674560546875,196598.8059652917,-0.02193672421509169,-0.03083780752646353,-0.03098587928307193,196598.8059652917,-0.7988079661218173,-2.932324837790376,-0.6992627995739974,-0.03117811307311058,-0.0192010123282671,0.004548129625618458,-0.01351077854633331,0.002968033775687218,0.02353540994226933,XTrueNorthZVertical,-0.3963054481647559,-0.8469074136532901,0.2757068041682476,0.2228803542524566,-0.1589898318052292,0.6436536908149719,0.748620331287384,-22.98683547973633,35.2952766418457,16.89641189575195,2,0.0.0.0,10.83.46.32,2,0
2015-03-01 20:11:17.593,110,1425269471.733868,37.76573598465028,-122.460366164262,81.65486,-1,-1,10,65,-9999,1425269477.559312,-23.78514862060547,35.94735717773438,14.03385162353516,320.9345092773438,307.1574401855469,10,196598.8640835834,-0.1720428466796875,0.646881103515625,0.7686309814453125,196598.8577447083,-0.005985454549953088,-0.02853097739023689,-0.03229615453939092,196598.8059652917,-0.7988079661218173,-2.932324837790376,-0.6992627995739974,-0.03117811307311058,-0.0192010123282671,0.004548129625618458,-0.01351077854633331,0.002968033775687218,0.02353540994226933,XTrueNorthZVertical,-0.3963054481647559,-0.8469074136532901,0.2757068041682476,0.2228803542524566,-0.1589898318052292,0.6436536908149719,0.748620331287384,-22.98683547973633,35.2952766418457,16.89641189575195,2,0.0.0.0,10.83.46.32,2,0
2015-03-01 20:11:17.660,111,1425269471.733868,37.76573598465028,-122.460366164262,81.65486,-1,-1,10,65,-9999,1425269477.611845,-23.76808929443359,35.89639282226562,14.11705780029297,320.9242248535156,307.1471557617188,10,196598.9132061667,-0.1729583740234375,0.6368865966796875,0.7690277099609375,196598.9095241667,-0.01088833411678897,-0.02975816202054541,-0.02858663745701955,196598.8577447083,-0.7986473549527106,-2.932540534871138,-0.6972157006515519,-0.01523186266422272,-0.01689127832651138,0.003232881892472506,-0.01332284696400166,0.001453785458579659,0.01606447622179985,XTrueNorthZVertical,-0.3962506258156028,-0.8473231013715634,0.2748719349820396,0.2224286233927401,-0.1591014713048935,0.6420856714248657,0.7499420046806335,-23.00149726867676,35.24382400512695,16.98363876342773,2,0.0.0.0,10.83.46.32,2,0
2015-03-01 20:11:17.690,112,1425269471.733868,37.76573598465028,-122.460366164262,81.65486,-1,-1,10,65,-9999,1425269477.663425,-23.39295196533203,35.82843017578125,14.05049133300781,320.9314270019531,307.1543579101562,10,196598.962110625,-0.167022705078125,0.642730712890625,0.7683563232421875,196598.9613035417,-0.02336258066272012,0.0007885619987724624,-0.03789758126015459,196598.9095241667,-0.7983549215022102,-2.932591079932689,-0.6954199310587399,-0.02013934403657913,-0.01811471581459045,0.006936943624168634,-0.01843183301389217,0.000329074653564021,0.01608936674892902,XTrueNorthZVertical,-0.3961570716997646,-0.8477015746209285,0.2741286308545974,0.2220702105091792,-0.1593025475740433,0.6407079100608826,0.7510767579078674,-23.01286315917969,35.20872497558594,17.04094123840332,2,0.0.0.0,10.83.46.32,2,0
2015-03-01 20:11:17.762,113,1425269471.733868,37.76573598465028,-122.460366164262,81.65486,-1,-1,10,65,-9999,1425269477.71547,-23.05191802978516,35.96435546875,13.88407897949219,320.9660034179688,307.1889343261719,10,196599.011136,-0.1661224365234375,0.644134521484375,0.7662811279296875,196599.0130831667,4.367584187729951e-05,-0.01039831247621439,-0.03276460457513586,196598.9613035417,-0.7979791360995925,-2.931781806170136,-0.693054114146754,-0.03261899575591087,0.01243588142096996,-0.002379820914939046,-0.01316004805266857,0.005626307800412178,0.01853751763701439,XTrueNorthZVertical,-0.3961568384671771,-0.8481001052516184,0.2729743735884867,0.2219707906329075,-0.1602255702018738,0.6388896703720093,0.7524280548095703,-23.05189323425293,35.14242172241211,17.12484359741211,2,0.0.0.0,10.83.46.32,2,0
2015-03-01 20:11:17.793,114,1425269471.733868,37.76573598465028,-122.460366164262,81.65486,-1,-1,10,65,-9999,1425269477.766946,-23.20538330078125,35.77743530273438,13.90071868896484,320.9961853027344,307.2191162109375,10,196599.060144125,-0.169189453125,0.6451416015625,0.7733154296875,196599.0130831667,4.367584187729951e-05,-0.01039831247621439,-0.03276460457513586,196599.0130831667,-0.7985097765194825,-2.931481833213984,-0.6914796147456718,-0.009215833619236946,0.001249826280400157,0.002750834915786982,-0.005461557302623987,0.006456889677792788,0.01291829068213701,XTrueNorthZVertical,-0.396454474676625,-0.8482365636653462,0.2721665754087905,0.2219099063193846,-0.1606608778238297,0.6376776099205017,0.7533628344535828,-23.06571388244629,35.11206817626953,17.16844940185547,2,0.0.0.0,10.83.46.32,2,0
2015-03-01 20:11:17.844,115,1425269471.733868,37.76573598465028,-122.460366164262,81.65486,-1,-1,10,65,-9999,1425269477.81936,-23.27359008789062,35.64151000976562,14.33339691162109,321.0089111328125,307.2318420410156,10,196599.1091689167,-0.1678619384765625,0.638946533203125,0.7688140869140625,196599.116642,0.001114000283980145,0.01717073112828589,-0.01389104824585331,196599.064862375,-0.7992830828625065,-2.932609112471223,-0.6911310145164039,0.006872605066746473,-0.0184171237051487,0.01177926175296307,-0.009331816807389259,0.007732536178082228,0.01955454982817173,XTrueNorthZVertical,-0.3966360953067671,-0.8482689714285847,0.2721517107324453,0.2214792904066548,-0.1598576307296753,0.6374090909957886,0.7537608742713928,-23.05999183654785,35.10158920288086,17.19753646850586,2,0.0.0.0,10.83.46.32,2,0
2015-03-01 20:11:17.886,116,1425269471.733868,37.76573598465028,-122.460366164262,81.65486,-1,-1,10,65,-9999,1425269477.871177,-23.52937316894531,35.52255249023438,14.48317718505859,321.0026245117188,307.2255554199219,10,196599.1581760834,-0.156402587890625,0.64727783203125,0.7623138427734375,196599.116642,0.001114000283980145,0.01717073112828589,-0.01389104824585331,196599.116642,-0.7997101782335843,-2.932177258238859,-0.6906361364352539,-0.008152121677994728,0.02882025949656963,0.0216201227158308,-0.007613245863467455,0.001918862108141184,0.01481385622173548,XTrueNorthZVertical,-0.3968860013508229,-0.8482226223856401,0.2718020275463204,0.2216384721771721,-0.1602486968040466,0.6370276808738708,0.7540002465248108,-23.0450496673584,35.09985733032227,17.22108268737793,2,0.0.0.0,10.83.46.32,2,0
2015-03-01 20:11:17.943,117,1425269471.733868,37.76573598465028,-122.460366164262,81.65486,-1,-1,10,65,-9999,1425269477.923933,-23.23949432373047,35.36962890625,14.53309631347656,320.9995727539062,307.2225036621094,10,196599.2073090833,-0.1615753173828125,0.6490631103515625,0.7700653076171875,196599.168421375,0.001295894186432557,-0.01304229880644505,-0.0192448009852396,196599.168421375,-0.8010109776245422,-2.931972427939966,-0.6903651044600243,-0.007970503531396389,-0.001393575104884803,0.01626641862094402,0.005226650275290012,0.01021496672183275,0.007948722690343857,XTrueNorthZVertical,-0.3974709188599388,-0.8479887899743597,0.2714984571856962,0.2218570219907041,-0.160439059138298,0.6368187069892883,0.7541362643241882,-23.04907608032227,35.10358428955078,17.20809555053711,2,0.0.0.0,10.83.46.32,2,0
2015-03-01 20:11:17.987,118,1425269471.733868,37.76573598465028,-122.460366164262,81.65486,-1,-1,10,65,-9999,1425269477.974686,-23.8363037109375,35.45458984375,14.15034484863281,320.9910888671875,307.2140197753906,10,196599.256222625,-0.179718017578125,0.6450958251953125,0.7772979736328125,196599.2202008333,0.02242328374624917,-0.05326615127878385,-0.01582077477172472,196599.2202008333,-0.8023340056746096,-2.934703102760957,-0.6907194841272425,0.01315695699304342,-0.04161794483661652,0.01969042792916298,-0.004264867398887873,0.006020266097038984,0.01754573918879032,XTrueNorthZVertical,-0.3976534880427398,-0.8479663996355873,0.2720499236829311,0.2209379942041487,-0.1583327949047089,0.6370919346809387,0.7543506026268005,-22.99592781066895,35.13024520874023,17.22478485107422,2,0.0.0.0,10.83.46.32,2,0
2015-03-01 20:11:18.041,119,1425269471.733868,37.76573598465028,-122.460366164262,81.65486,-1,-1,10,65,-9999,1425269478.026601,-23.81925201416016,35.70947265625,14.39996337890625,320.9849853515625,307.2079162597656,10,196599.3052653334,-0.167144775390625,0.6474761962890625,0.774505615234375,196599.2719804167,0.02106054421645562,-0.03037361854846272,-0.006610764773903693,196599.2719804167,-0.8034074223518454,-2.936478548716585,-0.6908371539057268,0.0117898415774107,-0.01872194744646549,0.02889583259820938,-0.01845233701169491,0.01429138798266649,0.01622532494366169,XTrueNorthZVertical,-0.3978644540422823,-0.8479283275677116,0.2723360912203052,0.2203509715409592,-0.156977966427803,0.6371825933456421,0.7545571327209473,-22.92281532287598,35.15107345581055,17.27965545654297,2,0.0.0.0,10.83.46.32,2,0
2015-03-01 20:11:18.088,120,1425269471.733868,37.76573598465028,-122.460366164262,81.65486,-1,-1,10,65,-9999,1425269478.078348,-23.47822570800781,35.74346923828125,14.20027160644531,320.9872436523438,307.2101745605469,10,196599.3542472083,-0.15960693359375,0.64471435546875,0.7801513671875,196599.3237598334,0.04565457056722838,-0.03543309198739526,-0.006527141515675205,196599.3237598334,-0.8044516698187254,-2.938061146908183,-0.6921866874367434,0.03638214990496635,-0.02377852611243725,0.0289760697633028,-0.01368661317974329,0.01164969336241484,0.02855468355119228,XTrueNorthZVertical,-0.3980618770221129,-0.8476600970075382,0.2731263396141308,0.2200481182244653,-0.1556096524000168,0.6382221579551697,0.7539618015289307,-22.88225173950195,35.18502807617188,17.26430511474609,2,0.0.0.0,10.83.46.32,2,0
2015-03-01 20:11:18.139,121,1425269478.112101,37.76573883450516,-122.4603625754363,81.61105,-1,-1,10,65,-9999,1425269478.130137,-23.41001129150391,35.60751342773438,14.00056457519531,320.9995422363281,307.2224731445312,10,196599.4033722917,-0.142852783203125,0.648468017578125,0.7672882080078125,196599.3755390834,0.05770564081594594,0.002043976136635815,-0.00749493425581,196599.3755390834,-0.8058238665209975,-2.938855098302167,-0.6933911827121695,0.04842587560415268,0.01369821466505527,0.02800584770739079,-0.001439681160263717,0.003597018541768193,0.01999912224709988,XTrueNorthZVertical,-0.3985079395554285,-0.8472645428777152,0.2736600830743406,0.2201009885202396,-0.1548561006784439,0.6391489505767822,0.7533315420150757,-22.83703994750977,35.22289276123047,17.2469482421875,2,0.0.0.0,10.83.46.32,2,0
2015-03-01 20:11:18.189,122,1425269478.112101,37.76573883450516,-122.4603625754363,81.61105,-1,-1,10,65,-9999,1425269478.181954,-23.46117401123047,35.86239624023438,14.01720428466797,321.0114135742188,307.2343444824219,10,196599.4522809167,-0.157623291015625,0.650177001953125,0.7632598876953125,196599.4273185417,0.09128836847795414,-0.06620645101547887,-0.0009392969164709474,196599.4273185417,-0.8071924102694337,-2.941778951788481,-0.6969303910316849,0.08200707286596298,-0.05455783382058144,0.03456509858369827,0.01090647000819445,0.009912285022437572,0.01315013971179724,XTrueNorthZVertical,-0.3986043979924713,-0.8466960495572625,0.275638639440808,0.2196445850339665,-0.1522028595209122,0.6418668627738953,0.751559317111969,-22.76708221435547,35.30543899536133,17.17049407958984,2,0.0.0.0,10.83.46.32,2,0
2015-03-01 20:11:18.237,123,1425269478.112101,37.76573883450516,-122.4603625754363,81.61105,-1,-1,10,65,-9999,1425269478.233054,-23.76810455322266,35.96435546875,14.18362426757812,321.0065307617188,307.2294616699219,10,196599.5013227084,-0.1429290771484375,0.661346435546875,0.7530364990234375,196599.47909825,0.08889951298015307,-0.07501352474037092,0.0213050224045249,196599.47909825,-0.8087415794855936,-2.946127877315635,-0.7013175461297682,0.0796893984079361,-0.06342227011919022,0.05695100128650665,-0.01740214601159096,0.01368018705397844,0.02094117552042007,XTrueNorthZVertical,-0.3985508864274187,-0.8460966103619741,0.2782504511651682,0.218756652494535,-0.1483846008777618,0.6452248692512512,0.7494445443153381,-22.63935089111328,35.41383743286133,17.11606979370117,2,0.0.0.0,10.83.46.32,2,0
2015-03-01 20:11:18.287,124,1425269478.112101,37.76573883450516,-122.4603625754363,81.61105,-1,-1,10,65,-9999,1425269478.233054,-23.76810455322266,35.96435546875,14.18362426757812,321.0065307617188,307.2294616699219,10,196599.5503420417,-0.1667938232421875,0.6812896728515625,0.7740631103515625,196599.530877375,0.1185516811893133,-0.09275523760636979,0.1330118469601166,196599.47909825,-0.8087415794855936,-2.946127877315635,-0.7013175461297682,0.0796893984079361,-0.06342227011919022,0.05695100128650665,-0.01740214601159096,0.01368018705397844,0.02094117552042007,XTrueNorthZVertical,-0.3985508864274187,-0.8460966103619741,0.2782504511651682,0.218756652494535,-0.1483846008777618,0.6452248692512512,0.7494445443153381,-22.63935089111328,35.41383743286133,17.11606979370117,2,0.0.0.0,10.83.46.32,2,0
2015-03-01 20:11:18.335,125,1425269478.112101,37.76573883450516,-122.4603625754363,81.61105,-1,-1,10,65,-9999,1425269478.285132,-23.76810455322266,35.99835205078125,14.38333129882812,320.4583435058594,306.6812744140625,10,196599.59946525,-0.17596435546875,0.692840576171875,0.8230438232421875,196599.582656875,0.1818632760998761,-0.2003376245817557,0.1588548958621365,196599.582656875,-0.8233213932942453,-2.964549829361016,-0.7155857340015399,0.1726570725440979,-0.1887368410825729,0.1944930553436279,-0.04231299459934235,0.03606382384896278,0.05025486275553703,XTrueNorthZVertical,-0.4016987202055945,-0.8426709113060858,0.2865600161869098,0.215469952125709,-0.1329189389944077,0.6560595631599426,0.742912232875824,-22.07093811035156,35.87714385986328,16.89213752746582,2,0.0.0.0,10.83.46.32,2,0
2015-03-01 20:11:18.388,126,1425269478.112101,37.76573883450516,-122.4603625754363,81.61105,-1,-1,10,65,-9999,1425269478.338646,-23.12013244628906,36.16827392578125,14.31676483154297,321.0086975097656,307.2316284179688,10,196599.6483782917,-0.2225799560546875,0.74261474609375,0.932373046875,196599.6344364167,0.374512620930682,-0.3518808116710797,0.3690576680698727,196599.6344364167,-0.8394082311369117,-2.987103093781224,-0.7307110234556913,0.3653047978878021,-0.3402779102325439,0.4046931862831116,-0.09097509831190109,0.06903563439846039,0.1393978893756866,XTrueNorthZVertical,-0.4046375135344505,-0.8391567058977958,0.2959301111810386,0.2109738007576644,-0.1145913079380989,0.6673992872238159,0.7358309626579285,-21.59870147705078,36.22785186767578,16.75347137451172,2,0.0.0.0,10.83.46.32,2,0
2015-03-01 20:11:18.433,127,1425269478.112101,37.76573883450516,-122.4603625754363,81.61105,-1,-1,10,65,-9999,1425269478.389076,-22.28459167480469,36.86505126953125,14.00057983398438,322.4969177246094,308.7198486328125,10,196599.6975117917,-0.3638916015625,0.9180755615234375,1.183059692382812,196599.6862159167,0.8826711874770286,-1.05054168257741,0.9117632929089451,196599.6344364167,-0.8394082311369117,-2.987103093781224,-0.7307110234556913,0.3653047978878021,-0.3402779102325439,0.4046931862831116,-0.09097509831190109,0.06903563439846039,0.1393978893756866,XTrueNorthZVertical,-0.4046375135344505,-0.8391567058977958,0.2959301111810386,0.2109738007576644,-0.1145913079380989,0.6673992872238159,0.7358309626579285,-21.59870147705078,36.22785186767578,16.75347137451172,2,0.0.0.0,10.83.46.32,2,0
2015-03-01 20:11:18.488,128,1425269478.112101,37.76573883450516,-122.4603625754363,81.61105,-1,-1,10,65,-9999,1425269478.441411,-20.46004486083984,37.83367919921875,13.58454132080078,324.6415710449219,310.864501953125,10,196599.746419125,-0.6369476318359375,0.8789825439453125,1.307586669921875,196599.73799525,1.874647827154724,-1.899797122592779,1.832927810781979,196599.6862159167,-0.8794305446903307,-3.048642505007674,-0.7660274198949798,0.8734634518623352,-1.038938879966736,0.9473984837532043,-0.2099654376506805,0.1153617277741432,0.3854219019412994,XTrueNorthZVertical,-0.4101223552044018,-0.8310111206208438,0.319458168837402,0.1979058343037833,-0.06689002364873886,0.6932777762413025,0.7175596356391907,-20.5465030670166,36.97076416015625,16.45125007629395,2,0.0.0.0,10.83.46.32,2,0
2015-03-01 20:11:18.531,129,1425269478.112101,37.76573883450516,-122.4603625754363,81.61105,-1,-1,10,65,-9999,1425269478.493047,-17.33956146240234,39.85589599609375,12.16999816894531,152.6002197265625,138.8231506347656,10,196599.795554375,-0.401275634765625,1.09130859375,1.283950805664062,196599.78977475,2.815694174145745,-0.8607310011525197,2.682049560110625,196599.78977475,-1.196655783171894,2.840243001321957,-0.9333786051228511,2.8064866065979,-0.8491284847259521,2.717684030532837,-0.6870291233062744,0.3935693800449371,0.7249239087104797,XTrueNorthZVertical,-0.4415241198026778,-0.7675992337099603,0.4430643112414795,0.1397925386664283,0.1766378730535507,0.8036351799964905,0.5683042407035828,-12.03760528564453,41.82571411132812,12.85867881774902,2,0.0.0.0,10.83.46.32,2,0
2015-03-01 20:11:18.586,130,1425269478.112101,37.76573883450516,-122.4603625754363,81.61105,-1,-1,10,65,-9999,1425269478.544934,-12.42864227294922,42.23492431640625,9.607185363769531,128.8487548828125,115.0716934204102,10,196599.8444618334,0.0919342041015625,0.6481781005859375,0.8716278076171875,196599.78977475,2.815694174145745,-0.8607310011525197,2.682049560110625,196599.78977475,-1.196655783171894,2.840243001321957,-0.9333786051228511,2.8064866065979,-0.8491284847259521,2.717684030532837,-0.6870291233062744,0.3935693800449371,0.7249239087104797,XTrueNorthZVertical,-0.4415241198026778,-0.7675992337099603,0.4430643112414795,0.1397925386664283,0.1766378730535507,0.8036351799964905,0.5683042407035828,-12.03760528564453,41.82571411132812,12.85867881774902,2,0.0.0.0,10.83.46.32,2,0
2015-03-01 20:11:18.629,131,1425269478.112101,37.76573883450516,-122.4603625754363,81.61105,-1,-1,10,65,-9999,1425269478.596988,-5.846633911132812,44.34210205078125,4.814399719238281,123.0824890136719,109.3054275512695,10,196599.8935912084,0.48095703125,0.281707763671875,0.166748046875,196599.89333375,2.494960629319796,0.6408827921087344,3.393321564042917,196599.841554125,-1.5743653456667,2.529761462294691,-0.997163331982269,2.966316223144531,0.4044359922409058,3.529765605926514,-0.4086867570877075,-0.08258020877838135,0.5056628584861755,XTrueNorthZVertical,-0.4915975314418928,-0.6931472619882114,0.5092153724206079,0.1363030245128969,0.3117018938064575,0.8399349451065063,0.4442425072193146,-6.152892112731934,44.31282043457031,7.625988960266113,2,0.0.0.0,10.83.46.32,2,0
2015-03-01 20:11:18.689,132,1425269478.112101,37.76573883450516,-122.4603625754363,81.61105,-1,-1,10,65,-9999,1425269478.649046,1.690284729003906,44.54598999023438,-0.51092529296875,120.7206420898438,106.9435806274414,10,196599.9424984167,0.8652191162109375,0.2869720458984375,-0.0943756103515625,196599.945113125,1.605128467987653,0.9037003063926212,2.957714163493054,196599.89333375,-1.97221023415997,2.220927889562828,-0.9700490014230427,2.485753059387207,0.6524851322174072,3.428955316543579,-0.0663733035326004,-0.4299701750278473,-0.1169114410877228,XTrueNorthZVertical,-0.5465952923547454,-0.6101694852400283,0.5582675930685048,0.1313931121078499,0.4499487280845642,0.8249134421348572,0.3421464264392853,3.317312240600586,45.26165771484375,-0.1325130462646484,2,0.0.0.0,10.83.46.32,2,0
2015-03-01 20:11:18.728,133,1425269478.112101,37.76573883450516,-122.4603625754363,81.61105,-1,-1,10,65,-9999,1425269478.700875,9.772850036621094,42.7786865234375,-4.871040344238281,115.8575668334961,102.0805053710938,10,196599.9916359167,1.170379638671875,0.627044677734375,-0.2513885498046875,196599.945113125,1.605128467987653,0.9037003063926212,2.957714163493054,196599.945113125,-2.258555023009511,2.034889056758101,-0.88352364719918,1.595921158790588,0.9153024554252625,2.993347406387329,0.2978926599025726,-0.4860071539878845,-0.3783545792102814,XTrueNorthZVertical,-0.5993292381838203,-0.5317837381373955,0.5849574777425786,0.1258385436422335,0.5673264861106873,0.772979199886322,0.2839789688587189,10.24047088623047,43.97753143310547,-4.555119514465332,2,0.0.0.0,10.83.46.32,2,0
2015-03-01 20:11:18.793,134,1425269478.112101,37.76573883450516,-122.4603625754363,81.61105,-1,-1,10,65,-9999,1425269478.753912,16.57652282714844,39.8388671875,-7.816604614257812,112.7569274902344,98.97986602783203,10,196600.0405478333,0.8318634033203125,0.6224822998046875,0.0770416259765625,196599.9968925834,0.6327417749724712,-0.39219015161441,2.511451988054002,196599.9968925834,-2.409253625416041,1.9443639809817,-0.7811965761007564,0.6235345602035522,-0.3805880844593048,2.547085046768188,0.5092807412147522,-0.07708489894866943,-0.5105216503143311,XTrueNorthZVertical,-0.6364364852870341,-0.4738302831247534,0.5991307803793529,0.1071253504720946,0.6610988974571228,0.7041295766830444,0.2591330707073212,16.14567565917969,41.84931945800781,-6.898663520812988,2,0.0.0.0,10.83.46.32,2,0
2015-03-01 20:11:18.825,135,1425269478.112101,37.76573883450516,-122.4603625754363,81.61105,-1,-1,10,65,-9999,1425269478.805582,21.52155685424805,36.61016845703125,-9.414199829101562,108.4266357421875,94.64957427978516,10,196600.0896667083,0.709686279296875,0.556671142578125,0.232421875,196600.100451625,-0.1647652492693493,-0.5588166841696157,2.133001883451638,196600.048672,-2.470976767544626,1.847300846135443,-0.6709900274723397,-0.1933798640966415,-1.185896396636963,2.183569192886353,0.07840646803379059,0.0007206122390925884,-0.136769562959671,XTrueNorthZVertical,-0.6460557932620784,-0.4353360819053106,0.62402663897005,0.06070610646319168,0.7534569501876831,0.621761679649353,0.2138111889362335,21.93082809448242,38.74036407470703,-8.823977470397949,2,0.0.0.0,10.83.46.32,2,0
2015-03-01 20:11:18.892,136,1425269478.112101,37.76573883450516,-122.4603625754363,81.61105,-1,-1,10,65,-9999,1425269478.881702,26.75646209716797,31.93701171875,-11.42784118652344,96.38853454589844,82.61147308349609,10,196600.1385776667,0.7425689697265625,0.656768798828125,0.257904052734375,196600.100451625,-0.1647652492693493,-0.5588166841696157,2.133001883451638,196600.100451625,-2.489675513865016,1.797907778331238,-0.563164298690676,-0.1739722788333893,-0.5472148060798645,2.168634176254272,-0.1103251278400421,0.05700158700346947,0.06511639058589935,XTrueNorthZVertical,-0.6568786065898048,-0.4046066153547147,0.6360752400913798,0.01457194842393104,0.8238565921783447,0.5338644981384277,0.1903920322656631,25.20933151245117,36.51517868041992,-9.527372360229492,2,0.0.0.0,10.83.46.32,2,0
2015-03-01 20:11:18.923,137,1425269478.112101,37.76573883450516,-122.4603625754363,81.61105,-1,-1,10,65,-9999,1425269478.881702,26.75646209716797,31.93701171875,-11.42784118652344,96.38853454589844,82.61147308349609,10,196600.1876045833,0.5734100341796875,0.5080108642578125,0.2628631591796875,196600.1522307917,0.0567498323007165,-1.060384459650234,1.846802880061292,196600.1522307917,-2.51026943353313,1.749289654626521,-0.4633314696165597,0.04754289239645004,-1.048782706260681,1.882434725761414,-0.1748658865690231,0.2064963132143021,0.0832526758313179,XTrueNorthZVertical,-0.664209427850868,-0.3718061880681403,0.6479929588009449,-0.02629048373453771,0.8803560137748718,0.4469307959079742,0.158828005194664,28.33711242675781,34.00492858886719,-10.01561546325684,2,0.0.0.0,10.83.46.32,2,0
2015-03-01 20:11:18.988,138,1425269478.112101,37.76573883450516,-122.4603625754363,81.61105,-1,-1,10,65,-9999,1425269478.933615,29.50180435180664,29.23507690429688,-12.34313201904297,87.5665283203125,73.78946685791016,10,196600.2366162083,0.7043609619140625,0.3811187744140625,0.1537933349609375,196600.2040104583,0.2298864621406209,-0.678779574420562,1.602002449500118,196600.2040104583,-2.534027917478328,1.691120625624738,-0.3794810602494989,0.2206795960664749,-0.6671779155731201,1.637633919715881,-0.3496314585208893,0.1068716794252396,0.147126629948616,XTrueNorthZVertical,-0.6638399156886837,-0.3392106418408045,0.66380065194112,-0.06017865905180116,0.9221411943435669,0.3704384863376617,0.1114945858716965,31.24845886230469,30.64886856079102,-11.99251747131348,2,0.0.0.0,10.83.46.32,2,0
2015-03-01 20:11:19.021,139,1425269478.112101,37.76573883450516,-122.4603625754363,81.61105,-1,-1,10,65,-9999,1425269478.986243,31.88906097412109,26.34625244140625,-13.60790252685547,84.74016571044922,70.96310424804688,10,196600.28565275,0.9054718017578125,0.2707672119140625,0.059326171875,196600.2557898333,0.1991956611063297,-0.05169009254567496,1.893252404213909,196600.2557898333,-2.55544614008934,1.672538676524862,-0.2929269672079461,0.1899888813495636,-0.04008857533335686,1.928883671760559,-0.1951581686735153,0.04850926995277405,0.03680801019072533,XTrueNorthZVertical,-0.6746377904826915,-0.3057516597321621,0.6660778622160494,-0.08786424421626757,0.9524518847465515,0.2887557446956635,0.09724044799804688,33.20127105712891,28.0905876159668,-12.97050952911377,2,0.0.0.0,10.83.46.32,2,0
2015-03-01 20:11:19.096,140,1425269478.112101,37.76573883450516,-122.4603625754363,81.61105,-1,-1,10,65,-9999,1425269479.037563,34.4127311706543,22.77764892578125,-14.50654602050781,82.24807739257812,68.47101593017578,10,196600.3346466667,0.949554443359375,0.08843994140625,0.0566558837890625,196600.3075693334,0.07888256517203802,-0.4245454283300007,2.247826470695386,196600.3075693334,-2.57216973985402,1.657880172670556,-0.186702236095944,0.06967590004205704,-0.4129440486431122,2.283457279205322,-0.04583854228258133,0.02603520639240742,-0.03030184656381607,XTrueNorthZVertical,-0.6867663396039476,-0.266614289915273,0.6649361383395074,-0.1229992554955158,0.9788982272148132,0.1856194585561752,0.08546236902475357,35.50118637084961,24.93626403808594,-13.32246398925781,2,0.0.0.0,10.83.46.32,2,0
2015-03-01 20:11:19.119,141,1425269478.112101,37.76573883450516,-122.4603625754363,81.61105,-1,-1,10,65,-9999,1425269479.08916,36.9364013671875,18.2574462890625,-15.37191772460938,74.49509429931641,60.7180290222168,10,196600.3836780417,0.9261016845703125,0.0041351318359375,0.025421142578125,196600.3593487084,-0.04337836678353765,-0.704995465875193,2.349313148251689,196600.3593487084,-2.580108943502093,1.627795283067776,-0.0682779119649868,-0.0525849387049675,-0.6933941841125488,2.38494348526001,-0.05583376064896584,-0.009356465190649033,-0.0133630745112896,XTrueNorthZVertical,-0.6916075156577254,-0.223822980069659,0.6662777040238923,-0.1663021609044044,0.9960498213768005,0.06822487711906433,0.0568353645503521,38.23226165771484,19.78060913085938,-14.37572574615479,2,0.0.0.0,10.83.46.32,4,0
2015-03-01 20:11:19.196,142,1425269478.112101,37.76573883450516,-122.4603625754363,81.61105,-1,-1,10,65,-9999,1425269479.141456,38.36875534057617,13.73724365234375,-16.13743591308594,69.609619140625,55.83255386352539,10,196600.4326864167,0.8067169189453125,-0.1526336669921875,0.0003204345703125,196600.4111283333,0.09083376687987761,-0.9816438409642972,2.141994046872291,196600.4111283333,-2.585273650318842,1.586011488595511,0.04647909122616427,0.08162727952003479,-0.9700427055358887,2.177624225616455,-0.1186622753739357,0.01837092824280262,0.007537451107054949,XTrueNorthZVertical,-0.6893725812358775,-0.1799014080012456,0.6700069228910149,-0.2085466869547526,0.99880450963974,-0.04646235704421997,0.01519814506173134,39.61427688598633,15.66346645355225,-15.65261173248291,2,0.0.0.0,10.83.46.32,4,0
2015-03-01 20:11:19.217,143,1425269478.112101,37.76573883450516,-122.4603625754363,81.61105,-1,-1,10,65,-9999,1425269479.192926,39.13608551025391,9.437957763671875,-17.51869201660156,60.42730712890625,46.65024185180664,10,196600.4818205417,0.7557373046875,-0.296142578125,-0.0760650634765625,196600.4629075,0.1405786865653587,-0.9297718545161699,1.661097195140649,196600.4629075,-2.59101995188189,1.537592423691176,0.1429778856370686,0.1314360052347183,-0.9182229042053223,1.696854948997498,-0.2494739443063736,-0.1221877112984657,-0.01293256971985102,XTrueNorthZVertical,-0.6813377900592033,-0.1391017172290434,0.6764195185065949,-0.2426648569670032,0.9892505407333374,-0.1424912363290787,-0.03285905718803406,40.21189117431641,11.76572704315186,-17.44164848327637,2,0.0.0.0,10.83.46.32,4,0
2015-03-01 20:11:19.258,144,1425269478.112101,37.76573883450516,-122.4603625754363,81.61105,-1,-1,10,65,-9999,1425269479.24523,38.94851684570312,5.64849853515625,-19.26606750488281,54.81430816650391,41.0372428894043,10,196600.5307240417,0.77593994140625,-0.5336456298828125,-0.15771484375,196600.5146871667,0.07958297653872887,-0.6337825383264742,1.284324882025035,196600.4629075,-2.59101995188189,1.537592423691176,0.1429778856370686,0.1314360052347183,-0.9182229042053223,1.696854948997498,-0.2494739443063736,-0.1221877112984657,-0.01293256971985102,XTrueNorthZVertical,-0.6813377900592033,-0.1391017172290434,0.6764195185065949,-0.2426648569670032,0.9892505407333374,-0.1424912363290787,-0.03285905718803406,40.21189117431641,11.76572704315186,-17.44164848327637,2,0.0.0.0,10.83.46.32,4,0
2015-03-01 20:11:19.315,145,1425269478.112101,37.76573883450516,-122.4603625754363,81.61105,-1,-1,10,65,-9999,1425269479.296614,38.59042739868164,2.23284912109375,-20.68061065673828,53.59625244140625,39.81918716430664,10,196600.579755375,0.8026580810546875,-0.6702423095703125,-0.2498779296875,196600.5664665417,0.0284470878158994,-0.5323179650072183,1.021311625401027,196600.5664665417,-2.588514259767494,1.471672765472525,0.2763537563186856,0.01930457912385464,-0.5207691788673401,1.057068824768066,-0.1668985188007355,-0.3662342727184296,-0.1130913197994232,XTrueNorthZVertical,-0.6674275500100221,-0.08329022888440801,0.681067584428817,-0.2893962999463484,0.9573342800140381,-0.2728495895862579,-0.09520640969276428,40.04640579223633,5.2999267578125,-20.6841926574707,2,0.0.0.0,10.83.46.32,4,0
2015-03-01 20:11:19.396,146,1425269478.112101,37.76573883450516,-122.4603625754363,81.61105,-1,-1,10,65,-9999,1425269479.34874,38.02771377563477,0.21063232421875,-21.59589385986328,51.32392501831055,37.54685974121094,10,196600.6287553333,0.7920684814453125,-0.812103271484375,-0.3247528076171875,196600.6182459584,0.0101298658383344,-0.3858411755756611,0.6506837575524441,196600.5664665417,-2.588514259767494,1.471672765472525,0.2763537563186856,0.01930457912385464,-0.5207691788673401,1.057068824768066,-0.1668985188007355,-0.3662342727184296,-0.1130913197994232,XTrueNorthZVertical,-0.6674275500100221,-0.08329022888440801,0.681067584428817,-0.2893962999463484,0.9573342800140381,-0.2728495895862579,-0.09520640969276428,40.04640579223633,5.2999267578125,-20.6841926574707,2,0.0.0.0,10.83.46.32,4,0
2015-03-01 20:11:19.414,147,1425269478.112101,37.76573883450516,-122.4603625754363,81.61105,-1,-1,10,65,-9999,1425269479.4005,37.56731033325195,-1.4036865234375,-22.64431762695312,48.87353897094727,35.09647369384766,10,196600.677789375,0.7718048095703125,-0.862396240234375,-0.3759307861328125,196600.670025375,-0.1439446558671099,-0.3462210617224433,0.1349887114372824,196600.670025375,-2.577152046329205,1.429605404885259,0.3386300183205523,-0.1530869603157043,-0.3346725702285767,0.1707450896501541,-0.1453727781772614,-0.5231361985206604,-0.2351281195878983,XTrueNorthZVertical,-0.6559762307122593,-0.05770442779604537,0.6842140821062471,-0.3133951871409513,0.9338249564170837,-0.3321952223777771,-0.1327307671308517,39.39080810546875,2.050241470336914,-22.44549369812012,2,0.0.0.0,10.83.46.32,4,0
