loggingTime,loggingSample,locationTimestamp_since1970,locationLatitude,locationLongitude,locationAltitude,locationSpeed,locationCourse,locationVerticalAccuracy,locationHorizontalAccuracy,locationFloor,locationHeadingTimestamp_since1970,locationHeadingX,locationHeadingY,locationHeadingZ,locationTrueHeading,locationMagneticHeading,locationHeadingAccuracy,accelerometerTimestamp_sinceReboot,accelerometerAccelerationX,accelerometerAccelerationY,accelerometerAccelerationZ,gyroTimestamp_sinceReboot,gyroRotationX,gyroRotationY,gyroRotationZ,IP_en0,IP_pdp_ip0,deviceOrientation,state
2015-02-08 20:57:00.315,1,1423457820.180432,37.77932808272334,-122.4389182125427,62.05655,0,175.4296875,4,10,-9999,1423457820.264197,13.52329444885254,-16.5225830078125,-38.75213623046875,345.8386840820312,332.0548706054688,15,1778.6016295,0.0529937744140625,-0.8194427490234375,-0.5850067138671875,1778.589329375,-0.03887096663857854,-0.0668360222971736,0.03355982447663352,192.168.1.8,10.227.79.254,1,0
2015-02-08 20:57:00.366,2,1423457820.180432,37.77932808272334,-122.4389182125427,62.05655,0,175.4296875,4,10,-9999,1423457820.316085,13.26751613616943,-16.70953369140625,-38.66892242431641,345.8992004394531,332.1153869628906,15,1778.660519416667,0.037841796875,-0.8227996826171875,-0.5462646484375,1778.661815708334,0.008053399136399617,-0.1105187883933073,0.01133760939268533,192.168.1.8,10.227.79.254,1,0
2015-02-08 20:57:00.369,3,1423457820.180432,37.77932808272334,-122.4389182125427,62.05655,0,175.4296875,4,10,-9999,1423457820.316085,13.26751613616943,-16.70953369140625,-38.66892242431641,345.8992004394531,332.1153869628906,15,1778.719397875,0.0361480712890625,-0.8296661376953125,-0.5432891845703125,1778.6980595,-0.0006117281023912011,-0.1016169061336085,-0.01088886674900698,192.168.1.8,10.227.79.254,1,0
2015-02-08 20:57:00.460,4,1423457820.180432,37.77932808272334,-122.4389182125427,62.05655,0,175.4296875,4,10,-9999,1423457820.420444,13.23341083526611,-16.77749633789062,-38.46922302246094,345.9510192871094,332.1672058105469,15,1778.778275666667,0.0169219970703125,-0.8164215087890625,-0.5598907470703125,1778.770546,0.01982244062567778,-0.02805187471013164,0.0006721818591359997,192.168.1.8,10.227.79.254,1,0
2015-02-08 20:57:00.488,5,1423457820.180432,37.77932808272334,-122.4389182125427,62.05655,0,175.4296875,4,10,-9999,1423457820.47308,12.84122180938721,-16.69253540039062,-38.38601684570312,345.9630432128906,332.1792297363281,15,1778.837160291667,0.0187225341796875,-0.8133544921875,-0.57000732421875,1778.843033416667,-0.04337703520299262,-0.140724095160877,-0.04407504972470239,192.168.1.8,10.227.79.254,1,0
2015-02-08 20:57:00.560,6,1423457820.180432,37.77932808272334,-122.4389182125427,62.05655,0,175.4296875,4,10,-9999,1423457820.524286,12.17620086669922,-16.60757446289062,-38.40265655517578,346.8260192871094,333.0422058105469,15,1778.896052,0.017730712890625,-0.8104705810546875,-0.5803070068359375,1778.879275875,-0.1343796464959812,-0.3269163396126769,-0.099148422119214,192.168.1.8,10.227.79.254,1,0
2015-02-08 20:57:00.605,7,1423457820.180432,37.77932808272334,-122.4389182125427,62.05655,0,175.4296875,4,10,-9999,1423457820.576196,11.71580219268799,-16.5225830078125,-38.98511505126953,347.6290588378906,333.8452453613281,15,1778.954930541667,0.033935546875,-0.8143157958984375,-0.596771240234375,1778.9517635,0.01873267510761736,-0.05624489695803748,-0.05610508100080832,192.168.1.8,10.227.79.254,1,0
2015-02-08 20:57:00.664,8,1423457820.180432,37.77932808272334,-122.4389182125427,62.05655,0,175.4296875,4,10,-9999,1423457820.627729,11.59644031524658,-16.36965942382812,-39.26802825927734,347.9449768066406,334.1611633300781,15,1779.013817916667,0.0210113525390625,-0.8126983642578125,-0.5504608154296875,1778.988005958333,0.04320153288715639,-0.0386310158243624,-0.03335236422771635,192.168.1.8,10.227.79.254,1,0
2015-02-08 20:57:00.730,9,1423457820.180432,37.77932808272334,-122.4389182125427,62.05655,0,175.4296875,4,10,-9999,1423457820.681171,11.56233596801758,-16.53961181640625,-39.30130767822266,348.1044311523438,334.3206176757812,15,1779.072693041667,0.0194091796875,-0.812652587890625,-0.5650482177734375,1779.060493666667,-0.0008490157555172611,-0.06494304739434528,-0.03138615239491085,192.168.1.8,10.227.79.254,1,0
2015-02-08 20:57:00.782,10,1423457820.180432,37.77932808272334,-122.4389182125427,62.05655,0,175.4296875,4,10,-9999,1423457820.732326,11.54528427124023,-16.18276977539062,-39.184814453125,348.1166076660156,334.3327941894531,15,1779.131575625,0.0182952880859375,-0.8154754638671875,-0.5782318115234375,1779.13298,-0.1013215615687187,-0.3102468154015439,-0.09840566649119091,192.168.1.8,10.227.79.254,1,0
2015-02-08 20:57:00.859,11,1423457820.180432,37.77932808272334,-122.4389182125427,62.05655,0,175.4296875,4,10,-9999,1423457820.834314,11.25540542602539,-15.7579345703125,-39.43443298339844,348.3492431640625,334.5654296875,15,1779.190453833334,0.0278472900390625,-0.814208984375,-0.5824432373046875,1779.169223708333,-0.1805202439621491,-0.4168342453936763,-0.1359386609981136,192.168.1.8,10.227.79.254,1,0
2015-02-08 20:57:00.900,12,1423457820.180432,37.77932808272334,-122.4389182125427,62.05655,0,175.4296875,4,10,-9999,1423457820.887502,10.62448501586914,-15.57101440429688,-39.71734619140625,349.0877685546875,335.303955078125,15,1779.24935225,0.0021209716796875,-0.8025360107421875,-0.580047607421875,1779.241709916667,0.09524103216784975,0.09220636010570446,0.01829538405662635,192.168.1.8,10.227.79.254,1,0
2015-02-08 20:57:00.961,13,1423457820.180432,37.77932808272334,-122.4389182125427,62.05655,0,175.4296875,4,10,-9999,1423457820.939172,10.02767086029053,-15.35009765625,-39.70070648193359,350.3758544921875,336.592041015625,15,1779.308249916667,0.011383056640625,-0.80865478515625,-0.5958251953125,1779.277953875,-0.0231300866995562,-0.03683205050801388,-0.03450231718641256,192.168.1.8,10.227.79.254,1,0
2015-02-08 20:57:01.029,14,1423457820.180432,37.77932808272334,-122.4389182125427,62.05655,0,175.4296875,4,10,-9999,1423457820.991083,10.30049896240234,-14.9422607421875,-39.70070648193359,350.196533203125,336.4127197265625,15,1779.367238625,0.0079498291015625,-0.80218505859375,-0.57745361328125,1779.350440208333,0.01470863870050763,0.001579520842525996,-0.03187004876497825,192.168.1.8,10.227.79.254,1,0
2015-02-08 20:57:01.077,15,1423457820.180432,37.77932808272334,-122.4389182125427,62.05655,0,175.4296875,4,10,-9999,1423457821.042277,10.4539680480957,-15.1632080078125,-39.88376617431641,349.9108581542969,336.1270446777344,15,1779.426156666667,0.0197296142578125,-0.8078765869140625,-0.5840301513671875,1779.422926583333,0.01594993808459357,0.0002239718476756639,-0.02327522897896552,192.168.1.8,10.227.79.254,1,0
2015-02-08 20:57:01.165,16,1423457820.180432,37.77932808272334,-122.4389182125427,62.05655,0,175.4296875,4,10,-9999,1423457821.148453,10.1129322052002,-15.23117065429688,-39.78391265869141,349.923583984375,336.1397705078125,15,1779.484908416667,0.0216522216796875,-0.8095703125,-0.58404541015625,1779.495413916667,0.02945988797845653,-0.0009329053298547572,-0.03427941060317293,192.168.1.8,10.227.79.254,1,0
2015-02-08 20:57:01.195,17,1423457821.173277,37.77932808272334,-122.4389182125427,62.03775,0,-1,4,10,-9999,1423457821.148453,10.1129322052002,-15.23117065429688,-39.78391265869141,349.923583984375,336.1397705078125,15,1779.543900916667,0.0067596435546875,-0.8114471435546875,-0.5655364990234375,1779.531656541667,0.02827664550613433,-0.007155381216824897,-0.02311117825581664,192.168.1.8,10.227.79.254,1,0
2015-02-08 20:57:01.264,18,1423457821.173277,37.77932808272334,-122.4389182125427,62.03775,0,-1,4,10,-9999,1423457821.250053,10.35165596008301,-15.3331298828125,-39.48435974121094,349.9429626464844,336.1591491699219,15,1779.602659041667,0.0139617919921875,-0.809173583984375,-0.587127685546875,1779.604144083333,0.04990311145423179,0.0755845064780839,0.02124270443501704,192.168.1.8,10.227.79.254,1,0
2015-02-08 20:57:01.312,19,1423457821.173277,37.77932808272334,-122.4389182125427,62.03775,0,-1,4,10,-9999,1423457821.303913,10.283447265625,-15.43505859375,-39.61749267578125,349.9500732421875,336.166259765625,15,1779.661579,0.0092926025390625,-0.8090972900390625,-0.5814971923828125,1779.640386916667,0.05482330156815318,0.07328859530232659,0.01028299760101395,192.168.1.8,10.227.79.254,1,0
2015-02-08 20:57:01.371,20,1423457821.173277,37.77932808272334,-122.4389182125427,62.03775,0,-1,4,10,-9999,1423457821.352864,10.52217483520508,-15.46905517578125,-39.58421325683594,349.7840881347656,336.0002746582031,15,1779.720523333333,0.007415771484375,-0.809326171875,-0.56317138671875,1779.712874291667,0.0696086393080551,0.06479018194777474,0.003132143758042192,192.168.1.8,10.227.79.254,1,0
2015-02-08 20:57:01.465,21,1423457821.173277,37.77932808272334,-122.4389182125427,62.03775,0,-1,4,10,-9999,1423457821.405852,11.08488464355469,-15.52001953125,-39.56756591796875,349.4103088378906,335.6264953613281,15,1779.7792925,0.0276641845703125,-0.815887451171875,-0.5772857666015625,1779.785360666667,-0.00613911894485066,-0.004189152394694641,-0.03902622893013016,192.168.1.8,10.227.79.254,1,0
2015-02-08 20:57:01.490,22,1423457821.173277,37.77932808272334,-122.4389182125427,62.03775,0,-1,4,10,-9999,1423457821.457621,11.03372859954834,-15.70693969726562,-39.38451385498047,348.9948120117188,335.2109985351562,15,1779.838181375,0.028350830078125,-0.8154296875,-0.5780029296875,1779.821604416667,0.008769789469630931,-0.03007827398357293,-0.0188280162746422,192.168.1.8,10.227.79.254,1,0
2015-02-08 20:57:01.563,23,1423457821.173277,37.77932808272334,-122.4389182125427,62.03775,0,-1,4,10,-9999,1423457821.509144,11.27245330810547,-15.46905517578125,-39.0849609375,348.3275451660156,334.5437316894531,15,1779.897051208334,-0.002777099609375,-0.80364990234375,-0.573944091796875,1779.894090833333,0.01734010817361493,-0.02535941884806153,-0.01529266992756201,192.168.1.8,10.227.79.254,1,0
2015-02-08 20:57:01.606,24,1423457821.173277,37.77932808272334,-122.4389182125427,62.03775,0,-1,4,10,-9999,1423457821.563058,11.01667785644531,-15.14620971679688,-39.0350341796875,348.8482360839844,335.0644226074219,15,1779.955941083334,0.0123138427734375,-0.808685302734375,-0.58477783203125,1779.930334583333,0.001281779432655137,-0.013779994428397,-0.04980643870666191,192.168.1.8,10.227.79.254,1,0
2015-02-08 20:57:01.665,25,1423457821.173277,37.77932808272334,-122.4389182125427,62.03775,0,-1,4,10,-9999,1423457821.612375,10.82910823822021,-15.02725219726562,-39.25137329101562,348.8628234863281,335.0790100097656,15,1780.014956583334,0.0168609619140625,-0.8130950927734375,-0.569305419921875,1780.002821,0.01846263057308333,-0.01256266349412178,-0.05965374315333891,192.168.1.8,10.227.79.254,1,0
2015-02-08 20:57:01.763,26,1423457821.173277,37.77932808272334,-122.4389182125427,62.03775,0,-1,4,10,-9999,1423457821.716079,11.05078125,-14.976318359375,-39.30130004882812,348.8975830078125,335.11376953125,15,1780.073695291667,0.0270843505859375,-0.8118438720703125,-0.5650177001953125,1780.075307416667,-3.46210941710301e-06,-0.005168929359734793,-0.05736049513867167,192.168.1.8,10.227.79.254,1,0
2015-02-08 20:57:01.783,27,1423457821.173277,37.77932808272334,-122.4389182125427,62.03775,0,-1,4,10,-9999,1423457821.768486,11.06783294677734,-15.09521484375,-39.68405914306641,348.9172668457031,335.1334533691406,15,1780.132577041667,0.02886962890625,-0.8080596923828125,-0.5743865966796875,1780.111551208333,-0.01099432792817412,-0.01484898728995481,-0.05220381631995125,192.168.1.8,10.227.79.254,1,0
2015-02-08 20:57:01.864,28,1423457821.173277,37.77932808272334,-122.4389182125427,62.03775,0,-1,4,10,-9999,1423457821.819904,11.17014312744141,-15.43508911132812,-39.78391265869141,348.9286193847656,335.1448059082031,15,1780.191462666667,0.024169921875,-0.8158111572265625,-0.5904541015625,1780.184037583334,-0.0135512288907592,0.005211539937176061,-0.01600906026079332,192.168.1.8,10.227.79.254,1,0
2015-02-08 20:57:01.902,29,1423457821.173277,37.77932808272334,-122.4389182125427,62.03775,0,-1,4,10,-9999,1423457821.87176,11.27245235443115,-15.740966796875,-39.384521484375,348.9321594238281,335.1483459472656,15,1780.250344458334,0.019622802734375,-0.8116912841796875,-0.567626953125,1780.256525333333,0.0221689518621466,-0.01202816706334288,-0.01808472801440108,192.168.1.8,10.227.79.254,1,0
2015-02-08 20:57:01.965,30,1423457821.173277,37.77932808272334,-122.4389182125427,62.03775,0,-1,4,10,-9999,1423457821.92319,11.08488368988037,-15.62197875976562,-39.26802825927734,348.9369506835938,335.1531372070312,15,1780.309226,0.0047760009765625,-0.806884765625,-0.5730133056640625,1780.292767833334,-0.008506935470040111,-0.01555392603049878,-0.008154865573931636,192.168.1.8,10.227.79.254,1,0
2015-02-08 20:57:02.031,31,1423457821.173277,37.77932808272334,-122.4389182125427,62.03775,0,-1,4,10,-9999,1423457822.027618,10.65858936309814,-15.23114013671875,-39.48435211181641,348.9864807128906,335.2026672363281,15,1780.368109666667,0.0216522216796875,-0.808624267578125,-0.5857086181640625,1780.365255541667,0.0198229732578958,-0.03015390775853118,-0.02006904934261912,192.168.1.8,10.227.79.254,1,0
2015-02-08 20:57:02.079,32,1423457821.173277,37.77932808272334,-122.4389182125427,62.03775,0,-1,4,10,-9999,1423457822.027618,10.65858936309814,-15.23114013671875,-39.48435211181641,348.9864807128906,335.2026672363281,15,1780.427100708333,0.01263427734375,-0.8132476806640625,-0.56201171875,1780.401498041667,0.05668485117011857,-0.03291320896396228,-0.01884239734452862,192.168.1.8,10.227.79.254,1,0
2015-02-08 20:57:02.163,33,1423457821.173277,37.77932808272334,-122.4389182125427,62.03775,0,-1,4,10,-9999,1423457822.131143,10.82910633087158,-15.23110961914062,-39.68405151367188,349.0357360839844,335.2519226074219,15,1780.485885041667,0.0170440673828125,-0.8111724853515625,-0.564117431640625,1780.47398575,0.009933857182104567,-0.02029515171916685,-0.02519323759604059,192.168.1.8,10.227.79.254,1,0
2015-02-08 20:57:02.196,34,1423457821.173277,37.77932808272334,-122.4389182125427,62.03775,0,-1,4,10,-9999,1423457822.182222,10.74384784698486,-15.35009765625,-39.70069122314453,349.0541076660156,335.2702941894531,15,1780.544901833333,0.019256591796875,-0.80621337890625,-0.5802764892578125,1780.546472041667,0.008660333548828674,-0.01195040275951257,-0.01561571136778862,192.168.1.8,10.227.79.254,1,0
2015-02-08 20:57:02.270,35,1423457822.222816,37.77932808272334,-122.4389182125427,62.04251,0,-1,4,10,-9999,1423457822.236043,10.35165596008301,-15.3670654296875,-39.75061798095703,349.0840759277344,335.3002624511719,15,1780.603648625,0.003143310546875,-0.8056488037109375,-0.5871124267578125,1780.582715958333,0.007519435337838729,-0.02538924625227042,-0.007935154784000097,192.168.1.8,10.227.79.254,1,0
2015-02-08 20:57:02.313,36,1423457822.222816,37.77932808272334,-122.4389182125427,62.04251,0,-1,4,10,-9999,1423457822.287014,10.41986274719238,-15.23110961914062,-39.75061798095703,349.1142883300781,335.3304748535156,15,1780.662557833333,0.0062255859375,-0.80859375,-0.5782012939453125,1780.655202458333,0.01730815024053398,-0.0215135479178781,-0.02884523039886625,192.168.1.8,10.227.79.254,1,0
2015-02-08 20:57:02.373,37,1423457822.222816,37.77932808272334,-122.4389182125427,62.04251,0,-1,4,10,-9999,1423457822.337654,10.65858936309814,-14.82330322265625,-39.91703796386719,349.1400451660156,335.3562316894531,15,1780.72144475,0.0066986083984375,-0.8086090087890625,-0.5666961669921875,1780.691446041667,0.01606232348259491,-0.01902162808589096,-0.03257578645384924,192.168.1.8,10.227.79.254,1,0
2015-02-08 20:57:02.460,38,1423457822.222816,37.77932808272334,-122.4389182125427,62.04251,0,-1,4,10,-9999,1423457822.441481,10.86320972442627,-15.1971435546875,-39.98360443115234,349.1734313964844,335.3896179199219,15,1780.780331916667,0.01263427734375,-0.812286376953125,-0.5772705078125,1780.763932666667,0.007392136237732942,-0.006862433496916181,-0.03042049018364812,192.168.1.8,10.227.79.254,1,0
2015-02-08 20:57:02.490,39,1423457822.222816,37.77932808272334,-122.4389182125427,62.04251,0,-1,4,10,-9999,1423457822.441481,10.86320972442627,-15.1971435546875,-39.98360443115234,349.1734313964844,335.3896179199219,15,1780.839330208333,0.0130615234375,-0.8115386962890625,-0.58197021484375,1780.836419,0.006216350616462958,-0.01639894704438093,-0.03996339531772905,192.168.1.8,10.227.79.254,1,0
2015-02-08 20:57:02.561,40,1423457822.222816,37.77932808272334,-122.4389182125427,62.04251,0,-1,4,10,-9999,1423457822.548065,10.99962329864502,-15.40103149414062,-39.58421325683594,349.1554565429688,335.3716430664062,15,1780.898131041667,0.013671875,-0.80609130859375,-0.586395263671875,1780.908906583333,0.02838929722024468,-0.02640071483428251,-0.03241146941459135,192.168.1.8,10.227.79.254,1,0
2015-02-08 20:57:02.608,41,1423457822.222816,37.77932808272334,-122.4389182125427,62.04251,0,-1,4,10,-9999,1423457822.597626,10.76089859008789,-15.26510620117188,-39.28466796875,349.1582336425781,335.3744201660156,15,1780.95707125,0.0139923095703125,-0.8115692138671875,-0.57562255859375,1780.945149416667,0.01228542842464453,-0.002283128002524931,-0.01586631482636508,192.168.1.8,10.227.79.254,1,0
2015-02-08 20:57:02.666,42,1423457822.222816,37.77932808272334,-122.4389182125427,62.04251,0,-1,4,10,-9999,1423457822.649126,10.3857593536377,-15.299072265625,-39.384521484375,349.1804809570312,335.3966674804688,15,1781.015881,0.0137176513671875,-0.8087310791015625,-0.579833984375,1781.017636875,0.03560992588377652,-0.001175519305160976,-0.02205257172251014,192.168.1.8,10.227.79.254,1,0
2015-02-08 20:57:02.730,43,1423457822.222816,37.77932808272334,-122.4389182125427,62.04251,0,-1,4,10,-9999,1423457822.702314,10.31755256652832,-15.33306884765625,-39.15153503417969,349.2041931152344,335.4203796386719,15,1781.074757666667,-0.0025634765625,-0.802703857421875,-0.564544677734375,1781.0538795,0.01972656682643493,-0.01441249518729082,-0.01924320308858555,192.168.1.8,10.227.79.254,1,0
2015-02-08 20:57:02.784,44,1423457822.222816,37.77932808272334,-122.4389182125427,62.04251,0,-1,4,10,-9999,1423457822.752716,10.65858840942383,-15.3670654296875,-39.21809387207031,349.2171020507812,335.4332885742188,15,1781.133645791667,0.0008087158203125,-0.807281494140625,-0.571624755859375,1781.126367166667,0.005003280739931865,-0.01881283625642875,-0.03990054471600318,192.168.1.8,10.227.79.254,1,0
2015-02-08 20:57:02.864,45,1423457822.222816,37.77932808272334,-122.4389182125427,62.04251,0,-1,4,10,-9999,1423457822.804835,10.84615802764893,-15.58795166015625,-39.20144653320312,349.2162170410156,335.4324035644531,15,1781.192531416667,0.0159149169921875,-0.8132781982421875,-0.5810394287109375,1781.198853625,0.003756655033665774,-0.01630174166459303,-0.04485402434355056,192.168.1.8,10.227.79.254,1,0
2015-02-08 20:57:02.904,46,1423457822.222816,37.77932808272334,-122.4389182125427,62.04251,0,-1,4,10,-9999,1423457822.856349,10.99962520599365,-15.67294311523438,-39.51763916015625,349.2073974609375,335.423583984375,15,1781.251528458333,0.0174713134765625,-0.81024169921875,-0.569488525390625,1781.235097541667,0.03192783936063296,-0.003302852383916271,-0.03911704272330187,192.168.1.8,10.227.79.254,1,0
2015-02-08 20:57:02.966,47,1423457822.222816,37.77932808272334,-122.4389182125427,62.04251,0,-1,4,10,-9999,1423457822.908737,10.93141841888428,-15.77487182617188,-39.41779327392578,349.1993103027344,335.4154968261719,15,1781.310290791667,0.0087890625,-0.8086395263671875,-0.5711517333984375,1781.307583916667,0.0319763088924724,-0.00961134837409597,-0.023056050821252,192.168.1.8,10.227.79.254,1,0
2015-02-08 20:57:03.030,48,1423457822.222816,37.77932808272334,-122.4389182125427,62.04251,0,-1,4,10,-9999,1423457823.012548,10.43691635131836,-15.723876953125,-39.53429412841797,349.2253723144531,335.4415588378906,15,1781.369186708333,0.008636474609375,-0.8117218017578125,-0.577056884765625,1781.343827875,0.008682970418094349,-0.01768898227641531,-0.03626532982804502,192.168.1.8,10.227.79.254,1,0
2015-02-08 20:57:03.079,49,1423457822.222816,37.77932808272334,-122.4389182125427,62.04251,0,-1,4,10,-9999,1423457823.063976,10.6074333190918,-15.4859619140625,-39.56757354736328,349.2411804199219,335.4573669433594,15,1781.428103708334,0.0093231201171875,-0.8103179931640625,-0.573974609375,1781.416314208333,0.006188387425017126,-0.01158741390293476,-0.03763845568608987,192.168.1.8,10.227.79.254,1,0
2015-02-08 20:57:03.163,50,1423457822.222816,37.77932808272334,-122.4389182125427,62.04251,0,-1,4,10,-9999,1423457823.116282,11.44297409057617,-15.26504516601562,-39.71735382080078,349.2279357910156,335.4441223144531,15,1781.486972958333,0.009796142578125,-0.811492919921875,-0.574462890625,1781.488800708333,0.0160013370936321,-0.0103450492544128,-0.0450265971821877,192.168.1.8,10.227.79.254,1,0
2015-02-08 20:57:03.198,51,1423457822.222816,37.77932808272334,-122.4389182125427,62.04251,0,-1,4,10,-9999,1423457823.167628,10.98257446289062,-15.1461181640625,-39.46773529052734,349.2226257324219,335.4388122558594,15,1781.545861166667,0.015167236328125,-0.811126708984375,-0.5793914794921875,1781.525044541667,0.009867011838743578,-0.01148594746540275,-0.04621010597061891,192.168.1.8,10.227.79.254,1,0
2015-02-08 20:57:03.267,52,1423457823.236631,37.77932808272334,-122.4389182125427,62.0386,0,-1,4,10,-9999,1423457823.219912,10.8632116317749,-15.2310791015625,-39.25138854980469,349.2182006835938,335.4343872070312,15,1781.604757375,0.00933837890625,-0.811492919921875,-0.5730438232421875,1781.597531083333,0.02094842513456329,-0.01533155207947717,-0.03879346865085724,192.168.1.8,10.227.79.254,1,0
2015-02-08 20:57:03.314,53,1423457823.236631,37.77932808272334,-122.4389182125427,62.0386,0,-1,4,10,-9999,1423457823.271724,10.81205463409424,-14.94219970703125,-38.90191650390625,349.2240600585938,335.4402465820312,15,1781.663750208333,0.0122222900390625,-0.8153533935546875,-0.573760986328125,1781.670018791667,-0.003636280152394192,-0.01152243277233683,-0.036399286830876,192.168.1.8,10.227.79.254,1,0
2015-02-08 20:57:03.373,54,1423457823.236631,37.77932808272334,-122.4389182125427,62.0386,0,-1,4,10,-9999,1423457823.323261,10.94846725463867,-15.078125,-39.03504180908203,349.2193298339844,335.4355163574219,15,1781.722533125,0.0160369873046875,-0.80780029296875,-0.5892333984375,1781.706261375,0.01228915685017064,-0.004460794825882724,-0.03171318857677258,192.168.1.8,10.227.79.254,1,0
2015-02-08 20:57:03.459,55,1423457823.236631,37.77932808272334,-122.4389182125427,62.0386,0,-1,4,10,-9999,1423457823.427271,11.05078029632568,-15.2821044921875,-39.63414764404297,349.227294921875,335.4434814453125,15,1781.7814135,0.0047760009765625,-0.8069000244140625,-0.5645599365234375,1781.778749166667,0.04431553317113654,-0.01935825164767697,-0.02650191495570552,192.168.1.8,10.227.79.254,1,0
2015-02-08 20:57:03.491,56,1423457823.236631,37.77932808272334,-122.4389182125427,62.0386,0,-1,4,10,-9999,1423457823.479186,10.96551990509033,-15.40103149414062,-39.31795501708984,349.2292175292969,335.4454040527344,15,1781.840414125,0.0030517578125,-0.812347412109375,-0.5650634765625,1781.814991708334,0.01728657863570434,-0.01789537726089645,-0.02771312061947356,192.168.1.8,10.227.79.254,1,0
2015-02-08 20:57:03.560,57,1423457823.236631,37.77932808272334,-122.4389182125427,62.0386,0,-1,4,10,-9999,1423457823.530171,10.98257160186768,-15.41802978515625,-39.20145416259766,349.2200927734375,335.436279296875,15,1781.899208666667,0.011077880859375,-0.8153228759765625,-0.5855255126953125,1781.887479291667,-0.003584082195028639,-0.02000859558587433,-0.03618516867923363,192.168.1.8,10.227.79.254,1,0
2015-02-08 20:57:03.609,58,1423457823.236631,37.77932808272334,-122.4389182125427,62.0386,0,-1,4,10,-9999,1423457823.58265,10.82910346984863,-15.299072265625,-38.85198974609375,349.2156066894531,335.4317932128906,15,1781.95821975,0.000640869140625,-0.8092041015625,-0.565765380859375,1781.959965833333,0.009948504568100001,-0.02376125587790498,-0.03611459491034653,192.168.1.8,10.227.79.254,1,0
2015-02-08 20:57:03.667,59,1423457823.236631,37.77932808272334,-122.4389182125427,62.0386,0,-1,4,10,-9999,1423457823.633865,10.67563819885254,-15.62191772460938,-38.80206298828125,349.2071533203125,335.42333984375,15,1782.017006458334,0.00799560546875,-0.8038482666015625,-0.576751708984375,1781.996209625,0.007515973228421626,-0.02845640887971468,-0.04455415240480764,192.168.1.8,10.227.79.254,1,0
2015-02-08 20:57:03.730,60,1423457823.236631,37.77932808272334,-122.4389182125427,62.0386,0,-1,4,10,-9999,1423457823.687713,10.84615707397461,-15.85983276367188,-38.80206298828125,349.1902770996094,335.4064636230469,15,1782.075893208333,0.01251220703125,-0.807281494140625,-0.567840576171875,1782.068696333333,0.005030977615268689,-0.02570669505420786,-0.06419043807028889,192.168.1.8,10.227.79.254,1,0
2015-02-08 20:57:03.785,61,1423457823.236631,37.77932808272334,-122.4389182125427,62.0386,0,-1,4,10,-9999,1423457823.73769,10.93141841888428,-15.91079711914062,-39.05169677734375,349.1773071289062,335.3934936523438,15,1782.134777041667,0.0225372314453125,-0.8172454833984375,-0.562957763671875,1782.104940041667,0.009797503334292509,-0.003660781234422921,-0.08188048561114022,192.168.1.8,10.227.79.254,1,0
2015-02-08 20:57:03.865,62,1423457823.236631,37.77932808272334,-122.4389182125427,62.0386,0,-1,4,10,-9999,1423457823.841541,11.06783199310303,-15.1971435546875,-39.48438262939453,349.18310546875,335.3992919921875,15,1782.193663458334,0.0329437255859375,-0.8219451904296875,-0.5773162841796875,1782.177426666667,-0.001234375165251727,-0.006143113686485778,-0.07201214219185161,192.168.1.8,10.227.79.254,1,0
2015-02-08 20:57:03.904,63,1423457823.236631,37.77932808272334,-122.4389182125427,62.0386,0,-1,4,10,-9999,1423457823.893865,10.98257160186768,-15.18017578125,-39.20147705078125,349.1933288574219,335.4095153808594,15,1782.252566791667,0.0207061767578125,-0.8090667724609375,-0.581939697265625,1782.24991325,0.01230726634558318,-0.00800279907568811,-0.03773965580751289,192.168.1.8,10.227.79.254,1,0
2015-02-08 20:57:03.966,64,1423457823.236631,37.77932808272334,-122.4389182125427,62.0386,0,-1,4,10,-9999,1423457823.945702,10.88026142120361,-15.4180908203125,-39.46774291992188,349.2007751464844,335.4169616699219,15,1782.311464291667,0.0054779052734375,-0.806427001953125,-0.57843017578125,1782.322400708333,0.01974680685071954,-0.02009434937297488,-0.04356398911151618,192.168.1.8,10.227.79.254,1,0
2015-02-08 20:57:04.032,65,1423457823.236631,37.77932808272334,-122.4389182125427,62.0386,0,-1,4,10,-9999,1423457823.99774,10.99962329864502,-15.63897705078125,-39.31795501708984,349.2033081054688,335.4194946289062,15,1782.370358208334,0.018463134765625,-0.811920166015625,-0.5680999755859375,1782.358643583333,-0.002399241826052386,-0.01382446921860133,-0.0449056896686981,192.168.1.8,10.227.79.254,1,0
2015-02-08 20:57:04.080,66,1423457823.236631,37.77932808272334,-122.4389182125427,62.0386,0,-1,4,10,-9999,1423457824.04908,11.11898517608643,-15.2821044921875,-39.36788177490234,349.2052001953125,335.42138671875,15,1782.4292415,0.0333099365234375,-0.818115234375,-0.5836334228515625,1782.431131041667,-6.657902725198096e-05,0.003564108486853044,-0.07348247342968435,192.168.1.8,10.227.79.254,1,0
2015-02-08 20:57:04.167,67,1423457823.236631,37.77932808272334,-122.4389182125427,62.0386,0,-1,4,10,-9999,1423457824.152656,10.96552181243896,-15.1971435546875,-39.484375,349.2159423828125,335.43212890625,15,1782.488120791667,0.0377349853515625,-0.817779541015625,-0.5680999755859375,1782.467373916667,0.03570819652800044,-0.01801495319384101,-0.03018986043324725,192.168.1.8,10.227.79.254,1,0
2015-02-08 20:57:04.198,68,1423457823.236631,37.77932808272334,-122.4389182125427,62.0386,0,-1,4,10,-9999,1423457824.152656,10.96552181243896,-15.1971435546875,-39.484375,349.2159423828125,335.43212890625,15,1782.547011541667,0.018768310546875,-0.81549072265625,-0.5681304931640625,1782.539861541667,0.01596485178669801,0.0009419600775610265,0.00850959863113019,192.168.1.8,10.227.79.254,1,0
2015-02-08 20:57:04.265,69,1423457824.203297,37.77932808272334,-122.4389182125427,61.99905,0,-1,4,10,-9999,1423457824.20499,10.93141651153564,-15.40103149414062,-39.75064086914062,349.2374267578125,335.45361328125,15,1782.605890791667,0.013092041015625,-0.8120269775390625,-0.5861968994140625,1782.612347958333,0.001297225766977597,-0.01097861527774265,0.003943875258298344,192.168.1.8,10.227.79.254,1,0
2015-02-08 20:57:04.316,70,1423457824.203297,37.77932808272334,-122.4389182125427,61.99905,0,-1,4,10,-9999,1423457824.308391,10.5562744140625,-15.60498046875,-39.15155029296875,349.2908935546875,335.507080078125,15,1782.664881833334,0.0084991455078125,-0.8060302734375,-0.565948486328125,1782.64859175,0.05651973518253366,-0.004120975470788613,2.396844981071314e-06,192.168.1.8,10.227.79.254,1,0
2015-02-08 20:57:04.374,71,1423457824.203297,37.77932808272334,-122.4389182125427,61.99905,0,-1,4,10,-9999,1423457824.363831,10.52217483520508,-15.74087524414062,-39.05169677734375,349.3079528808594,335.5241394042969,15,1782.723664583333,0.008880615234375,-0.81268310546875,-0.575653076171875,1782.721078333333,0.03813087417164553,-0.01205080393260855,-0.02545183053788728,192.168.1.8,10.227.79.254,1,0
2015-02-08 20:57:04.460,72,1423457824.203297,37.77932808272334,-122.4389182125427,61.99905,0,-1,4,10,-9999,1423457824.411709,10.79500484466553,-15.3330078125,-39.25140380859375,349.3188781738281,335.5350646972656,15,1782.782554708333,0.01123046875,-0.81298828125,-0.5659942626953125,1782.757322333333,0.03333505368063083,-0.02926627616720777,-0.006660832202397183,192.168.1.8,10.227.79.254,1,0
2015-02-08 20:57:04.492,73,1423457824.203297,37.77932808272334,-122.4389182125427,61.99905,0,-1,4,10,-9999,1423457824.463184,10.52217578887939,-15.5709228515625,-39.38452911376953,349.3384094238281,335.5545959472656,15,1782.841455916667,-0.0016632080078125,-0.810821533203125,-0.5655517578125,1782.829808708334,0.001263669937242598,-0.007094927460080098,-0.0120555976225707,192.168.1.8,10.227.79.254,1,0
2015-02-08 20:57:04.559,74,1423457824.203297,37.77932808272334,-122.4389182125427,61.99905,0,-1,4,10,-9999,1423457824.515326,10.62448596954346,-15.84283447265625,-39.35124969482422,349.3453369140625,335.5615234375,15,1782.900347333333,0.0107269287109375,-0.8115081787109375,-0.577056884765625,1782.902295291667,0.01355735416126638,-0.01269156049088162,-0.04863251729815499,192.168.1.8,10.227.79.254,1,0
2015-02-08 20:57:04.610,75,1423457824.203297,37.77932808272334,-122.4389182125427,61.99905,0,-1,4,10,-9999,1423457824.566809,10.70974349975586,-15.553955078125,-39.36788940429688,349.3506469726562,335.5668334960938,15,1782.95934875,0.002716064453125,-0.8082733154296875,-0.574676513671875,1782.93853925,0.01849219166118321,-0.01426921712064456,-0.02780713020595336,192.168.1.8,10.227.79.254,1,0
2015-02-08 20:57:04.669,76,1423457824.203297,37.77932808272334,-122.4389182125427,61.99905,0,-1,4,10,-9999,1423457824.618968,10.33460426330566,-15.28204345703125,-39.36788940429688,349.3669128417969,335.5830993652344,15,1783.018235458333,0.009490966796875,-0.8088836669921875,-0.56787109375,1783.011025625,0.01599601077145194,-0.008129565543575882,-0.03162716847356302,192.168.1.8,10.227.79.254,1,0
2015-02-08 20:57:04.764,77,1423457824.203297,37.77932808272334,-122.4389182125427,61.99905,0,-1,4,10,-9999,1423457824.721911,10.79500198364258,-15.77484130859375,-39.31796264648438,349.3853149414062,335.6015014648438,15,1783.077022833333,0.0120697021484375,-0.8182220458984375,-0.5723724365234375,1783.083513458334,-0.009817210726359096,-0.005351089578296214,-0.04021346614408749,192.168.1.8,10.227.79.254,1,0
2015-02-08 20:57:04.788,78,1423457824.203297,37.77932808272334,-122.4389182125427,61.99905,0,-1,4,10,-9999,1423457824.774152,10.88026142120361,-15.62188720703125,-39.13490295410156,349.3765869140625,335.5927734375,15,1783.136038333334,0.0096588134765625,-0.8048095703125,-0.586639404296875,1783.119756041667,0.006138586312632644,-0.003157976420615961,-0.03418140627505802,192.168.1.8,10.227.79.254,1,0
2015-02-08 20:57:04.866,79,1423457824.203297,37.77932808272334,-122.4389182125427,61.99905,0,-1,4,10,-9999,1423457824.824845,10.79500293731689,-15.29904174804688,-39.65079498291016,349.3692321777344,335.5854187011719,15,1783.194803416667,0.0093231201171875,-0.8108062744140625,-0.56976318359375,1783.192243666667,0.03819825214722453,-0.02506327533484472,-0.04591795719903722,192.168.1.8,10.227.79.254,1,0
2015-02-08 20:57:04.906,80,1423457824.203297,37.77932808272334,-122.4389182125427,61.99905,0,-1,4,10,-9999,1423457824.878173,11.05077838897705,-15.384033203125,-39.96698760986328,349.3713073730469,335.5874938964844,15,1783.253705541667,0.002044677734375,-0.8104400634765625,-0.561767578125,1783.228486541667,0.006192382166652245,-0.01272351842396257,-0.0425027194171196,192.168.1.8,10.227.79.254,1,0
2015-02-08 20:57:04.965,81,1423457824.203297,37.77932808272334,-122.4389182125427,61.99905,0,-1,4,10,-9999,1423457824.929716,10.93141555786133,-15.43499755859375,-39.91706085205078,349.3694152832031,335.5856018066406,15,1783.312589041667,0.0215606689453125,-0.8145904541015625,-0.576568603515625,1783.300974083333,-0.008563927117367807,-0.01219834305699894,-0.0681769239060285,192.168.1.8,10.227.79.254,1,0
2015-02-08 20:57:05.029,82,1423457824.203297,37.77932808272334,-122.4389182125427,61.99905,0,-1,4,10,-9999,1423457824.981546,11.17014217376709,-15.87680053710938,-39.81721496582031,349.3600769042969,335.5762634277344,15,1783.371486708333,0.0280303955078125,-0.8120880126953125,-0.57867431640625,1783.373460791667,0.004916461688395281,-0.004321777816980588,-0.03659636075154186,192.168.1.8,10.227.79.254,1,0
2015-02-08 20:57:05.081,83,1423457824.203297,37.77932808272334,-122.4389182125427,61.99905,0,-1,4,10,-9999,1423457825.035563,11.25540351867676,-15.92776489257812,-39.56758880615234,349.3413696289062,335.5575561523438,15,1783.430391916667,0.015350341796875,-0.8085174560546875,-0.57208251953125,1783.409704458333,0.008770854734066963,-0.03115765317338205,-0.02736318125223715,192.168.1.8,10.227.79.254,1,0
2015-02-08 20:57:05.169,84,1423457825.141988,37.77932808272334,-122.4389182125427,62.00601,0,-1,4,10,-9999,1423457825.136987,10.70974159240723,-15.2139892578125,-39.6341552734375,349.3331909179688,335.5493774414062,15,1783.489280375,0.0156097412109375,-0.8101806640625,-0.5767822265625,1783.482191,0.001367799535864697,-0.02510881538948507,-0.02260970502255472,192.168.1.8,10.227.79.254,1,0
2015-02-08 20:57:05.198,85,1423457825.141988,37.77932808272334,-122.4389182125427,62.00601,0,-1,4,10,-9999,1423457825.19008,10.48806762695312,-15.16299438476562,-39.51766204833984,349.3552551269531,335.5714416503906,15,1783.548185375,0.0116729736328125,-0.8115234375,-0.5727996826171875,1783.518434833333,0.0135344509758917,-0.006953247290087883,-0.02798289883789859,192.168.1.8,10.227.79.254,1,0
2015-02-08 20:57:05.264,86,1423457825.141988,37.77932808272334,-122.4389182125427,62.00601,0,-1,4,10,-9999,1423457825.240661,10.55627632141113,-15.26495361328125,-39.584228515625,349.3721923828125,335.58837890625,15,1783.60707225,0.0066986083984375,-0.8088226318359375,-0.5697479248046875,1783.590921375,0.01354563625247003,-0.01138474734397974,-0.05478175625514795,192.168.1.8,10.227.79.254,1,0
2015-02-08 20:57:05.316,87,1423457825.141988,37.77932808272334,-122.4389182125427,62.00601,0,-1,4,10,-9999,1423457825.293227,10.62448501586914,-15.6387939453125,-39.41780853271484,349.3787841796875,335.594970703125,15,1783.665973041667,0.0093841552734375,-0.8122100830078125,-0.5904541015625,1783.663408166667,0.02842738042383281,-0.0303797438189699,-0.01029338392926526,192.168.1.8,10.227.79.254,1,0
2015-02-08 20:57:05.376,88,1423457825.141988,37.77932808272334,-122.4389182125427,62.00601,0,-1,4,10,-9999,1423457825.344693,10.43691444396973,-15.51983642578125,-39.63414764404297,349.3926696777344,335.6088562011719,15,1783.725001458334,-0.0128631591796875,-0.8018035888671875,-0.567138671875,1783.735895791667,0.01374004701204581,-0.04396559380390012,-0.06374515753602764,192.168.1.8,10.227.79.254,1,0
2015-02-08 20:57:05.465,89,1423457825.141988,37.77932808272334,-122.4389182125427,62.00601,0,-1,4,10,-9999,1423457825.448149,10.31755447387695,-15.67276000976562,-39.41780853271484,349.4066772460938,335.6228637695312,15,1783.783771291667,-0.02508544921875,-0.7984466552734375,-0.58642578125,1783.772138583333,-0.02196761688373661,-0.03015390775853118,-0.07503855845461765,192.168.1.8,10.227.79.254,1,0
2015-02-08 20:57:05.493,90,1423457825.141988,37.77932808272334,-122.4389182125427,62.00601,0,-1,4,10,-9999,1423457825.448149,10.31755447387695,-15.67276000976562,-39.41780853271484,349.4066772460938,335.6228637695312,15,1783.8427415,0.039459228515625,-0.8005828857421875,-0.6053619384765625,1783.844626041667,0.04849163607648979,-0.1182243786913426,-0.2172801228046218,192.168.1.8,10.227.79.254,1,0
2015-02-08 20:57:05.563,91,1423457825.141988,37.77932808272334,-122.4389182125427,62.00601,0,-1,4,10,-9999,1423457825.552239,10.30050086975098,-15.11196899414062,-39.80055999755859,351.2110900878906,337.4272766113281,15,1783.901575208333,0.0274505615234375,-0.827850341796875,-0.5486907958984375,1783.88086875,0.07509927852747146,-0.04020840613801634,-0.1055394761031862,192.168.1.8,10.227.79.254,1,0
2015-02-08 20:57:05.611,92,1423457825.141988,37.77932808272334,-122.4389182125427,62.00601,0,-1,4,10,-9999,1423457825.605156,10.86320972442627,-15.19696044921875,-39.71735382080078,350.4781494140625,336.6943359375,15,1783.960582291667,0.0487060546875,-0.8370513916015625,-0.548004150390625,1783.953356625,0.02329120794550599,0.00497185543906893,-0.02096200725612269,192.168.1.8,10.227.79.254,1,0
2015-02-08 20:57:05.669,93,1423457825.141988,37.77932808272334,-122.4389182125427,62.00601,0,-1,4,10,-9999,1423457825.655314,10.6415376663208,-15.0780029296875,-39.73399353027344,351.2095336914062,337.4257202148438,15,1784.01937925,0.031158447265625,-0.8152313232421875,-0.5857391357421875,1784.025843041667,-0.05637139710981624,-0.01594168228521432,0.04331551618181179,192.168.1.8,10.227.79.254,1,0
2015-02-08 20:57:05.730,94,1423457825.141988,37.77932808272334,-122.4389182125427,62.00601,0,-1,4,10,-9999,1423457825.708107,10.60743427276611,-15.2479248046875,-39.60086059570312,350.9407653808594,337.1569519042969,15,1784.078274083334,0.0082855224609375,-0.79620361328125,-0.600677490234375,1784.062087041667,-0.01604954030936253,0.0176751338387469,0.04117087255597097,192.168.1.8,10.227.79.254,1,0
2015-02-08 20:57:05.787,95,1423457825.141988,37.77932808272334,-122.4389182125427,62.00601,0,-1,4,10,-9999,1423457825.759269,10.64153671264648,-15.0780029296875,-39.46772003173828,350.9369506835938,337.1531372070312,15,1784.137175208333,-0.0098724365234375,-0.7999420166015625,-0.5798187255859375,1784.134573583333,0.05779778618966269,-0.01466256601364926,-0.02419801429667797,192.168.1.8,10.227.79.254,1,0
2015-02-08 20:57:05.866,96,1423457825.141988,37.77932808272334,-122.4389182125427,62.00601,0,-1,4,10,-9999,1423457825.811362,10.62448310852051,-15.53683471679688,-39.65077972412109,350.9154663085938,337.1316528320312,15,1784.196074708334,0.0139007568359375,-0.81732177734375,-0.5596923828125,1784.170817416667,0.02591415530312504,-0.02492026358430747,-0.04834569484875345,192.168.1.8,10.227.79.254,1,0
2015-02-08 20:57:05.905,97,1423457825.141988,37.77932808272334,-122.4389182125427,62.00601,0,-1,4,10,-9999,1423457825.862881,10.77795028686523,-15.41790771484375,-40.03353881835938,350.8997192382812,337.1159057617188,15,1784.254975791667,0.0318756103515625,-0.81597900390625,-0.5697479248046875,1784.243303833333,-0.004837632120128936,-0.01734543449579509,-0.05092816215780329,192.168.1.8,10.227.79.254,1,0
2015-02-08 20:57:05.965,98,1423457825.141988,37.77932808272334,-122.4389182125427,62.00601,0,-1,4,10,-9999,1423457825.915699,10.4539680480957,-15.02703857421875,-39.78391265869141,350.8935241699219,337.1097106933594,15,1784.313866291667,0.0335845947265625,-0.819580078125,-0.580596923828125,1784.315790458333,0.007432616286302146,-0.01089818781282226,-0.004631503451756803,192.168.1.8,10.227.79.254,1,0
2015-02-08 20:57:06.030,99,1423457825.141988,37.77932808272334,-122.4389182125427,62.00601,0,-1,4,10,-9999,1423457826.018524,10.64153480529785,-15.48583984375,-39.50100708007812,350.875732421875,337.0919189453125,15,1784.372755583333,0.011077880859375,-0.8070068359375,-0.57183837890625,1784.352034416667,0.02832538135408278,-0.01242258122078361,0.003931891033392987,192.168.1.8,10.227.79.254,1,0
2015-02-08 20:57:06.083,100,1423457825.141988,37.77932808272334,-122.4389182125427,62.00601,0,-1,4,10,-9999,1423457826.071416,10.53922271728516,-16.02960205078125,-39.40115356445312,350.8541259765625,337.0703125,15,1784.431665958333,0.0015716552734375,-0.8097076416015625,-0.5587158203125,1784.424520875,0.0271397420367795,-0.02173059554671956,-0.02029488540305784,192.168.1.8,10.227.79.254,1,0
2015-02-08 20:57:06.165,101,1423457825.141988,37.77932808272334,-122.4389182125427,62.00601,0,-1,4,10,-9999,1423457826.121618,10.48806762695312,-15.63876342773438,-39.28466796875,350.831787109375,337.0479736328125,15,1784.4905575,0.011016845703125,-0.813201904296875,-0.5796356201171875,1784.497008541667,0.01226492208425092,-0.0007856325215733753,-0.03425224636005413,192.168.1.8,10.227.79.254,1,0
2015-02-08 20:57:06.200,102,1423457825.141988,37.77932808272334,-122.4389182125427,62.00601,0,-1,4,10,-9999,1423457826.174009,10.50511932373047,-15.58779907226562,-39.56756591796875,350.8154907226562,337.0316772460938,15,1784.549453791667,0.008636474609375,-0.8119659423828125,-0.5777587890625,1784.533251416667,0.01484579149664671,-0.02135935089076252,-0.03740729330347099,192.168.1.8,10.227.79.254,1,0
2015-02-08 20:57:06.269,103,1423457826.242451,37.77932808272334,-122.4389182125427,62.03799,0,-1,4,10,-9999,1423457826.224814,10.59037971496582,-15.26495361328125,-39.51764678955078,350.7983703613281,337.0145568847656,15,1784.608356666667,0.0139617919921875,-0.8189849853515625,-0.563934326171875,1784.605738958333,0.01486070519875116,-0.02378415906327966,-0.03734604059839917,192.168.1.8,10.227.79.254,1,0
2015-02-08 20:57:06.330,104,1423457826.242451,37.77932808272334,-122.4389182125427,62.03799,0,-1,4,10,-9999,1423457826.278842,10.43691444396973,-15.2139892578125,-39.73399353027344,350.7905578613281,337.0067443847656,15,1784.667255125,0.01593017578125,-0.81451416015625,-0.5525970458984375,1784.641981833333,0.02826119917181187,-0.006813431332858723,-0.045137650999644,192.168.1.8,10.227.79.254,1,0
2015-02-08 20:57:06.377,105,1423457826.242451,37.77932808272334,-122.4389182125427,62.03799,0,-1,4,10,-9999,1423457826.330831,10.47101593017578,-15.34994506835938,-39.50100708007812,350.7834167480469,336.9996032714844,15,1784.726261,0.013275146484375,-0.8098907470703125,-0.5819549560546875,1784.714469416667,0.008664328290463794,-0.01308650728054037,-0.02047970878270934,192.168.1.8,10.227.79.254,1,0
2015-02-08 20:57:06.461,106,1423457826.242451,37.77932808272334,-122.4389182125427,62.03799,0,-1,4,10,-9999,1423457826.432685,10.40280914306641,-15.58782958984375,-39.00176239013672,350.7617797851562,336.9779663085938,15,1784.785057458334,0.00860595703125,-0.8107757568359375,-0.577056884765625,1784.786955958333,0.008653143013885461,-0.01283963224749002,-0.03638783523818866,192.168.1.8,10.227.79.254,1,0
2015-02-08 20:57:06.495,107,1423457826.242451,37.77932808272334,-122.4389182125427,62.03799,0,-1,4,10,-9999,1423457826.4859,10.28344631195068,-15.67279052734375,-39.45108795166016,350.752197265625,336.9683837890625,15,1784.8440585,0.0141143798828125,-0.806365966796875,-0.5664215087890625,1784.823199833334,0.0172282554078316,-0.01031761869518498,-0.04747590643673357,192.168.1.8,10.227.79.254,1,0
2015-02-08 20:57:06.560,108,1423457826.242451,37.77932808272334,-122.4389182125427,62.03799,0,-1,4,10,-9999,1423457826.537175,10.64153289794922,-16.131591796875,-39.6341552734375,350.7310485839844,336.9472351074219,15,1784.902851791667,0.0157470703125,-0.81591796875,-0.5693206787109375,1784.895686416667,0.01104572693721265,-0.003067162627444258,-0.04275518708845912,192.168.1.8,10.227.79.254,1,0
2015-02-08 20:57:06.612,109,1423457826.242451,37.77932808272334,-122.4389182125427,62.03799,0,-1,4,10,-9999,1423457826.589053,10.62448120117188,-16.25057983398438,-39.71736907958984,350.7072448730469,336.9234313964844,15,1784.961744583333,0.014007568359375,-0.81182861328125,-0.565277099609375,1784.93193025,0.008593221889358679,-0.004182494491969444,-0.04761518976174472,192.168.1.8,10.227.79.254,1,0
2015-02-08 20:57:06.672,110,1423457826.242451,37.77932808272334,-122.4389182125427,62.03799,0,-1,4,10,-9999,1423457826.640536,10.94846820831299,-16.09765625,-39.8338623046875,350.6797790527344,336.8959655761719,15,1785.020757416667,0.0021820068359375,-0.805419921875,-0.5701751708984375,1785.004416833333,0.01231898425437953,-0.009310144854808008,-0.03159094948273794,192.168.1.8,10.227.79.254,1,0
2015-02-08 20:57:06.762,111,1423457826.242451,37.77932808272334,-122.4389182125427,62.03799,0,-1,4,10,-9999,1423457826.74639,10.76090145111084,-15.50289916992188,-39.51766967773438,350.6376037597656,336.8537902832031,15,1785.079524958333,0.0205841064453125,-0.8133544921875,-0.583160400390625,1785.076903375,-0.003668238085475143,-0.007676295526044396,-0.04995158098607123,192.168.1.8,10.227.79.254,1,0
2015-02-08 20:57:06.789,112,1423457826.242451,37.77932808272334,-122.4389182125427,62.03799,0,-1,4,10,-9999,1423457826.74639,10.76090145111084,-15.50289916992188,-39.51766967773438,350.6376037597656,336.8537902832031,15,1785.138480291667,0.0271148681640625,-0.8125762939453125,-0.5676116943359375,1785.149391083334,-0.004977181761249088,0.005650695200930127,-0.04906208518198477,192.168.1.8,10.227.79.254,1,0
2015-02-08 20:57:06.862,113,1423457826.242451,37.77932808272334,-122.4389182125427,62.03799,0,-1,4,10,-9999,1423457826.848169,10.64153480529785,-16.23358154296875,-39.33460235595703,350.6032104492188,336.8193969726562,15,1785.197332375,0.041473388671875,-0.8166046142578125,-0.5838470458984375,1785.185633833333,0.01585060217593361,0.01604101819387427,-0.02734427280849759,192.168.1.8,10.227.79.254,1,0
2015-02-08 20:57:06.907,114,1423457826.242451,37.77932808272334,-122.4389182125427,62.03799,0,-1,4,10,-9999,1423457826.900294,10.67563629150391,-15.961669921875,-39.26803588867188,350.5825500488281,336.7987365722656,15,1785.25632775,0.011016845703125,-0.813201904296875,-0.5742340087890625,1785.258121666667,0.05035531620732724,0.001689243079437261,0.01943788016427034,192.168.1.8,10.227.79.254,1,0
2015-02-08 20:57:06.966,115,1423457826.242451,37.77932808272334,-122.4389182125427,62.03799,0,-1,4,10,-9999,1423457826.951572,10.70974159240723,-15.451904296875,-39.83385467529297,350.5816345214844,336.7978210449219,15,1785.315123333334,-0.00128173828125,-0.8079986572265625,-0.557281494140625,1785.294364291667,0.03447062556944062,-0.01361115001528598,-0.0009416937614520186,192.168.1.8,10.227.79.254,1,0
2015-02-08 20:57:07.030,116,1423457826.242451,37.77932808272334,-122.4389182125427,62.03799,0,-1,4,10,-9999,1423457827.005592,10.41986274719238,-15.43487548828125,-40.08347320556641,350.5855102539062,336.8016967773438,15,1785.374018083333,0.0077362060546875,-0.812896728515625,-0.58294677734375,1785.366852125,-0.001168062454108754,-0.01285028489185034,-0.03025404261551816,192.168.1.8,10.227.79.254,1,0
2015-02-08 20:57:07.083,117,1423457826.242451,37.77932808272334,-122.4389182125427,62.03799,0,-1,4,10,-9999,1423457827.055421,10.62448501586914,-15.43487548828125,-40.15004730224609,350.586181640625,336.8023681640625,15,1785.432911958334,0.0211181640625,-0.816497802734375,-0.56951904296875,1785.43933875,0.02710831673591656,-0.01580186632798516,-0.01188222583560654,192.168.1.8,10.227.79.254,1,0
2015-02-08 20:57:07.165,118,1423457826.242451,37.77932808272334,-122.4389182125427,62.03799,0,-1,4,10,-9999,1423457827.107205,10.77795124053955,-15.62179565429688,-39.80057525634766,350.5726318359375,336.788818359375,15,1785.491802916667,0.005584716796875,-0.8109588623046875,-0.56976318359375,1785.475582583333,0.01734197238637798,-0.02435620606542868,-0.001862881182510427,192.168.1.8,10.227.79.254,1,0
2015-02-08 20:57:07.201,119,1423457826.242451,37.77932808272334,-122.4389182125427,62.03799,0,-1,4,10,-9999,1423457827.160421,10.70974349975586,-15.85968017578125,-39.43445587158203,350.5495910644531,336.7657775878906,15,1785.550684958333,0.009490966796875,-0.808868408203125,-0.579620361328125,1785.548069,0.01236132851571179,-0.01548574910659275,-0.02409548259470993,192.168.1.8,10.227.79.254,1,0
2015-02-08 20:57:07.269,120,1423457827.222506,37.77932808272334,-122.4389182125427,62.03952,0,-1,4,10,-9999,1423457827.212755,10.31755256652832,-15.84271240234375,-39.15154266357422,350.5351257324219,336.7513122558594,15,1785.609574666667,0.001922607421875,-0.814453125,-0.571685791015625,1785.584313041667,0.02459083055746466,-0.006044310410043839,-0.01457042063993252,192.168.1.8,10.227.79.254,1,0
2015-02-08 20:57:07.328,121,1423457827.222506,37.77932808272334,-122.4389182125427,62.03952,0,-1,4,10,-9999,1423457827.315007,10.62448501586914,-16.046630859375,-39.85049438476562,350.5205078125,336.7366943359375,15,1785.668468416667,0.0050811767578125,-0.8095245361328125,-0.5664520263671875,1785.656799666667,0.0209353756452219,-0.01294482711054815,-0.03640727631414624,192.168.1.8,10.227.79.254,1,0
2015-02-08 20:57:07.378,122,1423457827.222506,37.77932808272334,-122.4389182125427,62.03952,0,-1,4,10,-9999,1423457827.367274,10.9143648147583,-15.8936767578125,-39.96699523925781,350.5003051757812,336.7164916992188,15,1785.727365708334,0.00341796875,-0.80853271484375,-0.573974609375,1785.729286208333,0.007435279447392225,-0.01409850849477048,-0.03268444342632448,192.168.1.8,10.227.79.254,1,0
2015-02-08 20:57:07.464,123,1423457827.222506,37.77932808272334,-122.4389182125427,62.03952,0,-1,4,10,-9999,1423457827.41822,10.81205368041992,-16.09759521484375,-39.70073699951172,350.4735107421875,336.689697265625,15,1785.786253041667,1.52587890625e-05,-0.8125152587890625,-0.571197509765625,1785.765530083333,0.01231632109328945,-0.009253153207480313,-0.03526211704541217,192.168.1.8,10.227.79.254,1,0
2015-02-08 20:57:07.496,124,1423457827.222506,37.77932808272334,-122.4389182125427,62.03952,0,-1,4,10,-9999,1423457827.470291,10.84615707397461,-15.68975830078125,-39.40118408203125,350.4450073242188,336.6611938476562,15,1785.845149125,0.0111846923828125,-0.820343017578125,-0.573577880859375,1785.8380165,-0.00736150988519703,-0.007454986839458812,-0.06218241460836914,192.168.1.8,10.227.79.254,1,0
2015-02-08 20:57:07.563,125,1423457827.222506,37.77932808272334,-122.4389182125427,62.03952,0,-1,4,10,-9999,1423457827.521422,10.60743141174316,-15.58779907226562,-39.068359375,350.4178466796875,336.634033203125,15,1785.904043416667,0.0156707763671875,-0.81207275390625,-0.5847930908203125,1785.91050425,0.003726827629456886,-0.01145239163566775,-0.04497652975369421,192.168.1.8,10.227.79.254,1,0
2015-02-08 20:57:07.614,126,1423457827.222506,37.77932808272334,-122.4389182125427,62.03952,0,-1,4,10,-9999,1423457827.574479,10.41986274719238,-15.36691284179688,-39.15155792236328,350.4063720703125,336.62255859375,15,1785.963053083334,0.0102996826171875,-0.8127288818359375,-0.56414794921875,1785.946747125,0.04673368344092849,-0.01329849490331068,-0.02788223134869359,192.168.1.8,10.227.79.254,1,0
2015-02-08 20:57:07.672,127,1423457827.222506,37.77932808272334,-122.4389182125427,62.03952,0,-1,4,10,-9999,1423457827.625013,10.30050086975098,-15.28195190429688,-39.23476409912109,350.4017028808594,336.6178894042969,15,1786.0218355,-0.0006866455078125,-0.812744140625,-0.5719146728515625,1786.019234708333,0.01478107668215779,-0.01050537155203557,-0.03401149659751096,192.168.1.8,10.227.79.254,1,0
2015-02-08 20:57:07.764,128,1423457827.222506,37.77932808272334,-122.4389182125427,62.03952,0,-1,4,10,-9999,1423457827.731783,10.84615993499756,-15.451904296875,-39.10163116455078,350.3666381835938,336.5828247070312,15,1786.080749666667,0.0061798095703125,-0.8169403076171875,-0.5688629150390625,1786.055477625,-0.001127582405539549,-0.02002963455848595,-0.03618889710475975,192.168.1.8,10.227.79.254,1,0
2015-02-08 20:57:07.791,129,1423457827.222506,37.77932808272334,-122.4389182125427,62.03952,0,-1,4,10,-9999,1423457827.781004,10.65858840942383,-15.50289916992188,-39.28469848632812,350.3483581542969,336.5645446777344,15,1786.139756958333,0.0065765380859375,-0.8135986328125,-0.56414794921875,1786.127965166667,0.001262604672806567,-0.01126037772107303,-0.05598603770008178,192.168.1.8,10.227.79.254,1,0
2015-02-08 20:57:07.865,130,1423457827.222506,37.77932808272334,-122.4389182125427,62.03952,0,-1,4,10,-9999,1423457827.835145,10.52217292785645,-15.57086181640625,-39.71737670898438,350.3381042480469,336.5542907714844,15,1786.198575666667,0.018951416015625,-0.8123779296875,-0.58172607421875,1786.200451791667,0.009898703455715521,-0.01637338069791617,-0.04364015551869244,192.168.1.8,10.227.79.254,1,0
2015-02-08 20:57:07.908,131,1423457827.222506,37.77932808272334,-122.4389182125427,62.03952,0,-1,4,10,-9999,1423457827.884101,10.64153480529785,-15.6898193359375,-39.86714935302734,350.3343200683594,336.5505065917969,15,1786.257571958334,0.0225982666015625,-0.8200836181640625,-0.571197509765625,1786.236695791667,0.008714395718957282,-0.02257614919281972,-0.03369564569222756,192.168.1.8,10.227.79.254,1,0
2015-02-08 20:57:07.966,132,1423457827.222506,37.77932808272334,-122.4389182125427,62.03952,0,-1,4,10,-9999,1423457827.937312,10.19818878173828,-15.927734375,-39.90043640136719,350.3371276855469,336.5533142089844,15,1786.316356916667,0.0055694580078125,-0.81072998046875,-0.570220947265625,1786.30918225,-0.002381132330639847,-0.0142234107498952,-0.01920831567830551,192.168.1.8,10.227.79.254,1,0
2015-02-08 20:57:08.031,133,1423457827.222506,37.77932808272334,-122.4389182125427,62.03952,0,-1,4,10,-9999,1423457827.98781,10.33460426330566,-15.791748046875,-39.80058288574219,350.3372802734375,336.553466796875,15,1786.37524525,0.001800537109375,-0.8094482421875,-0.578216552734375,1786.345426291667,0.004951615414784328,-0.008243815154340282,-0.018149176512781,192.168.1.8,10.227.79.254,1,0
2015-02-08 20:57:08.085,134,1423457827.222506,37.77932808272334,-122.4389182125427,62.03952,0,-1,4,10,-9999,1423457828.039218,10.31755256652832,-15.706787109375,-39.61752319335938,350.3356628417969,336.5518493652344,15,1786.434132041667,0.007110595703125,-0.81597900390625,-0.5740203857421875,1786.417912708333,0.008639294576217049,-0.01253549925100297,-0.05596686294023321,192.168.1.8,10.227.79.254,1,0
2015-02-08 20:57:08.167,135,1423457827.222506,37.77932808272334,-122.4389182125427,62.03952,0,-1,4,10,-9999,1423457828.145338,10.57333087921143,-15.5198974609375,-39.60089111328125,350.3139953613281,336.5301818847656,15,1786.493027625,0.0008697509765625,-0.8096771240234375,-0.5669403076171875,1786.490399375,0.006299973874691446,-0.03081357276054381,-0.04816193673353798,192.168.1.8,10.227.79.254,1,0
2015-02-08 20:57:08.202,136,1423457827.222506,37.77932808272334,-122.4389182125427,62.03952,0,-1,4,10,-9999,1423457828.195547,10.50512313842773,-15.79177856445312,-39.53430938720703,350.3060607910156,336.5222473144531,15,1786.551913833333,0.019927978515625,-0.824066162109375,-0.577362060546875,1786.562887,0.007377755167846513,-0.005498096070468588,-0.04024063038720629,192.168.1.8,10.227.79.254,1,0
2015-02-08 20:57:08.269,137,1423457828.202137,37.77932808272334,-122.4389182125427,62.03952,0,-1,4,10,-9999,1423457828.247578,10.21523952484131,-15.536865234375,-39.65080261230469,350.3102416992188,336.5264282226562,15,1786.610805958333,0.01708984375,-0.8135223388671875,-0.5838775634765625,1786.599129833333,0.006134058938779509,-0.004104463872030122,-0.05128236258278383,192.168.1.8,10.227.79.254,1,0
2015-02-08 20:57:08.332,138,1423457828.202137,37.77932808272334,-122.4389182125427,62.03952,0,-1,4,10,-9999,1423457828.299221,10.57332801818848,-15.587890625,-39.60087585449219,350.3081665039062,336.5243530273438,15,1786.669702166667,0.0072479248046875,-0.813385009765625,-0.5591888427734375,1786.671617666667,0.01108301119247376,-0.009128783584573613,-0.04260232164188857,192.168.1.8,10.227.79.254,1,0
2015-02-08 20:57:08.379,139,1423457828.202137,37.77932808272334,-122.4389182125427,62.03952,0,-1,4,10,-9999,1423457828.349703,10.69269180297852,-15.5029296875,-39.65080261230469,350.3016662597656,336.5178527832031,15,1786.728598708333,0.0043792724609375,-0.80999755859375,-0.56317138671875,1786.707860291667,0.009836385486207666,-0.003474359958117374,-0.01583196004830306,192.168.1.8,10.227.79.254,1,0
2015-02-08 20:57:08.464,140,1423457828.202137,37.77932808272334,-122.4389182125427,62.03952,0,-1,4,10,-9999,1423457828.403145,10.40281295776367,-15.58786010742188,-39.40118408203125,350.2941589355469,336.5103454589844,15,1786.787493333333,0.0118865966796875,-0.81060791015625,-0.580322265625,1786.780348166667,-4.820321573043421e-05,0.004206462941780157,-0.036802489419914,192.168.1.8,10.227.79.254,1,0
2015-02-08 20:57:08.497,141,1423457828.202137,37.77932808272334,-122.4389182125427,62.03952,0,-1,4,10,-9999,1423457828.454207,10.12998199462891,-15.65585327148438,-39.70072937011719,350.3069458007812,336.5231323242188,15,1786.846394,0.0174713134765625,-0.809967041015625,-0.5840606689453125,1786.85283475,0.01601518553130051,-0.01064918225089985,-0.02544756948014315,192.168.1.8,10.227.79.254,1,0
2015-02-08 20:57:08.563,142,1423457828.202137,37.77932808272334,-122.4389182125427,62.03952,0,-1,4,10,-9999,1423457828.506682,10.33460235595703,-15.65582275390625,-39.70072937011719,350.3122253417969,336.5284118652344,15,1786.905296916667,0.00909423828125,-0.8114776611328125,-0.5711669921875,1786.889078458333,0.03076323901594131,-0.0120255039022528,-0.02299266758730811,192.168.1.8,10.227.79.254,1,0
2015-02-08 20:57:08.615,143,1423457828.202137,37.77932808272334,-122.4389182125427,62.03952,0,-1,4,10,-9999,1423457828.61061,10.3857593536377,-15.57086181640625,-39.75065612792969,350.3056945800781,336.5218811035156,15,1786.964194291667,0.010589599609375,-0.81488037109375,-0.5646209716796875,1786.96156525,0.0171811174565372,0.0001565938720966592,-0.01960619194516335,192.168.1.8,10.227.79.254,1,0
2015-02-08 20:57:08.675,144,1423457828.202137,37.77932808272334,-122.4389182125427,62.03952,0,-1,4,10,-9999,1423457828.662515,10.4539680480957,-15.7747802734375,-40.01692962646484,350.3068237304688,336.5230102539062,15,1787.02310125,0.0010833740234375,-0.8082427978515625,-0.5742340087890625,1786.997809,-0.0001296959450868589,0.02276789679130542,0.01654994827818842,192.168.1.8,10.227.79.254,1,0
2015-02-08 20:57:08.760,145,1423457828.202137,37.77932808272334,-122.4389182125427,62.03952,0,-1,4,10,-9999,1423457828.713884,10.84615802764893,-15.927734375,-39.50103759765625,350.2899169921875,336.506103515625,15,1787.081995833333,0.009979248046875,-0.8083953857421875,-0.5871429443359375,1787.07029575,0.007421431009723813,-0.01065131277977191,-0.02053909727501811,192.168.1.8,10.227.79.254,1,0
2015-02-08 20:57:08.792,146,1423457828.202137,37.77932808272334,-122.4389182125427,62.03952,0,-1,4,10,-9999,1423457828.76575,10.52217483520508,-15.4349365234375,-39.71738433837891,350.2767333984375,336.492919921875,15,1787.140887,0.00335693359375,-0.8061370849609375,-0.5751495361328125,1787.142782416667,0.02831872345135758,-0.01541357744105161,-0.03758146403876218,192.168.1.8,10.227.79.254,1,0
2015-02-08 20:57:08.860,147,1423457828.202137,37.77932808272334,-122.4389182125427,62.03952,0,-1,4,10,-9999,1423457828.817791,10.74384784698486,-15.587890625,-39.50103759765625,350.2613525390625,336.4775390625,15,1787.199771625,0.0022125244140625,-0.817108154296875,-0.5691070556640625,1787.17902625,0.02221102980736986,-0.02028636328756959,-0.03255501379734663,192.168.1.8,10.227.79.254,1,0
2015-02-08 20:57:08.910,148,1423457828.202137,37.77932808272334,-122.4389182125427,62.03952,0,-1,4,10,-9999,1423457828.870501,10.69269466400146,-15.63888549804688,-39.51767730712891,350.2427368164062,336.4589233398438,15,1787.2586945,0.011138916015625,-0.8086700439453125,-0.586883544921875,1787.251512875,0.007344465654220523,-0.0005725796343670363,-0.04525775956480657,192.168.1.8,10.227.79.254,1,0
2015-02-08 20:57:08.968,149,1423457828.202137,37.77932808272334,-122.4389182125427,62.03952,0,-1,4,10,-9999,1423457828.921251,10.91436672210693,-16.02969360351562,-39.43447113037109,350.2038269042969,336.4200134277344,15,1787.317715291667,-0.008575439453125,-0.805938720703125,-0.562713623046875,1787.3240005,0.05300516149195609,-0.03403679662786671,-0.02247707960026877,192.168.1.8,10.227.79.254,1,0
2015-02-08 20:57:09.032,150,1423457828.202137,37.77932808272334,-122.4389182125427,62.03952,0,-1,4,10,-9999,1423457829.024909,10.38575744628906,-15.63882446289062,-39.55097198486328,350.1830749511719,336.3992614746094,15,1787.376515916667,-0.0079498291015625,-0.8119049072265625,-0.561553955078125,1787.360243375,0.01609294983513082,-0.0238898865585558,-0.03122955852281419,192.168.1.8,10.227.79.254,1,0
2015-02-08 20:57:09.086,151,1423457828.202137,37.77932808272334,-122.4389182125427,62.03952,0,-1,4,10,-9999,1423457829.077058,10.45396423339844,-15.67282104492188,-39.01844024658203,350.1710815429688,336.3872680664062,15,1787.435416,0.007781982421875,-0.8052520751953125,-0.58428955078125,1787.432731,-0.009769806458955685,-0.01582530214557786,-0.0680829143195487,192.168.1.8,10.227.79.254,1,0
2015-02-08 20:57:09.167,152,1423457828.202137,37.77932808272334,-122.4389182125427,62.03952,0,-1,4,10,-9999,1423457829.128179,10.43691635131836,-15.621826171875,-39.23477935791016,350.1527709960938,336.3689575195312,15,1787.494302708333,0.016998291015625,-0.8099822998046875,-0.56103515625,1787.468973916667,0.0332165430121223,-0.01721520591849021,-0.0803571574676149,192.168.1.8,10.227.79.254,1,0
2015-02-08 20:57:09.203,153,1423457828.202137,37.77932808272334,-122.4389182125427,62.03952,0,-1,4,10,-9999,1423457829.180917,10.47102069854736,-15.75778198242188,-39.33462524414062,350.1447143554688,336.3609008789062,15,1787.553205625,0.0296478271484375,-0.8211669921875,-0.5719146728515625,1787.541461666667,-0.004924983803883535,-0.0049372343448979,-0.06958946454820653,192.168.1.8,10.227.79.254,1,0
2015-02-08 20:57:09.270,154,1423457829.233482,37.77932808272334,-122.4389182125427,62.06863,0,-1,4,10,-9999,1423457829.232546,10.0106201171875,-15.74078369140625,-39.58425903320312,350.155517578125,336.3717041015625,15,1787.612099458333,0.02276611328125,-0.816986083984375,-0.5704803466796875,1787.613948166667,0.008630239828510779,-0.008142348716808263,-0.02672056048120103,192.168.1.8,10.227.79.254,1,0
2015-02-08 20:57:09.329,155,1423457829.233482,37.77932808272334,-122.4389182125427,62.06863,0,-1,4,10,-9999,1423457829.284327,10.23229217529297,-15.451904296875,-39.36791229248047,350.1710510253906,336.3872375488281,15,1787.670991583333,0.0080718994140625,-0.807647705078125,-0.5819549560546875,1787.650191958333,0.009864614993762507,-0.007244597113342552,-0.007174555976673468,192.168.1.8,10.227.79.254,1,0
2015-02-08 20:57:09.380,156,1423457829.233482,37.77932808272334,-122.4389182125427,62.06863,0,-1,4,10,-9999,1423457829.335605,10.67564296722412,-15.451904296875,-39.36791229248047,350.1683654785156,336.3845520019531,15,1787.729885458333,0.002655029296875,-0.806121826171875,-0.5765533447265625,1787.722678666667,0.02338761437696686,-0.01182976156213198,-0.03154727364086064,192.168.1.8,10.227.79.254,1,0
2015-02-08 20:57:09.459,157,1423457829.233482,37.77932808272334,-122.4389182125427,62.06863,0,-1,4,10,-9999,1423457829.43922,10.53922653198242,-15.65582275390625,-39.26806640625,350.1311340332031,336.3473205566406,15,1787.788801708333,0.0100250244140625,-0.811492919921875,-0.5735321044921875,1787.758922666667,0.01357066996671677,-0.01403725578969866,-0.04003636593159722,192.168.1.8,10.227.79.254,1,0
2015-02-08 20:57:09.498,158,1423457829.233482,37.77932808272334,-122.4389182125427,62.06863,0,-1,4,10,-9999,1423457829.491729,10.43691253662109,-15.89373779296875,-39.20149993896484,350.1254272460938,336.3416137695312,15,1787.84769275,0.0188446044921875,-0.818115234375,-0.563446044921875,1787.831409333333,0.02342543126444599,-0.01895158694922187,-0.04115302937666744,192.168.1.8,10.227.79.254,1,0
2015-02-08 20:57:09.560,159,1423457829.233482,37.77932808272334,-122.4389182125427,62.06863,0,-1,4,10,-9999,1423457829.543039,10.47101593017578,-15.7578125,-39.60089111328125,350.1202392578125,336.33642578125,15,1787.906596083333,0.0198974609375,-0.8145751953125,-0.5673980712890625,1787.903895833334,0.002510561959617698,-0.01170778878420635,-0.02784308288066943,192.168.1.8,10.227.79.254,1,0
2015-02-08 20:57:09.616,160,1423457829.233482,37.77932808272334,-122.4389182125427,62.06863,0,-1,4,10,-9999,1423457829.597168,10.59037971496582,-15.9447021484375,-39.68409729003906,350.1176452636719,336.3338317871094,15,1787.965588708333,0.0227203369140625,-0.8143463134765625,-0.5871429443359375,1787.976383708334,5.566006678265608e-05,-0.01066409595300429,-0.01563275559876513,192.168.1.8,10.227.79.254,1,0
2015-02-08 20:57:09.675,161,1423457829.233482,37.77932808272334,-122.4389182125427,62.06863,0,-1,4,10,-9999,1423457829.647541,10.36870765686035,-15.451904296875,-39.90043640136719,350.1271057128906,336.3432922363281,15,1788.02436725,-0.0001220703125,-0.8065643310546875,-0.566925048828125,1788.012626375,0.04051866440501057,-8.122641324741677e-05,-0.01719576484253263,192.168.1.8,10.227.79.254,1,0
2015-02-08 20:57:09.761,162,1423457829.233482,37.77932808272334,-122.4389182125427,62.06863,0,-1,4,10,-9999,1423457829.75064,10.69269180297852,-15.09503173828125,-39.88379669189453,350.146240234375,336.3624267578125,15,1788.083249416667,0.0042266845703125,-0.8126068115234375,-0.566253662109375,1788.085114208333,0.009798834914837549,0.0005046690265700156,-0.03795004553362914,192.168.1.8,10.227.79.254,1,0
2015-02-08 20:57:09.793,163,1423457829.233482,37.77932808272334,-122.4389182125427,62.06863,0,-1,4,10,-9999,1423457829.75064,10.69269180297852,-15.09503173828125,-39.88379669189453,350.146240234375,336.3624267578125,15,1788.142263041667,0.0195770263671875,-0.818817138671875,-0.5860137939453125,1788.121356916667,-0.007332747745424174,-0.01018339537624499,-0.04254266683347079,192.168.1.8,10.227.79.254,1,0
2015-02-08 20:57:09.861,164,1423457829.233482,37.77932808272334,-122.4389182125427,62.06863,0,-1,4,10,-9999,1423457829.802644,10.82910537719727,-15.40087890625,-39.38455200195312,350.1333923339844,336.3495788574219,15,1788.201060083333,0.004302978515625,-0.806427001953125,-0.5652618408203125,1788.193844583333,0.00495640910474647,-0.01044039042143764,-0.03277259405840609,192.168.1.8,10.227.79.254,1,0
2015-02-08 20:57:09.910,165,1423457829.233482,37.77932808272334,-122.4389182125427,62.06863,0,-1,4,10,-9999,1423457829.854542,11.016676902771,-15.8597412109375,-39.20149230957031,350.109130859375,336.3253173828125,15,1788.259958833333,0.0137481689453125,-0.8098907470703125,-0.5810089111328125,1788.266331416667,0.01477495141165061,-0.01141404211597061,-0.05355989794701959,192.168.1.8,10.227.79.254,1,0
2015-02-08 20:57:09.970,166,1423457829.233482,37.77932808272334,-122.4389182125427,62.06863,0,-1,4,10,-9999,1423457829.9583,11.18719387054443,-15.72378540039062,-39.30133819580078,350.0464172363281,336.2626037597656,15,1788.318972,0.0147705078125,-0.8147125244140625,-0.5702362060546875,1788.302575166667,0.01357892576609602,-0.01526843516164229,-0.0387820170581699,192.168.1.8,10.227.79.254,1,0
2015-02-08 20:57:10.064,167,1423457829.233482,37.77932808272334,-122.4389182125427,62.06863,0,-1,4,10,-9999,1423457830.010611,11.1360387802124,-15.6048583984375,-39.28469848632812,350.0175170898438,336.2337036132812,15,1788.377768375,0.0199432373046875,-0.81695556640625,-0.5620269775390625,1788.375061958333,0.00871226519008522,-0.02147786155927104,-0.02638420323552402,192.168.1.8,10.227.79.254,1,0
2015-02-08 20:57:10.088,168,1423457829.233482,37.77932808272334,-122.4389182125427,62.06863,0,-1,4,10,-9999,1423457830.062505,10.65858840942383,-15.366943359375,-39.3179931640625,350.0097045898438,336.2258911132812,15,1788.436695958334,0.0069122314453125,-0.808135986328125,-0.5685577392578125,1788.411305666667,0.006200904282140499,-0.01291340180968522,-0.03026576052431451,192.168.1.8,10.227.79.254,1,0
2015-02-08 20:57:10.166,169,1423457830.141865,37.77932808272334,-122.4389182125427,62.01096,0,-1,4,10,-9999,1423457830.11332,10.62448310852051,-15.40093994140625,-39.75067138671875,350.0130615234375,336.229248046875,15,1788.49559225,0.0075531005859375,-0.795745849609375,-0.5760040283203125,1788.483792291667,0.0159747054827313,-0.003470098900373247,-0.01951271499090157,192.168.1.8,10.227.79.254,1,0
2015-02-08 20:57:10.205,170,1423457830.141865,37.77932808272334,-122.4389182125427,62.01096,0,-1,4,10,-9999,1423457830.165602,10.38575744628906,-15.60488891601562,-40.05021667480469,350.0290832519531,336.2452697753906,15,1788.554484666667,0.0205230712890625,-0.8205108642578125,-0.5716705322265625,1788.556279208334,0.0343555770103492,-0.0016367788059627,-0.06974339525921311,192.168.1.8,10.227.79.254,1,0
2015-02-08 20:57:10.264,171,1423457830.141865,37.77932808272334,-122.4389182125427,62.01096,0,-1,4,10,-9999,1423457830.217622,10.55627632141113,-15.43496704101562,-39.68410491943359,350.0334167480469,336.2496032714844,15,1788.6133865,0.025054931640625,-0.824188232421875,-0.5686492919921875,1788.592522875,0.0135717352311528,-0.01301460193110823,-0.02783003339132804,192.168.1.8,10.227.79.254,1,0
2015-02-08 20:57:10.331,172,1423457830.141865,37.77932808272334,-122.4389182125427,62.01096,0,-1,4,10,-9999,1423457830.321044,10.6074333190918,-15.68988037109375,-39.33462524414062,350.037353515625,336.2535400390625,15,1788.6723545,0.0076446533203125,-0.8095703125,-0.573516845703125,1788.66500975,-0.009762349607903464,-0.01075118132064989,-0.004604339208637995,192.168.1.8,10.227.79.254,1,0
2015-02-08 20:57:10.382,173,1423457830.141865,37.77932808272334,-122.4389182125427,62.01096,0,-1,4,10,-9999,1423457830.372549,10.82910633087158,-15.77481079101562,-39.51768493652344,350.0315246582031,336.2477111816406,15,1788.731202333333,0.0019989013671875,-0.8077850341796875,-0.576080322265625,1788.737497458333,0.01491530000109778,-0.03022581310796332,-0.01271925736621844,192.168.1.8,10.227.79.254,1,0
2015-02-08 20:57:10.464,174,1423457830.141865,37.77932808272334,-122.4389182125427,62.01096,0,-1,4,10,-9999,1423457830.423788,10.98257160186768,-15.893798828125,-39.70074462890625,350.0115051269531,336.2276916503906,15,1788.790095208333,-0.0089111328125,-0.8006591796875,-0.5704193115234375,1788.773740291667,0.01733078710979965,-0.02410933103237833,-0.01777074132188074,192.168.1.8,10.227.79.254,1,0
2015-02-08 20:57:10.499,175,1423457830.141865,37.77932808272334,-122.4389182125427,62.01096,0,-1,4,10,-9999,1423457830.475672,10.52217483520508,-15.7408447265625,-39.51768493652344,350.0049438476562,336.2211303710938,15,1788.849027416667,0.01611328125,-0.8111419677734375,-0.57562255859375,1788.846227875,0.01119140184883998,-0.02723774636489442,-0.04703808275352454,192.168.1.8,10.227.79.254,1,0
2015-02-08 20:57:10.565,176,1423457830.141865,37.77932808272334,-122.4389182125427,62.01096,0,-1,4,10,-9999,1423457830.527113,10.3857593536377,-15.53692626953125,-40.01693725585938,350.0111694335938,336.2273559570312,15,1788.907912041667,0.022125244140625,-0.8188934326171875,-0.566253662109375,1788.882470666667,0.01603462660725808,-0.01527056569051435,-0.04000946800458742,192.168.1.8,10.227.79.254,1,0
2015-02-08 20:57:10.629,177,1423457830.141865,37.77932808272334,-122.4389182125427,62.01096,0,-1,4,10,-9999,1423457830.579122,10.48806953430176,-15.70684814453125,-39.91708374023438,350.0206298828125,336.23681640625,15,1788.96691825,0.01177978515625,-0.8060760498046875,-0.5739288330078125,1788.954958583333,0.004981442818993215,-0.01309289886715656,-0.01802693741874636,192.168.1.8,10.227.79.254,1,0
2015-02-08 20:57:10.676,178,1423457830.141865,37.77932808272334,-122.4389182125427,62.01096,0,-1,4,10,-9999,1423457830.633059,10.60743141174316,-15.62188720703125,-39.60089111328125,350.0115966796875,336.227783203125,15,1789.025830458334,0.00079345703125,-0.80633544921875,-0.579620361328125,1789.027445166667,0.02464436009537525,-0.01560985241339045,-0.02289120114977609,192.168.1.8,10.227.79.254,1,0
2015-02-08 20:57:10.763,179,1423457830.141865,37.77932808272334,-122.4389182125427,62.01096,0,-1,4,10,-9999,1423457830.735633,10.5051212310791,-15.45196533203125,-39.90044403076172,350.0039978027344,336.2201843261719,15,1789.084628541667,0.0005340576171875,-0.8141632080078125,-0.5916595458984375,1789.063689,0.0001406149055561838,-0.02615863349119431,-0.03236672830827802,192.168.1.8,10.227.79.254,1,0
2015-02-08 20:57:10.794,180,1423457830.141865,37.77932808272334,-122.4389182125427,62.01096,0,-1,4,10,-9999,1423457830.78776,10.59037971496582,-15.46896362304688,-39.98365020751953,350.0028076171875,336.218994140625,15,1789.143646458333,-0.008026123046875,-0.808807373046875,-0.5589599609375,1789.136175875,0.04685698779939915,-0.03487382815847861,-0.04323934977463552,192.168.1.8,10.227.79.254,1,0
2015-02-08 20:57:10.859,181,1423457830.141865,37.77932808272334,-122.4389182125427,62.01096,0,-1,4,10,-9999,1423457830.838273,10.26639556884766,-15.553955078125,-39.93373107910156,350.0010681152344,336.2172546386719,15,1789.202432291667,-0.002410888671875,-0.80963134765625,-0.5554351806640625,1789.172419708333,0.01979634164699501,-0.02852378685529368,-0.04702103852254804,192.168.1.8,10.227.79.254,1,0
2015-02-08 20:57:10.912,182,1423457830.141865,37.77932808272334,-122.4389182125427,62.01096,0,-1,4,10,-9999,1423457830.890788,10.67564010620117,-16.1317138671875,-39.66746520996094,349.9901428222656,336.2063293457031,15,1789.261473375,0.0095062255859375,-0.809112548828125,-0.571624755859375,1789.244906416667,-0.01097302263945349,-0.01950845393315744,-0.0643182698026127,192.168.1.8,10.227.79.254,1,0
2015-02-08 20:57:10.971,183,1423457830.141865,37.77932808272334,-122.4389182125427,62.01096,0,-1,4,10,-9999,1423457830.94203,10.82910823822021,-15.91079711914062,-39.55097198486328,349.964111328125,336.1802978515625,15,1789.320241083333,0.020416259765625,-0.81597900390625,-0.5845794677734375,1789.317393,-0.03065058730183096,-0.01666845894669694,-0.0802562236623009,192.168.1.8,10.227.79.254,1,0
2015-02-08 20:57:11.067,184,1423457830.141865,37.77932808272334,-122.4389182125427,62.01096,0,-1,4,10,-9999,1423457831.04583,10.31755256652832,-15.7069091796875,-39.61753845214844,349.9285583496094,336.1447448730469,15,1789.379138041667,0.04364013671875,-0.8197479248046875,-0.59820556640625,1789.389880708334,0.03325915358956357,-0.02234951418405397,-0.06187934687631812,192.168.1.8,10.227.79.254,1,0
2015-02-08 20:57:11.090,185,1423457830.141865,37.77932808272334,-122.4389182125427,62.01096,0,-1,4,10,-9999,1423457831.04583,10.31755256652832,-15.7069091796875,-39.61753845214844,349.9285583496094,336.1447448730469,15,1789.438044625,0.01202392578125,-0.8170623779296875,-0.5559234619140625,1789.426123708334,0.07998591281165786,-0.02919090870835853,-0.03732659952244159,192.168.1.8,10.227.79.254,1,0
2015-02-08 20:57:11.168,186,1423457830.141865,37.77932808272334,-122.4389182125427,62.01096,0,-1,4,10,-9999,1423457831.149763,10.26639556884766,-15.58795166015625,-39.86715698242188,349.9671630859375,336.183349609375,15,1789.496952958333,0.0026397705078125,-0.8164215087890625,-0.5401763916015625,1789.498611291667,0.0502495887120511,0.01345482245929833,-0.03590340623590325,192.168.1.8,10.227.79.254,1,0
2015-02-08 20:57:11.207,187,1423457831.190455,37.77932808272334,-122.4389182125427,62.01669,0,-1,4,10,-9999,1423457831.201884,10.40281105041504,-15.68994140625,-39.70074462890625,349.9741516113281,336.1903381347656,15,1789.555889833333,0.010101318359375,-0.8143768310546875,-0.5688323974609375,1789.534854125,-0.01580106737965814,-0.02971608407532216,-0.02857891428985832,192.168.1.8,10.227.79.254,1,0
2015-02-08 20:57:11.266,188,1423457831.190455,37.77932808272334,-122.4389182125427,62.01669,0,-1,4,10,-9999,1423457831.253034,10.26639556884766,-15.9617919921875,-39.90043640136719,349.9924011230469,336.2085876464844,15,1789.614749541667,0.0320892333984375,-0.8152618408203125,-0.5885467529296875,1789.607341916667,-0.0293277951883886,-0.02819808225397699,-0.04082492793036968,192.168.1.8,10.227.79.254,1,0
2015-02-08 20:57:11.364,189,1423457831.190455,37.77932808272334,-122.4389182125427,62.01669,0,-1,4,10,-9999,1423457831.305889,10.30049896240234,-16.09774780273438,-39.46775054931641,350.002197265625,336.2183837890625,15,1789.67364175,0.021148681640625,-0.8179168701171875,-0.5674285888671875,1789.67982875,0.01970392995716926,-0.008673915670388079,0.001406415371670846,192.168.1.8,10.227.79.254,1,0
2015-02-08 20:57:11.383,190,1423457831.190455,37.77932808272334,-122.4389182125427,62.01669,0,-1,4,10,-9999,1423457831.356968,10.74384498596191,-16.50558471679688,-38.93521118164062,349.9861450195312,336.2023315429688,15,1789.732535125,0.0004425048828125,-0.81182861328125,-0.5596771240234375,1789.716072541667,0.03074752636550985,-0.006438458251375566,0.007446464723970558,192.168.1.8,10.227.79.254,1,0
2015-02-08 20:57:11.464,191,1423457831.190455,37.77932808272334,-122.4389182125427,62.01669,0,-1,4,10,-9999,1423457831.408309,10.69269180297852,-16.89642333984375,-39.01842498779297,349.9591674804688,336.1753540039062,15,1789.791426458333,0.001190185546875,-0.8132476806640625,-0.5655670166015625,1789.788559208333,0.00248845772257004,-0.007029413697264149,-0.01695208560279038,192.168.1.8,10.227.79.254,1,0
2015-02-08 20:57:11.501,192,1423457831.190455,37.77932808272334,-122.4389182125427,62.01669,0,-1,4,10,-9999,1423457831.461561,10.43691444396973,-16.70950317382812,-39.30133056640625,349.9447326660156,336.1609191894531,15,1789.850308291667,0.0079345703125,-0.8119354248046875,-0.5817413330078125,1789.824803125,-0.001197889858317641,-0.008001201179034063,-0.0303762817095528,192.168.1.8,10.227.79.254,1,0
2015-02-08 20:57:11.563,193,1423457831.190455,37.77932808272334,-122.4389182125427,62.01669,0,-1,4,10,-9999,1423457831.512559,10.38575744628906,-16.31869506835938,-39.15155792236328,349.9387817382812,336.1549682617188,15,1789.909194958334,0.011993408203125,-0.8153533935546875,-0.5768280029296875,1789.897289875,0.009863816045435483,-0.0103684850720055,-0.04012238603480678,192.168.1.8,10.227.79.254,1,0
2015-02-08 20:57:11.664,194,1423457831.190455,37.77932808272334,-122.4389182125427,62.01669,0,-1,4,10,-9999,1423457831.617071,10.45396614074707,-15.57101440429688,-39.51766967773438,349.9348754882812,336.1510620117188,15,1789.968073125,0.0106048583984375,-0.816558837890625,-0.5561676025390625,1789.969776708333,4.713795129440252e-05,-0.009432916581060661,-0.01688710447219245,192.168.1.8,10.227.79.254,1,0
2015-02-08 20:57:11.679,195,1423457831.190455,37.77932808272334,-122.4389182125427,62.01669,0,-1,4,10,-9999,1423457831.667937,10.57332992553711,-15.85989379882812,-39.76729583740234,349.9382629394531,336.1544494628906,15,1790.027069291667,0.0139617919921875,-0.809906005859375,-0.57867431640625,1790.0060205,-0.002420280798664012,-0.009165268891507698,-0.03279150250214566,192.168.1.8,10.227.79.254,1,0
2015-02-08 20:57:11.764,196,1423457831.190455,37.77932808272334,-122.4389182125427,62.01669,0,-1,4,10,-9999,1423457831.719782,10.74384784698486,-16.06381225585938,-39.53431701660156,349.9261169433594,336.1423034667969,15,1790.085847666667,0.009368896484375,-0.8122406005859375,-0.56951904296875,1790.078507125,0.03448607190376308,-0.01813772492009366,-0.02162193857424433,192.168.1.8,10.227.79.254,1,0
2015-02-08 20:57:11.796,197,1423457831.190455,37.77932808272334,-122.4389182125427,62.01669,0,-1,4,10,-9999,1423457831.771971,10.36870956420898,-16.0977783203125,-39.23477172851562,349.9174194335938,336.1336059570312,15,1790.144874458333,0.0106658935546875,-0.818450927734375,-0.56298828125,1790.150995125,0.004953213311438375,-0.009322928028040389,-0.02668460780648496,192.168.1.8,10.227.79.254,1,0
2015-02-08 20:57:11.864,198,1423457831.190455,37.77932808272334,-122.4389182125427,62.01669,0,-1,4,10,-9999,1423457831.82289,9.993568420410156,-16.13177490234375,-39.33462524414062,349.9286499023438,336.1448364257812,15,1790.203642916667,0.013702392578125,-0.8184967041015625,-0.5719146728515625,1790.187237791667,0.0147512492779489,-0.005656021523110286,-0.0341337356915456,192.168.1.8,10.227.79.254,1,0
2015-02-08 20:57:11.913,199,1423457831.190455,37.77932808272334,-122.4389182125427,62.01669,0,-1,4,10,-9999,1423457831.875184,10.0958776473999,-15.85989379882812,-39.46775817871094,349.9461364746094,336.1623229980469,15,1790.262531375,0.0131988525390625,-0.8168182373046875,-0.5693359375,1790.259725708333,0.03197897205356248,-0.009668340021423666,-0.01938514957468677,192.168.1.8,10.227.79.254,1,0
2015-02-08 20:57:11.972,200,1423457831.190455,37.77932808272334,-122.4389182125427,62.01669,0,-1,4,10,-9999,1423457831.926444,10.47101783752441,-16.09780883789062,-39.83386993408203,349.9478759765625,336.1640625,15,1790.321541958333,0.0057525634765625,-0.80810546875,-0.5678558349609375,1790.295968416667,0.01730495444722588,-0.02039608552448085,-0.0227572441469451,192.168.1.8,10.227.79.254,1,0
2015-02-08 20:57:12.031,201,1423457831.190455,37.77932808272334,-122.4389182125427,62.01669,0,-1,4,10,-9999,1423457831.978994,10.59038162231445,-16.21676635742188,-39.75067138671875,349.9432373046875,336.159423828125,15,1790.380302958333,0.0050201416015625,-0.8171539306640625,-0.5700531005859375,1790.368456375,0.007406783623728377,-0.0103282713395453,-0.04134184749795406,192.168.1.8,10.227.79.254,1,0
2015-02-08 20:57:12.090,202,1423457831.190455,37.77932808272334,-122.4389182125427,62.01669,0,-1,4,10,-9999,1423457832.082783,10.84615707397461,-15.72390747070312,-40.16670989990234,349.9339294433594,336.1501159667969,15,1790.4391995,0.0173492431640625,-0.81475830078125,-0.5627288818359375,1790.440943125,0.006204899023775617,-0.01405003896293104,-0.03513002425534424,192.168.1.8,10.227.79.254,1,0
2015-02-08 20:57:12.165,203,1423457832.141745,37.77932808272334,-122.4389182125427,62.01065,0,-1,4,10,-9999,1423457832.135999,10.6585865020752,-15.67291259765625,-40.05021667480469,349.9329833984375,336.149169921875,15,1790.498085916667,0.0131072998046875,-0.8132476806640625,-0.568817138671875,1790.477186833333,0.00617107687793161,-0.008064318096868941,-0.03038799961834915,192.168.1.8,10.227.79.254,1,0
2015-02-08 20:57:12.207,204,1423457832.141745,37.77932808272334,-122.4389182125427,62.01065,0,-1,4,10,-9999,1423457832.18795,10.57332801818848,-15.99578857421875,-39.83387756347656,349.9334106445312,336.1495971679688,15,1790.557072333334,0.0075836181640625,-0.8159942626953125,-0.57025146484375,1790.54967375,0.01110325121675836,-0.01062601274941616,-0.02421612379209051,192.168.1.8,10.227.79.254,1,0
2015-02-08 20:57:12.266,205,1423457832.141745,37.77932808272334,-122.4389182125427,62.01065,0,-1,4,10,-9999,1423457832.237954,10.36870765686035,-16.1317138671875,-39.46776580810547,349.9328002929688,336.1489868164062,15,1790.615865375,0.0089263916015625,-0.8141021728515625,-0.5782318115234375,1790.585917666667,0.01480770829305858,-0.01423752550367261,-0.02780127125155518,192.168.1.8,10.227.79.254,1,0
2015-02-08 20:57:12.328,206,1423457832.141745,37.77932808272334,-122.4389182125427,62.01065,0,-1,4,10,-9999,1423457832.289736,10.65858840942383,-15.8768310546875,-39.35127258300781,349.919189453125,336.1353759765625,15,1790.67475225,0.00506591796875,-0.819061279296875,-0.5665283203125,1790.658404375,0.01111044175170157,-0.01287957966384121,-0.03516837377504138,192.168.1.8,10.227.79.254,1,0
2015-02-08 20:57:12.384,207,1423457832.141745,37.77932808272334,-122.4389182125427,62.01065,0,-1,4,10,-9999,1423457832.341095,10.41986274719238,-15.978759765625,-39.68409729003906,349.9105224609375,336.126708984375,15,1790.733752,0.0125885009765625,-0.8106231689453125,-0.5793914794921875,1790.730891166667,0.00616095686578931,-0.006795055521337176,-0.03408952721745028,192.168.1.8,10.227.79.254,1,0
2015-02-08 20:57:12.458,208,1423457832.141745,37.77932808272334,-122.4389182125427,62.01065,0,-1,4,10,-9999,1423457832.444604,10.67564105987549,-16.16571044921875,-39.36790466308594,349.8742065429688,336.0903930664062,15,1790.792549291667,0.0037384033203125,-0.8123626708984375,-0.56365966796875,1790.803378791667,0.03935805880195404,-0.0120422818171203,-0.02667741727154175,192.168.1.8,10.227.79.254,1,0
2015-02-08 20:57:12.504,209,1423457832.141745,37.77932808272334,-122.4389182125427,62.01065,0,-1,4,10,-9999,1423457832.497662,10.52217578887939,-16.148681640625,-39.25141906738281,349.8563842773438,336.0725708007812,15,1790.851526125,-0.000885009765625,-0.8148956298828125,-0.5601654052734375,1790.839621791667,0.01481276829912973,-0.01539280478454899,-0.0314418124616935,192.168.1.8,10.227.79.254,1,0
2015-02-08 20:57:12.562,210,1423457832.141745,37.77932808272334,-122.4389182125427,62.01065,0,-1,4,10,-9999,1423457832.549144,9.976516723632812,-16.318603515625,-39.78395843505859,349.8624877929688,336.0786743164062,15,1790.91036975,0.010589599609375,-0.8153228759765625,-0.5733184814453125,1790.912109458333,-0.02449309254545875,-0.01604101819387427,-0.04603327207423765,192.168.1.8,10.227.79.254,1,0
2015-02-08 20:57:12.631,211,1423457832.141745,37.77932808272334,-122.4389182125427,62.01065,0,-1,4,10,-9999,1423457832.60204,9.993565559387207,-16.50552368164062,-39.83388519287109,349.8815307617188,336.0977172851562,15,1790.969271791667,0.0101165771484375,-0.814849853515625,-0.5721435546875,1790.948352416667,0.01229954317842195,-0.007831824133705024,-0.04875262586331756,192.168.1.8,10.227.79.254,1,0
2015-02-08 20:57:12.679,212,1423457832.141745,37.77932808272334,-122.4389182125427,62.01065,0,-1,4,10,-9999,1423457832.652638,9.788945198059082,-16.26760864257812,-40.03358459472656,349.9064636230469,336.1226501464844,15,1791.028242583333,0.0071868896484375,-0.809783935546875,-0.573028564453125,1791.020840125,0.002492985096423175,-0.01026728495058249,-0.04255811316779325,192.168.1.8,10.227.79.254,1,0
2015-02-08 20:57:12.763,213,1423457832.141745,37.77932808272334,-122.4389182125427,62.01065,0,-1,4,10,-9999,1423457832.704923,10.52217292785645,-16.0126953125,-39.81724548339844,349.9071044921875,336.123291015625,15,1791.087093041667,0.0085601806640625,-0.818389892578125,-0.57098388671875,1791.093326833334,0.009866212890416554,-0.01146703902166318,-0.04743382849151032,192.168.1.8,10.227.79.254,1,0
2015-02-08 20:57:12.797,214,1423457832.141745,37.77932808272334,-122.4389182125427,62.01065,0,-1,4,10,-9999,1423457832.75622,10.53922462463379,-16.19961547851562,-39.96701812744141,349.9036254882812,336.1198120117188,15,1791.146018958333,0.0094146728515625,-0.8143768310546875,-0.5671844482421875,1791.129570791667,0.01106996170313237,-0.005700762629423617,-0.02923325296969079,192.168.1.8,10.227.79.254,1,0
2015-02-08 20:57:12.862,215,1423457832.141745,37.77932808272334,-122.4389182125427,62.01065,0,-1,4,10,-9999,1423457832.808235,10.5562744140625,-15.80880737304688,-39.98366546630859,349.8985290527344,336.1147155761719,15,1791.204919875,0.0068359375,-0.8145599365234375,-0.566741943359375,1791.202057541667,0.02832112029633865,-0.0154705690883793,-0.03391029647608795,192.168.1.8,10.227.79.254,1,0
2015-02-08 20:57:12.914,216,1423457832.141745,37.77932808272334,-122.4389182125427,62.01065,0,-1,4,10,-9999,1423457832.859786,10.35165405273438,-15.87677001953125,-39.91709899902344,349.9076843261719,336.1238708496094,15,1791.2638275,0.0133056640625,-0.81134033203125,-0.57562255859375,1791.238301625,0.005025118660870515,-0.02453250732959193,-0.06177361938104198,192.168.1.8,10.227.79.254,1,0
2015-02-08 20:57:12.974,217,1423457832.141745,37.77932808272334,-122.4389182125427,62.01065,0,-1,4,10,-9999,1423457832.963793,10.40281105041504,-15.96173095703125,-39.83388519287109,349.9193725585938,336.1355590820312,15,1791.322851791667,0.0125274658203125,-0.8182373046875,-0.5636749267578125,1791.310788208333,0.01602051185348067,-0.01286466596173677,-0.03884699818876783,192.168.1.8,10.227.79.254,1,0
2015-02-08 20:57:13.062,218,1423457832.141745,37.77932808272334,-122.4389182125427,62.01065,0,-1,4,10,-9999,1423457833.015782,10.3857593536377,-16.0126953125,-40.01693725585938,349.9252014160156,336.1413879394531,15,1791.381624916667,0.019378662109375,-0.8214874267578125,-0.554779052734375,1791.383274916667,-0.008607869275354113,-0.001800563213002573,-0.03541285196311066,192.168.1.8,10.227.79.254,1,0
2015-02-08 20:57:13.091,219,1423457832.141745,37.77932808272334,-122.4389182125427,62.01065,0,-1,4,10,-9999,1423457833.068431,10.26639747619629,-15.8258056640625,-39.90045166015625,349.9462585449219,336.1624450683594,15,1791.4406275,0.0136260986328125,-0.8149261474609375,-0.5789337158203125,1791.419518875,-0.003703125495755181,0.002531867248338332,-0.004950550150348296,192.168.1.8,10.227.79.254,1,0
2015-02-08 20:57:13.162,220,1423457832.141745,37.77932808272334,-122.4389182125427,62.01065,0,-1,4,10,-9999,1423457833.119906,10.53922653198242,-15.8258056640625,-39.367919921875,349.9478149414062,336.1640014648438,15,1791.499427416667,-0.0008087158203125,-0.8079833984375,-0.56787109375,1791.492005666667,0.0466969318178854,-0.005154281973739358,-0.0060698767565086,192.168.1.8,10.227.79.254,1,0
2015-02-08 20:57:13.209,221,1423457832.141745,37.77932808272334,-122.4389182125427,62.01065,0,-1,4,10,-9999,1423457833.171437,10.35165405273438,-16.318603515625,-39.51768493652344,349.9457092285156,336.1618957519531,15,1791.558430958333,-0.0081634521484375,-0.8130645751953125,-0.5714569091796875,1791.564493458333,0.01109526173348812,-0.01149660010976306,-0.04621197018338197,192.168.1.8,10.227.79.254,1,0
2015-02-08 20:57:13.270,222,1423457833.225174,37.77932808272334,-122.4389182125427,62.035,0,-1,4,10,-9999,1423457833.222855,10.35165309906006,-16.488525390625,-39.55097198486328,349.9401550292969,336.1563415527344,15,1791.617232791667,0.01177978515625,-0.8155670166015625,-0.58319091796875,1791.600736375,-0.01464765231154482,-0.01970499522160529,-0.04962827322973561,192.168.1.8,10.227.79.254,1,0
2015-02-08 20:57:13.331,223,1423457833.225174,37.77932808272334,-122.4389182125427,62.035,0,-1,4,10,-9999,1423457833.326657,10.59038257598877,-15.8427734375,-39.38455200195312,349.9236450195312,336.1398315429688,15,1791.676139,0.0119171142578125,-0.812042236328125,-0.5692901611328125,1791.673224291667,0.01971937629149172,-0.01530199099137729,-0.0400153269589856,192.168.1.8,10.227.79.254,1,0
2015-02-08 20:57:13.388,224,1423457833.225174,37.77932808272334,-122.4389182125427,62.035,0,-1,4,10,-9999,1423457833.379383,9.993568420410156,-16.233642578125,-39.23477172851562,349.9247436523438,336.1409301757812,15,1791.73504175,0.0056610107421875,-0.814300537109375,-0.5671844482421875,1791.709467041667,0.00140588273945283,-0.03223117340879299,-0.03221599339057954,192.168.1.8,10.227.79.254,1,0
2015-02-08 20:57:13.462,225,1423457833.225174,37.77932808272334,-122.4389182125427,62.035,0,-1,4,10,-9999,1423457833.431253,10.40281105041504,-16.267578125,-39.36791229248047,349.9154968261719,336.1316833496094,15,1791.793967583333,0.001220703125,-0.8144378662109375,-0.5705108642578125,1791.781955,-0.002315085935605882,-0.02615676927843125,-0.0311392773618605,192.168.1.8,10.227.79.254,1,0
2015-02-08 20:57:13.504,226,1423457833.225174,37.77932808272334,-122.4389182125427,62.035,0,-1,4,10,-9999,1423457833.482516,10.19818878173828,-16.13162231445312,-39.53433227539062,349.9194641113281,336.1356506347656,15,1791.852933833334,0.0074615478515625,-0.81097412109375,-0.577056884765625,1791.854441791667,-0.008511196527784237,-0.01860218021420348,-0.04599758571563058,192.168.1.8,10.227.79.254,1,0
2015-02-08 20:57:13.563,227,1423457833.225174,37.77932808272334,-122.4389182125427,62.035,0,-1,4,10,-9999,1423457833.534925,9.857151985168457,-15.9957275390625,-39.70074462890625,349.9293212890625,336.1455078125,15,1791.911797333333,0.005950927734375,-0.8076324462890625,-0.5732574462890625,1791.890685541667,0.002521747236196031,-0.0161392888380982,-0.05464167398180978,192.168.1.8,10.227.79.254,1,0
2015-02-08 20:57:13.631,228,1423457833.225174,37.77932808272334,-122.4389182125427,62.035,0,-1,4,10,-9999,1423457833.587797,9.737790107727051,-16.14865112304688,-39.98365020751953,349.9622497558594,336.1784362792969,15,1791.97068675,0.0162200927734375,-0.815673828125,-0.57470703125,1791.963172458333,-0.003632551726868081,-0.01369983327958562,-0.0522461605812835,192.168.1.8,10.227.79.254,1,0
2015-02-08 20:57:13.681,229,1423457833.225174,37.77932808272334,-122.4389182125427,62.035,0,-1,4,10,-9999,1423457833.637374,10.16408443450928,-15.621826171875,-39.73402404785156,349.9768981933594,336.1930847167969,15,1792.029577958333,0.0121612548828125,-0.812744140625,-0.5742340087890625,1791.999416291667,0.008641425105089112,-0.01153255278447913,-0.04253707419518162,192.168.1.8,10.227.79.254,1,0
2015-02-08 20:57:13.762,230,1423457833.225174,37.77932808272334,-122.4389182125427,62.035,0,-1,4,10,-9999,1423457833.741697,10.48807144165039,-15.6728515625,-39.75067138671875,349.9727783203125,336.18896484375,15,1792.088470333333,0.0096282958984375,-0.8146209716796875,-0.5657958984375,1792.071903208333,-0.003616572760327605,-0.01510225390962134,-0.0399785753359425,192.168.1.8,10.227.79.254,1,0
2015-02-08 20:57:13.798,231,1423457833.225174,37.77932808272334,-122.4389182125427,62.035,0,-1,4,10,-9999,1423457833.793987,10.41986274719238,-16.148681640625,-39.48440551757812,349.9683532714844,336.1845397949219,15,1792.14737425,0.013214111328125,-0.797027587890625,-0.589385986328125,1792.144389958333,0.01844292318101674,-0.007941546370616288,-0.04509157831278563,192.168.1.8,10.227.79.254,1,0
2015-02-08 20:57:13.863,232,1423457833.225174,37.77932808272334,-122.4389182125427,62.035,0,-1,4,10,-9999,1423457833.845763,10.59037780761719,-16.0806884765625,-39.65082550048828,349.9549255371094,336.1711120605469,15,1792.2062655,0.0071563720703125,-0.808837890625,-0.5643310546875,1792.216877666667,0.03323917988138798,-0.01666792631447893,-0.0375585608533875,192.168.1.8,10.227.79.254,1,0
2015-02-08 20:57:13.916,233,1423457833.225174,37.77932808272334,-122.4389182125427,62.035,0,-1,4,10,-9999,1423457833.897568,10.62448310852051,-16.18264770507812,-39.81723785400391,349.9450073242188,336.1611938476562,15,1792.265259,0.016510009765625,-0.8190460205078125,-0.555938720703125,1792.253120541667,3.35558297349984e-05,-0.009129049900682621,-0.03646613217423699,192.168.1.8,10.227.79.254,1,0
2015-02-08 20:57:13.975,234,1423457833.225174,37.77932808272334,-122.4389182125427,62.035,0,-1,4,10,-9999,1423457833.948552,10.52217292785645,-15.97872924804688,-39.98365020751953,349.9426879882812,336.1588745117188,15,1792.324118458333,0.02435302734375,-0.81463623046875,-0.573516845703125,1792.325608375,-0.007303985605651319,-0.0118707742429192,-0.01191977640697665,192.168.1.8,10.227.79.254,1,0
2015-02-08 20:57:14.067,235,1423457833.225174,37.77932808272334,-122.4389182125427,62.035,0,-1,4,10,-9999,1423457834.053305,10.26639747619629,-15.85980224609375,-39.90044403076172,349.9595031738281,336.1756896972656,15,1792.38294275,0.016754150390625,-0.8085479736328125,-0.57843017578125,1792.361851458333,0.00858256924499836,0.0002490055619224088,-0.02081606602838635,192.168.1.8,10.227.79.254,1,0
2015-02-08 20:57:14.092,236,1423457833.225174,37.77932808272334,-122.4389182125427,62.035,0,-1,4,10,-9999,1423457834.086641,10.21524238586426,-15.87680053710938,-39.68410491943359,349.9646301269531,336.1808166503906,15,1792.441837,0.0024261474609375,-0.8061065673828125,-0.5812530517578125,1792.434339125,0.02943085952257467,0.005998770355403484,-0.01243669597456103,192.168.1.8,10.227.79.254,1,0
2015-02-08 20:57:14.169,237,1423457834.092281,37.77932808272334,-122.4389182125427,62.022,0,-1,4,10,-9999,1423457834.133312,10.26639938354492,-15.9957275390625,-39.80059814453125,349.9712524414062,336.1874389648438,15,1792.500737,0.00823974609375,-0.8143310546875,-0.572357177734375,1792.506825958333,0.03687705793043622,-0.00624431380790879,-0.008471249111433049,192.168.1.8,10.227.79.254,1,0
2015-02-08 20:57:14.211,238,1423457834.092281,37.77932808272334,-122.4389182125427,62.022,0,-1,4,10,-9999,1423457834.182016,10.26639556884766,-16.1656494140625,-39.56761932373047,349.978271484375,336.1944580078125,15,1792.559631083333,0.0076446533203125,-0.8191070556640625,-0.5634765625,1792.54307,0.01967996150735855,-0.008142082400699255,-0.0328567499488526,192.168.1.8,10.227.79.254,1,0
2015-02-08 20:57:14.270,239,1423457834.092281,37.77932808272334,-122.4389182125427,62.022,0,-1,4,10,-9999,1423457834.237158,10.21523952484131,-16.04669189453125,-39.55097961425781,349.9752502441406,336.1914367675781,15,1792.618593791667,0.007049560546875,-0.8138427734375,-0.5787200927734375,1792.615556666667,0.01104093324725051,0.001230913055834624,-0.007390538341078894,192.168.1.8,10.227.79.254,1,0
2015-02-08 20:57:14.332,240,1423457834.092281,37.77932808272334,-122.4389182125427,62.022,0,-1,4,10,-9999,1423457834.286716,10.36870765686035,-15.8258056640625,-39.73403930664062,349.9762878417969,336.1924743652344,15,1792.67742825,-0.0237274169921875,-0.7875213623046875,-0.57904052734375,1792.651800708333,0.02710219146540938,-0.0167105368919202,-0.03143062718511517,192.168.1.8,10.227.79.254,1,0
2015-02-08 20:57:14.387,241,1423457834.092281,37.77932808272334,-122.4389182125427,62.022,0,-1,4,10,-9999,1423457834.337154,9.669583320617676,-15.53692626953125,-39.68411254882812,349.9940795898438,336.2102661132812,15,1792.736337291667,0.0112762451171875,-0.824920654296875,-0.5444488525390625,1792.724287416667,0.1045027074908183,-0.0367252577483017,-0.1900815249077516,192.168.1.8,10.227.79.254,1,0
2015-02-08 20:57:14.463,242,1423457834.092281,37.77932808272334,-122.4389182125427,62.022,0,-1,4,10,-9999,1423457834.440881,9.771893501281738,-15.77484130859375,-39.78396606445312,350.0394287109375,336.255615234375,15,1792.795234916667,0.038909912109375,-0.8270721435546875,-0.5665130615234375,1792.79677425,-0.01447135104738157,-0.04664260333164778,-0.03182370976201086,192.168.1.8,10.227.79.254,1,0
2015-02-08 20:57:14.506,243,1423457834.092281,37.77932808272334,-122.4389182125427,62.022,0,-1,4,10,-9999,1423457834.493819,9.908308982849121,-16.148681640625,-39.68412017822266,350.064697265625,336.2808837890625,15,1792.854256166667,0.0303802490234375,-0.8226165771484375,-0.568145751953125,1792.833018291667,0.003692472851394864,-0.0044062000235361,-0.03047588393432176,192.168.1.8,10.227.79.254,1,0
2015-02-08 20:57:14.563,244,1423457834.092281,37.77932808272334,-122.4389182125427,62.022,0,-1,4,10,-9999,1423457834.547013,10.04472255706787,-15.87677001953125,-39.85053253173828,350.0878601074219,336.3040466308594,15,1792.913020291667,0.0090484619140625,-0.820098876953125,-0.55877685546875,1792.905504958333,0.02325525527078992,0.01624048895952121,0.03379737844586859,192.168.1.8,10.227.79.254,1,0
2015-02-08 20:57:14.627,245,1423457834.092281,37.77932808272334,-122.4389182125427,62.022,0,-1,4,10,-9999,1423457834.597313,10.47101783752441,-15.68984985351562,-39.83389282226562,350.1020812988281,336.3182678222656,15,1792.971910666667,-0.0075836181640625,-0.807861328125,-0.569061279296875,1792.977993,0.009847570762785999,-0.0005781722726562026,0.03180000762830916,192.168.1.8,10.227.79.254,1,0
2015-02-08 20:57:14.681,246,1423457834.092281,37.77932808272334,-122.4389182125427,62.022,0,-1,4,10,-9999,1423457834.648781,10.52217483520508,-15.7408447265625,-39.68411254882812,350.0967712402344,336.3129577636719,15,1793.030795875,-0.0073699951171875,-0.8068695068359375,-0.5843353271484375,1793.014235708333,-0.006020608276342133,-0.02042431503203569,-0.008036354905423109,192.168.1.8,10.227.79.254,1,0
2015-02-08 20:57:14.760,247,1423457834.092281,37.77932808272334,-122.4389182125427,62.022,0,-1,4,10,-9999,1423457834.752044,10.41986274719238,-15.8427734375,-39.7174072265625,350.0789184570312,336.2951049804688,15,1793.0896795,0.0050201416015625,-0.8066558837890625,-0.5641021728515625,1793.086723541667,0.01969807100277109,-0.01482688305290715,-0.07060759103294383,192.168.1.8,10.227.79.254,1,0
2015-02-08 20:57:14.799,248,1423457834.092281,37.77932808272334,-122.4389182125427,62.022,0,-1,4,10,-9999,1423457834.752044,10.41986274719238,-15.8427734375,-39.7174072265625,350.0789184570312,336.2951049804688,15,1793.14858075,0.0125579833984375,-0.8094329833984375,-0.56878662109375,1793.1229665,0.003719637094513672,-0.0133831834259752,-0.07673126364347202,192.168.1.8,10.227.79.254,1,0
2015-02-08 20:57:14.860,249,1423457834.092281,37.77932808272334,-122.4389182125427,62.022,0,-1,4,10,-9999,1423457834.804101,10.76089954376221,-15.87680053710938,-39.78397369384766,350.0618591308594,336.2780456542969,15,1793.207481083334,0.0342254638671875,-0.8269805908203125,-0.567230224609375,1793.195454291667,0.008662464077700738,-0.01723304909779374,-0.06563387138111183,192.168.1.8,10.227.79.254,1,0
2015-02-08 20:57:14.930,250,1423457834.092281,37.77932808272334,-122.4389182125427,62.022,0,-1,4,10,-9999,1423457834.907777,10.23229122161865,-16.33560180664062,-39.80060577392578,350.0490112304688,336.2651977539062,15,1793.266514458333,0.0236053466796875,-0.8234710693359375,-0.5583038330078125,1793.267941333334,0.01355708784515737,-0.009548764088479109,-0.01690867607702209,192.168.1.8,10.227.79.254,1,0
2015-02-08 20:57:14.976,251,1423457834.092281,37.77932808272334,-122.4389182125427,62.022,0,-1,4,10,-9999,1423457834.959094,10.53922271728516,-15.8258056640625,-39.60089874267578,350.052490234375,336.2686767578125,15,1793.325378125,0.004913330078125,-0.8123626708984375,-0.575897216796875,1793.304185125,-0.007337275119277309,-0.006945524122926653,-0.01693663926846792,192.168.1.8,10.227.79.254,1,0
2015-02-08 20:57:15.064,252,1423457834.092281,37.77932808272334,-122.4389182125427,62.022,0,-1,4,10,-9999,1423457835.01138,10.7779483795166,-15.7578125,-39.40120697021484,350.04541015625,336.2615966796875,15,1793.384170708333,0.0027618408203125,-0.8104095458984375,-0.5822296142578125,1793.376672083333,-0.008600945056519907,-0.001952629711246097,-0.02562307179597937,192.168.1.8,10.227.79.254,1,0
2015-02-08 20:57:15.093,253,1423457834.092281,37.77932808272334,-122.4389182125427,62.022,0,-1,4,10,-9999,1423457835.063165,10.67563819885254,-15.79180908203125,-39.66748046875,350.0348815917969,336.2510681152344,15,1793.443082416667,0.0085601806640625,-0.8184051513671875,-0.564178466796875,1793.412915875,0.0332431746230231,-0.01780403083550673,-0.04242282458441723,192.168.1.8,10.227.79.254,1,0
2015-02-08 20:57:15.164,254,1423457834.092281,37.77932808272334,-122.4389182125427,62.022,0,-1,4,10,-9999,1423457835.114901,10.60743141174316,-16.13168334960938,-40.10015869140625,350.0294799804688,336.2456665039062,15,1793.501980458333,0.0197296142578125,-0.8157501220703125,-0.5690765380859375,1793.485402666667,0.01719603115864164,-0.004369981032711022,-0.04028670307406467,192.168.1.8,10.227.79.254,1,0
2015-02-08 20:57:15.212,255,1423457835.196347,37.77932808272334,-122.4389182125427,62.06064,0,-1,4,10,-9999,1423457835.166673,10.60743141174316,-16.06369018554688,-40.46627044677734,350.0343627929688,336.2505493164062,15,1793.560964166667,0.0161590576171875,-0.813079833984375,-0.56976318359375,1793.5578895,0.03937110829129543,-0.01442900678604931,-0.02906360960825274,192.168.1.8,10.227.79.254,1,0
2015-02-08 20:57:15.270,256,1423457835.196347,37.77932808272334,-122.4389182125427,62.06064,0,-1,4,10,-9999,1423457835.220086,10.40281295776367,-15.89376831054688,-40.16671752929688,350.0453796386719,336.2615661621094,15,1793.619751833333,0.0063629150390625,-0.8143157958984375,-0.5634307861328125,1793.630377416667,0.01357945839831404,-0.01318557687309132,-0.01681679701941436,192.168.1.8,10.227.79.254,1,0
2015-02-08 20:57:15.331,257,1423457835.196347,37.77932808272334,-122.4389182125427,62.06064,0,-1,4,10,-9999,1423457835.321928,10.02767181396484,-15.65585327148438,-39.80060577392578,350.0930480957031,336.3092346191406,15,1793.6786525,0.0065765380859375,-0.8145599365234375,-0.5622711181640625,1793.666620458333,4.607268685837082e-05,-0.01045530412354208,-0.02909343701246163,192.168.1.8,10.227.79.254,1,0
2015-02-08 20:57:15.389,258,1423457835.196347,37.77932808272334,-122.4389182125427,62.06064,0,-1,4,10,-9999,1423457835.374514,10.57332801818848,-15.9957275390625,-39.63418579101562,350.0976867675781,336.3138732910156,15,1793.737566375,0.0096588134765625,-0.8155670166015625,-0.566741943359375,1793.739108333333,0.02333967747734544,-0.003438407283401304,-0.02564277918804596,192.168.1.8,10.227.79.254,1,0
2015-02-08 20:57:15.460,259,1423457835.196347,37.77932808272334,-122.4389182125427,62.06064,0,-1,4,10,-9999,1423457835.425743,10.79500198364258,-16.14865112304688,-39.61754608154297,350.0781555175781,336.2943420410156,15,1793.796443583333,-0.0047607421875,-0.8083953857421875,-0.5652923583984375,1793.77535125,9.267800593475748e-05,-0.01776701289635463,-0.02646223385546334,192.168.1.8,10.227.79.254,1,0
2015-02-08 20:57:15.506,260,1423457835.196347,37.77932808272334,-122.4389182125427,62.06064,0,-1,4,10,-9999,1423457835.478126,10.77795028686523,-16.47149658203125,-39.50106048583984,350.0513000488281,336.2674865722656,15,1793.855333166667,0.021881103515625,-0.838165283203125,-0.573699951171875,1793.847838958333,-0.0001725728386371346,0.02371758003602768,-0.04463404723751001,192.168.1.8,10.227.79.254,1,0
2015-02-08 20:57:15.565,261,1423457835.196347,37.77932808272334,-122.4389182125427,62.06064,0,-1,4,10,-9999,1423457835.530455,10.86320877075195,-16.11465454101562,-40.08351898193359,350.036376953125,336.2525634765625,15,1793.914216333333,0.053009033203125,-0.851165771484375,-0.560577392578125,1793.920325958333,0.01672198848460754,0.07734698648749834,0.00413295969569397,192.168.1.8,10.227.79.254,1,0
2015-02-08 20:57:15.630,262,1423457835.196347,37.77932808272334,-122.4389182125427,62.06064,0,-1,4,10,-9999,1423457835.581735,10.94846725463867,-15.791748046875,-40.26657104492188,350.0282287597656,336.2444152832031,15,1793.97310025,0.063201904296875,-0.80828857421875,-0.523101806640625,1793.956569958333,-0.07184436304317662,0.1083134246946127,0.08791148021573367,192.168.1.8,10.227.79.254,1,0
2015-02-08 20:57:15.683,263,1423457835.196347,37.77932808272334,-122.4389182125427,62.06064,0,-1,4,10,-9999,1423457835.633452,10.79500198364258,-16.1826171875,-39.95037841796875,349.9701538085938,336.1863403320312,15,1794.032008,0.0620574951171875,-0.826751708984375,-0.5871734619140625,1794.02905675,-0.1877129094342351,0.190768354152883,0.2267071804312843,192.168.1.8,10.227.79.254,1,0
2015-02-08 20:57:15.756,264,1423457835.196347,37.77932808272334,-122.4389182125427,62.06064,0,-1,4,10,-9999,1423457835.737185,11.08488178253174,-15.79177856445312,-39.36792755126953,348.6562805175781,334.8724670410156,15,1794.090906541667,0.0246429443359375,-0.7891998291015625,-0.5385284423828125,1794.065300666667,-0.1386958316746727,0.2169019539298306,0.3115839885848727,192.168.1.8,10.227.79.254,1,0
2015-02-08 20:57:15.800,265,1423457835.196347,37.77932808272334,-122.4389182125427,62.06064,0,-1,4,10,-9999,1423457835.789576,11.57938385009766,-15.57086181640625,-39.45114135742188,347.2601013183594,333.4762878417969,15,1794.149793208333,-0.0265960693359375,-0.8326873779296875,-0.592315673828125,1794.137787625,-0.2034796220358312,0.5529199128839623,0.1686646497374434,192.168.1.8,10.227.79.254,1,0
2015-02-08 20:57:15.859,266,1423457835.196347,37.77932808272334,-122.4389182125427,62.06064,0,-1,4,10,-9999,1423457835.841022,12.56839370727539,-15.50286865234375,-39.41786193847656,345.5337524414062,331.7499389648438,15,1794.208799708333,0.0871124267578125,-0.8374176025390625,-0.637969970703125,1794.210274291667,-0.2391212395365797,0.5872517877606097,0.4748876950479866,192.168.1.8,10.227.79.254,1,0
2015-02-08 20:57:15.930,267,1423457835.196347,37.77932808272334,-122.4389182125427,62.06064,0,-1,4,10,-9999,1423457835.892765,13.40393257141113,-15.04403686523438,-39.03509521484375,343.9804077148438,330.1965942382812,15,1794.267687791667,-0.0514373779296875,-0.71868896484375,-0.70928955078125,1794.246518375,-0.2730869297633413,0.5341582093204631,0.6353061327861086,192.168.1.8,10.227.79.254,1,0
2015-02-08 20:57:15.977,268,1423457835.196347,37.77932808272334,-122.4389182125427,62.06064,0,-1,4,10,-9999,1423457835.947051,13.81317615509033,-15.04400634765625,-38.86868286132812,341.7921447753906,328.0083312988281,15,1794.326488166667,-0.068023681640625,-0.781951904296875,-0.568511962890625,1794.319005125,-0.0004223773488865672,0.5119242763277185,0.4335482443950135,192.168.1.8,10.227.79.254,1,0
2015-02-08 20:57:16.058,269,1423457835.196347,37.77932808272334,-122.4389182125427,62.06064,0,-1,4,10,-9999,1423457836.048323,15.00680255889893,-15.48580932617188,-38.5025634765625,338.0666198730469,324.2828063964844,15,1794.385383625,-0.038330078125,-0.769989013671875,-0.651824951171875,1794.391492958333,-0.06923819360042507,0.1154392448233377,0.4082080003068006,192.168.1.8,10.227.79.254,1,0
2015-02-08 20:57:16.095,270,1423457835.196347,37.77932808272334,-122.4389182125427,62.06064,0,-1,4,10,-9999,1423457836.048323,15.00680255889893,-15.48580932617188,-38.5025634765625,338.0666198730469,324.2828063964844,15,1794.444310125,-0.110015869140625,-0.813232421875,-0.6158294677734375,1794.427736041667,0.05734025511438707,-0.3144215867263521,0.2390208383634837,192.168.1.8,10.227.79.254,1,0
2015-02-08 20:57:16.159,271,1423457835.196347,37.77932808272334,-122.4389182125427,62.06064,0,-1,4,10,-9999,1423457836.15214,14.71692276000977,-16.38644409179688,-37.92011260986328,334.5337219238281,320.7499084472656,15,1794.503143625,-0.0894927978515625,-0.75592041015625,-0.4962005615234375,1794.500223833333,0.3667511042497551,0.09243352774668821,0.1658108063133144,192.168.1.8,10.227.79.254,1,0
2015-02-08 20:57:16.213,272,1423457835.196347,37.77932808272334,-122.4389182125427,62.06064,0,-1,4,10,-9999,1423457836.204729,14.46114349365234,-17.151123046875,-37.27108764648438,333.85888671875,320.0750732421875,15,1794.562010791667,-0.021728515625,-0.6573638916015625,-0.5233001708984375,1794.536466708333,0.2644151446218252,0.1428668745739548,0.01793612362557466,192.168.1.8,10.227.79.254,1,0
2015-02-08 20:57:16.271,273,1423457836.216344,37.77932808272334,-122.4389182125427,62.03964,0,-1,4,10,-9999,1423457836.255837,15.09206104278564,-17.5419921875,-37.38758087158203,333.5527648925781,319.7689514160156,15,1794.620991583334,0.1529388427734375,-0.8689117431640625,-0.4636688232421875,1794.608954666667,0.1340936229949067,0.6902527387127324,-0.7466992369652888,192.168.1.8,10.227.79.254,1,0
2015-02-08 20:57:16.361,274,1423457836.216344,37.77932808272334,-122.4389182125427,62.03964,0,-1,4,10,-9999,1423457836.307966,16.26863861083984,-17.66094970703125,-37.13796234130859,335.1095886230469,321.3257751464844,15,1794.679756416667,0.382568359375,-0.9272613525390625,-0.6566619873046875,1794.681441666667,-0.4731585045521981,0.06083352351624401,0.08983028778113576,192.168.1.8,10.227.79.254,1,0
2015-02-08 20:57:16.389,275,1423457836.216344,37.77932808272334,-122.4389182125427,62.03964,0,-1,4,10,-9999,1423457836.359233,17.27469635009766,-17.23611450195312,-37.22116851806641,335.0653686523438,321.2815551757812,15,1794.738627,0.165374755859375,-0.9138641357421875,-0.6689453125,1794.7176855,-0.4707430174434962,-0.2638934313642787,0.7891372415679195,192.168.1.8,10.227.79.254,1,0
2015-02-08 20:57:16.458,276,1423457836.216344,37.77932808272334,-122.4389182125427,62.03964,0,-1,4,10,-9999,1423457836.41101,17.15533256530762,-16.811279296875,-37.30437469482422,332.6180725097656,318.8342590332031,15,1794.797489208333,0.0144805908203125,-0.7737884521484375,-0.5379638671875,1794.790172333333,0.247499810642078,0.6362566149791579,1.420764749940302,192.168.1.8,10.227.79.254,1,0
2015-02-08 20:57:16.507,277,1423457836.216344,37.77932808272334,-122.4389182125427,62.03964,0,-1,4,10,-9999,1423457836.464003,16.18337821960449,-17.3040771484375,-37.15460205078125,329.28125,315.4974365234375,15,1794.856406291667,-0.0287628173828125,-0.80047607421875,-0.62030029296875,1794.826416416667,0.3120220785841907,1.116411776347212,1.288653051428632,192.168.1.8,10.227.79.254,1,0
2015-02-08 20:57:16.567,278,1423457836.216344,37.77932808272334,-122.4389182125427,62.03964,0,-1,4,10,-9999,1423457836.515013,16.59261894226074,-19.13937377929688,-36.12281036376953,324.491455078125,310.7076416015625,15,1794.915216958334,0.0611724853515625,-0.7249603271484375,-0.4836883544921875,1794.898903208333,0.4062790727292562,1.729861878699258,0.9060345670880756,192.168.1.8,10.227.79.254,1,0
2015-02-08 20:57:16.661,279,1423457836.216344,37.77932808272334,-122.4389182125427,62.03964,0,-1,4,10,-9999,1423457836.618353,19.59374237060547,-22.94580078125,-32.39509582519531,314.0166625976562,300.2328491210938,15,1794.974083791667,0.0616455078125,-0.74176025390625,-0.5649261474609375,1794.971390208333,-0.7494164602254967,0.9008757577404831,0.615894351600521,192.168.1.8,10.227.79.254,1,0
2015-02-08 20:57:16.684,280,1423457836.216344,37.77932808272334,-122.4389182125427,62.03964,0,-1,4,10,-9999,1423457836.670555,20.34402275085449,-22.53799438476562,-31.92913055419922,309.89794921875,296.1141357421875,15,1795.032959541667,0.0604400634765625,-0.7307586669921875,-0.572601318359375,1795.043878166667,-0.5368860852250312,0.269783012114989,0.4039280341189342,192.168.1.8,10.227.79.254,1,0
2015-02-08 20:57:16.759,281,1423457836.216344,37.77932808272334,-122.4389182125427,62.03964,0,-1,4,10,-9999,1423457836.72185,21.1795597076416,-21.94326782226562,-31.97904968261719,307.8963012695312,294.1124877929688,15,1795.0918455,0.059844970703125,-0.7044830322265625,-0.6274261474609375,1795.080120875,-0.4269246964478775,0.5622492324986188,0.3939006999825679,192.168.1.8,10.227.79.254,1,0
2015-02-08 20:57:16.801,282,1423457836.216344,37.77932808272334,-122.4389182125427,62.03964,0,-1,4,10,-9999,1423457836.773851,21.63995933532715,-21.68838500976562,-32.49494171142578,306.4194030761719,292.6355895996094,15,1795.150719875,0.0906982421875,-0.7751922607421875,-0.552886962890625,1795.152609,0.02150981949235199,0.5260997501779923,0.2888123633680412,192.168.1.8,10.227.79.254,1,0
2015-02-08 20:57:16.861,283,1423457836.216344,37.77932808272334,-122.4389182125427,62.03964,0,-1,4,10,-9999,1423457836.82519,22.10036087036133,-22.35107421875,-32.57815551757812,305.0918273925781,291.3080139160156,15,1795.20971,0.2099151611328125,-0.7887725830078125,-0.4636688232421875,1795.188851791667,-0.03107349728293555,0.3371894835176575,0.7780670135486781,192.168.1.8,10.227.79.254,1,0
2015-02-08 20:57:16.931,284,1423457836.216344,37.77932808272334,-122.4389182125427,62.03964,0,-1,4,10,-9999,1423457836.928825,21.38418388366699,-24.86611938476562,-31.47979736328125,298.2319641113281,284.4481506347656,15,1795.268483291667,-0.101470947265625,-0.7144622802734375,-0.514007568359375,1795.261339833334,0.1204838045601658,0.7407763667009526,1.627522989594129,192.168.1.8,10.227.79.254,1,0
2015-02-08 20:57:16.978,285,1423457836.216344,37.77932808272334,-122.4389182125427,62.03964,0,-1,4,10,-9999,1423457836.928825,21.38418388366699,-24.86611938476562,-31.47979736328125,298.2319641113281,284.4481506347656,15,1795.327372208333,-0.2147216796875,-0.7315521240234375,-0.3975067138671875,1795.33382675,-2.37257346352855,0.2503451319507186,-1.154325869206125,192.168.1.8,10.227.79.254,1,0
2015-02-08 20:57:17.059,286,1423457836.216344,37.77932808272334,-122.4389182125427,62.03964,0,-1,4,10,-9999,1423457837.038414,22.1685676574707,-21.12762451171875,-32.91098022460938,296.1807861328125,282.39697265625,15,1795.386260708333,-0.003570556640625,-0.7174530029296875,-0.712249755859375,1795.370070708334,-3.682710235470851,0.2533031049734696,-2.650481513813262,192.168.1.8,10.227.79.254,1,0
2015-02-08 20:57:17.096,287,1423457836.216344,37.77932808272334,-122.4389182125427,62.03964,0,-1,4,10,-9999,1423457837.085741,24.21478652954102,-14.50027465820312,-35.07439422607422,298.0514221191406,284.2676086425781,15,1795.445150375,-0.0861358642578125,-0.4298248291015625,-1.066207885742188,1795.442557458333,-1.433307706042357,0.6263528515173712,0.1775803804348106,192.168.1.8,10.227.79.254,1,0
2015-02-08 20:57:17.159,288,1423457836.216344,37.77932808272334,-122.4389182125427,62.03964,0,-1,4,10,-9999,1423457837.136357,25.66419219970703,-9.011444091796875,-35.88983154296875,301.4346313476562,287.6508178710938,15,1795.504041541667,-0.13116455078125,-0.214019775390625,-1.144866943359375,1795.478801583334,-1.282470256641904,-6.551376281594926e-05,-0.4576237532815479,192.168.1.8,10.227.79.254,1,0
2015-02-08 20:57:17.214,289,1423457837.188861,37.77932808272334,-122.4389182125427,62.02042,0,-1,4,10,-9999,1423457837.188205,26.61909484863281,-5.78271484375,-35.85655212402344,303.3183898925781,289.5345764160156,15,1795.562929375,0.2942047119140625,-0.3755950927734375,-1.37164306640625,1795.551288333333,-0.05143256486826429,0.7184295156779887,-0.585613943690211,192.168.1.8,10.227.79.254,1,0
2015-02-08 20:57:17.272,290,1423457837.188861,37.77932808272334,-122.4389182125427,62.02042,0,-1,4,10,-9999,1423457837.24002,27.19885635375977,-3.9814453125,-35.62356567382812,306.2174072265625,292.43359375,15,1795.621811,0.259674072265625,-0.246551513671875,-1.219619750976562,1795.623775291667,0.3122124946021314,-0.7965006156658796,0.4745808988904094,192.168.1.8,10.227.79.254,1,0
2015-02-08 20:57:17.359,291,1423457837.188861,37.77932808272334,-122.4389182125427,62.02042,0,-1,4,10,-9999,1423457837.346742,25.83470916748047,-5.646759033203125,-35.09103393554688,304.6662902832031,290.8824768066406,15,1795.680713125,0.0589141845703125,-0.1404266357421875,-1.140213012695312,1795.660019333333,-0.1441563771737711,-1.054529499993695,0.721662593241345,192.168.1.8,10.227.79.254,1,0
2015-02-08 20:57:17.390,292,1423457837.188861,37.77932808272334,-122.4389182125427,62.02042,0,-1,4,10,-9999,1423457837.346742,25.83470916748047,-5.646759033203125,-35.09103393554688,304.6662902832031,290.8824768066406,15,1795.739716416667,-0.053070068359375,-0.2645111083984375,-0.84417724609375,1795.732506291667,-0.3412412168001041,0.04134424434293513,0.7261545470519816,192.168.1.8,10.227.79.254,1,0
2015-02-08 20:57:17.461,293,1423457837.188861,37.77932808272334,-122.4389182125427,62.02042,0,-1,4,10,-9999,1423457837.448733,23.83964538574219,-6.95526123046875,-36.63870239257812,301.0243225097656,287.2405090332031,15,1795.798508166667,-0.0495452880859375,-0.2209930419921875,-1.012435913085938,1795.804994083333,-0.4809450549473718,0.1539134004594944,0.3431456432956198,192.168.1.8,10.227.79.254,1,0
2015-02-08 20:57:17.508,294,1423457837.188861,37.77932808272334,-122.4389182125427,62.02042,0,-1,4,10,-9999,1423457837.499808,23.46450424194336,-6.2755126953125,-36.4722900390625,300.30712890625,286.5233154296875,15,1795.857503166667,-0.011383056640625,-0.220123291015625,-1.122116088867188,1795.841237166667,-0.372832432598951,0.1334837591052786,0.1942355235760572,192.168.1.8,10.227.79.254,1,0
2015-02-08 20:57:17.566,295,1423457837.188861,37.77932808272334,-122.4389182125427,62.02042,0,-1,4,10,-9999,1423457837.551573,23.68618202209473,-5.40887451171875,-36.6220703125,300.0659790039062,286.2821655273438,15,1795.916274625,0.0974884033203125,-0.32196044921875,-0.980224609375,1795.913724958333,0.1175644473732209,0.4578740904240153,0.02492585622259663,192.168.1.8,10.227.79.254,5,0
2015-02-08 20:57:17.631,296,1423457837.188861,37.77932808272334,-122.4389182125427,62.02042,0,-1,4,10,-9999,1423457837.604805,24.43646430969238,-5.714752197265625,-36.18939208984375,299.7417602539062,285.9579467773438,15,1795.975151208334,0.0228271484375,-0.300140380859375,-0.9094390869140625,1795.949968083333,0.186061749558386,0.3305949640264033,0.302015250788218,192.168.1.8,10.227.79.254,5,0
2015-02-08 20:57:17.684,297,1423457837.188861,37.77932808272334,-122.4389182125427,62.02042,0,-1,4,10,-9999,1423457837.654763,25.10148239135742,-6.2415771484375,-35.74005889892578,298.7919616699219,285.0081481933594,15,1796.0340315,0.10247802734375,-0.27679443359375,-0.970703125,1796.022455833333,-0.3227439651328498,-0.04945676565553451,-0.07034180755615391,192.168.1.8,10.227.79.254,5,0
