loggingTime,loggingSample,locationTimestamp_since1970,locationLatitude,locationLongitude,locationAltitude,locationSpeed,locationCourse,locationVerticalAccuracy,locationHorizontalAccuracy,locationFloor,locationHeadingTimestamp_since1970,locationHeadingX,locationHeadingY,locationHeadingZ,locationTrueHeading,locationMagneticHeading,locationHeadingAccuracy,accelerometerTimestamp_sinceReboot,accelerometerAccelerationX,accelerometerAccelerationY,accelerometerAccelerationZ,gyroTimestamp_sinceReboot,gyroRotationX,gyroRotationY,gyroRotationZ,motionTimestamp_sinceReboot,motionYaw,motionRoll,motionPitch,motionRotationRateX,motionRotationRateY,motionRotationRateZ,motionUserAccelerationX,motionUserAccelerationY,motionUserAccelerationZ,motionAttitudeReferenceFrame,motionQuaternionX,motionQuaternionY,motionQuaternionZ,motionQuaternionW,motionGravityX,motionGravityY,motionGravityZ,motionMagneticFieldX,motionMagneticFieldY,motionMagneticFieldZ,motionMagneticFieldCalibrationAccuracy,IP_en0,IP_pdp_ip0,deviceOrientation,state
2015-02-27 16:46:09.120,1,1425084367.990496,37.78774548283461,-122.396747782926,12.05356,-1,-1,10,65,-9999,1425084369.080735,-10.58237457275391,-25.83705139160156,-16.18901824951172,100.2613983154297,86.48814392089844,10,136215.674936875,0.1770172119140625,-0.85833740234375,-0.5121917724609375,136215.6511049583,-0.2566794606034721,0.4027940601267785,0.03310415761412096,136215.6511049583,2.496362445048,0.2568150250629501,1.070264246194635,-0.2654184103012085,0.4141453206539154,0.06932418793439865,0.07080991566181183,0.03823127597570419,-0.05728471651673317,XTrueNorthZVertical,-0.05587878372197239,-0.5145878159716711,-0.8298104557926352,-0.2085464541456354,0.1218933314085007,-0.8773273229598999,-0.4641538858413696,-12.57625961303711,-26.40014457702637,-16.01921081542969,2,10.3.35.51,10.83.46.32,1,0
2015-02-27 16:46:09.178,2,1425084367.990496,37.78774548283461,-122.396747782926,12.05356,-1,-1,10,65,-9999,1425084369.137632,-10.90634155273438,-26.32981872558594,-16.60511779785156,100.8371429443359,87.06388854980469,10,136215.72395725,0.008056640625,-0.959442138671875,-0.365631103515625,136215.702885,-0.0105501126583489,-0.4769969186313293,0.05487257004831965,136215.702885,2.50732749825478,0.2383709518524711,1.067103072689815,-0.01928898505866528,-0.4656457901000977,0.09109223634004593,0.06576679646968842,-0.009310636669397354,-0.01377244014292955,XTrueNorthZVertical,-0.06020520426200372,-0.5117299195303115,-0.8311256718930189,-0.2091363556483876,0.1139664798974991,-0.8758059144020081,-0.4690156579017639,-12.5499963760376,-26.26745796203613,-16.25617980957031,2,10.3.35.51,10.83.46.32,1,0
2015-02-27 16:46:09.214,3,1425084367.990496,37.78774548283461,-122.396747782926,12.05356,-1,-1,10,65,-9999,1425084369.137632,-10.90634155273438,-26.32981872558594,-16.60511779785156,100.8371429443359,87.06388854980469,10,136215.7730157917,-0.0196685791015625,-0.865081787109375,-0.3675689697265625,136215.754665,0.1948368653501971,0.299361677078063,0.2795469596195465,136215.754665,2.529120746442675,0.2171295019562976,1.074093713012088,0.1860980987548828,0.3107126951217651,0.3157662153244019,-0.08715454488992691,0.008919381536543369,0.08298557996749878,XTrueNorthZVertical,-0.06455839984585417,-0.5129932308162587,-0.8311362200206927,-0.2046529179171256,0.1026574745774269,-0.879158616065979,-0.4653403162956238,-13.09765720367432,-26.14977264404297,-16.01205253601074,2,10.3.35.51,10.83.46.32,1,0
2015-02-27 16:46:09.228,4,1425084367.990496,37.78774548283461,-122.396747782926,12.05356,-1,-1,10,65,-9999,1425084369.209564,-11.264404296875,-26.48271179199219,-16.65505218505859,98.70822143554688,84.93496704101562,10,136215.8220593334,-0.02667236328125,-0.9144439697265625,-0.399444580078125,136215.8064449167,0.1807343621137915,0.8245924377923625,0.5659989633134505,136215.754665,2.529120746442675,0.2171295019562976,1.074093713012088,0.1860980987548828,0.3107126951217651,0.3157662153244019,-0.08715454488992691,0.008919381536543369,0.08298557996749878,XTrueNorthZVertical,-0.06455839984585417,-0.5129932308162587,-0.8311362200206927,-0.2046529179171256,0.1026574745774269,-0.879158616065979,-0.4653403162956238,-13.09765720367432,-26.14977264404297,-16.01205253601074,2,10.3.35.51,10.83.46.32,1,0
2015-02-27 16:46:09.331,5,1425084367.990496,37.78774548283461,-122.396747782926,12.05356,-1,-1,10,65,-9999,1425084369.262245,-11.24735260009766,-25.85406494140625,-17.00457000732422,94.34066772460938,80.56741333007812,10,136215.8711124167,0.056304931640625,-0.904327392578125,-0.40838623046875,136215.858224875,0.2836117423913344,1.099283922112476,0.8463342186156604,136215.858224875,2.648084379829201,0.1944455203350495,1.104534870870629,0.2748731374740601,1.110634684562683,0.8825528025627136,-0.007136027794331312,-0.05149273574352264,0.002113420749083161,XTrueNorthZVertical,-0.04740117986578063,-0.5265111545822961,-0.8340906661594539,-0.1575816225632533,0.0868631973862648,-0.8932551741600037,-0.4410782754421234,-13.30945491790771,-25.8482723236084,-16.32391548156738,2,10.3.35.51,10.83.46.32,1,0
2015-02-27 16:46:09.334,6,1425084367.990496,37.78774548283461,-122.396747782926,12.05356,-1,-1,10,65,-9999,1425084369.313955,-11.55426788330078,-25.17446899414062,-17.30414581298828,88.98867034912109,75.21541595458984,10,136215.9201474584,-0.078643798828125,-0.891387939453125,-0.3415374755859375,136215.9100049167,0.5135051287507896,1.094613003876586,1.176306269263094,136215.858224875,2.648084379829201,0.1944455203350495,1.104534870870629,0.2748731374740601,1.110634684562683,0.8825528025627136,-0.007136027794331312,-0.05149273574352264,0.002113420749083161,XTrueNorthZVertical,-0.04740117986578063,-0.5265111545822961,-0.8340906661594539,-0.1575816225632533,0.0868631973862648,-0.8932551741600037,-0.4410782754421234,-13.30945491790771,-25.8482723236084,-16.32391548156738,2,10.3.35.51,10.83.46.32,1,0
2015-02-27 16:46:09.430,7,1425084367.990496,37.78774548283461,-122.396747782926,12.05356,-1,-1,10,65,-9999,1425084369.366434,-11.84412384033203,-24.8856201171875,-17.48722076416016,82.15552520751953,68.38227081298828,10,136215.9691864167,-0.01153564453125,-0.989990234375,-0.395751953125,136215.9617848333,0.453594656868367,1.876443330361656,1.429452780364467,136215.9617848333,2.922726796476385,0.07196329170865341,1.166689869433978,0.4448570013046265,1.887793302536011,1.465672135353088,-0.06469409912824631,-0.08581017702817917,0.01627950370311737,XTrueNorthZVertical,-0.0302734497755125,-0.5504485735542749,-0.8312594816807399,-0.07139772491376181,0.02827136777341366,-0.9194540977478027,-0.3921797573566437,-14.22665119171143,-24.8582878112793,-17.07081985473633,2,10.3.35.51,10.83.46.32,1,0
2015-02-27 16:46:09.432,8,1425084367.990496,37.78774548283461,-122.396747782926,12.05356,-1,-1,10,65,-9999,1425084369.419883,-13.15704345703125,-24.05307006835938,-17.96988677978516,77.12532043457031,63.35206604003906,10,136216.0182475,0.0501556396484375,-0.95111083984375,-0.4195404052734375,136216.0135648334,0.3234816607548017,1.887341251858369,1.658151206342804,136215.9617848333,2.922726796476385,0.07196329170865341,1.166689869433978,0.4448570013046265,1.887793302536011,1.465672135353088,-0.06469409912824631,-0.08581017702817917,0.01627950370311737,XTrueNorthZVertical,-0.0302734497755125,-0.5504485735542749,-0.8312594816807399,-0.07139772491376181,0.02827136777341366,-0.9194540977478027,-0.3921797573566437,-14.22665119171143,-24.8582878112793,-17.07081985473633,2,10.3.35.51,10.83.46.32,1,0
2015-02-27 16:46:09.524,9,1425084367.990496,37.78774548283461,-122.396747782926,12.05356,-1,-1,10,65,-9999,1425084369.47034,-14.21418762207031,-22.9656982421875,-18.90193939208984,70.79804229736328,57.02478790283203,10,136216.0672753333,0.0440521240234375,-0.9603118896484375,-0.3956451416015625,136216.0653448333,0.2296707460923245,1.984341035610107,1.862593561112698,136216.0135648334,3.129444417204973,-0.01952783882352953,1.186779411377675,0.314743846654892,1.898691177368164,1.694370031356812,0.05405326932668686,-0.006472335197031498,-0.05543140694499016,XTrueNorthZVertical,-0.01149080807192049,-0.5590882732924098,-0.828962118177525,-0.01049502356534718,-0.007315599825233221,-0.9271671772003174,-0.3745765388011932,-14.32416534423828,-24.42993927001953,-17.59947204589844,2,10.3.35.51,10.83.46.32,1,0
2015-02-27 16:46:09.526,10,1425084367.990496,37.78774548283461,-122.396747782926,12.05356,-1,-1,10,65,-9999,1425084369.522099,-14.82801818847656,-21.77635192871094,-19.70082092285156,61.85692977905273,48.08367919921875,10,136216.116315,0.0196685791015625,-0.9555511474609375,-0.408355712890625,136216.0653448333,0.2296707460923245,1.984341035610107,1.862593561112698,136216.0653448333,-2.909078159903419,-0.1521726330215104,1.192135515184069,0.2209329903125763,1.995690941810608,1.898811817169189,0.09760274738073349,-0.05396324396133423,-0.0374731570482254,XTrueNorthZVertical,0.002450821806545308,-0.5632864879434714,-0.8245352530032266,0.05332932986572926,-0.05603780224919319,-0.9291605353355408,-0.3654046654701233,-14.75559520721436,-22.94574356079102,-19.17055702209473,2,10.3.35.51,10.83.46.32,1,0
2015-02-27 16:46:09.611,11,1425084367.990496,37.78774548283461,-122.396747782926,12.05356,-1,-1,10,65,-9999,1425084369.573801,-15.44184112548828,-20.48504638671875,-21.09888458251953,54.48347854614258,40.71022796630859,10,136216.165378625,-0.077606201171875,-0.8949127197265625,-0.394927978515625,136216.1689047917,0.1787827976669814,1.858346085490131,1.732535426117589,136216.1171247917,-2.654174183832929,-0.2912229037574096,1.179438238188983,0.1730067878961563,1.799263715744019,1.928268790245056,0.1291903406381607,-0.03115927055478096,-0.04297271370887756,XTrueNorthZVertical,0.01574909291439503,-0.5630812249727259,-0.8174739137023441,0.1201165078913005,-0.1095217540860176,-0.9243918657302856,-0.3653829991817474,-14.92616653442383,-21.82358360290527,-20.31466674804688,2,10.3.35.51,10.83.46.32,1,0
2015-02-27 16:46:09.624,12,1425084367.990496,37.78774548283461,-122.396747782926,12.05356,-1,-1,10,65,-9999,1425084369.573801,-15.44184112548828,-20.48504638671875,-21.09888458251953,54.48347854614258,40.71022796630859,10,136216.2144134167,0.0086669921875,-0.895263671875,-0.4398956298828125,136216.1689047917,0.1787827976669814,1.858346085490131,1.732535426117589,136216.1689047917,-2.422771985962174,-0.4166471429143777,1.155205287127099,0.1700213551521301,1.86962616443634,1.768702268600464,0.08578234165906906,0.01996514014899731,-0.02573591470718384,XTrueNorthZVertical,0.02569683588917638,-0.5610201785205926,-0.8070069227018523,0.1825813066158039,-0.1633885502815247,-0.9148778319358826,-0.3691920638084412,-15.07777976989746,-21.06870651245117,-20.98845291137695,2,10.3.35.51,10.83.46.32,1,0
2015-02-27 16:46:09.725,13,1425084367.990496,37.78774548283461,-122.396747782926,12.05356,-1,-1,10,65,-9999,1425084369.676764,-15.11787414550781,-17.91941833496094,-23.87834930419922,37.47405242919922,23.70080184936523,10,136216.26348175,0.169036865234375,-0.9356536865234375,-0.4829254150390625,136216.2724647083,-0.0534696167860659,1.60122347488127,0.9382412394148399,136216.2206847917,-2.258751572576459,-0.4653821012439039,1.126830861102776,0.0504721999168396,1.90351128578186,1.447564363479614,0.2014220207929611,0.007791833952069283,-0.05605146288871765,XTrueNorthZVertical,0.04575365572279129,-0.5531586740364937,-0.7964117420936899,0.2401051775321034,-0.1927550286054611,-0.9030554890632629,-0.3838441669940948,-14.38128566741943,-19.44268035888672,-22.95442962646484,2,10.3.35.51,10.83.46.32,1,0
2015-02-27 16:46:09.728,14,1425084367.990496,37.78774548283461,-122.396747782926,12.05356,-1,-1,10,65,-9999,1425084369.676764,-15.11787414550781,-17.91941833496094,-23.87834930419922,37.47405242919922,23.70080184936523,10,136216.3125255417,0.310821533203125,-0.851470947265625,-0.5887603759765625,136216.2724647083,-0.0534696167860659,1.60122347488127,0.9382412394148399,136216.2724647083,-2.140786321448383,-0.4843080407989659,1.099090633503145,-0.06224729120731354,1.612508296966553,0.9743906259536743,0.3806067407131195,-0.04485917836427689,-0.08077690005302429,XTrueNorthZVertical,0.06386214930279194,-0.5429984991853597,-0.786464167674212,0.2873124494859625,-0.2115698754787445,-0.8907945156097412,-0.4021485149860382,-13.57193374633789,-18.65522575378418,-24.07343292236328,2,10.3.35.51,10.83.46.32,1,0
2015-02-27 16:46:09.803,15,1425084367.990496,37.78774548283461,-122.396747782926,12.05356,-1,-1,10,65,-9999,1425084369.780085,-13.41281127929688,-16.3902587890625,-25.60929107666016,28.78471755981445,15.01146697998047,10,136216.3615782083,0.1953277587890625,-0.9111328125,-0.4772796630859375,136216.32424475,-0.2329182047255671,0.1701608136378499,0.4083432888901766,136216.32424475,-2.08167229607218,-0.490173951722997,1.075494055677485,-0.2416957765817642,0.181445524096489,0.4444922506809235,0.5233514308929443,-0.01003697887063026,-0.1633860319852829,XTrueNorthZVertical,0.07137096700343422,-0.5340788799273196,-0.7817305235011089,0.3139480826625585,-0.2237603515386581,-0.8798250555992126,-0.4193318784236908,-13.00047874450684,-18.2304801940918,-24.70591354370117,2,10.3.35.51,10.83.46.32,1,0
2015-02-27 16:46:09.815,16,1425084367.990496,37.78774548283461,-122.396747782926,12.05356,-1,-1,10,65,-9999,1425084369.780085,-13.41281127929688,-16.3902587890625,-25.60929107666016,28.78471755981445,15.01146697998047,10,136216.4107105,0.1163787841796875,-0.8178558349609375,-0.3737945556640625,136216.37602475,-0.2089976918144754,-0.7507525681443895,0.1575496806118886,136216.37602475,-2.069809400240502,-0.5227100529812067,1.058532931831762,-0.2177751809358597,-0.739467978477478,0.1936982870101929,0.4382561147212982,-0.02495385147631168,-0.03414580225944519,XTrueNorthZVertical,0.05728153205223126,-0.5332618539132193,-0.7835828556063726,0.3136058107605602,-0.2446983754634857,-0.8716373443603516,-0.4247012436389923,-13.53282737731934,-17.41167449951172,-25.00882148742676,2,10.3.35.51,10.83.46.32,1,0
2015-02-27 16:46:09.905,17,1425084367.990496,37.78774548283461,-122.396747782926,12.05356,-1,-1,10,65,-9999,1425084369.838604,-13.94137573242188,-16.06744384765625,-25.62594604492188,28.91570663452148,15.14245510101318,10,136216.459657125,0.12054443359375,-0.7604217529296875,-0.291534423828125,136216.427804875,-0.1809932213717472,-1.522446370888399,0.04976702392252874,136216.427804875,-2.068495372647338,-0.5807398752179413,1.046848558193179,-0.1897706240415573,-1.511161923408508,0.08591531217098236,0.3882414698600769,0.06751100718975067,0.08225215971469879,XTrueNorthZVertical,0.03168492805112515,-0.5383822621066003,-0.786396525627423,0.3011995759637329,-0.2744871973991394,-0.8658508658409119,-0.4182811975479126,-14.78533172607422,-17.09797286987305,-24.51118850708008,2,10.3.35.51,10.83.46.32,1,0
2015-02-27 16:46:09.912,18,1425084367.990496,37.78774548283461,-122.396747782926,12.05356,-1,-1,10,65,-9999,1425084369.838604,-13.94137573242188,-16.06744384765625,-25.62594604492188,28.91570663452148,15.14245510101318,10,136216.50868925,-0.106353759765625,-0.8760528564453125,-0.04644775390625,136216.47958475,-0.01079325926587314,-2.627376993460171,0.1752122975935122,136216.47958475,-2.065929276582006,-0.6855479425658774,1.037313483631951,-0.01957057416439056,-2.616092681884766,0.2113601863384247,0.4184184074401855,0.02949817851185799,0.191326841711998,XTrueNorthZVertical,-0.01151998342043181,-0.5504958891043802,-0.7878339031756667,0.2759336550049759,-0.3219523429870605,-0.8610411286354065,-0.3936431407928467,-16.01475143432617,-16.90827560424805,-23.86174583435059,2,10.3.35.51,10.83.46.32,1,0
2015-02-27 16:46:09.976,19,1425084367.990496,37.78774548283461,-122.396747782926,12.05356,-1,-1,10,65,-9999,1425084369.961157,-20.67642974853516,-15.88052368164062,-21.74799346923828,36.7833137512207,23.01006317138672,10,136216.5577452084,-0.307403564453125,-0.936492919921875,0.0872039794921875,136216.5313647084,-0.1858068850420654,-3.33276261243506,0.1236106219960278,136216.5313647084,-2.059517745876797,-0.8506972130348843,1.025143311458163,-0.1945841163396835,-3.321478128433228,0.1597581505775452,0.1458270996809006,-0.01964685134589672,0.3343550264835358,XTrueNorthZVertical,-0.0781746328463115,-0.5681257096946447,-0.7846768725039273,0.2353809368173126,-0.3901355862617493,-0.854788601398468,-0.3422438204288483,-20.92591094970703,-16.45190811157227,-20.07949066162109,2,10.3.35.51,10.83.46.32,1,0
2015-02-27 16:46:10.010,20,1425084367.990496,37.78774548283461,-122.396747782926,12.05356,-1,-1,10,65,-9999,1425084369.961157,-20.67642974853516,-15.88052368164062,-21.74799346923828,36.7833137512207,23.01006317138672,10,136216.6067695,-0.470550537109375,-0.776885986328125,0.0335235595703125,136216.5831447083,-0.1654217184780539,-2.416323607600263,0.4820800942039635,136216.5831447083,-2.058536004409945,-0.9945457962231822,1.008174243960354,-0.1741978973150253,-2.405039072036743,0.5182268619537354,0.1134353503584862,-0.05866637080907822,0.3488871157169342,XTrueNorthZVertical,-0.1391204442092278,-0.5790711063652169,-0.7782227475387035,0.1992274727178499,-0.4472671449184418,-0.8458594083786011,-0.2906443178653717,-23.60824203491211,-16.0676383972168,-17.21124649047852,2,10.3.35.51,10.83.46.32,1,0
2015-02-27 16:46:10.099,21,1425084367.990496,37.78774548283461,-122.396747782926,12.05356,-1,-1,10,65,-9999,1425084370.066952,-26.25203704833984,-14.47027587890625,-16.07254028320312,43.96799850463867,30.19474601745605,10,136216.655821375,-0.7740631103515625,-0.861328125,0.1392974853515625,136216.6349249167,-0.185592234258205,-1.724099064416436,0.552712186318936,136216.6349249167,-2.036266927959782,-1.110626181135957,0.9743130761329452,-0.1943683177232742,-1.712814688682556,0.5888586044311523,-0.1406941562891006,0.01098625734448433,0.3428055346012115,XTrueNorthZVertical,-0.1877087042746744,-0.5831223502762938,-0.7686555363359829,0.184126337888027,-0.503303050994873,-0.8273162245750427,-0.2494675368070602,-25.0170783996582,-15.54012489318848,-15.63315010070801,2,10.3.35.51,10.83.46.32,1,0
2015-02-27 16:46:10.109,22,1425084367.990496,37.78774548283461,-122.396747782926,12.05356,-1,-1,10,65,-9999,1425084370.066952,-26.25203704833984,-14.47027587890625,-16.07254028320312,43.96799850463867,30.19474601745605,10,136216.7048493333,-0.5107879638671875,-0.805419921875,0.0388946533203125,136216.68670475,-0.3600074477374565,-0.9560207691683179,0.1935830491089878,136216.6349249167,-2.036266927959782,-1.110626181135957,0.9743130761329452,-0.1943683177232742,-1.712814688682556,0.5888586044311523,-0.1406941562891006,0.01098625734448433,0.3428055346012115,XTrueNorthZVertical,-0.1877087042746744,-0.5831223502762938,-0.7686555363359829,0.184126337888027,-0.503303050994873,-0.8273162245750427,-0.2494675368070602,-25.0170783996582,-15.54012489318848,-15.63315010070801,2,10.3.35.51,10.83.46.32,1,0
2015-02-27 16:46:10.198,23,1425084367.990496,37.78774548283461,-122.396747782926,12.05356,-1,-1,10,65,-9999,1425084370.168943,-28.91194915771484,-13.04306030273438,-12.31108856201172,48.95153427124023,35.17828369140625,10,136216.7539090417,-0.6881561279296875,-0.8559722900390625,0.088714599609375,136216.7384849167,-0.2286973607139005,-0.8971350816733579,0.621207624291338,136216.7384849167,-2.061135263184825,-1.196617537607577,0.9256508146855057,-0.2374732494354248,-0.8858509659767151,0.6573532223701477,-0.02137651480734348,-0.05604448541998863,0.2508982121944427,XTrueNorthZVertical,-0.2424692668985249,-0.5756004596835842,-0.7634105920425085,0.1646119931088996,-0.5597087144851685,-0.799012303352356,-0.2197855263948441,-27.90702056884766,-13.66428279876709,-12.09258651733398,2,10.3.35.51,10.83.46.32,1,0
2015-02-27 16:46:10.206,24,1425084367.990496,37.78774548283461,-122.396747782926,12.05356,-1,-1,10,65,-9999,1425084370.168943,-28.91194915771484,-13.04306030273438,-12.31108856201172,48.95153427124023,35.17828369140625,10,136216.8029481667,-0.638427734375,-0.60748291015625,0.0412750244140625,136216.7902647917,-0.3034490967191166,-0.9452810394403554,0.4072718991836378,136216.7902647917,-2.066006076849178,-1.242649379248894,0.8941592293259297,-0.3122237622737885,-0.9339972138404846,0.4434179663658142,-0.1222641244530678,0.08949734270572662,0.3001676201820374,XTrueNorthZVertical,-0.270734167150865,-0.5707874206721127,-0.7586087281645723,0.1594289923080913,-0.5927627086639404,-0.7796828746795654,-0.2018094658851624,-28.4959888458252,-13.03231811523438,-11.3965950012207,2,10.3.35.51,10.83.46.32,1,0
2015-02-27 16:46:10.296,25,1425084367.990496,37.78774548283461,-122.396747782926,12.05356,-1,-1,10,65,-9999,1425084370.27291,-31.00919342041016,-10.88528442382812,-10.92967224121094,48.65163803100586,34.87838745117188,10,136216.8520186667,-0.5651397705078125,-0.4772186279296875,-0.2305450439453125,136216.8420449584,-0.04699227638277518,0.1174360830086791,0.6576521848607454,136216.7902647917,-2.066006076849178,-1.242649379248894,0.8941592293259297,-0.3122237622737885,-0.9339972138404846,0.4434179663658142,-0.1222641244530678,0.08949734270572662,0.3001676201820374,XTrueNorthZVertical,-0.270734167150865,-0.5707874206721127,-0.7586087281645723,0.1594289923080913,-0.5927627086639404,-0.7796828746795654,-0.2018094658851624,-28.4959888458252,-13.03231811523438,-11.3965950012207,2,10.3.35.51,10.83.46.32,1,0
2015-02-27 16:46:10.304,26,1425084367.990496,37.78774548283461,-122.396747782926,12.05356,-1,-1,10,65,-9999,1425084370.27291,-31.00919342041016,-10.88528442382812,-10.92967224121094,48.65163803100586,34.87838745117188,10,136216.9010539167,-0.4966583251953125,-0.5241241455078125,-0.3342132568359375,136216.8938247917,-0.1306152682951542,0.5162196888499073,0.4630310355588448,136216.8420449584,-2.066936312455948,-1.261488423391663,0.8668896818729532,-0.05576686561107635,0.128719761967659,0.6937978863716125,0.07864577323198318,0.2341518998146057,0.07591383159160614,XTrueNorthZVertical,-0.2861764410984688,-0.5653311021645298,-0.7564046646824232,0.162344841706052,-0.6164875626564026,-0.7623196244239807,-0.1970075815916061,-29.51087760925293,-11.74032306671143,-10.14977836608887,2,10.3.35.51,10.83.46.32,1,0
2015-02-27 16:46:10.398,27,1425084367.990496,37.78774548283461,-122.396747782926,12.05356,-1,-1,10,65,-9999,1425084370.376567,-31.38431549072266,-9.593963623046875,-11.06282806396484,46.61919784545898,32.845947265625,10,136216.9501195417,-0.4129486083984375,-0.6350860595703125,-0.2904205322265625,136216.9456049583,-0.3154162773934967,-0.6370185453670295,-0.006593720542927186,136216.9456049583,-2.068827006497287,-1.240675990506837,0.8180414674901229,-0.3241906762123108,-0.6257351040840149,0.02955126389861107,0.2283105254173279,0.08935112506151199,-0.05384118109941483,XTrueNorthZVertical,-0.2930803355839369,-0.5507255923028362,-0.7598637770982762,0.1827904648138889,-0.6467370390892029,-0.7298082709312439,-0.2216104716062546,-29.69176483154297,-10.31942272186279,-11.11997222900391,2,10.3.35.51,10.83.46.32,1,0
2015-02-27 16:46:10.403,28,1425084367.990496,37.78774548283461,-122.396747782926,12.05356,-1,-1,10,65,-9999,1425084370.376567,-31.38431549072266,-9.593963623046875,-11.06282806396484,46.61919784545898,32.845947265625,10,136216.9991579167,-0.570404052734375,-0.6416015625,-0.1424407958984375,136216.9456049583,-0.3154162773934967,-0.6370185453670295,-0.006593720542927186,136216.9456049583,-2.068827006497287,-1.240675990506837,0.8180414674901229,-0.3241906762123108,-0.6257351040840149,0.02955126389861107,0.2283105254173279,0.08935112506151199,-0.05384118109941483,XTrueNorthZVertical,-0.2930803355839369,-0.5507255923028362,-0.7598637770982762,0.1827904648138889,-0.6467370390892029,-0.7298082709312439,-0.2216104716062546,-29.69176483154297,-10.31942272186279,-11.11997222900391,2,10.3.35.51,10.83.46.32,1,0
2015-02-27 16:46:10.501,29,1425084367.990496,37.78774548283461,-122.396747782926,12.05356,-1,-1,10,65,-9999,1425084370.481359,-31.92994689941406,-9.55999755859375,-8.566299438476562,50.94684982299805,37.17359924316406,10,136217.04821425,-0.837554931640625,-0.783050537109375,0.0330352783203125,136217.0491649583,-1.114585380471636,-1.569846643550174,-0.7522327530782555,136216.9973848333,-2.094408911587136,-1.276282295242375,0.8161537889395181,-0.43716961145401,-1.439711928367615,-0.08669741451740265,0.1685338169336319,0.1297920942306519,-0.03314812481403351,XTrueNorthZVertical,-0.3141619784193399,-0.5494351637189601,-0.7566792305885951,0.163889807727194,-0.6555333137512207,-0.7285164594650269,-0.1988465040922165,-30.29276466369629,-10.03469753265381,-9.664285659790039,2,10.3.35.51,10.83.46.32,1,0
2015-02-27 16:46:10.504,30,1425084367.990496,37.78774548283461,-122.396747782926,12.05356,-1,-1,10,65,-9999,1425084370.481359,-31.92994689941406,-9.55999755859375,-8.566299438476562,50.94684982299805,37.17359924316406,10,136217.0972469167,-0.5610504150390625,-0.5561676025390625,-0.0498504638671875,136217.100944875,-0.9831352111747417,-0.3225820449385729,-0.2212791254974848,136217.0491649583,-2.166095295254067,-1.310788593732085,0.8220864156048479,-1.123359203338623,-1.558563590049744,-0.7160881757736206,-0.1797401010990143,-0.05048290267586708,0.2080336362123489,XTrueNorthZVertical,-0.34510030335161,-0.5416701937875296,-0.7561465627348249,0.1254656620329071,-0.6578148603439331,-0.7325676083564758,-0.1749983578920364,-30.84037017822266,-10.09665012359619,-7.659910202026367,2,10.3.35.51,10.83.46.32,1,0
2015-02-27 16:46:10.564,31,1425084367.990496,37.78774548283461,-122.396747782926,12.05356,-1,-1,10,65,-9999,1425084370.532676,-31.72532653808594,-9.933807373046875,-6.768791198730469,57.43759155273438,43.66434097290039,10,136217.1463107083,-0.6253204345703125,-0.9506683349609375,0.028900146484375,136217.100944875,-0.9831352111747417,-0.3225820449385729,-0.2212791254974848,136217.100944875,-2.247284440671045,-1.286575419405436,0.8282759159150316,-0.9919089674949646,-0.311299055814743,-0.1851349323987961,0.08796994388103485,0.1805991232395172,0.1397477388381958,XTrueNorthZVertical,-0.3559116816223138,-0.5277573037223608,-0.764840299867968,0.09908831337042796,-0.6490203738212585,-0.7367667555809021,-0.1895982027053833,-30.92004776000977,-10.4546480178833,-6.811457633972168,2,10.3.35.51,10.83.46.32,1,0
2015-02-27 16:46:10.601,32,1425084367.990496,37.78774548283461,-122.396747782926,12.05356,-1,-1,10,65,-9999,1425084370.585375,-31.77647399902344,-10.46051025390625,-6.11968994140625,61.53956985473633,47.76631927490234,10,136217.1953471667,-0.6568756103515625,-0.953582763671875,-0.183685302734375,136217.152724875,-1.317971525553205,-0.6221858033597242,-0.4858905450916489,136217.152724875,-2.339024300235855,-1.24430140768621,0.8225712381290019,-1.32668673992157,-0.611003041267395,-0.4497644305229187,0.01907792501151562,-0.2177707701921463,0.2471019625663757,XTrueNorthZVertical,-0.3648510653781957,-0.5077231452462783,-0.7766946719409654,0.07646155470808287,-0.6443983316421509,-0.7328975796699524,-0.2182018160820007,-30.95415878295898,-10.49398994445801,-6.592517375946045,2,10.3.35.51,10.83.46.32,1,0
2015-02-27 16:46:10.697,33,1425084367.990496,37.78774548283461,-122.396747782926,12.05356,-1,-1,10,65,-9999,1425084370.688116,-31.06034088134766,-10.63040161132812,-5.48724365234375,69.0142822265625,55.24102783203125,10,136217.2443985833,-0.6561737060546875,-0.83038330078125,-0.06805419921875,136217.2562849167,-1.107373007607483,-0.293275555038905,-0.2450369192659727,136217.2045049584,-2.412836858097452,-1.221701587779991,0.8234103165706892,-0.6609289646148682,-0.8055220246315002,-0.2307640165090561,-0.01815080270171165,-0.220114603638649,0.04881241172552109,XTrueNorthZVertical,-0.3743075885788647,-0.4936040638790284,-0.7832190475576125,0.05307405857449281,-0.6387248039245605,-0.7334681749343872,-0.2324977219104767,-30.9413948059082,-10.73014640808105,-6.264113426208496,2,10.3.35.51,10.83.46.32,1,0
2015-02-27 16:46:10.699,34,1425084367.990496,37.78774548283461,-122.396747782926,12.05356,-1,-1,10,65,-9999,1425084370.688116,-31.06034088134766,-10.63040161132812,-5.48724365234375,69.0142822265625,55.24102783203125,10,136217.293436625,-0.641082763671875,-1.0093994140625,-0.1789093017578125,136217.2562849167,-1.107373007607483,-0.293275555038905,-0.2450369192659727,136217.2562849167,-2.476760323553153,-1.203256011732622,0.8207779194079794,-1.116086483001709,-0.2820932269096375,-0.2089112251996994,0.01631545834243298,-0.08488251268863678,0.1833933740854263,XTrueNorthZVertical,-0.3832442440208746,-0.4802684845390613,-0.7882645271758617,0.03324368023965079,-0.6361274719238281,-0.7316763401031494,-0.2449320703744888,-31.00539398193359,-10.82737636566162,-5.760080337524414,2,10.3.35.51,10.83.46.32,1,0
2015-02-27 16:46:10.763,35,1425084367.990496,37.78774548283461,-122.396747782926,12.05356,-1,-1,10,65,-9999,1425084370.740958,-30.83866882324219,-10.851318359375,-4.871421813964844,73.84100341796875,60.06775283813477,10,136217.342504875,-0.8850860595703125,-1.079421997070312,-0.096160888671875,136217.308065125,-1.49006659309078,-0.9713906707674922,-0.2211150747743359,136217.308065125,-2.574258102765221,-1.160362147592395,0.8000369422172093,-1.498779892921448,-0.9602084755897522,-0.1849897354841232,-0.05225119367241859,-0.3615976572036743,0.1271780431270599,XTrueNorthZVertical,-0.3935619751582911,-0.4540029155273996,-0.7992977628581508,0.0106529614811969,-0.6388193368911743,-0.7173818349838257,-0.2779806554317474,-31.0637321472168,-10.72873306274414,-5.628854751586914,2,10.3.35.51,10.83.46.32,1,0
2015-02-27 16:46:10.801,36,1425084367.990496,37.78774548283461,-122.396747782926,12.05356,-1,-1,10,65,-9999,1425084370.740958,-30.83866882324219,-10.851318359375,-4.871421813964844,73.84100341796875,60.06775283813477,10,136217.3915380417,-0.806854248046875,-0.8580780029296875,-0.207000732421875,136217.359845,-1.517805812688936,-0.4484773928337797,-0.1682129776165659,136217.359845,-2.676808578198614,-1.130074395368272,0.7794073224053372,-1.526519179344177,-0.4372952580451965,-0.1320879757404327,-0.2227457463741302,-0.3285293877124786,0.1684079021215439,XTrueNorthZVertical,-0.4080889415652486,-0.4263089504854153,-0.8070929768060893,-0.01803042414096788,-0.6433583498001099,-0.7028579711914062,-0.3034482002258301,-31.17972183227539,-10.69475650787354,-5.019195079803467,2,10.3.35.51,10.83.46.32,1,0
2015-02-27 16:46:10.867,37,1425084367.990496,37.78774548283461,-122.396747782926,12.05356,-1,-1,10,65,-9999,1425084370.843946,-31.04328918457031,-10.71539306640625,-5.037864685058594,80.43407440185547,66.66082000732422,10,136217.44059825,-0.8558197021484375,-0.9424591064453125,-0.16070556640625,136217.4116250833,-1.784974665877903,-0.3031007552485343,0.2163538753774923,136217.4116250833,-2.776991073816708,-1.0741840614324,0.7380025502619086,-1.79368793964386,-0.2919187843799591,0.2524784803390503,-0.1942350566387177,-0.1383609771728516,0.1706909984350204,XTrueNorthZVertical,-0.4131099628523799,-0.3912774586514409,-0.8215422741840601,-0.03620049126870949,-0.6504456996917725,-0.6728115081787109,-0.3524842262268066,-31.20896530151367,-10.52536392211914,-5.192533016204834,2,10.3.35.51,10.83.46.32,1,0
2015-02-27 16:46:10.904,38,1425084367.990496,37.78774548283461,-122.396747782926,12.05356,-1,-1,10,65,-9999,1425084370.843946,-31.04328918457031,-10.71539306640625,-5.037864685058594,80.43407440185547,66.66082000732422,10,136217.4896358333,-0.90020751953125,-0.87347412109375,-0.1955413818359375,136217.463405125,-2.016004423074495,0.1330158417017517,0.3525439387825094,136217.463405125,-2.874480003627668,-1.013602150446917,0.6747760312021979,-2.024717569351196,0.1441977173089981,0.3886682093143463,-0.2388125509023666,-0.3780393898487091,0.2206564843654633,XTrueNorthZVertical,-0.4154010764468684,-0.3478265866315358,-0.839058933826954,-0.04938412478165788,-0.6627377271652222,-0.624722421169281,-0.4129172265529633,-31.46759796142578,-9.11382007598877,-6.202720165252686,2,10.3.35.51,10.83.46.32,1,0
2015-02-27 16:46:10.968,39,1425084367.990496,37.78774548283461,-122.396747782926,12.05356,-1,-1,10,65,-9999,1425084370.947371,-31.26494598388672,-8.62548828125,-7.484481811523438,81.78202819824219,68.00877380371094,10,136217.53869225,-0.8392791748046875,-0.90789794921875,-0.23516845703125,136217.5151853334,-2.143066501843266,0.639557336834202,0.5002247433428914,136217.5151853334,-2.967577767108899,-0.9385472044431215,0.5983708965025293,-2.151779413223267,0.6507391333580017,0.5363487005233765,-0.1501258611679077,-0.286052793264389,0.3102442622184753,XTrueNorthZVertical,-0.4076703399420809,-0.2994377734860213,-0.8606351977573449,-0.0587285707186521,-0.6665397882461548,-0.5632971525192261,-0.4882838129997253,-31.52602195739746,-7.90379810333252,-7.442110538482666,2,10.3.35.51,10.83.46.32,1,0
2015-02-27 16:46:11.007,40,1425084367.990496,37.78774548283461,-122.396747782926,12.05356,-1,-1,10,65,-9999,1425084370.947371,-31.26494598388672,-8.62548828125,-7.484481811523438,81.78202819824219,68.00877380371094,10,136217.5877190833,-0.9455108642578125,-0.5873260498046875,-0.3199920654296875,136217.5669652083,-2.054417592321689,0.9910059174603618,0.371319224467568,136217.5669652083,-3.046521114794393,-0.8594493702415638,0.5077467687411782,-2.063130617141724,1.002187609672546,0.4074428081512451,-0.3814140856266022,-0.1335567235946655,0.2343408912420273,XTrueNorthZVertical,-0.3919617061356419,-0.2472246159657938,-0.8839197611389185,-0.06270519075927454,-0.6619208455085754,-0.486209511756897,-0.5704920291900635,-31.49709510803223,-6.823670387268066,-8.550764083862305,2,10.3.35.51,10.83.46.32,1,0
2015-02-27 16:46:11.051,41,1425084367.990496,37.78774548283461,-122.396747782926,12.05356,-1,-1,10,65,-9999,1425084371.001713,-31.45249176025391,-6.977386474609375,-9.2320556640625,83.64006805419922,69.86681365966797,10,136217.6368471667,-0.8518218994140625,-0.6317901611328125,-0.4452056884765625,136217.61874525,-1.937935719931585,1.606908524860262,0.2087763831278898,136217.61874525,-3.115482036356647,-0.7538993791965339,0.4277722457837116,-1.946648597717285,1.618090152740479,0.2448995560407639,-0.2174466252326965,-0.0765187069773674,0.2887617349624634,XTrueNorthZVertical,-0.3570914710351941,-0.20203574285114,-0.9095475662135621,-0.06626114710546308,-0.622809112071991,-0.414844810962677,-0.6633344888687134,-30.72470283508301,-4.28498363494873,-12.22197437286377,2,10.3.35.51,10.83.46.32,1,0
2015-02-27 16:46:11.104,42,1425084367.990496,37.78774548283461,-122.396747782926,12.05356,-1,-1,10,65,-9999,1425084371.076435,-30.73635864257812,-4.904510498046875,-13.29307556152344,85.60881042480469,71.83555603027344,10,136217.6858365833,-1.159317016601562,-0.0059661865234375,-0.48419189453125,136217.6705253333,-1.234809526825519,2.02135311580781,-0.6494089023386231,136217.61874525,-3.115482036356647,-0.7538993791965339,0.4277722457837116,-1.946648597717285,1.618090152740479,0.2448995560407639,-0.2174466252326965,-0.0765187069773674,0.2887617349624634,XTrueNorthZVertical,-0.3570914710351941,-0.20203574285114,-0.9095475662135621,-0.06626114710546308,-0.622809112071991,-0.414844810962677,-0.6633344888687134,-30.72470283508301,-4.28498363494873,-12.22197437286377,2,10.3.35.51,10.83.46.32,1,0
2015-02-27 16:46:11.148,43,1425084367.990496,37.78774548283461,-122.396747782926,12.05356,-1,-1,10,65,-9999,1425084371.129247,-29.08243560791016,-4.105926513671875,-16.37214660644531,85.17798614501953,71.40473175048828,10,136217.7350126667,-0.423187255859375,-0.1433868408203125,-1.052520751953125,136217.7223053333,-1.089231021629645,2.324023237908079,-0.5557844089524515,136217.7223053333,3.032910531040443,-0.4856628825326796,0.3302505713845154,-1.097943663597107,2.335204601287842,-0.5196619033813477,0.04178936034440994,0.1700289696455002,-0.2533597052097321,XTrueNorthZVertical,-0.2454971880722286,-0.1464354311147265,-0.9538978654357766,-0.09146984408087415,-0.4415696263313293,-0.3242800831794739,-0.8365755677223206,-28.54143142700195,-3.1300048828125,-16.95095443725586,2,10.3.35.51,10.83.46.32,1,0
2015-02-27 16:46:11.201,44,1425084367.990496,37.78774548283461,-122.396747782926,12.05356,-1,-1,10,65,-9999,1425084371.180289,-27.18981170654297,-3.78314208984375,-20.01709747314453,87.95330047607422,74.18004608154297,10,136217.7839383333,-0.2374267578125,-0.2139739990234375,-0.61871337890625,136217.7740854167,-0.6808520463808617,2.423209476914772,-0.5357806070565393,136217.7223053333,3.032910531040443,-0.4856628825326796,0.3302505713845154,-1.097943663597107,2.335204601287842,-0.5196619033813477,0.04178936034440994,0.1700289696455002,-0.2533597052097321,XTrueNorthZVertical,-0.2454971880722286,-0.1464354311147265,-0.9538978654357766,-0.09146984408087415,-0.4415696263313293,-0.3242800831794739,-0.8365755677223206,-28.54143142700195,-3.1300048828125,-16.95095443725586,2,10.3.35.51,10.83.46.32,1,0
2015-02-27 16:46:11.247,45,1425084367.990496,37.78774548283461,-122.396747782926,12.05356,-1,-1,10,65,-9999,1425084371.232538,-24.39348602294922,-3.7491455078125,-23.44566345214844,89.03965759277344,75.26640319824219,10,136217.8331010833,0.2342681884765625,0.1636199951171875,-0.91973876953125,136217.8258656667,-0.3904910548389395,2.026417649252814,0.353203071152304,136217.8258656667,2.988220035761796,-0.2373751098494521,0.278616562948302,-0.3992035686969757,2.037598848342896,0.3893247842788696,0.4823858141899109,0.4661726653575897,-0.03883559629321098,XTrueNorthZVertical,-0.1274805959520638,-0.1284924393291846,-0.9791957203906184,-0.09172898536382984,-0.2260839492082596,-0.2750258147716522,-0.9344767928123474,-22.18898391723633,-2.29065465927124,-24.78198623657227,2,10.3.35.51,10.83.46.32,1,0
2015-02-27 16:46:11.297,46,1425084367.990496,37.78774548283461,-122.396747782926,12.05356,-1,-1,10,65,-9999,1425084371.288572,-21.73356628417969,-3.613250732421875,-26.54135894775391,88.03743743896484,74.26418304443359,10,136217.8820139167,0.0806427001953125,-0.2305450439453125,-0.7158050537109375,136217.8776455833,-0.0848371270533462,1.261222492200816,0.4539267530562999,136217.8258656667,2.988220035761796,-0.2373751098494521,0.278616562948302,-0.3992035686969757,2.037598848342896,0.3893247842788696,0.4823858141899109,0.4661726653575897,-0.03883559629321098,XTrueNorthZVertical,-0.1274805959520638,-0.1284924393291846,-0.9791957203906184,-0.09172898536382984,-0.2260839492082596,-0.2750258147716522,-0.9344767928123474,-22.18898391723633,-2.29065465927124,-24.78198623657227,2,10.3.35.51,10.83.46.32,1,0
2015-02-27 16:46:11.345,47,1425084367.990496,37.78774548283461,-122.396747782926,12.05356,-1,-1,10,65,-9999,1425084371.288572,-21.73356628417969,-3.613250732421875,-26.54135894775391,88.03743743896484,74.26418304443359,10,136217.9311740834,0.064727783203125,-0.119842529296875,-0.80364990234375,136217.92942575,0.1067980860343576,1.645182144466336,0.359488397641,136217.8776455833,3.008708124229222,-0.1773296730976044,0.2620005637564642,-0.09354957193136215,1.272403478622437,0.4900481402873993,0.2669089138507843,0.07798308879137039,0.2127358168363571,XTrueNorthZVertical,-0.09623492063961431,-0.123997028884002,-0.9845903380188002,-0.07710718548675653,-0.1703818291425705,-0.2590133547782898,-0.9507271647453308,-20.89646530151367,-1.745694637298584,-25.92364311218262,2,10.3.35.51,10.83.46.32,1,0
2015-02-27 16:46:11.397,48,1425084367.990496,37.78774548283461,-122.396747782926,12.05356,-1,-1,10,65,-9999,1425084371.36116,-18.15290069580078,-3.375396728515625,-28.3388671875,86.37757873535156,72.60432434082031,10,136217.9800959167,0.1118927001953125,-0.0490570068359375,-0.807037353515625,136217.92942575,0.1067980860343576,1.645182144466336,0.359488397641,136217.92942575,3.033363970227853,-0.1058479033869744,0.2603884469324749,0.09808572381734848,1.656363010406494,0.395609438419342,0.1420821845531464,0.1252080053091049,0.1639307588338852,XTrueNorthZVertical,-0.05938699250709131,-0.1266181701651397,-0.9883275753396917,-0.06041277037512607,-0.1020888984203339,-0.2574559152126312,-0.9608820676803589,-18.11311149597168,-0.9362897872924805,-27.97826957702637,2,10.3.35.51,10.83.46.32,1,0
2015-02-27 16:46:11.443,49,1425084367.990496,37.78774548283461,-122.396747782926,12.05356,-1,-1,10,65,-9999,1425084371.41407,-16.20911407470703,-2.899627685546875,-28.77161407470703,84.74228668212891,70.96903228759766,10,136218.0291467917,-0.23187255859375,-0.1265716552734375,-0.5176849365234375,136218.0329859583,0.4322337080809505,0.7805938207909453,-0.3299539411520213,136217.9812057083,3.050803276116155,-0.05598018499092857,0.2581123214587537,-0.04580024629831314,0.2765011191368103,0.2949250340461731,0.1659901887178421,0.2061988562345505,0.1583216041326523,XTrueNorthZVertical,-0.0335630268580477,-0.1272558283510698,-0.9901107630373145,-0.04858219007736507,-0.0540974959731102,-0.2552558481693268,-0.9653589725494385,-16.44868469238281,-0.666107177734375,-28.99555206298828,2,10.3.35.51,10.83.46.32,1,0
2015-02-27 16:46:11.497,50,1425084367.990496,37.78774548283461,-122.396747782926,12.05356,-1,-1,10,65,-9999,1425084371.465296,-14.58929443359375,-3.188446044921875,-29.42070770263672,83.50685882568359,69.73360443115234,10,136218.0781750417,-0.14630126953125,-0.2147979736328125,-0.888671875,136218.0329859583,0.4322337080809505,0.7805938207909453,-0.3299539411520213,136218.0329859583,3.048217410354433,-0.04486260823113098,0.2706569423370093,0.4235215187072754,0.7917744517326355,-0.2938336730003357,-0.1886576563119888,0.1407928615808487,0.444940984249115,XTrueNorthZVertical,-0.02849515963951735,-0.1336976382259138,-0.989387172020238,-0.04925511291190518,-0.04321490600705147,-0.2673645317554474,-0.9626259207725525,-16.35675048828125,-0.5958461761474609,-29.04903984069824,2,10.3.35.51,10.83.46.32,1,0
2015-02-27 16:46:11.541,51,1425084367.990496,37.78774548283461,-122.396747782926,12.05356,-1,-1,10,65,-9999,1425084371.51706,-12.78192138671875,-4.309814453125,-29.62042236328125,84.1412353515625,70.36798095703125,10,136218.1273662084,-0.277191162109375,-0.53570556640625,-0.9446258544921875,136218.0847659167,0.8020636928669461,0.9733353109954681,-0.1483324800791244,136218.0847659167,3.041363477857066,0.01318896699560172,0.2995835058027704,0.7933515906333923,0.984515905380249,-0.1122125238180161,-0.1589024215936661,0.08032431453466415,0.06670451909303665,XTrueNorthZVertical,-0.0009630132483576131,-0.1493682568940958,-0.9875886246494261,-0.04854873630894457,0.0126011585816741,-0.2951222956180573,-0.9553763866424561,-14.50997734069824,-1.843684196472168,-29.96341705322266,2,10.3.35.51,10.83.46.32,1,0
2015-02-27 16:46:11.592,52,1425084367.990496,37.78774548283461,-122.396747782926,12.05356,-1,-1,10,65,-9999,1425084371.568804,-9.695732116699219,-6.671539306640625,-29.87007141113281,85.31807708740234,71.54482269287109,10,136218.1762620833,0.313873291015625,-0.389373779296875,-0.983123779296875,136218.136546125,1.770087062752142,2.681094550543723,-0.7057062635701352,136218.136546125,3.009411389018012,0.1071899824563686,0.3705648161686885,1.761357069015503,2.692218780517578,-0.6696171164512634,-0.3769141733646393,-0.1735635995864868,-0.01785267516970634,XTrueNorthZVertical,0.040388348527187,-0.1870352691877059,-0.9799820259592235,-0.05497174798223277,0.09972302615642548,-0.3621419668197632,-0.9267731904983521,-12.55519390106201,-3.900425910949707,-30.64145469665527,2,10.3.35.51,10.83.46.32,1,0
2015-02-27 16:46:11.639,53,1425084367.990496,37.78774548283461,-122.396747782926,12.05356,-1,-1,10,65,-9999,1425084371.62042,-5.501251220703125,-9.2880859375,-29.77021026611328,85.4036865234375,71.63043212890625,10,136218.2253027083,0.49169921875,-0.2344970703125,-0.886688232421875,136218.1883260833,1.282444690295439,2.537486784554508,-0.2400554764469795,136218.1883260833,2.972281543034559,0.2655188971001086,0.4446003604155827,1.273714780807495,2.548610925674438,-0.2039667218923569,0.1889888495206833,0.08872749656438828,0.1549441516399384,XTrueNorthZVertical,0.110172193242077,-0.2286681401266829,-0.9658152349014686,-0.05266855281562754,0.2368992120027542,-0.4300971329212189,-0.8711459636688232,-9.81156063079834,-5.71007251739502,-31.35081100463867,2,10.3.35.51,10.83.46.32,1,0
2015-02-27 16:46:11.697,54,1425084367.990496,37.78774548283461,-122.396747782926,12.05356,-1,-1,10,65,-9999,1425084371.672561,-1.545463562011719,-11.1910400390625,-29.03788757324219,85.72340393066406,71.95014953613281,10,136218.27432725,0.648101806640625,-0.6690673828125,-0.5153350830078125,136218.2401062917,0.7757242307377354,1.828508561269101,-0.5013632447089003,136218.2401062917,2.950692707648859,0.380616122634051,0.4808201432168527,0.7669944167137146,1.839632391929626,-0.465274840593338,0.1509296745061874,0.1332675963640213,0.04554766044020653,XTrueNorthZVertical,0.1606023656759777,-0.2502475694785686,-0.9536570241259784,-0.04605854253848383,0.3293712139129639,-0.4625064730644226,-0.8231660723686218,-4.004365921020508,-8.394186019897461,-32.01948928833008,2,10.3.35.51,10.83.46.32,1,0
2015-02-27 16:46:11.737,55,1425084367.990496,37.78774548283461,-122.396747782926,12.05356,-1,-1,10,65,-9999,1425084371.724765,2.649032592773438,-12.176513671875,-27.73969268798828,85.78279876708984,72.00954437255859,10,136218.32351925,0.8203887939453125,-0.5745086669921875,-0.7926483154296875,136218.29188625,0.6443422383647474,3.246446099396175,-0.2812724216898088,136218.29188625,2.902193842687463,0.5345205528432506,0.5050620028474958,0.6356124877929688,3.257570028305054,-0.2451843470335007,0.3444901406764984,-0.215341791510582,0.1023773923516273,XTrueNorthZVertical,0.2251071738107301,-0.2697965241067026,-0.9351041773485029,-0.04600921951637005,0.4458235800266266,-0.4838617146015167,-0.7530732154846191,-0.3040781021118164,-9.656450271606445,-31.91246604919434,2,10.3.35.51,10.83.46.32,1,0
2015-02-27 16:46:11.804,56,1425084367.990496,37.78774548283461,-122.396747782926,12.05356,-1,-1,10,65,-9999,1425084371.775836,6.161491394042969,-12.61825561523438,-26.04205322265625,84.83717346191406,71.06391906738281,10,136218.372408375,0.9257049560546875,-0.5106658935546875,-0.5333709716796875,136218.3436663334,0.4346318846425668,2.009997130603603,-0.138369860757247,136218.3436663334,2.883721058822194,0.6795390219931683,0.5207373980154864,0.425902247428894,2.02112078666687,-0.1022821962833405,0.1958296597003937,-0.04253438860177994,-0.02093514613807201,XTrueNorthZVertical,0.2881552225700302,-0.2821119561377732,-0.914522684653393,-0.03205847875874568,0.5451371073722839,-0.4975199401378632,-0.6747588515281677,2.765085220336914,-10.20455741882324,-31.62224388122559,2,10.3.35.51,10.83.46.32,1,0
2015-02-27 16:46:11.836,57,1425084367.990496,37.78774548283461,-122.396747782926,12.05356,-1,-1,10,65,-9999,1425084371.828236,8.343990325927734,-12.61825561523438,-24.41098022460938,83.68197631835938,69.90872192382812,10,136218.421455375,0.8332672119140625,-0.5544281005859375,-0.53106689453125,136218.3954465,-0.04811373351780755,0.4145045120720749,-0.2122073335602389,136218.3954465,2.873940863857097,0.7405202031096694,0.5279940364256346,-0.05684328079223633,0.4256280660629272,-0.1761200278997421,0.2319024950265884,0.1312734931707382,0.08221101015806198,XTrueNorthZVertical,0.3137406959342633,-0.2876917924732312,-0.9044878294121622,-0.02649621859317185,0.5827947854995728,-0.5038015842437744,-0.6376004219055176,6.770339965820312,-10.89753532409668,-30.77582168579102,2,10.3.35.51,10.83.46.32,1,0
2015-02-27 16:46:11.896,58,1425084367.990496,37.78774548283461,-122.396747782926,12.05356,-1,-1,10,65,-9999,1425084371.879123,8.480396270751953,-12.58428955078125,-23.27922058105469,86.63580322265625,72.862548828125,10,136218.4704742917,0.74615478515625,-0.2098236083984375,-0.34228515625,136218.4472267083,-0.005571066684336759,-0.5392429827897514,-0.4658755579191584,136218.4472267083,2.855285819985915,0.7409180425499292,0.5073529729385033,-0.01430053636431694,-0.5281195044517517,-0.4297885894775391,0.2107012718915939,-0.1560566425323486,0.2736892700195312,XTrueNorthZVertical,0.3134968491982752,-0.2815442832903837,-0.9060613491061628,-0.03880011135829956,0.5899426341056824,-0.4858653545379639,-0.6449050903320312,6.953719139099121,-10.60709285736084,-30.83634757995605,2,10.3.35.51,10.83.46.32,1,0
2015-02-27 16:46:11.933,59,1425084367.990496,37.78774548283461,-122.396747782926,12.05356,-1,-1,10,65,-9999,1425084371.879123,8.480396270751953,-12.58428955078125,-23.27922058105469,86.63580322265625,72.862548828125,10,136218.5195278334,0.6944122314453125,-0.425811767578125,-0.2005615234375,136218.4990067083,0.4389019971343999,0.05373992763670895,-0.7385172071482384,136218.4990067083,2.835153043721574,0.732416795097051,0.5039897743204135,0.4301726222038269,0.06486328691244125,-0.7024306058883667,0.07450593262910843,0.3654151260852814,0.350494921207428,XTrueNorthZVertical,0.3071754870133522,-0.2830001116845498,-0.9072363109217738,-0.0497645255772759,0.5855282545089722,-0.4829230606555939,-0.6511083245277405,6.592476844787598,-10.56224346160889,-30.93094062805176,2,10.3.35.51,10.83.46.32,1,0
2015-02-27 16:46:12.003,60,1425084367.990496,37.78774548283461,-122.396747782926,12.05356,-1,-1,10,65,-9999,1425084371.987883,8.326930999755859,-12.29541015625,-21.73137664794922,93.20050811767578,79.42725372314453,10,136218.568555,0.9845733642578125,-0.4042510986328125,-0.4586944580078125,136218.5507867917,0.2737990590388285,1.3000758819762,-1.154995121588062,136218.4990067083,2.835153043721574,0.732416795097051,0.5039897743204135,0.4301726222038269,0.06486328691244125,-0.7024306058883667,0.07450593262910843,0.3654151260852814,0.350494921207428,XTrueNorthZVertical,0.3071754870133522,-0.2830001116845498,-0.9072363109217738,-0.0497645255772759,0.5855282545089722,-0.4829230606555939,-0.6511083245277405,6.592476844787598,-10.56224346160889,-30.93094062805176,2,10.3.35.51,10.83.46.32,4,0
2015-02-27 16:46:12.031,61,1425084367.990496,37.78774548283461,-122.396747782926,12.05356,-1,-1,10,65,-9999,1425084371.987883,8.326930999755859,-12.29541015625,-21.73137664794922,93.20050811767578,79.42725372314453,10,136218.6177236667,0.8304290771484375,-0.4410400390625,-0.3365325927734375,136218.6025669583,0.776516787478143,0.005890379699037259,-1.433921298357511,136218.6025669583,2.708973895349368,0.8699235992713196,0.4488970311277872,0.7677875757217407,0.01701350882649422,-1.397835493087769,0.1647728383541107,-0.05556036531925201,0.2093660235404968,XTrueNorthZVertical,0.3579118506303446,-0.285310693142029,-0.8836637298554967,-0.09816008858638615,0.6885597109794617,-0.4339720904827118,-0.5809938311576843,9.991147994995117,-10.98031139373779,-29.85556221008301,2,10.3.35.51,10.83.46.32,4,0
2015-02-27 16:46:12.105,62,1425084367.990496,37.78774548283461,-122.396747782926,12.05356,-1,-1,10,65,-9999,1425084372.0607,9.963802337646484,-12.39736938476562,-21.36521911621094,98.10707092285156,84.33381652832031,10,136218.6666461667,0.5399627685546875,-0.4592132568359375,-0.439697265625,136218.654347,0.321139676892186,0.3299920243556094,-1.764213460967972,136218.654347,2.633627250292589,0.9109528852649872,0.406309155731665,0.3124105334281921,0.3411150574684143,-1.728127956390381,-0.1493935883045197,0.05629344657063484,0.1269295960664749,XTrueNorthZVertical,0.371495953838181,-0.2836324099584386,-0.873665569029996,-0.1350998175082371,0.7257637977600098,-0.3952216804027557,-0.5630868077278137,10.50620079040527,-11.16287422180176,-29.61004829406738,2,10.3.35.51,10.83.46.32,4,0
2015-02-27 16:46:12.129,63,1425084367.990496,37.78774548283461,-122.396747782926,12.05356,-1,-1,10,65,-9999,1425084372.112919,11.17440032958984,-12.31240844726562,-21.08228302001953,104.3898773193359,90.61662292480469,10,136218.7158177083,0.7845306396484375,-0.286834716796875,-0.4666595458984375,136218.7061273333,0.2875415028958553,1.230946877980468,-1.471309416901134,136218.654347,2.633627250292589,0.9109528852649872,0.406309155731665,0.3124105334281921,0.3411150574684143,-1.728127956390381,-0.1493935883045197,0.05629344657063484,0.1269295960664749,XTrueNorthZVertical,0.371495953838181,-0.2836324099584386,-0.873665569029996,-0.1350998175082371,0.7257637977600098,-0.3952216804027557,-0.5630868077278137,10.50620079040527,-11.16287422180176,-29.61004829406738,2,10.3.35.51,10.83.46.32,4,0
2015-02-27 16:46:12.193,64,1425084367.990496,37.78774548283461,-122.396747782926,12.05356,-1,-1,10,65,-9999,1425084372.168555,12.12924194335938,-11.836669921875,-21.14886474609375,108.3617401123047,94.58848571777344,10,136218.7647473333,0.7858123779296875,-0.3970489501953125,-0.53094482421875,136218.75790725,-0.7587915862109027,0.9003809424099465,-0.6745624588344216,136218.7061273333,2.566694138197081,0.9754748374757837,0.3435578298354768,0.2788124978542328,1.242069840431213,-1.435224294662476,-0.0628935918211937,-0.04516464844346046,0.06662453711032867,XTrueNorthZVertical,0.3999758408986468,-0.2757119104341902,-0.857392119785124,-0.1699443937550125,0.7795836329460144,-0.3368391394615173,-0.52800452709198,13.1251277923584,-10.40596580505371,-28.83039855957031,2,10.3.35.51,10.83.46.32,4,0
2015-02-27 16:46:12.227,65,1425084367.990496,37.78774548283461,-122.396747782926,12.05356,-1,-1,10,65,-9999,1425084372.168555,12.12924194335938,-11.836669921875,-21.14886474609375,108.3617401123047,94.58848571777344,10,136218.8139147917,0.913238525390625,0.034881591796875,-0.2990264892578125,136218.8096875417,-0.6981844313873153,-0.356528560405486,-0.5340751186944526,136218.8096875417,2.574989722189211,1.045129077687158,0.2578760721774853,-0.7069132924079895,-0.3454058468341827,-0.4979906976222992,0.1095659136772156,0.1530987173318863,0.1617269366979599,XTrueNorthZVertical,0.4440856054207361,-0.2453344032833485,-0.8430321595897621,-0.1785941164130614,0.8363874554634094,-0.2550274431705475,-0.4851980209350586,15.92923450469971,-8.742191314697266,-27.95672607421875,2,10.3.35.51,10.83.46.32,4,0
2015-02-27 16:46:12.290,66,1425084367.990496,37.78774548283461,-122.396747782926,12.05356,-1,-1,10,65,-9999,1425084372.242392,12.77716827392578,-10.68130493164062,-22.24732971191406,108.7546539306641,94.98139953613281,10,136218.86284775,0.8748931884765625,-0.2112274169921875,-0.253631591796875,136218.8096875417,-0.6981844313873153,-0.356528560405486,-0.5340751186944526,136218.8096875417,2.574989722189211,1.045129077687158,0.2578760721774853,-0.7069132924079895,-0.3454058468341827,-0.4979906976222992,0.1095659136772156,0.1530987173318863,0.1617269366979599,XTrueNorthZVertical,0.4440856054207361,-0.2453344032833485,-0.8430321595897621,-0.1785941164130614,0.8363874554634094,-0.2550274431705475,-0.4851980209350586,15.92923450469971,-8.742191314697266,-27.95672607421875,2,10.3.35.51,10.83.46.32,4,0
2015-02-27 16:46:12.325,67,1425084367.990496,37.78774548283461,-122.396747782926,12.05356,-1,-1,10,65,-9999,1425084372.29445,12.72602081298828,-8.761383056640625,-23.6953125,108.6883850097656,94.91513061523438,10,136218.9119334167,0.7279815673828125,0.0612640380859375,-0.321044921875,136218.9132478333,-1.050928639883799,1.444399239350319,-0.9764493452580977,136218.8614675833,2.587863477721642,1.030386903640924,0.2058938126539624,-0.7516918182373047,0.09357485175132751,-1.039865732192993,0.05213864892721176,0.06107059493660927,0.2368663102388382,XTrueNorthZVertical,0.4469866791252806,-0.2199833513332851,-0.8464662315280778,-0.1878968536182123,0.8393866419792175,-0.204442173242569,-0.503620445728302,15.94260215759277,-6.374632835388184,-28.58220481872559,2,10.3.35.51,10.83.46.32,4,0
2015-02-27 16:46:12.393,68,1425084367.990496,37.78774548283461,-122.396747782926,12.05356,-1,-1,10,65,-9999,1425084372.34613,13.39099884033203,-6.705474853515625,-25.11001586914062,106.8890991210938,93.1158447265625,10,136218.9609540833,1.047164916992188,-0.1426849365234375,-0.308319091796875,136218.9650277917,-0.9009210314790145,0.6269880154373551,-0.860672677924647,136218.9132478333,2.605119537828905,1.077445310367444,0.14819490642163,-1.059657216072083,1.455521702766418,-0.9403656125068665,-0.1431155800819397,0.208917111158371,0.147344246506691,XTrueNorthZVertical,0.4764948395624302,-0.1968707339317086,-0.8354642786439295,-0.1902474598983699,0.8710971474647522,-0.1476530730724335,-0.4683891534805298,17.17800331115723,-4.706061840057373,-28.1871280670166,2,10.3.35.51,10.83.46.32,4,0
2015-02-27 16:46:12.424,69,1425084367.990496,37.78774548283461,-122.396747782926,12.05356,-1,-1,10,65,-9999,1425084372.397955,15.07902908325195,-4.68359375,-26.49143981933594,107.3856964111328,93.61244201660156,10,136219.0101234167,1.07000732421875,0.0234527587890625,-0.213958740234375,136218.9650277917,-0.9009210314790145,0.6269880154373551,-0.860672677924647,136218.9650277917,2.627394359146501,1.128707400577023,0.07968803988409016,-0.9096496105194092,0.638110339641571,-0.8245893120765686,0.1461732685565948,-0.06308121234178543,0.1181517466902733,XTrueNorthZVertical,0.5083209078684847,-0.1684471327233736,-0.821931898754481,-0.194070726301329,0.900991678237915,-0.07960372418165207,-0.4264708459377289,18.46584129333496,-3.275277614593506,-27.56864547729492,2,10.3.35.51,10.83.46.32,4,0
2015-02-27 16:46:12.466,70,1425084367.990496,37.78774548283461,-122.396747782926,12.05356,-1,-1,10,65,-9999,1425084372.449691,17.4490852355957,-2.6956787109375,-26.77437591552734,106.3245010375977,92.55124664306641,10,136219.0590455,1.364791870117188,0.166229248046875,-0.2050628662109375,136219.016808125,-0.3134918771898055,0.8018157525694598,-0.5040703479569658,136219.016808125,2.643945300076475,1.157065480889724,0.04011036633144299,-0.3222203850746155,0.8129379749298096,-0.4679873287677765,0.1551164388656616,0.0635523721575737,0.1877461075782776,XTrueNorthZVertical,0.5257147864469746,-0.1509024232634227,-0.8140176119314999,-0.1955193707176241,0.9148908853530884,-0.0400996133685112,-0.4017048478126526,19.98005294799805,-0.585429310798645,-26.68707084655762,2,10.3.35.51,10.83.46.32,4,0
2015-02-27 16:46:12.521,71,1425084367.990496,37.78774548283461,-122.396747782926,12.05356,-1,-1,10,65,-9999,1425084372.502747,19.66568374633789,-0.792724609375,-26.67451477050781,103.6534271240234,89.88017272949219,10,136219.1081031667,1.014923095703125,0.1974334716796875,-0.241455078125,136219.1203684167,-0.5172061237176726,2.174505118511651,-0.5297959514549132,136219.068588125,2.655520694684963,1.21007562952179,0.04692943336994668,0.01908430084586143,1.332446575164795,0.5372181534767151,0.4301792681217194,0.213141456246376,0.1474972069263458,XTrueNorthZVertical,0.5472814516827222,-0.1555730678173946,-0.8013012457460998,-0.1849227451557119,0.9346126317977905,-0.04691220819950104,-0.3525600731372833,20.7286376953125,-0.2848004102706909,-26.11489105224609,2,10.3.35.51,10.83.46.32,4,0
2015-02-27 16:46:12.563,72,1425084367.990496,37.78774548283461,-122.396747782926,12.05356,-1,-1,10,65,-9999,1425084372.554702,22.39380645751953,0.430572509765625,-25.44289398193359,99.78055572509766,86.00730133056641,10,136219.1571325,1.128097534179688,0.156768798828125,-0.2742156982421875,136219.1203684167,-0.5172061237176726,2.174505118511651,-0.5297959514549132,136219.1203684167,2.665111903412833,1.307859960213814,0.04274515325961408,-0.5259491801261902,2.18557596206665,-0.4937362372875214,0.09363118559122086,0.3113631308078766,-0.04250534623861313,XTrueNorthZVertical,0.5869904805950844,-0.1600072492004326,-0.7741728904071195,-0.1746318027994573,0.9647489190101624,-0.04273213818669319,-0.2596797049045563,22.30339431762695,-0.6258094310760498,-24.77724456787109,2,10.3.35.51,10.83.46.32,4,0
2015-02-27 16:46:12.619,73,1425084367.990496,37.78774548283461,-122.396747782926,12.05356,-1,-1,10,65,-9999,1425084372.60474,24.1500358581543,2.996185302734375,-24.09474182128906,101.8754425048828,88.10218811035156,10,136219.206184375,1.419235229492188,0.23394775390625,-0.1334686279296875,136219.1721484167,-1.383897812022008,0.1181484786002753,-2.475052701223126,136219.1721484167,2.697122999439916,1.357753996323822,-0.0436318941051769,-1.392640829086304,0.1292193084955215,-2.438993215560913,0.2134183347225189,0.05048289895057678,-0.03254120424389839,XTrueNorthZVertical,0.616073450687874,-0.1218068077332419,-0.7559387262182357,-0.1848602770937137,0.9764620661735535,0.04361805319786072,-0.2112332135438919,24.92387771606445,2.346168994903564,-22.02364158630371,2,10.3.35.51,10.83.46.32,4,0
2015-02-27 16:46:12.664,74,1425084367.990496,37.78774548283461,-122.396747782926,12.05356,-1,-1,10,65,-9999,1425084372.656664,24.66155624389648,7.447723388671875,-22.69668579101562,104.8368377685547,91.06358337402344,10,136219.2552093334,0.8115997314453125,0.208984375,0.0314178466796875,136219.2239287084,-1.784177848079751,0.7366748323061216,-2.130325672872218,136219.2239287084,2.748601098378683,1.376216695326665,-0.1879512906562538,-1.792920708656311,0.7477455735206604,-2.094266414642334,0.4318098723888397,0.1637850552797318,0.05001063272356987,XTrueNorthZVertical,0.6342592604254454,-0.05235166974691615,-0.7426067926937309,-0.2085898357558396,0.9638504981994629,0.1868466585874557,-0.1899489909410477,24.49088096618652,6.848715782165527,-21.56471252441406,2,10.3.35.51,10.83.46.32,4,0
2015-02-27 16:46:12.718,75,1425084367.990496,37.78774548283461,-122.396747782926,12.05356,-1,-1,10,65,-9999,1425084372.709267,24.11593246459961,13.39447021484375,-21.53164672851562,107.4091033935547,93.63584899902344,10,136219.304262375,1.234664916992188,0.372955322265625,0.028472900390625,136219.2757087083,-1.689340817449267,1.205329665138887,-3.02181432040239,136219.2757087083,2.817082362819726,1.429898543513728,-0.3161178189935178,-1.698083639144897,1.216400265693665,-2.985755681991577,-0.1345428377389908,-0.3323481976985931,0.3275195956230164,XTrueNorthZVertical,0.6581045580405518,0.01271215057261251,-0.7192494569862506,-0.2222995398899729,0.9410308599472046,0.3108790814876556,-0.1334735900163651,24.4326171875,9.455596923828125,-20.62483596801758,2,10.3.35.51,10.83.46.32,4,0
2015-02-27 16:46:12.795,76,1425084367.990496,37.78774548283461,-122.396747782926,12.05356,-1,-1,10,65,-9999,1425084372.760275,23.16109466552734,19.30722045898438,-18.83539581298828,109.8818054199219,96.10855102539062,10,136219.35329925,0.6913299560546875,0.469879150390625,0.0521392822265625,136219.3274890417,-1.61168996428139,0.7997134532049512,-2.617841012544924,136219.3274890417,2.885024704826859,1.536183608809485,-0.4644578662188494,-1.620432615280151,0.8107839226722717,-2.581782817840576,0.2460582852363586,0.2871997654438019,0.03228260204195976,XTrueNorthZVertical,0.6917347131586016,0.07767350054437581,-0.6737228993344148,-0.2481278777832944,0.8935291171073914,0.4479381740093231,-0.03093982860445976,23.56705284118652,16.65082931518555,-16.70595359802246,2,10.3.35.51,10.83.46.32,4,0
2015-02-27 16:46:12.816,77,1425084367.990496,37.78774548283461,-122.396747782926,12.05356,-1,-1,10,65,-9999,1425084372.760275,23.16109466552734,19.30722045898438,-18.83539581298828,109.8818054199219,96.10855102539062,10,136219.4023575,0.811004638671875,0.485076904296875,0.174957275390625,136219.379269,-1.904143135175679,0.1477348667305106,-3.391050420265298,136219.379269,2.988741193887098,1.598145827902204,-0.6211568622725959,-1.912885785102844,0.158805251121521,-3.354992389678955,-0.2526752650737762,-0.3510192930698395,0.1278016716241837,XTrueNorthZVertical,0.6967005457027244,0.1603974756432794,-0.645345405611063,-0.2690917720364621,0.8129017353057861,0.5819762945175171,0.02223800122737885,22.18157196044922,19.44155502319336,-15.54827308654785,2,10.3.35.51,10.83.46.32,4,0
2015-02-27 16:46:12.863,78,1425084367.990496,37.78774548283461,-122.396747782926,12.05356,-1,-1,10,65,-9999,1425084372.812481,20.7398796081543,24.98208618164062,-15.50668334960938,110.4298400878906,96.65658569335938,10,136219.451389,0.71966552734375,0.5831146240234375,0.4378662109375,136219.4310493333,-2.404350035339267,-0.3025635956566653,-2.443029254379359,136219.4310493333,-3.140707028297008,1.705979571772106,-0.7491219545621884,-2.413092613220215,-0.2914933264255524,-2.40697169303894,0.1841074526309967,0.06218327954411507,0.158281534910202,XTrueNorthZVertical,0.7009195350601631,0.2409515919254744,-0.6122542761324085,-0.2753160220064319,0.7256063222885132,0.6809960603713989,0.09869173169136047,19.16568374633789,23.69656372070312,-13.52384471893311,2,10.3.35.51,10.83.46.32,4,0
2015-02-27 16:46:12.914,79,1425084367.990496,37.78774548283461,-122.396747782926,12.05356,-1,-1,10,65,-9999,1425084372.863199,17.31267166137695,29.51861572265625,-11.96160125732422,116.7534942626953,102.9802398681641,10,136219.5005675833,0.2088470458984375,0.59942626953125,0.440338134765625,136219.4828293333,-1.603690094682901,-1.188957882337625,-1.443521461455029,136219.4828293333,-2.972548153461848,1.778628320359981,-0.8235134727729106,-1.612432479858398,-1.177887797355652,-1.407464265823364,-0.420210599899292,-0.2883936166763306,0.279744952917099,XTrueNorthZVertical,0.6879028109190406,0.3113016321885508,-0.6014732093442867,-0.260980976057167,0.665022611618042,0.7335382699966431,0.1402379721403122,14.54962158203125,28.36007499694824,-9.785690307617188,2,10.3.35.51,10.83.46.32,4,0
2015-02-27 16:46:12.963,80,1425084367.990496,37.78774548283461,-122.396747782926,12.05356,-1,-1,10,65,-9999,1425084372.917885,14.03892517089844,33.12066650390625,-8.233436584472656,115.7980651855469,102.0248107910156,10,136219.5495004167,0.40740966796875,0.9715576171875,0.24761962890625,136219.534609625,-1.366221080286607,-0.5658751263227617,-0.4957876506507104,136219.4828293333,-2.972548153461848,1.778628320359981,-0.8235134727729106,-1.612432479858398,-1.177887797355652,-1.407464265823364,-0.420210599899292,-0.2883936166763306,0.279744952917099,XTrueNorthZVertical,0.6879028109190406,0.3113016321885508,-0.6014732093442867,-0.260980976057167,0.665022611618042,0.7335382699966431,0.1402379721403122,14.54962158203125,28.36007499694824,-9.785690307617188,2,10.3.35.51,10.83.46.32,4,0
2015-02-27 16:46:13.013,81,1425084367.990496,37.78774548283461,-122.396747782926,12.05356,-1,-1,10,65,-9999,1425084372.968675,12.21449661254883,35.41439819335938,-5.254241943359375,111.6154937744141,97.84223937988281,10,136219.5985809584,0.3521270751953125,0.6847076416015625,0.529388427734375,136219.586389625,-2.09581669778308,-0.3599435318712946,-0.5559447312500743,136219.586389625,-2.727249694203478,1.886543185394706,-0.8541124562098373,-2.104562997817993,-0.3488713502883911,-0.5198916792869568,-0.2361395061016083,-0.03560440614819527,0.2864668369293213,XTrueNorthZVertical,0.6710053804097572,0.389541216913943,-0.5919486938239816,-0.2181885390268804,0.6244146823883057,0.7539882063865662,0.2039811611175537,12.23965644836426,30.04331970214844,-7.702905178070068,2,10.3.35.51,10.83.46.32,4,0
2015-02-27 16:46:13.051,82,1425084367.990496,37.78774548283461,-122.396747782926,12.05356,-1,-1,10,65,-9999,1425084373.019483,11.22555541992188,36.56979370117188,-2.025382995605469,106.2944717407227,92.52121734619141,10,136219.6476046667,0.60357666015625,0.6346282958984375,0.5858917236328125,136219.63817,-1.673905934719494,0.3448793611652614,-0.4485045570768986,136219.586389625,-2.727249694203478,1.886543185394706,-0.8541124562098373,-2.104562997817993,-0.3488713502883911,-0.5198916792869568,-0.2361395061016083,-0.03560440614819527,0.2864668369293213,XTrueNorthZVertical,0.6710053804097572,0.389541216913943,-0.5919486938239816,-0.2181885390268804,0.6244146823883057,0.7539882063865662,0.2039811611175537,12.23965644836426,30.04331970214844,-7.702905178070068,2,10.3.35.51,10.83.46.32,4,0
2015-02-27 16:46:13.111,83,1425084367.990496,37.78774548283461,-122.396747782926,12.05356,-1,-1,10,65,-9999,1425084373.07097,10.56056976318359,37.09646606445312,1.086959838867188,102.9948043823242,89.22154998779297,10,136219.6966629167,0.440216064453125,0.8681793212890625,0.642791748046875,136219.6899499584,-1.188978388678018,-0.7464433071845322,0.3439046442062924,136219.6899499584,-2.476457617609733,2.080693894315734,-0.8039354312387178,-1.197746276855469,-0.7353544235229492,0.3799332678318024,-0.1063761636614799,0.1051639765501022,0.227503776550293,XTrueNorthZVertical,0.6857113203485922,0.4462474455151131,-0.5502575278968312,-0.1669728433193108,0.6056132316589355,0.7200923562049866,0.3386735916137695,10.71675300598145,31.53766822814941,-1.507257461547852,2,10.3.35.51,10.83.46.32,4,0
2015-02-27 16:46:13.152,84,1425084367.990496,37.78774548283461,-122.396747782926,12.05356,-1,-1,10,65,-9999,1425084373.122736,10.47530746459961,36.84161376953125,4.365745544433594,100.0894927978516,86.31623840332031,10,136219.7457134167,0.5393524169921875,0.6380157470703125,0.72967529296875,136219.7417302917,-0.9781503062463314,-0.2697646363034674,0.4330188079703058,136219.6899499584,-2.476457617609733,2.080693894315734,-0.8039354312387178,-1.197746276855469,-0.7353544235229492,0.3799332678318024,-0.1063761636614799,0.1051639765501022,0.227503776550293,XTrueNorthZVertical,0.6857113203485922,0.4462474455151131,-0.5502575278968312,-0.1669728433193108,0.6056132316589355,0.7200923562049866,0.3386735916137695,10.71675300598145,31.53766822814941,-1.507257461547852,2,10.3.35.51,10.83.46.32,4,0
2015-02-27 16:46:13.209,85,1425084367.990496,37.78774548283461,-122.396747782926,12.05356,-1,-1,10,65,-9999,1425084373.174261,11.17438888549805,36.5867919921875,6.246482849121094,92.36264801025391,78.58939361572266,10,136219.794758875,0.6336517333984375,0.7034912109375,0.66217041015625,136219.7935105,-0.3083447857510093,0.4479450269318729,0.3537610034006756,136219.7417302917,-2.422454861027828,2.0848546760011,-0.7589442075814431,-0.986918032169342,-0.2586758732795715,0.4690471291542053,-0.1005232632160187,-0.03550685942173004,0.4077865481376648,XTrueNorthZVertical,0.6851812620868295,0.4570687172156072,-0.5508847832273279,-0.1346879962461368,0.6317885518074036,0.6881557703018188,0.3567703366279602,11.14258480072021,31.42584800720215,-0.06326770782470703,2,10.3.35.51,10.83.46.32,4,0
2015-02-27 16:46:13.248,86,1425084367.990496,37.78774548283461,-122.396747782926,12.05356,-1,-1,10,65,-9999,1425084373.226389,12.12923431396484,36.48483276367188,7.611244201660156,88.43505859375,74.66180419921875,10,136219.843796125,0.5926666259765625,0.6465606689453125,0.71856689453125,136219.7935105,-0.3083447857510093,0.4479450269318729,0.3537610034006756,136219.7935105,-2.402320280049952,2.10932570247613,-0.7234739848160798,-0.3171130120754242,0.4590343534946442,0.3897880911827087,-0.04708380252122879,0.02887974306941032,0.2627969682216644,XTrueNorthZVertical,0.6954072354017424,0.4567396014848556,-0.5416064975877644,-0.120250530366049,0.6434277892112732,0.6619924306869507,0.3844045698642731,12.20267581939697,30.97919845581055,1.768891334533691,2,10.3.35.51,10.83.46.32,4,0
2015-02-27 16:46:13.306,87,1425084367.990496,37.78774548283461,-122.396747782926,12.05356,-1,-1,10,65,-9999,1425084373.27805,12.72601318359375,36.26394653320312,7.794326782226562,88.52138519287109,74.74813079833984,10,136219.8928405,0.6266326904296875,0.6367950439453125,0.926605224609375,136219.8970707917,1.053090061424507,0.5744393197562385,0.6637127405534388,136219.845290625,-2.418023276954258,2.124022688883185,-0.7063239613504356,0.3859714567661285,0.5749773383140564,0.4944648742675781,-0.05460771545767784,-0.002480936702340841,0.3188405632972717,XTrueNorthZVertical,0.7067614873838776,0.4476062566745242,-0.5343785045756937,-0.1207332915166077,0.6472743153572083,0.6490415930747986,0.3997263312339783,12.52838516235352,30.82732772827148,2.112000465393066,2,10.3.35.51,10.83.46.32,4,0
2015-02-27 16:46:13.346,88,1425084367.990496,37.78774548283461,-122.396747782926,12.05356,-1,-1,10,65,-9999,1425084373.330137,13.08408355712891,36.17901611328125,6.878921508789062,90.69174957275391,76.91849517822266,10,136219.94196725,0.8790283203125,1.044830322265625,1.386398315429688,136219.8970707917,1.053090061424507,0.5744393197562385,0.6637127405534388,136219.8970707917,-2.47978368856076,2.114362803234227,-0.7011217771013488,1.04432201385498,0.5855283737182617,0.6997390985488892,-0.02735366299748421,-0.008280220441520214,0.5314091444015503,XTrueNorthZVertical,0.7188025476176565,0.4253480338936558,-0.5335942024019776,-0.1329633395353965,0.6539863348007202,0.645075261592865,0.3951961100101471,13.15401268005371,30.5775146484375,1.932003021240234,2,10.3.35.51,10.83.46.32,4,0
2015-02-27 16:46:13.405,89,1425084367.990496,37.78774548283461,-122.396747782926,12.05356,-1,-1,10,65,-9999,1425084373.384143,14.87440872192383,35.38043212890625,4.066162109375,95.45524597167969,81.68199157714844,10,136219.9909048333,0.1157684326171875,1.363449096679688,1.190765380859375,136219.948851,3.80334903600646,1.388634244020714,3.523774912143794,136219.948851,-2.683930960072986,2.031934541078006,-0.6813706066957768,3.794580936431885,1.399723172187805,3.559800863265991,0.1834480464458466,0.4149721562862396,1.04078733921051,XTrueNorthZVertical,0.7403258800601069,0.3531615698567534,-0.5480021888123745,-0.1639761349789287,0.6955802440643311,0.6298581957817078,0.3456110060214996,15.92522144317627,29.26624298095703,-1.272527694702148,2,10.3.35.51,10.83.46.32,4,0
2015-02-27 16:46:13.444,90,1425084367.990496,37.78774548283461,-122.396747782926,12.05356,-1,-1,10,65,-9999,1425084373.434476,18.16520309448242,32.61099243164062,-2.241744995117188,96.65819549560547,82.88494110107422,10,136220.0400397917,0.332275390625,0.17645263671875,0.4550933837890625,136220.0006309584,3.981806928020451,-2.368241565699427,2.585906515281565,136220.0006309584,-2.965503962187206,1.779301043785306,-0.5830485204888894,3.973039150238037,-2.357152700424194,2.6219322681427,-0.7009395360946655,0.8128777146339417,1.017966508865356,XTrueNorthZVertical,0.725278264666344,0.2457048311124667,-0.6204120877108646,-0.1693797245512468,0.816707968711853,0.5505713820457458,0.1727988570928574,19.05801963806152,27.00259017944336,-4.404216766357422,2,10.3.35.51,10.83.46.32,4,0
2015-02-27 16:46:13.502,91,1425084367.990496,37.78774548283461,-122.396747782926,12.05356,-1,-1,10,65,-9999,1425084373.487276,22.25738525390625,26.49435424804688,-10.16408538818359,97.35249328613281,83.57923889160156,10,136220.0889987084,3.397048950195312,0.095733642578125,0.27001953125,136220.0524112917,5.202256157616045,0.01210406715441014,3.838575999325483,136220.0524112917,3.0248972675295,1.603381617155985,-0.4419638831075671,5.193488597869873,0.02319281920790672,3.874601364135742,-0.4806888997554779,-0.4970819354057312,0.4300998747348785,XTrueNorthZVertical,0.7087569303404574,0.1113020650870638,-0.6682413959298008,-0.1967967877373948,0.9034336805343628,0.4277154803276062,0.02944907173514366,21.66191864013672,22.9000129699707,-10.86718463897705,2,10.3.35.51,10.83.46.32,4,0
2015-02-27 16:46:13.553,92,1425084367.990496,37.78774548283461,-122.396747782926,12.05356,-1,-1,10,65,-9999,1425084373.538499,25.25831604003906,18.4747314453125,-16.92137145996094,99.73972320556641,85.96646881103516,10,136220.1478545417,1.272293090820312,0.0472412109375,-0.2030487060546875,136220.1041915833,1.314855893393921,0.05262086734665765,3.768690657580168,136220.1041915833,2.846449313142737,1.551324100146724,-0.2631373085273025,1.306088209152222,0.06370951980352402,3.804715633392334,2.27111554145813,0.2193963080644608,-0.4684581160545349,XTrueNorthZVertical,0.7003648416427346,-0.009417985650964548,-0.6865878757253772,-0.1949296127841479,0.9653956890106201,0.2601111531257629,-0.01880078017711639,26.52310562133789,11.9767894744873,-16.27348518371582,2,10.3.35.51,10.83.46.32,4,0
2015-02-27 16:46:13.610,93,1425084367.990496,37.78774548283461,-122.396747782926,12.05356,-1,-1,10,65,-9999,1425084373.59008,24.5251350402832,11.25369262695312,-20.83261871337891,102.5214385986328,88.74818420410156,10,136220.19688975,0.9305267333984375,0.321685791015625,-0.0679168701171875,136220.2077516667,1.096635941040611,-3.649354675449827,-0.6437669955692903,136220.1559715,2.761306468385574,1.401603021576322,-0.1921672697864347,1.756624698638916,-3.444110155105591,0.4075204432010651,0.3047166466712952,-0.1437455117702484,-0.03776103630661964,XTrueNorthZVertical,0.6441468042881423,-0.04930576961665582,-0.7353965062604029,-0.204538233795334,0.9675764441490173,0.1909867227077484,-0.1652876734733582,26.37819671630859,9.290599822998047,-18.15545272827148,2,10.3.35.51,10.83.46.32,4,0
2015-02-27 16:46:13.652,94,1425084367.990496,37.78774548283461,-122.396747782926,12.05356,-1,-1,10,65,-9999,1425084373.641577,20.72281265258789,6.4453125,-23.11279296875,107.2154693603516,93.44221496582031,10,136220.2459670417,0.425201416015625,0.218902587890625,-0.1340179443359375,136220.2077516667,1.096635941040611,-3.649354675449827,-0.6437669955692903,136220.2077516667,2.694759370078128,1.202501196108343,-0.1814865215820593,1.087857723236084,-3.63831353187561,-0.6077570915222168,-0.03959909826517105,0.07733587920665741,0.3164385855197906,XTrueNorthZVertical,0.5659021446149241,-0.05194700816666824,-0.789467728608533,-0.2319419139454616,0.9176203608512878,0.1804918795824051,-0.3541125357151031,23.40922546386719,7.318525314331055,-22.58743667602539,2,10.3.35.51,10.83.46.32,4,0
2015-02-27 16:46:13.708,95,1425084367.990496,37.78774548283461,-122.396747782926,12.05356,-1,-1,10,65,-9999,1425084373.693149,16.86934280395508,2.84332275390625,-23.84510040283203,112.2201766967773,98.44692230224609,10,136220.2949772083,-0.0816802978515625,0.451568603515625,-0.087646484375,136220.2595319583,1.070086089185284,-1.814741083697828,0.4671224499415335,136220.2595319583,2.638358312094824,1.065481047971133,-0.1621584744454911,1.061308026313782,-1.803699970245361,0.5031319856643677,-0.6008778214454651,0.05049584060907364,0.3595839142799377,XTrueNorthZVertical,0.5076567463173269,-0.05846596239003912,-0.8213112116553408,-0.2536026964876095,0.8635426163673401,0.1614487320184708,-0.4777327179908752,17.39055633544922,5.460976600646973,-27.91937255859375,2,10.3.35.51,10.83.46.32,4,0
2015-02-27 16:46:13.747,96,1425084367.990496,37.78774548283461,-122.396747782926,12.05356,-1,-1,10,65,-9999,1425084373.693149,16.86934280395508,2.84332275390625,-23.84510040283203,112.2201766967773,98.44692230224609,10,136220.344004,0.787506103515625,0.0511627197265625,-0.545257568359375,136220.31131225,1.077092599697173,0.8170455718952959,2.196343039450301,136220.31131225,2.632612978148411,1.03464220391261,-0.07109936195131983,1.068314552307129,0.8280864953994751,2.232352256774902,-0.7704105377197266,0.3886010348796844,0.3846802711486816,XTrueNorthZVertical,0.4860994507433023,-0.0945296044874752,-0.8361969508367565,-0.2356824392483474,0.8575077056884766,0.07103947550058365,-0.5095429420471191,16.2924690246582,4.141750335693359,-28.79490089416504,2,10.3.35.51,10.83.46.32,4,0
2015-02-27 16:46:13.806,97,1425084367.990496,37.78774548283461,-122.396747782926,12.05356,-1,-1,10,65,-9999,1425084373.795984,16.32371520996094,-3.477203369140625,-20.94911193847656,108.9425506591797,95.16929626464844,10,136220.3930567917,0.7530670166015625,-0.0722198486328125,-0.2411041259765625,136220.36309225,-0.0308098443350177,0.2381798120912367,2.238632439664105,136220.36309225,2.673393212691511,1.085137660434185,0.04625046159513755,-0.03958781808614731,0.2492206245660782,2.274641275405884,-0.08378516882658005,0.05026229470968246,-0.08166655898094177,XTrueNorthZVertical,0.4975259570121248,-0.139003651232453,-0.8355728520356233,-0.1869866061527115,0.8834220170974731,-0.04623397439718246,-0.4662918150424957,17.40297508239746,1.277332544326782,-28.41213989257812,2,10.3.35.51,10.83.46.32,4,0
2015-02-27 16:46:13.846,98,1425084367.990496,37.78774548283461,-122.396747782926,12.05356,-1,-1,10,65,-9999,1425084373.795984,16.32371520996094,-3.477203369140625,-20.94911193847656,108.9425506591797,95.16929626464844,10,136220.442197875,0.814422607421875,-0.095458984375,-0.2823028564453125,136220.414872625,-0.1406817508995448,-0.3588726747969737,1.338940723344271,136220.414872625,2.723112781979102,1.061165308748424,0.1190661146606668,-0.1494596153497696,-0.3478319942951202,1.374949216842651,-0.08628775924444199,0.06310566514730453,0.3053240478038788,XTrueNorthZVertical,0.4834623990752658,-0.1551241861216213,-0.8484594957154313,-0.1493892719945036,0.8667442798614502,-0.118784986436367,-0.4844011962413788,17.5798225402832,-1.412414073944092,-28.29664039611816,2,10.3.35.51,10.83.46.32,4,0
2015-02-27 16:46:13.904,99,1425084367.990496,37.78774548283461,-122.396747782926,12.05356,-1,-1,10,65,-9999,1425084373.853321,16.06795883178711,-5.1593017578125,-19.56768798828125,103.5243377685547,89.75108337402344,10,136220.4911483333,0.9810791015625,-0.241668701171875,-0.3359527587890625,136220.4666526667,-0.1751587680556016,0.03178243076511464,1.09428463611418,136220.4666526667,2.759050925718753,1.055537231436161,0.1686036777754466,-0.1839365661144257,0.04282301664352417,1.130292773246765,-0.006828282028436661,-0.008539834059774876,0.1498202532529831,XTrueNorthZVertical,0.4788376192006286,-0.1668173408360057,-0.853227122348954,-0.1220248409916583,0.8578262329101562,-0.1678059846162796,-0.4857730269432068,17.40427398681641,-1.999393939971924,-28.36967468261719,2,10.3.35.51,10.83.46.32,4,0
2015-02-27 16:46:13.944,100,1425084367.990496,37.78774548283461,-122.396747782926,12.05356,-1,-1,10,65,-9999,1425084373.926572,16.11911010742188,-6.263763427734375,-19.01844787597656,99.8858642578125,86.11260986328125,10,136220.5402855417,1.22137451171875,-0.136993408203125,-0.60321044921875,136220.518433,0.1192675388903266,0.2923975108275058,1.160569384065707,136220.518433,2.781337251398112,1.064105701552173,0.2192505584424579,0.1104898303747177,0.3034379780292511,1.196577191352844,0.2505952715873718,0.1175988912582397,-0.02840623818337917,XTrueNorthZVertical,0.4792085530555765,-0.1830974717930011,-0.8526789395814859,-0.09885939202636772,0.8534238934516907,-0.2174981832504272,-0.4736689627170563,17.41745567321777,-2.752483367919922,-28.29842758178711,2,10.3.35.51,10.83.46.32,4,0
2015-02-27 16:46:14.003,101,1425084367.990496,37.78774548283461,-122.396747782926,12.05356,-1,-1,10,65,-9999,1425084373.977265,16.11911010742188,-6.569549560546875,-19.11831665039062,93.91634368896484,80.14308929443359,10,136220.5892375,0.630584716796875,-0.334991455078125,-0.2397308349609375,136220.5702130834,-0.4546569918271996,-1.27179257856734,0.9160789454554185,136220.5702130834,2.820907357116395,1.025505884316527,0.261957088042687,-0.4634346067905426,-1.260752201080322,0.9520862698554993,0.09418898075819016,-0.05578693374991417,0.109370581805706,XTrueNorthZVertical,0.4619668320641332,-0.1900015057137151,-0.8630808916609826,-0.07468281760265441,0.8258091807365417,-0.2589713633060455,-0.5009721517562866,16.74847602844238,-4.112557411193848,-28.53629684448242,2,10.3.35.51,10.83.46.32,4,0
2015-02-27 16:46:14.043,102,1425084367.990496,37.78774548283461,-122.396747782926,12.05356,-1,-1,10,65,-9999,1425084374.030569,15.81219482421875,-6.2977294921875,-19.38462066650391,88.17072296142578,74.39746856689453,10,136220.6382700417,0.8106689453125,-0.073394775390625,-0.34515380859375,136220.6219934167,-0.6368584893855157,-0.203339007130275,0.8833170040413727,136220.5702130834,2.820907357116395,1.025505884316527,0.261957088042687,-0.4634346067905426,-1.260752201080322,0.9520862698554993,0.09418898075819016,-0.05578693374991417,0.109370581805706,XTrueNorthZVertical,0.4619668320641332,-0.1900015057137151,-0.8630808916609826,-0.07468281760265441,0.8258091807365417,-0.2589713633060455,-0.5009721517562866,16.74847602844238,-4.112557411193848,-28.53629684448242,2,10.3.35.51,10.83.46.32,4,0
2015-02-27 16:46:14.111,103,1425084367.990496,37.78774548283461,-122.396747782926,12.05356,-1,-1,10,65,-9999,1425084374.080865,15.74399185180664,-6.093841552734375,-20.15023040771484,84.34362030029297,70.57036590576172,10,136220.687320625,0.528778076171875,-0.2479248046875,-0.3201446533203125,136220.6737734167,-0.521217909583768,-1.026194797575797,0.9784983814008047,136220.6737734167,2.929898906393924,0.9312394728513242,0.3048730216627374,-0.529995322227478,-1.015154600143433,1.01450502872467,-0.05878607928752899,0.09492608159780502,0.2051504701375961,XTrueNorthZVertical,0.4269520487203006,-0.1818064457301684,-0.8854419809808638,-0.02551347874013128,0.7653595805168152,-0.3001720607280731,-0.5693167448043823,15.0728816986084,-3.815020561218262,-29.4957389831543,2,10.3.35.51,10.83.46.32,4,0
2015-02-27 16:46:14.140,104,1425084367.990496,37.78774548283461,-122.396747782926,12.05356,-1,-1,10,65,-9999,1425084374.134165,15.18131637573242,-6.14483642578125,-21.19876861572266,80.72024536132812,66.94699096679688,10,136220.73645575,0.386871337890625,-0.26873779296875,-0.219482421875,136220.7255537917,0.09653160003210215,-1.426284950247818,0.9618022255787709,136220.6737734167,2.929898906393924,0.9312394728513242,0.3048730216627374,-0.529995322227478,-1.015154600143433,1.01450502872467,-0.05878607928752899,0.09492608159780502,0.2051504701375961,XTrueNorthZVertical,0.4269520487203006,-0.1818064457301684,-0.8854419809808638,-0.02551347874013128,0.7653595805168152,-0.3001720607280731,-0.5693167448043823,15.0728816986084,-3.815020561218262,-29.4957389831543,2,10.3.35.51,10.83.46.32,4,0
2015-02-27 16:46:14.199,105,1425084367.990496,37.78774548283461,-122.396747782926,12.05356,-1,-1,10,65,-9999,1425084374.185859,13.85136032104492,-6.178802490234375,-22.86312866210938,74.98697662353516,61.21372222900391,10,136220.7854035417,0.3829193115234375,-0.505706787109375,-0.4993438720703125,136220.7773338333,0.4706727099907181,-0.936497934165274,1.131024807564586,136220.7773338333,3.000202696578874,0.7890027589156655,0.3912832993735438,0.4618954360485077,-0.9254580140113831,1.167030811309814,-0.1857247650623322,-0.1638977974653244,0.2007267326116562,XTrueNorthZVertical,0.3633973778727266,-0.2056467500830729,-0.9085924640532891,0.01056262738653715,0.6560158729553223,-0.3813750445842743,-0.6513035297393799,10.94129943847656,-4.587765693664551,-31.16063690185547,2,10.3.35.51,10.83.46.32,4,0
2015-02-27 16:46:14.239,106,1425084367.990496,37.78774548283461,-122.396747782926,12.05356,-1,-1,10,65,-9999,1425084374.185859,13.85136032104492,-6.178802490234375,-22.86312866210938,74.98697662353516,61.21372222900391,10,136220.8344394584,0.197540283203125,-0.9071502685546875,-0.46337890625,136220.829114125,0.7257878297698777,-0.5643989361305308,0.282051129992548,136220.7773338333,3.000202696578874,0.7890027589156655,0.3912832993735438,0.4618954360485077,-0.9254580140113831,1.167030811309814,-0.1857247650623322,-0.1638977974653244,0.2007267326116562,XTrueNorthZVertical,0.3633973778727266,-0.2056467500830729,-0.9085924640532891,0.01056262738653715,0.6560158729553223,-0.3813750445842743,-0.6513035297393799,10.94129943847656,-4.587765693664551,-31.16063690185547,2,10.3.35.51,10.83.46.32,4,0
2015-02-27 16:46:14.297,107,1425084367.990496,37.78774548283461,-122.396747782926,12.05356,-1,-1,10,65,-9999,1425084374.290125,11.48130416870117,-7.69097900390625,-24.24454498291016,70.85028076171875,57.0770263671875,10,136220.8836140417,0.4425811767578125,-0.98162841796875,-0.7444000244140625,136220.88089425,0.8470159878547207,0.4425481309828273,-0.2499949262673732,136220.829114125,3.008945373353136,0.7375161316124534,0.4389735825428971,0.7170106172561646,-0.5533591508865356,0.3180566728115082,-0.5137094259262085,-0.3568345010280609,0.2143702358007431,XTrueNorthZVertical,0.3375762118794164,-0.2259617675288808,-0.9135976343863094,0.01797270509255514,0.608695387840271,-0.4250105917453766,-0.6699671745300293,9.394302368164062,-5.778262138366699,-31.46591186523438,2,10.3.35.51,10.83.46.32,4,0
2015-02-27 16:46:14.337,108,1425084367.990496,37.78774548283461,-122.396747782926,12.05356,-1,-1,10,65,-9999,1425084374.290125,11.48130416870117,-7.69097900390625,-24.24454498291016,70.85028076171875,57.0770263671875,10,136220.9326475,0.50054931640625,-1.135711669921875,-0.8502655029296875,136220.88089425,0.8470159878547207,0.4425481309828273,-0.2499949262673732,136220.88089425,2.978314940768012,0.7578187529286378,0.4714189412342051,0.8382388949394226,0.4535878300666809,-0.2139896899461746,-0.2386946678161621,-0.568828821182251,-0.07490374147891998,XTrueNorthZVertical,0.3407877621720688,-0.2455766284595795,-0.9074146891694361,0.01242889713335452,0.6123671531677246,-0.454150915145874,-0.6471116542816162,8.585982322692871,-7.762097358703613,-31.26940536499023,2,10.3.35.51,10.83.46.32,4,0
2015-02-27 16:46:14.395,109,1425084367.990496,37.78774548283461,-122.396747782926,12.05356,-1,-1,10,65,-9999,1425084374.341765,11.51540374755859,-8.540496826171875,-24.11140441894531,72.64556121826172,58.87230682373047,10,136220.9816042084,0.49859619140625,-0.8725128173828125,-0.678375244140625,136220.9844545833,-0.2197161162537173,0.2564293897771137,-1.25375339060758,136220.9326745833,2.937123612889084,0.8030017870225645,0.4749644307552043,0.2858232259750366,0.5619856119155884,-0.7245907783508301,-0.1392589211463928,-0.6784048676490784,-0.2325957268476486,XTrueNorthZVertical,0.355748510711758,-0.2541812496787896,-0.8993525118392408,0.0001542166639197965,0.6398082375526428,-0.4573068022727966,-0.6176697611808777,9.130483627319336,-8.365747451782227,-30.95792961120605,2,10.3.35.51,10.83.46.32,4,0
2015-02-27 16:46:14.434,110,1425084367.990496,37.78774548283461,-122.396747782926,12.05356,-1,-1,10,65,-9999,1425084374.393678,12.19742965698242,-8.77838134765625,-23.87838745117188,74.74002838134766,60.96677780151367,10,136221.030633625,0.441131591796875,-0.5666351318359375,-0.4759368896484375,136220.9844545833,-0.2197161162537173,0.2564293897771137,-1.25375339060758,136220.9844545833,2.898267987116997,0.8403629752385771,0.4362961046039625,-0.2284930348396301,0.2674688696861267,-1.217748999595642,-0.1765106171369553,-0.4499273598194122,-0.07368326187133789,XTrueNorthZVertical,0.3713336624657789,-0.2444694640382223,-0.8955020077398699,-0.02054802430196084,0.6751068234443665,-0.4225854575634003,-0.6046919822692871,10.14780616760254,-8.448917388916016,-30.6167049407959,2,10.3.35.51,10.83.46.32,4,0
2015-02-27 16:46:14.495,111,1425084367.990496,37.78774548283461,-122.396747782926,12.05356,-1,-1,10,65,-9999,1425084374.446373,13.10112380981445,-8.42156982421875,-22.82984161376953,77.69803619384766,63.92478179931641,10,136221.0797022083,0.5413360595703125,-0.258270263671875,-0.236053466796875,136221.088015,-0.07770145322858789,0.5229391105962863,-1.326789784554676,136221.036235,2.870555731609548,0.8681615844625125,0.3726153596743444,-0.4789645969867706,0.4446770846843719,-1.331862449645996,-0.2696425914764404,-0.2025825679302216,0.1259483695030212,XTrueNorthZVertical,0.3868045022549217,-0.2223502850815446,-0.8939077181542501,-0.04326307987159829,0.7107741832733154,-0.3640525639057159,-0.6018852591514587,11.60351085662842,-6.72312068939209,-30.5270881652832,2,10.3.35.51,10.83.46.32,4,0
2015-02-27 16:46:14.532,112,1425084367.990496,37.78774548283461,-122.396747782926,12.05356,-1,-1,10,65,-9999,1425084374.496852,13.85136032104492,-7.470062255859375,-21.83123016357422,83.47261047363281,69.69935607910156,10,136221.1287280833,0.5695953369140625,0.0291900634765625,-0.288665771484375,136221.088015,-0.07770145322858789,0.5229391105962863,-1.326789784554676,136221.088015,2.837677181941509,0.9081326670664372,0.3131495010055649,-0.08647819608449936,0.5339783430099487,-1.290785908699036,-0.2086809724569321,0.04978622868657112,0.3492462038993835,XTrueNorthZVertical,0.4070525133823797,-0.2041039257141384,-0.8878021966395933,-0.0667620655411036,0.7500170469284058,-0.308056503534317,-0.5852996706962585,12.36026382446289,-5.899553298950195,-30.40006637573242,2,10.3.35.51,10.83.46.32,4,0
2015-02-27 16:46:14.597,113,1425084374.566341,37.78773704006335,-122.3968257499557,12.48712,-1,-1,10,65,-9999,1425084374.54989,14.60159301757812,-6.790435791015625,-20.96577453613281,87.183349609375,73.41009521484375,10,136221.1777854167,0.71087646484375,-0.1459808349609375,-0.2165679931640625,136221.1397952083,0.2639725272486541,1.088680013600108,-1.270738765723996,136221.1397952083,2.794273418897121,0.9654824522629244,0.2669616558103925,0.2551877200603485,1.099676251411438,-1.234743356704712,-0.1945462226867676,0.2891010046005249,0.2712911069393158,XTrueNorthZVertical,0.432791857511426,-0.1955999274886815,-0.8753179864410267,-0.09083156911170867,0.7931942939758301,-0.2638019323348999,-0.5488637685775757,13.51323318481445,-5.028625965118408,-30.06410217285156,2,10.3.35.51,10.83.46.32,4,0
2015-02-27 16:46:14.631,114,1425084374.566341,37.78773704006335,-122.3968257499557,12.48712,-1,-1,10,65,-9999,1425084374.600892,15.01081085205078,-6.688507080078125,-20.23345184326172,94.63376617431641,80.86051177978516,10,136221.2269320417,0.652618408203125,-0.1622772216796875,-0.227386474609375,136221.1915754167,0.75308789410428,0.6604359871482053,-1.041850988992155,136221.1915754167,2.740534222587607,1.019425545633564,0.2302658272622183,0.7443031668663025,0.6714320778846741,-1.005855917930603,-0.1209962069988251,0.09057154506444931,0.3250310719013214,XTrueNorthZVertical,0.4550098023269338,-0.1948121441309796,-0.8608951113165666,-0.1177879046972469,0.82932448387146,-0.2282363474369049,-0.510028600692749,15.98165416717529,-4.432401180267334,-28.92551612854004,2,10.3.35.51,10.83.46.32,4,0
2015-02-27 16:46:14.710,115,1425084374.566341,37.78773704006335,-122.3968257499557,12.48712,-1,-1,10,65,-9999,1425084374.655811,15.38592147827148,-6.620513916015625,-19.4345703125,99.95254516601562,86.17929077148438,10,136221.2758867917,0.8847808837890625,-0.191192626953125,-0.3816070556640625,136221.2433557083,0.9593609058074953,1.08106630235968,-0.9305188712019371,136221.2433557083,2.675099658338642,1.076510491324538,0.2147059187579642,0.9505762457847595,1.09206223487854,-0.8945241570472717,-0.1879607141017914,0.01707622222602367,0.2323855012655258,XTrueNorthZVertical,0.4746219000436331,-0.2073134362685782,-0.8432412911961956,-0.1438728287742169,0.8600950837135315,-0.2130601108074188,-0.4635103940963745,16.72343063354492,-4.728147983551025,-28.45551681518555,2,10.3.35.51,10.83.46.32,4,0
2015-02-27 16:46:14.729,116,1425084374.566341,37.78773704006335,-122.3968257499557,12.48712,-1,-1,10,65,-9999,1425084374.655811,15.38592147827148,-6.620513916015625,-19.4345703125,99.95254516601562,86.17929077148438,10,136221.3249262084,0.9526824951171875,-0.197052001953125,-0.341552734375,136221.2951357917,0.09440719643054594,0.4928267481507603,-1.355695468710287,136221.2951357917,2.627060533611015,1.132233426529721,0.1801179342234759,0.0856226459145546,0.5038226246833801,-1.319701075553894,0.05924998596310616,-0.0008775923633947968,0.02719003893435001,XTrueNorthZVertical,0.4972911700752333,-0.2093247737843413,-0.8251797856987548,-0.1672214920867928,0.8907164335250854,-0.1791456043720245,-0.4177692532539368,18.23700332641602,-5.1617751121521,-27.43196487426758,2,10.3.35.51,10.83.46.32,4,0
2015-02-27 16:46:14.807,117,1425084374.566341,37.78773704006335,-122.3968257499557,12.48712,-1,-1,10,65,-9999,1425084374.788119,15.28361892700195,-5.906951904296875,-20.49976348876953,110.5408020019531,96.76754760742188,10,136221.3740004167,0.8384246826171875,0.026763916015625,-0.314971923828125,136221.346916,-0.3149523547316049,0.1044281389802961,-1.869912993052672,136221.346916,2.597935040012557,1.137773513085353,0.1035522882952734,-0.3237367868423462,0.1154239028692245,-1.833919048309326,0.03876542672514915,0.2012371867895126,0.1555432081222534,XTrueNorthZVertical,0.5065121624512227,-0.1864431451216652,-0.8179636267836335,-0.1990476402304953,0.902839183807373,-0.1033673211932182,-0.4173687696456909,19.37006950378418,-3.306113958358765,-26.93724060058594,2,10.3.35.51,10.83.46.32,4,0
2015-02-27 16:46:14.826,118,1425084374.566341,37.78773704006335,-122.3968257499557,12.48712,-1,-1,10,65,-9999,1425084374.788119,15.28361892700195,-5.906951904296875,-20.49976348876953,110.5408020019531,96.76754760742188,10,136221.4230376667,1.060684204101562,0.195098876953125,-0.3904266357421875,136221.39869625,-1.13102640546124,0.7033421754704718,-2.842564137964099,136221.39869625,2.588935131751532,1.163410761991182,-0.02664211617139706,-1.139810800552368,0.7143378853797913,-2.806570529937744,-0.01793168671429157,-0.1777162402868271,0.07638273388147354,XTrueNorthZVertical,0.5315950213034031,-0.1391830457002745,-0.8017618085062863,-0.234974233549116,0.9178340435028076,0.02663896419107914,-0.3960696160793304,19.80971717834473,-1.559669494628906,-26.77475357055664,2,10.3.35.51,10.83.46.32,4,0
2015-02-27 16:46:14.907,119,1425084374.566341,37.78773704006335,-122.3968257499557,12.48712,-1,-1,10,65,-9999,1425084374.859769,16.68178176879883,-1.897186279296875,-22.5302734375,115.4109115600586,101.6376571655273,10,136221.4721114583,1.043228149414062,0.112548828125,-0.372955322265625,136221.4504765417,-1.419738900288403,0.1171061173496183,-2.856603790598779,136221.4504765417,2.587632345363323,1.196310772467166,-0.1766149041546705,-1.428523182868958,0.1281016767024994,-2.820610523223877,0.1538654714822769,0.1728431135416031,-0.02425009198486805,XTrueNorthZVertical,0.5594748179694169,-0.08328358053167062,-0.7782012342075681,-0.2728638621106979,0.9162181615829468,0.1756981462240219,-0.3601035475730896,20.61446380615234,2.249533891677856,-26.10992813110352,2,10.3.35.51,10.83.46.32,4,0
2015-02-27 16:46:14.925,120,1425084374.566341,37.78773704006335,-122.3968257499557,12.48712,-1,-1,10,65,-9999,1425084374.911694,17.46611404418945,2.6903076171875,-23.69532012939453,120.9741363525391,107.2008819580078,10,136221.521153625,1.137847900390625,0.9928131103515625,-0.285430908203125,136221.5022566667,-1.222460448850822,0.8827106022611617,-1.934413423073847,136221.4504765417,2.587632345363323,1.196310772467166,-0.1766149041546705,-1.428523182868958,0.1281016767024994,-2.820610523223877,0.1538654714822769,0.1728431135416031,-0.02425009198486805,XTrueNorthZVertical,0.5594748179694169,-0.08328358053167062,-0.7782012342075681,-0.2728638621106979,0.9162181615829468,0.1756981462240219,-0.3601035475730896,20.61446380615234,2.249533891677856,-26.10992813110352,2,10.3.35.51,10.83.46.32,4,0
2015-02-27 16:46:15.008,121,1425084374.566341,37.78773704006335,-122.3968257499557,12.48712,-1,-1,10,65,-9999,1425084374.963827,17.2785530090332,8.178314208984375,-24.04484558105469,122.2216339111328,108.4483795166016,10,136221.5702255833,0.881317138671875,0.711944580078125,0.1544342041015625,136221.5540368333,-1.855292771300355,0.1053357442797951,-2.247589715674478,136221.5540368333,2.659675812308372,1.261033925667729,-0.4374025055599206,-1.864076852798462,0.1163310706615448,-2.211596965789795,0.1268974840641022,0.3072317540645599,0.287501722574234,XTrueNorthZVertical,0.6007114934714287,0.0328441550955559,-0.7351792325955103,-0.3123756295614245,0.8627418279647827,0.4235879480838776,-0.2761339247226715,20.35075759887695,11.05093193054199,-23.98892402648926,2,10.3.35.51,10.83.46.32,4,0
2015-02-27 16:46:15.026,122,1425084374.566341,37.78773704006335,-122.3968257499557,12.48712,-1,-1,10,65,-9999,1425084375.021067,16.80112838745117,13.71725463867188,-23.47896575927734,121.2029724121094,107.4297180175781,10,136221.6192492917,0.71453857421875,1.267959594726562,0.10015869140625,136221.6058170417,-1.118839247680819,0.4676960948403366,-1.329642829030477,136221.6058170417,2.718479136280508,1.309938730549263,-0.5454132613793909,-1.127623319625854,0.4786913394927979,-1.29365062713623,-0.06474488228559494,0.5731780529022217,0.3612675666809082,XTrueNorthZVertical,0.618398938395792,0.08566078857891288,-0.7122808708656679,-0.3207818856888233,0.825990617275238,0.5187714099884033,-0.220489963889122,19.31696701049805,14.84289360046387,-22.76594734191895,2,10.3.35.51,10.83.46.32,4,0
2015-02-27 16:46:15.122,123,1425084374.566341,37.78773704006335,-122.3968257499557,12.48712,-1,-1,10,65,-9999,1425084375.093769,15.98268890380859,20.03775024414062,-21.68148040771484,119.9923400878906,106.2190856933594,10,136221.66830525,0.2379150390625,0.891876220703125,0.40093994140625,136221.6575972917,-0.7271891851354774,-0.6714364403468865,-0.9187239970500852,136221.6058170417,2.718479136280508,1.309938730549263,-0.5454132613793909,-1.127623319625854,0.4786913394927979,-1.29365062713623,-0.06474488228559494,0.5731780529022217,0.3612675666809082,XTrueNorthZVertical,0.618398938395792,0.08566078857891288,-0.7122808708656679,-0.3207818856888233,0.825990617275238,0.5187714099884033,-0.220489963889122,19.31696701049805,14.84289360046387,-22.76594734191895,2,10.3.35.51,10.83.46.32,4,0
2015-02-27 16:46:15.127,124,1425084374.566341,37.78773704006335,-122.3968257499557,12.48712,-1,-1,10,65,-9999,1425084375.093769,15.98268890380859,20.03775024414062,-21.68148040771484,119.9923400878906,106.2190856933594,10,136221.7173440417,0.5127105712890625,1.187026977539062,0.3975067138671875,136221.7093775,0.003531884237663086,0.632600627434697,0.07331762375820845,136221.6575972917,2.749282115638294,1.318989325896469,-0.60247503658299,-0.7359731197357178,-0.6604413390159607,-0.8827321529388428,-0.3993159830570221,0.4210332036018372,0.4191543757915497,XTrueNorthZVertical,0.6196069772941371,0.1159465639244345,-0.7048099759905251,-0.3254021521794391,0.7979518175125122,0.5666834712028503,-0.2052871733903885,18.03828811645508,18.28683471679688,-21.25927543640137,2,10.3.35.51,10.83.46.32,4,0
2015-02-27 16:46:15.202,125,1425084374.566341,37.78773704006335,-122.3968257499557,12.48712,-1,-1,10,65,-9999,1425084375.145049,15.70987701416016,21.77078247070312,-20.91587829589844,120.5970687866211,106.8238143920898,10,136221.766413625,0.2330322265625,1.217788696289062,0.5699920654296875,136221.761157625,1.311372745004207,0.02512905541376968,1.793906908174029,136221.761157625,2.751194641636277,1.33550833437099,-0.5733800769082784,1.302589058876038,0.03612394258379936,1.829897999763489,-0.5819405913352966,0.8008633852005005,0.7129300236701965,XTrueNorthZVertical,0.6257385326327258,0.1026215664700637,-0.7048992500801311,-0.3178635320488615,0.8169259428977966,0.542474627494812,-0.1958402097225189,17.92133522033691,19.05063629150391,-20.67955589294434,2,10.3.35.51,10.83.46.32,4,0
2015-02-27 16:46:15.226,126,1425084374.566341,37.78773704006335,-122.3968257499557,12.48712,-1,-1,10,65,-9999,1425084375.197033,16.78407669067383,21.278076171875,-21.76470184326172,118.7122955322266,104.9390411376953,10,136221.8154460417,0.8555908203125,0.69464111328125,0.102081298828125,136221.761157625,1.311372745004207,0.02512905541376968,1.793906908174029,136221.761157625,2.751194641636277,1.33550833437099,-0.5733800769082784,1.302589058876038,0.03612394258379936,1.829897999763489,-0.5819405913352966,0.8008633852005005,0.7129300236701965,XTrueNorthZVertical,0.6257385326327258,0.1026215664700637,-0.7048992500801311,-0.3178635320488615,0.8169259428977966,0.542474627494812,-0.1958402097225189,17.92133522033691,19.05063629150391,-20.67955589294434,2,10.3.35.51,10.83.46.32,4,0
2015-02-27 16:46:15.306,127,1425084374.566341,37.78773704006335,-122.3968257499557,12.48712,-1,-1,10,65,-9999,1425084375.254813,19.13708114624023,16.07888793945312,-22.73002624511719,117.3351898193359,103.5619354248047,10,136221.8644924583,1.91180419921875,0.1749114990234375,-0.331146240234375,136221.8647181667,1.420469139059303,-0.8986456266436508,4.257335443871177,136221.8129379167,2.67177417401837,1.326170473709376,-0.3815529720136841,3.057234287261963,0.5770884156227112,4.653378963470459,-0.1883746236562729,0.347379595041275,0.1502374261617661,XTrueNorthZVertical,0.6225672264973796,0.004662574772941016,-0.7253791708916522,-0.2936212564182348,0.9004565477371216,0.3723622262477875,-0.2247766107320786,21.4979133605957,12.7174072265625,-22.08737754821777,2,10.3.35.51,10.83.46.32,4,0
2015-02-27 16:46:15.325,128,1425084374.566341,37.78773704006335,-122.3968257499557,12.48712,-1,-1,10,65,-9999,1425084375.254813,19.13708114624023,16.07888793945312,-22.73002624511719,117.3351898193359,103.5619354248047,10,136221.9135231667,1.250030517578125,-0.1434783935546875,-0.27008056640625,136221.9164984583,1.158860699910312,0.02277508732624864,1.405259027125533,136221.8647181667,2.631283089095376,1.295474257651229,-0.1299475876923089,1.411678433418274,-0.887645959854126,4.293317794799805,0.9575802087783813,0.04532932490110397,-0.06158144399523735,XTrueNorthZVertical,0.595684727523768,-0.1018690729775666,-0.7601170204054083,-0.2387563351031048,0.9542239904403687,0.1295821666717529,-0.2695648074150085,22.97139358520508,7.791648387908936,-22.87685012817383,2,10.3.35.51,10.83.46.32,4,0
2015-02-27 16:46:15.411,129,1425084374.566341,37.78773704006335,-122.3968257499557,12.48712,-1,-1,10,65,-9999,1425084375.378447,20.62049102783203,-0.419036865234375,-25.77578735351562,104.8057022094727,91.03244781494141,10,136221.9625863333,1.544906616210938,0.07305908203125,-0.5441741943359375,136221.9164984583,1.158860699910312,0.02277508732624864,1.405259027125533,136221.9164984583,2.599907389275444,1.269150799389217,0.01614728714693328,1.150069952011108,0.03377466276288033,1.441241145133972,0.2953060269355774,-0.1273318082094193,0.02697255648672581,XTrueNorthZVertical,0.5694661302306312,-0.1648689319286842,-0.7772213581747573,-0.2108402169844899,0.9547244906425476,-0.01614658534526825,-0.2970531284809113,23.00369262695312,1.896638512611389,-24.06195831298828,2,10.3.35.51,10.83.46.32,4,0
2015-02-27 16:46:15.419,130,1425084374.566341,37.78773704006335,-122.3968257499557,12.48712,-1,-1,10,65,-9999,1425084375.378447,20.62049102783203,-0.419036865234375,-25.77578735351562,104.8057022094727,91.03244781494141,10,136222.011616375,0.8325042724609375,0.1985015869140625,-0.4094085693359375,136221.9682785833,1.240809628761467,-1.673851872549366,-0.1165417935146305,136221.9682785833,2.565586620448877,1.256087470932993,0.05411627785904879,1.232018947601318,-1.66285240650177,-0.08056000620126724,0.5954120755195618,0.1271489560604095,-0.2350876778364182,XTrueNorthZVertical,0.5569385213300989,-0.1878196680997183,-0.7800820881777425,-0.2145116927676509,0.9494945406913757,-0.05408986657857895,-0.3090865015983582,22.74761390686035,-2.036900043487549,-24.29283905029297,2,10.3.35.51,10.83.46.32,4,0
2015-02-27 16:46:15.503,131,1425084374.566341,37.78773704006335,-122.3968257499557,12.48712,-1,-1,10,65,-9999,1425084375.482322,17.70481109619141,-6.110931396484375,-23.46234130859375,116.5643539428711,102.7910995483398,10,136222.0606813333,0.5594329833984375,-0.2281036376953125,-0.423614501953125,136222.071839,-0.2194239674821356,0.1065570699557054,1.766464897353525,136222.0200587917,2.478725677531229,1.159395253046015,0.06241557434268115,1.368487477302551,-1.295354723930359,-0.176930844783783,-0.08227246254682541,0.2608766555786133,-0.01029334217309952,XTrueNorthZVertical,0.5092127885727605,-0.2028416191208886,-0.7962729162071358,-0.2559436096439773,0.9147767424583435,-0.06237505748867989,-0.3991152346134186,21.1627311706543,-2.943932294845581,-25.59720611572266,2,10.3.35.51,10.83.46.32,4,0
2015-02-27 16:46:15.514,132,1425084374.566341,37.78773704006335,-122.3968257499557,12.48712,-1,-1,10,65,-9999,1425084375.482322,17.70481109619141,-6.110931396484375,-23.46234130859375,116.5643539428711,102.7910995483398,10,136222.1097329583,0.870361328125,0.0072479248046875,-0.24005126953125,136222.071839,-0.2194239674821356,0.1065570699557054,1.766464897353525,136222.071839,2.497001308516368,1.132757940688469,0.1106968742556231,-0.228214368224144,0.1175563186407089,1.802445888519287,-0.2298919707536697,-0.1647976189851761,0.04128819331526756,XTrueNorthZVertical,0.4933862407522605,-0.2139769842989137,-0.8085768412811415,-0.2387204102433266,0.900042712688446,-0.1104709357023239,-0.4215677380561829,19.48847579956055,-4.254591941833496,-26.71783638000488,2,10.3.35.51,10.83.46.32,4,0
2015-02-27 16:46:15.574,133,1425084374.566341,37.78773704006335,-122.3968257499557,12.48712,-1,-1,10,65,-9999,1425084375.540944,16.54536819458008,-8.2177734375,-21.6981201171875,114.5975723266602,100.8243179321289,10,136222.158801,0.799957275390625,-0.1399078369140625,-0.1545257568359375,136222.123619375,0.3027356358630844,-0.4994545571556405,2.031584181767568,136222.123619375,2.542810642312628,1.109610840165891,0.2030111379954909,0.2939397096633911,-0.4884946644306183,2.067562818527222,0.0327618271112442,0.2169088423252106,0.2079355120658875,XTrueNorthZVertical,0.475350396939388,-0.2368677820867183,-0.8237546880355289,-0.1984034847844395,0.8771350383758545,-0.2016195356845856,-0.4358713030815125,18.23301696777344,-6.593187808990479,-27.126220703125,2,10.3.35.51,10.83.46.32,4,0
2015-02-27 16:46:15.612,134,1425084374.566341,37.78773704006335,-122.3968257499557,12.48712,-1,-1,10,65,-9999,1425084375.540944,16.54536819458008,-8.2177734375,-21.6981201171875,114.5975723266602,100.8243179321289,10,136222.2079456667,0.8370513916015625,-0.093231201171875,-0.3040924072265625,136222.1753994584,-0.05481690998153699,0.9254290377265777,2.007263928376855,136222.1753994584,2.583566953759709,1.116914199141234,0.2986253121280659,-0.06361274421215057,0.9363888502120972,2.043242216110229,-0.1064264476299286,0.172578826546669,0.2650303542613983,XTrueNorthZVertical,0.4689742750795269,-0.265587728148782,-0.8279143254871267,-0.155190955019397,0.8589746952056885,-0.2942066490650177,-0.4190525710582733,17.69021987915039,-7.939026355743408,-27.12513542175293,2,10.3.35.51,10.83.46.32,4,0
2015-02-27 16:46:15.676,135,1425084374.566341,37.78773704006335,-122.3968257499557,12.48712,-1,-1,10,65,-9999,1425084375.663268,14.77209091186523,-11.37808227539062,-18.43595886230469,100.9009704589844,87.12771606445312,10,136222.256917125,1.055099487304688,-0.401519775390625,-0.4589996337890625,136222.2271797917,0.04359008809019896,0.867868539190041,1.679496975112007,136222.2271797917,2.626322840102716,1.152738900630223,0.3857152735342597,0.03479434177279472,0.878828227519989,1.715474963188171,0.04608600586652756,0.1995709538459778,0.03628373146057129,XTrueNorthZVertical,0.4762807267444433,-0.2916807660554125,-0.8223570537195515,-0.1086643968328499,0.8467362523078918,-0.3762219548225403,-0.3761579990386963,17.94957733154297,-9.558717727661133,-26.42325592041016,2,10.3.35.51,10.83.46.32,4,0
2015-02-27 16:46:15.711,136,1425084374.566341,37.78773704006335,-122.3968257499557,12.48712,-1,-1,10,65,-9999,1425084375.663268,14.77209091186523,-11.37808227539062,-18.43595886230469,100.9009704589844,87.12771606445312,10,136222.3059524584,0.785369873046875,-0.0542449951171875,-0.242095947265625,136222.2789599167,-0.4265561149530105,-0.317004320351511,2.23500974163327,136222.2789599167,2.682979460757853,1.149626801785664,0.4715987489715326,-0.4353517591953278,-0.3060447573661804,2.270987272262573,0.1004279926419258,0.3066212832927704,-0.006205432582646608,XTrueNorthZVertical,0.4702275290548115,-0.3111032543264909,-0.8235782166586968,-0.06180478952305862,0.8129936456680298,-0.4543111026287079,-0.3642016649246216,17.72293853759766,-11.90666770935059,-25.61003112792969,2,10.3.35.51,10.83.46.32,4,0
2015-02-27 16:46:15.772,137,1425084374.566341,37.78773704006335,-122.3968257499557,12.48712,-1,-1,10,65,-9999,1425084375.767354,13.57852935791016,-12.66928100585938,-17.70363616943359,85.13333892822266,71.36008453369141,10,136222.3550318333,0.710906982421875,-0.35601806640625,-0.091644287109375,136222.330740125,-0.4499463924910674,-1.205568550688667,1.253227948924507,136222.330740125,2.755532645675609,1.064265398216336,0.539242458631749,-0.4587419629096985,-1.194609045982361,1.289205074310303,-0.05994981527328491,0.2544071078300476,0.2719857692718506,XTrueNorthZVertical,0.435926608982763,-0.3190866534664057,-0.841093894506345,-0.02669896403954312,0.7503489851951599,-0.5134860873222351,-0.4163033962249756,16.39398574829102,-12.57116794586182,-26.1715087890625,2,10.3.35.51,10.83.46.32,4,0
2015-02-27 16:46:15.809,138,1425084374.566341,37.78773704006335,-122.3968257499557,12.48712,-1,-1,10,65,-9999,1425084375.767354,13.57852935791016,-12.66928100585938,-17.70363616943359,85.13333892822266,71.36008453369141,10,136222.4040864167,0.6350860595703125,-0.25054931640625,-0.21722412109375,136222.3825203333,-0.2365134721971741,0.04258554372702106,1.2910586848413,136222.3825203333,2.810165898912548,1.012904896196041,0.5874911837847133,-0.2453089505434036,0.05354489386081696,1.327035546302795,-0.02642709016799927,0.3625631630420685,0.2831503748893738,XTrueNorthZVertical,0.4161739655920669,-0.326314352460285,-0.8487155247020106,0.0004547173029036942,0.7061298489570618,-0.5542746186256409,-0.4406363368034363,14.32918834686279,-12.96255874633789,-27.1733570098877,2,10.3.35.51,10.83.46.32,4,0
2015-02-27 16:46:15.899,139,1425084374.566341,37.78773704006335,-122.3968257499557,12.48712,-1,-1,10,65,-9999,1425084375.873127,12.12921524047852,-13.773681640625,-19.31806182861328,78.97461700439453,65.20136260986328,10,136222.4531692917,0.66156005859375,-0.7115936279296875,-0.2894744873046875,136222.43430075,-0.3523548543451138,-0.344632219816102,0.7726147238489589,136222.43430075,2.861583391272181,0.9756747305081546,0.6170074188202219,-0.3611502349376678,-0.333672970533371,0.8085911273956299,0.01453251764178276,-0.03975020349025726,0.2296406179666519,XTrueNorthZVertical,0.4047896471033859,-0.3279100187997929,-0.8532697824031623,0.02347582804785369,0.6753936409950256,-0.5785969495773315,-0.4572407305240631,12.9119701385498,-13.42541122436523,-27.65473365783691,2,10.3.35.51,10.83.46.32,4,0
2015-02-27 16:46:15.910,140,1425084374.566341,37.78773704006335,-122.3968257499557,12.48712,-1,-1,10,65,-9999,1425084375.873127,12.12921524047852,-13.773681640625,-19.31806182861328,78.97461700439453,65.20136260986328,10,136222.502212375,0.4991607666015625,-0.482513427734375,-0.43548583984375,136222.4860807917,-0.1547453719840352,-0.702474517587324,0.9990254944509175,136222.43430075,2.861583391272181,0.9756747305081546,0.6170074188202219,-0.3611502349376678,-0.333672970533371,0.8085911273956299,0.01453251764178276,-0.03975020349025726,0.2296406179666519,XTrueNorthZVertical,0.4047896471033859,-0.3279100187997929,-0.8532697824031623,0.02347582804785369,0.6753936409950256,-0.5785969495773315,-0.4572407305240631,12.9119701385498,-13.42541122436523,-27.65473365783691,2,10.3.35.51,10.83.46.32,4,0
2015-02-27 16:46:15.975,141,1425084374.566341,37.78773704006335,-122.3968257499557,12.48712,-1,-1,10,65,-9999,1425084375.955652,11.51538848876953,-14.18148803710938,-20.88256072998047,71.96870422363281,58.19544982910156,10,136222.551273875,0.2868194580078125,-0.9462738037109375,-0.43060302734375,136222.5378611667,0.1093214311672077,-0.9015788322682641,1.032934991978678,136222.5378611667,2.943343075902611,0.8639412949718051,0.6987160485459527,0.1005262136459351,-0.8906198143959045,1.068910717964172,-0.09277981519699097,-0.2289419919252396,0.1957006901502609,XTrueNorthZVertical,0.3606772795488739,-0.3482554054503742,-0.8632772981159393,0.05815886902012524,0.582220733165741,-0.6432351469993591,-0.4972601532936096,10.75818634033203,-14.05562591552734,-28.25678253173828,2,10.3.35.51,10.83.46.32,4,0
2015-02-27 16:46:16.008,142,1425084374.566341,37.78773704006335,-122.3968257499557,12.48712,-1,-1,10,65,-9999,1425084375.955652,11.51538848876953,-14.18148803710938,-20.88256072998047,71.96870422363281,58.19544982910156,10,136222.60032425,0.049072265625,-1.177032470703125,-0.4832763671875,136222.5896412917,0.01618456257662955,-0.5912894062892788,0.4552530072791593,136222.5378611667,2.943343075902611,0.8639412949718051,0.6987160485459527,0.1005262136459351,-0.8906198143959045,1.068910717964172,-0.09277981519699097,-0.2289419919252396,0.1957006901502609,XTrueNorthZVertical,0.3606772795488739,-0.3482554054503742,-0.8632772981159393,0.05815886902012524,0.582220733165741,-0.6432351469993591,-0.4972601532936096,10.75818634033203,-14.05562591552734,-28.25678253173828,2,10.3.35.51,10.83.46.32,4,0
2015-02-27 16:46:16.104,143,1425084374.566341,37.78773704006335,-122.3968257499557,12.48712,-1,-1,10,65,-9999,1425084376.078161,8.514457702636719,-14.82708740234375,-23.14606475830078,65.96438598632812,52.19113540649414,10,136222.649398,0.2212371826171875,-1.039657592773438,-0.3904876708984375,136222.6414216667,-0.2750193194503028,-0.3726326955171951,0.4257912550879397,136222.6414216667,3.003079814411385,0.7619737090442302,0.7409768715119561,-0.2838143408298492,-0.361673891544342,0.461766242980957,-0.2805570662021637,-0.4547365009784698,0.09537114948034286,XTrueNorthZVertical,0.3225177774745885,-0.3592895006669722,-0.8725559660297991,0.07442781042977673,0.5093473792076111,-0.6750089526176453,-0.5337866544723511,7.33473014831543,-15.05771064758301,-28.83074569702148,2,10.3.35.51,10.83.46.32,4,0
2015-02-27 16:46:16.107,144,1425084374.566341,37.78773704006335,-122.3968257499557,12.48712,-1,-1,10,65,-9999,1425084376.078161,8.514457702636719,-14.82708740234375,-23.14606475830078,65.96438598632812,52.19113540649414,10,136222.6984446667,0.1519012451171875,-0.9985198974609375,-0.2581939697265625,136222.6932016667,-0.01468973025676807,-0.2218849946454778,-0.1399344678976685,136222.6414216667,3.003079814411385,0.7619737090442302,0.7409768715119561,-0.2838143408298492,-0.361673891544342,0.461766242980957,-0.2805570662021637,-0.4547365009784698,0.09537114948034286,XTrueNorthZVertical,0.3225177774745885,-0.3592895006669722,-0.8725559660297991,0.07442781042977673,0.5093473792076111,-0.6750089526176453,-0.5337866544723511,7.33473014831543,-15.05771064758301,-28.83074569702148,2,10.3.35.51,10.83.46.32,4,0
2015-02-27 16:46:16.205,145,1425084374.566341,37.78773704006335,-122.3968257499557,12.48712,-1,-1,10,65,-9999,1425084376.18252,8.991874694824219,-14.52120971679688,-23.17935180664062,47.95199584960938,34.17874526977539,10,136222.747509125,0.2235565185546875,-0.920806884765625,-0.4194793701171875,136222.7449819583,0.1325977254106092,0.7318060412012387,-0.7685400873811377,136222.6932016667,3.020873625417061,0.7340025083005369,0.7417503829170392,-0.02348467521369457,-0.2109263092279434,-0.1039598286151886,-0.3660924136638641,-0.3203311562538147,0.2774462103843689,XTrueNorthZVertical,0.3134061292062905,-0.3578532977343412,-0.8762062497654928,0.07733238807068545,0.4938695132732391,-0.6755794882774353,-0.5474352240562439,6.593552589416504,-14.85312461853027,-29.11450958251953,2,10.3.35.51,10.83.46.32,1,0
2015-02-27 16:46:16.208,146,1425084374.566341,37.78773704006335,-122.3968257499557,12.48712,-1,-1,10,65,-9999,1425084376.18252,8.991874694824219,-14.52120971679688,-23.17935180664062,47.95199584960938,34.17874526977539,10,136222.7965707917,0.4937286376953125,-0.841033935546875,-0.47833251953125,136222.7449819583,0.1325977254106092,0.7318060412012387,-0.7685400873811377,136222.7449819583,2.996598938293715,0.7663126321250034,0.728912611390098,0.1238028630614281,0.7427646517753601,-0.7325657606124878,-0.3460344970226288,-0.237124040722847,0.1372382342815399,XTrueNorthZVertical,0.3244307895650387,-0.3550277139076638,-0.8739455784629045,0.07013690840833843,0.5172685980796814,-0.6660589575767517,-0.53739994764328,6.929429054260254,-14.71639060974121,-29.10593795776367,2,10.3.35.51,10.83.46.32,1,0
2015-02-27 16:46:16.268,147,1425084374.566341,37.78773704006335,-122.3968257499557,12.48712,-1,-1,10,65,-9999,1425084376.23778,9.861469268798828,-14.57220458984375,-22.33053588867188,50.71730041503906,36.94404983520508,10,136222.8456114167,0.4607086181640625,-0.7536163330078125,-0.3823089599609375,136222.8485425417,-0.08483446389225612,0.4706503394375615,-1.467349296360186,136222.7967621667,2.945469349658014,0.8440905856376338,0.7016860930284283,0.1380713731050491,0.7876033782958984,-1.052981495857239,-0.0770767480134964,-0.1955275684595108,0.02911483310163021,XTrueNorthZVertical,0.3521297327070795,-0.3496869670330392,-0.8663494430469969,0.05623516568190124,0.5708053708076477,-0.6455063819885254,-0.507447361946106,8.049980163574219,-14.68014717102051,-28.83463287353516,2,10.3.35.51,10.83.46.32,1,0
2015-02-27 16:46:16.303,148,1425084374.566341,37.78773704006335,-122.3968257499557,12.48712,-1,-1,10,65,-9999,1425084376.23778,9.861469268798828,-14.57220458984375,-22.33053588867188,50.71730041503906,36.94404983520508,10,136222.89463925,0.6560211181640625,-0.51702880859375,-0.3484649658203125,136222.8485425417,-0.08483446389225612,0.4706503394375615,-1.467349296360186,136222.8485425417,2.893027999495619,0.9034545470540685,0.6537320585948501,-0.0936291441321373,0.4816086888313293,-1.431375741958618,-0.1628126502037048,-0.1454631239175797,0.1089862436056137,XTrueNorthZVertical,0.3744100099985805,-0.3378898398073502,-0.8628607330544419,0.03345191798410153,0.6235212683677673,-0.608153223991394,-0.49129518866539,9.729961395263672,-14.43198585510254,-28.43924331665039,2,10.3.35.51,10.83.46.32,1,0
