loggingTime,loggingSample,locationTimestamp_since1970,locationLatitude,locationLongitude,locationAltitude,locationSpeed,locationCourse,locationVerticalAccuracy,locationHorizontalAccuracy,locationFloor,locationHeadingTimestamp_since1970,locationHeadingX,locationHeadingY,locationHeadingZ,locationTrueHeading,locationMagneticHeading,locationHeadingAccuracy,accelerometerTimestamp_sinceReboot,accelerometerAccelerationX,accelerometerAccelerationY,accelerometerAccelerationZ,gyroTimestamp_sinceReboot,gyroRotationX,gyroRotationY,gyroRotationZ,motionTimestamp_sinceReboot,motionYaw,motionRoll,motionPitch,motionRotationRateX,motionRotationRateY,motionRotationRateZ,motionUserAccelerationX,motionUserAccelerationY,motionUserAccelerationZ,motionAttitudeReferenceFrame,motionQuaternionX,motionQuaternionY,motionQuaternionZ,motionQuaternionW,motionGravityX,motionGravityY,motionGravityZ,motionMagneticFieldX,motionMagneticFieldY,motionMagneticFieldZ,motionMagneticFieldCalibrationAccuracy,IP_en0,IP_pdp_ip0,deviceOrientation,state
2015-02-28 14:13:46.934,1,1425161622.111133,37.77938038579913,-122.4387080782302,60.1492,0.46,94.921875,4,50,-9999,1425161626.913128,30.84665298461914,-32.03070068359375,-6.014930725097656,274.6908264160156,260.9029846191406,10,156699.5938267917,0.1893310546875,-0.9180755615234375,-0.3687286376953125,156699.5735706667,-0.03857242628038066,-0.124758710741961,-0.06038877561420077,156699.5735706667,-0.925260376797817,0.5201124871003511,1.104700505325859,-0.04850711300969124,-0.1122506260871887,-0.02450649626553059,-0.01644890196621418,-0.006771070417016745,0.03690148144960403,XTrueNorthZVertical,-0.551441710146429,0.03040954529915251,0.2464262895882844,-0.7964053123992736,0.2233428210020065,-0.8933296203613281,-0.3899745941162109,31.61391448974609,-32.38948059082031,-6.550642967224121,2,192.168.1.8,10.83.46.32,1,0
2015-02-28 14:13:47.013,2,1425161622.111133,37.77938038579913,-122.4387080782302,60.1492,0.46,94.921875,4,50,-9999,1425161626.980734,30.48865509033203,-31.87776184082031,-6.431007385253906,275.3285827636719,261.5407409667969,10,156699.642838125,0.2256317138671875,-0.88232421875,-0.3792266845703125,156699.625348625,0.007719172419594672,0.1471276660019726,0.04153013298702266,156699.625348625,-0.9194310718810127,0.5156804793336904,1.106247432099499,-0.002213312080129981,0.1596357971429825,0.07741542905569077,-0.01612707227468491,0.03258882462978363,0.01581080444157124,XTrueNorthZVertical,-0.5515102096752347,0.03094372668635637,0.2450009380482676,-0.7967769780250683,0.2209305465221405,-0.8940237760543823,-0.3897579610347748,31.53609848022461,-32.44616317749023,-6.644540786743164,2,192.168.1.8,10.83.46.32,1,0
2015-02-28 14:13:47.015,3,1425161622.111133,37.77938038579913,-122.4387080782302,60.1492,0.46,94.921875,4,50,-9999,1425161626.980734,30.48865509033203,-31.87776184082031,-6.431007385253906,275.3285827636719,261.5407409667969,10,156699.6918729584,0.257232666015625,-0.87286376953125,-0.410369873046875,156699.6771265417,0.01241911911136651,0.1821674090963631,0.04552993462821267,156699.6771265417,-0.9132915719237038,0.5184858575042905,1.10719643080579,0.002487078076228499,0.1946758180856705,0.08141423761844635,0.0186318401247263,-0.0009829907212406397,-0.0111060868948698,XTrueNorthZVertical,-0.5522643136940466,0.02836130658408758,0.2415807509490529,-0.797394847508015,0.2216025292873383,-0.8944485187530518,-0.3883995413780212,31.48649597167969,-32.53409576416016,-6.446876525878906,2,192.168.1.8,10.83.46.32,1,0
2015-02-28 14:13:47.048,4,1425161622.111133,37.77938038579913,-122.4387080782302,60.1492,0.46,94.921875,4,50,-9999,1425161626.980734,30.48865509033203,-31.87776184082031,-6.431007385253906,275.3285827636719,261.5407409667969,10,156699.7408858333,0.2643585205078125,-0.8885040283203125,-0.3961181640625,156699.7289037083,0.01477175561834251,-0.007153517004061842,-0.01574780415785655,156699.6771265417,-0.9132915719237038,0.5184858575042905,1.10719643080579,0.002487078076228499,0.1946758180856705,0.08141423761844635,0.0186318401247263,-0.0009829907212406397,-0.0111060868948698,XTrueNorthZVertical,-0.5522643136940466,0.02836130658408758,0.2415807509490529,-0.797394847508015,0.2216025292873383,-0.8944485187530518,-0.3883995413780212,31.48649597167969,-32.53409576416016,-6.446876525878906,2,192.168.1.8,10.83.46.32,1,0
2015-02-28 14:13:47.110,5,1425161622.111133,37.77938038579913,-122.4387080782302,60.1492,0.46,94.921875,4,50,-9999,1425161627.108471,30.53979873657227,-32.33657836914062,-6.014938354492188,274.2497863769531,260.4619445800781,10,156699.7899268334,0.2389984130859375,-0.873992919921875,-0.3821868896484375,156699.7806817083,0.05723159814191184,-0.1225118017302611,-0.02392077922720073,156699.7806817083,-0.9109635509945581,0.5192546821723701,1.108206462522244,0.04729589819908142,-0.1100025251507759,0.01195288822054863,0.02314572781324387,0.02176130004227161,0.00222111283801496,XTrueNorthZVertical,-0.5527322262258304,0.02765565692303507,0.2402281301279076,-0.7975040653058731,0.2214526534080505,-0.8948997259140015,-0.3874444961547852,31.42640495300293,-32.64551544189453,-6.170931816101074,2,192.168.1.8,10.83.46.32,1,0
2015-02-28 14:13:47.148,6,1425161622.111133,37.77938038579913,-122.4387080782302,60.1492,0.46,94.921875,4,50,-9999,1425161627.108471,30.53979873657227,-32.33657836914062,-6.014938354492188,274.2497863769531,260.4619445800781,10,156699.8390240417,0.223968505859375,-0.909912109375,-0.3690948486328125,156699.8324597917,0.04029469255733491,-0.1731081340162406,-0.1119073605856746,156699.7806817083,-0.9109635509945581,0.5192546821723701,1.108206462522244,0.04729589819908142,-0.1100025251507759,0.01195288822054863,0.02314572781324387,0.02176130004227161,0.00222111283801496,XTrueNorthZVertical,-0.5527322262258304,0.02765565692303507,0.2402281301279076,-0.7975040653058731,0.2214526534080505,-0.8948997259140015,-0.3874444961547852,31.42640495300293,-32.64551544189453,-6.170931816101074,2,192.168.1.8,10.83.46.32,1,0
2015-02-28 14:13:47.206,7,1425161622.111133,37.77938038579913,-122.4387080782302,60.1492,0.46,94.921875,4,50,-9999,1425161627.160069,30.53979873657227,-32.33660888671875,-6.281227111816406,274.681884765625,260.89404296875,10,156699.8879699583,0.2492828369140625,-0.8935089111328125,-0.376678466796875,156699.884236875,0.07036471074152859,-0.0661001908879847,-0.07429686809103059,156699.8324597917,-0.9205363971719692,0.5223219717024157,1.109588255463176,0.03036302141845226,-0.1605954468250275,-0.07603771239519119,0.00585186155512929,-0.01140586379915476,0.02085371874272823,XTrueNorthZVertical,-0.5534338511294578,0.0294158053315826,0.2429028134510655,-0.7961431680237049,0.2220228910446167,-0.895515501499176,-0.385691374540329,31.4482307434082,-32.60932159423828,-6.25059700012207,2,192.168.1.8,10.83.46.32,1,0
2015-02-28 14:13:47.247,8,1425161622.111133,37.77938038579913,-122.4387080782302,60.1492,0.46,94.921875,4,50,-9999,1425161627.214341,30.71027374267578,-32.33660888671875,-6.447662353515625,275.3032531738281,261.5154113769531,10,156699.93699225,0.191497802734375,-0.910736083984375,-0.3696136474609375,156699.9360149583,0.03191745303238165,-0.2030423309848402,-0.05242246184544675,156699.884236875,-0.9292212760066437,0.5254785924354863,1.110787441977471,0.0604339987039566,-0.05358730256557465,-0.03842701762914658,0.01651162095367908,-0.006524078547954559,0.005183589179068804,XTrueNorthZVertical,-0.5540921772118853,0.03085771082840464,0.2452290781924104,-0.7949165981387462,0.2227004170417786,-0.8960485458374023,-0.3840593099594116,31.53937149047852,-32.50318908691406,-6.343497276306152,2,192.168.1.8,10.83.46.32,1,0
2015-02-28 14:13:47.304,9,1425161622.111133,37.77938038579913,-122.4387080782302,60.1492,0.46,94.921875,4,50,-9999,1425161627.289741,30.60799026489258,-32.40457153320312,-6.114814758300781,274.9837036132812,261.1958618164062,10,156699.986023625,-0.0486297607421875,-0.9365081787109375,-0.320892333984375,156699.9877927083,0.05867742829771586,0.8620777617157728,0.1701749283916273,156699.9360149583,-0.9337910456497298,0.521769044700671,1.110228990584976,0.0219853650778532,-0.1905300617218018,-0.01655392535030842,-0.01177625637501478,-0.004788503982126713,-0.003935158252716064,XTrueNorthZVertical,-0.5533734381279075,0.03345986551591485,0.2481905509844195,-0.7943927012056189,0.2215235680341721,-0.8958004713058472,-0.3853165507316589,31.58754348754883,-32.43894958496094,-6.432026863098145,2,192.168.1.8,10.83.46.32,1,0
2015-02-28 14:13:47.343,10,1425161622.111133,37.77938038579913,-122.4387080782302,60.1492,0.46,94.921875,4,50,-9999,1425161627.289741,30.60799026489258,-32.40457153320312,-6.114814758300781,274.9837036132812,261.1958618164062,10,156700.03504225,0.39715576171875,-0.9385833740234375,-0.425384521484375,156699.9877927083,0.05867742829771586,0.8620777617157728,0.1701749283916273,156699.9877927083,-0.9317838826375768,0.5390653823220014,1.122481805446895,0.04875631630420685,0.8745927214622498,0.2060508728027344,-0.2711330354213715,-0.03532923012971878,0.05108728632330894,XTrueNorthZVertical,-0.5596124566271288,0.02905320404618209,0.2399567800673742,-0.7927235277034814,0.2225032895803452,-0.9011789560317993,-0.3719796240329742,31.52439498901367,-32.49074554443359,-6.480189323425293,2,192.168.1.8,10.83.46.32,1,0
2015-02-28 14:13:47.402,11,1425161622.111133,37.77938038579913,-122.4387080782302,60.1492,0.46,94.921875,4,50,-9999,1425161627.341698,30.4886589050293,-32.82942199707031,-5.665443420410156,274.3836669921875,260.5958251953125,10,156700.08407475,-1.52587890625e-05,-0.9114532470703125,-0.1743927001953125,156700.091347875,0.08815249629438585,1.868045051864091,0.2205656646414526,156700.0395699583,-0.9323639912186314,0.5792058826931903,1.123109718620712,0.09266848862171173,0.5113544464111328,0.08425828814506531,0.1602140367031097,-0.03713243454694748,-0.06310717761516571,XTrueNorthZVertical,-0.5645176524570923,0.01345906403847426,0.2287678965372397,-0.7929716017147287,0.2369417250156403,-0.9014509320259094,-0.3622773587703705,31.62980842590332,-32.69384765625,-4.700689315795898,2,192.168.1.8,10.83.46.32,1,0
2015-02-28 14:13:47.441,12,1425161622.111133,37.77938038579913,-122.4387080782302,60.1492,0.46,94.921875,4,50,-9999,1425161627.393441,30.38637161254883,-33.16928100585938,-5.166152954101562,273.6378784179688,259.8500366210938,10,156700.1332202917,0.2672271728515625,-0.9239501953125,-0.2851715087890625,156700.091347875,0.08815249629438585,1.868045051864091,0.2205656646414526,156700.091347875,-0.9182716130623003,0.6065477418076143,1.13131903583503,0.078231580555439,1.880559802055359,0.2564409077167511,-0.2425458282232285,-0.006479064933955669,0.1751794666051865,XTrueNorthZVertical,-0.5702749015407012,0.0006727086838140637,0.2135792402475296,-0.7932023891943417,0.242530569434166,-0.9049741625785828,-0.3495721817016602,31.54916954040527,-32.87897109985352,-3.87969970703125,2,192.168.1.8,10.83.46.32,1,0
2015-02-28 14:13:47.500,13,1425161622.111133,37.77938038579913,-122.4387080782302,60.1492,0.46,94.921875,4,50,-9999,1425161627.445922,30.76142120361328,-33.40719604492188,-2.702995300292969,270.5368041992188,256.7489624023438,10,156700.182166625,0.3751983642578125,-0.8667755126953125,-0.2210845947265625,156700.14312575,0.0311089173254336,2.897243628833388,-0.3973468304331305,156700.14312575,-0.9376762550613369,0.7623402163916025,1.129991181830909,0.02118810638785362,2.9097580909729,-0.361471951007843,0.03466687723994255,-0.04497816786170006,-0.01051630917936563,XTrueNorthZVertical,-0.5853261728101712,-0.05572726131963153,0.1765544776602749,-0.7893771583595967,0.2946635782718658,-0.9044084548950195,-0.3085754811763763,31.59913063049316,-33.04791259765625,-0.8714828491210938,2,192.168.1.8,10.83.46.32,1,0
2015-02-28 14:13:47.540,14,1425161622.111133,37.77938038579913,-122.4387080782302,60.1492,0.46,94.921875,4,50,-9999,1425161627.497758,31.0341796875,-33.3392333984375,0.6921768188476562,267.2062377929688,253.4184112548828,10,156700.231294,0.53887939453125,-0.860321044921875,-0.2501220703125,156700.1949029583,-0.3369625821927828,3.048722633740441,-0.2720733306524571,156700.1949029583,-0.9401258379631241,0.9045255192812246,1.11726470512558,-0.3468832969665527,3.06123685836792,-0.236198827624321,-0.02018889412283897,0.05015047267079353,0.1045229956507683,XTrueNorthZVertical,-0.5928776988003764,-0.114442228276166,0.1389696894602216,-0.7849117619301155,0.3444381654262543,-0.898905336856842,-0.2707980275154114,31.80172157287598,-32.55778121948242,4.48000431060791,2,192.168.1.8,10.83.46.32,1,0
2015-02-28 14:13:47.600,15,1425161622.111133,37.77938038579913,-122.4387080782302,60.1492,0.46,94.921875,4,50,-9999,1425161627.548974,30.91484451293945,-33.59413146972656,4.936134338378906,260.9833984375,247.1955718994141,10,156700.280237875,0.4895782470703125,-0.8623504638671875,-0.1768798828125,156700.2466809167,-0.02065521109854556,2.587568061485666,0.2209448987806799,156700.2466809167,-0.9393935311009883,1.050043004553257,1.105365388005837,-0.03057583421468735,2.600082397460938,0.2568190693855286,0.08851289004087448,0.03516876697540283,-0.02503966353833675,XTrueNorthZVertical,-0.5981606029524866,-0.1748008259941493,0.09870775208737062,-0.7758256130972292,0.3893160820007324,-0.8936282396316528,-0.2232971340417862,31.34904861450195,-32.21342849731445,8.423858642578125,2,192.168.1.8,10.83.46.32,1,0
2015-02-28 14:13:47.638,16,1425161622.111133,37.77938038579913,-122.4387080782302,60.1492,0.46,94.921875,4,50,-9999,1425161627.600546,29.70447158813477,-33.54315185546875,8.514381408691406,255.2215881347656,241.4337463378906,10,156700.3292532083,0.3535614013671875,-0.9344940185546875,-0.06201171875,156700.298458875,0.1187623372315386,2.095003102070061,0.337102398150012,156700.298458875,-0.9290825798489839,1.166978225415314,1.121283634616399,0.1088418141007423,2.107517242431641,0.3729762136936188,0.2035422325134277,0.02097450941801071,-0.02910480462014675,XTrueNorthZVertical,-0.605768864399579,-0.2183444644029905,0.05474420463578041,-0.7631335976092024,0.3995766639709473,-0.9006589651107788,-0.1707395613193512,29.80983352661133,-32.5051383972168,12.09209632873535,2,192.168.1.8,10.83.46.32,1,0
2015-02-28 14:13:47.696,17,1425161622.111133,37.77938038579913,-122.4387080782302,60.1492,0.46,94.921875,4,50,-9999,1425161627.654425,28.01676940917969,-33.62814331054688,11.69319915771484,250.0423431396484,236.2545013427734,10,156700.3782809583,0.46148681640625,-1.004287719726562,0.0182952880859375,156700.3502360417,-0.3026831715896099,1.863587719147625,-0.2911447598507326,156700.3502360417,-0.9122769039278275,1.229459653895725,1.12492412564049,-0.3126035928726196,1.876101851463318,-0.2552713453769684,-0.04969149082899094,-0.1753255426883698,0.1689856499433517,XTrueNorthZVertical,-0.60601144690528,-0.2461120557484843,0.02829615240026587,-0.7558957255778855,0.406365692615509,-0.9022348523139954,-0.1443579643964767,27.70492553710938,-32.96584701538086,15.39867210388184,2,192.168.1.8,10.83.46.32,1,0
2015-02-28 14:13:47.736,18,1425161622.111133,37.77938038579913,-122.4387080782302,60.1492,0.46,94.921875,4,50,-9999,1425161627.730137,25.39144897460938,-34.10394287109375,15.25480651855469,241.5014038085938,227.7135620117188,10,156700.4273068334,0.4990386962890625,-0.7934112548828125,-0.046112060546875,156700.402014125,-0.2493616265601524,2.784738654899099,-0.254557453846897,156700.402014125,-0.8857238340766861,1.333771522683384,1.105358403916061,-0.2592819333076477,2.797252416610718,-0.2186843901872635,0.08082403242588043,0.04938682541251183,0.04952439293265343,XTrueNorthZVertical,-0.5983015782844169,-0.2989010058550847,-0.006803968621969466,-0.7434024173250576,0.4362657964229584,-0.8936250805854797,-0.1053868234157562,26.51811790466309,-32.87382507324219,17.53654098510742,2,192.168.1.8,10.83.46.32,1,0
2015-02-28 14:13:47.797,19,1425161622.111133,37.77938038579913,-122.4387080782302,60.1492,0.46,94.921875,4,50,-9999,1425161627.781505,23.68669128417969,-34.17192077636719,18.05083465576172,235.9739532470703,222.1861114501953,10,156700.476348375,0.4912261962890625,-0.8703460693359375,0.063079833984375,156700.453791875,-0.3382363721421677,2.870713218054019,-0.1232383120756348,156700.453791875,-0.8664710009467396,1.451680824415622,1.097598802270174,-0.3481497466564178,2.883206605911255,-0.08732366561889648,0.07726431638002396,0.02976405620574951,0.1199679672718048,XTrueNorthZVertical,-0.5918610776682454,-0.3501743300526795,-0.04638739373938249,-0.7245182199007568,0.4525055885314941,-0.8901156187057495,-0.05415680631995201,24.49892997741699,-32.83868408203125,20.31876564025879,2,192.168.1.8,10.83.46.32,1,0
2015-02-28 14:13:47.835,20,1425161622.111133,37.77938038579913,-122.4387080782302,60.1492,0.46,94.921875,4,50,-9999,1425161627.781505,23.68669128417969,-34.17192077636719,18.05083465576172,235.9739532470703,222.1861114501953,10,156700.525475375,0.68939208984375,-0.7784271240234375,-0.043792724609375,156700.50556925,-0.7629098985206012,3.251128202908643,0.1174547251363097,156700.453791875,-0.8664710009467396,1.451680824415622,1.097598802270174,-0.3481497466564178,2.883206605911255,-0.08732366561889648,0.07726431638002396,0.02976405620574951,0.1199679672718048,XTrueNorthZVertical,-0.5918610776682454,-0.3501743300526795,-0.04638739373938249,-0.7245182199007568,0.4525055885314941,-0.8901156187057495,-0.05415680631995201,24.49892997741699,-32.83868408203125,20.31876564025879,2,192.168.1.8,10.83.46.32,1,0
2015-02-28 14:13:47.898,21,1425161622.111133,37.77938038579913,-122.4387080782302,60.1492,0.46,94.921875,4,50,-9999,1425161627.888572,15.91302871704102,-34.85163879394531,22.77743530273438,218.11083984375,204.322998046875,10,156700.5744200833,0.5956878662109375,-1.030380249023438,0.1742401123046875,156700.557347,-0.6163484205663795,2.790723576816835,0.1875286186868016,156700.557347,-0.7352032405265873,1.631897051179936,1.110736878805273,-0.626262366771698,2.803216457366943,0.2234420329332352,-0.1092953607439995,-0.03068593144416809,0.05829150974750519,XTrueNorthZVertical,-0.5595502258903072,-0.4477270505328759,-0.1491537672190962,-0.6813202071009949,0.4431729316711426,-0.896026074886322,0.02711193449795246,17.07242202758789,-34.19295501708984,25.11580085754395,2,192.168.1.8,10.83.46.32,1,0
2015-02-28 14:13:47.931,22,1425161622.111133,37.77938038579913,-122.4387080782302,60.1492,0.46,94.921875,4,50,-9999,1425161627.888572,15.91302871704102,-34.85163879394531,22.77743530273438,218.11083984375,204.322998046875,10,156700.6235390417,0.337158203125,-0.86322021484375,-0.0509490966796875,156700.6091251667,-0.2905633917847683,1.586498857214222,0.6907265150706575,156700.6091251667,-0.6915191038167797,1.710418668862824,1.136588697650736,-0.3004771769046783,1.598991632461548,0.7266396284103394,0.2497076690196991,0.07576751708984375,-0.03904658183455467,XTrueNorthZVertical,-0.5477681683847534,-0.4787731103526716,-0.1947439324196482,-0.6578762659086628,0.4165978729724884,-0.9072036743164062,0.05854731425642967,13.52812576293945,-35.03350067138672,26.09737205505371,2,192.168.1.8,10.83.46.32,1,0
2015-02-28 14:13:47.999,23,1425161622.111133,37.77938038579913,-122.4387080782302,60.1492,0.46,94.921875,4,50,-9999,1425161627.96202,10.25325393676758,-36.00717163085938,23.70944976806641,204.9146881103516,191.1268463134766,10,156700.6724747083,0.52490234375,-0.9217529296875,0.092132568359375,156700.66090225,-0.03946218840057614,-0.1406210308266909,0.3375564671158705,156700.6091251667,-0.6915191038167797,1.710418668862824,1.136588697650736,-0.3004771769046783,1.598991632461548,0.7266396284103394,0.2497076690196991,0.07576751708984375,-0.03904658183455467,XTrueNorthZVertical,-0.5477681683847534,-0.4787731103526716,-0.1947439324196482,-0.6578762659086628,0.4165978729724884,-0.9072036743164062,0.05854731425642967,13.52812576293945,-35.03350067138672,26.09737205505371,2,192.168.1.8,10.83.46.32,1,0
2015-02-28 14:13:48.029,24,1425161622.111133,37.77938038579913,-122.4387080782302,60.1492,0.46,94.921875,4,50,-9999,1425161628.014567,8.855365753173828,-36.31303405761719,23.84259796142578,201.82373046875,188.035888671875,10,156700.721507625,0.3865814208984375,-0.8331146240234375,0.0499725341796875,156700.71268025,-0.08978128561707831,-0.5608798350661001,0.1941319266096531,156700.66090225,-0.6734927254047638,1.729772822311253,1.160458393308837,-0.04937589913606644,-0.12812839448452,0.373469203710556,0.2265182137489319,-0.1573242396116257,0.02193100936710835,XTrueNorthZVertical,-0.5459685864162863,-0.4832124812053262,-0.2145019261412391,-0.6499330444655403,0.3938888907432556,-0.9169860482215881,0.0631520003080368,10.09635257720947,-35.9178352355957,26.44620704650879,2,192.168.1.8,10.83.46.32,1,0
2015-02-28 14:13:48.100,25,1425161622.111133,37.77938038579913,-122.4387080782302,60.1492,0.46,94.921875,4,50,-9999,1425161628.072555,9.400882720947266,-36.448974609375,23.84259796142578,202.9573974609375,189.1695556640625,10,156700.770540625,0.7550811767578125,-1.110427856445312,-0.08746337890625,156700.7644580833,-0.2685153474361113,-2.918668227170857,-0.4334694148267472,156700.7644580833,-0.6446608038778969,1.606530664775513,1.175603043813669,-0.278428852558136,-2.906175851821899,-0.3975574374198914,0.2028598040342331,0.104867972433567,-0.1565002948045731,XTrueNorthZVertical,-0.5549170398716069,-0.4460316548283653,-0.1954647353453648,-0.6744749194300137,0.3847409188747406,-0.9229221940040588,0.01375431660562754,10.28982734680176,-36.3925895690918,25.7124080657959,2,192.168.1.8,10.83.46.32,1,0
2015-02-28 14:13:48.128,26,1425161622.111133,37.77938038579913,-122.4387080782302,60.1492,0.46,94.921875,4,50,-9999,1425161628.072555,9.400882720947266,-36.448974609375,23.84259796142578,202.9573974609375,189.1695556640625,10,156700.8196785834,0.499847412109375,-0.724090576171875,-0.2186279296875,156700.7644580833,-0.2685153474361113,-2.918668227170857,-0.4334694148267472,156700.7644580833,-0.6446608038778969,1.606530664775513,1.175603043813669,-0.278428852558136,-2.906175851821899,-0.3975574374198914,0.2028598040342331,0.104867972433567,-0.1565002948045731,XTrueNorthZVertical,-0.5549170398716069,-0.4460316548283653,-0.1954647353453648,-0.6744749194300137,0.3847409188747406,-0.9229221940040588,0.01375431660562754,10.28982734680176,-36.3925895690918,25.7124080657959,2,192.168.1.8,10.83.46.32,1,0
2015-02-28 14:13:48.198,27,1425161622.111133,37.77938038579913,-122.4387080782302,60.1492,0.46,94.921875,4,50,-9999,1425161628.145845,13.15134048461914,-36.72088623046875,22.14500427246094,210.4473266601562,196.6594848632812,10,156700.8686035,0.0457916259765625,-1.10662841796875,0.1105804443359375,156700.86801325,-0.6875911755193072,-2.958653460409525,0.7352343284724977,156700.8162354167,-0.5692448934880195,1.345640729941645,1.2035338157977,-0.092476986348629,-4.266145706176758,0.8486412167549133,0.211326077580452,0.2007087916135788,-0.1722626835107803,XTrueNorthZVertical,-0.5691667164502201,-0.3687377350451214,-0.1575717210581771,-0.7178112024163361,0.3499990105628967,-0.93331378698349,-0.08016346395015717,14.30694675445557,-37.19908905029297,22.42695236206055,2,192.168.1.8,10.83.46.32,1,0
2015-02-28 14:13:48.225,28,1425161622.111133,37.77938038579913,-122.4387080782302,60.1492,0.46,94.921875,4,50,-9999,1425161628.145845,13.15134048461914,-36.72088623046875,22.14500427246094,210.4473266601562,196.6594848632812,10,156700.9176150833,0.0807647705078125,-0.9462432861328125,0.09771728515625,156700.9197913333,-1.43407735959739,2.284087006833468,1.5057275781971,156700.86801325,-0.4862042798462804,1.062093130378858,1.220986511867443,-0.6975056529045105,-2.94616174697876,0.7711454629898071,-0.2299260795116425,-0.1558227092027664,0.1925086975097656,XTrueNorthZVertical,-0.5796703082245083,-0.2837648285031878,-0.1117188292056639,-0.75563138964771,0.2993230521678925,-0.9394379258155823,-0.1669197082519531,17.3083381652832,-37.86823654174805,18.91685485839844,2,192.168.1.8,10.83.46.32,1,0
2015-02-28 14:13:48.297,29,1425161622.111133,37.77938038579913,-122.4387080782302,60.1492,0.46,94.921875,4,50,-9999,1425161628.273474,15.2140998840332,-39.8306884765625,15.13829803466797,218.1757659912109,204.3879241943359,10,156700.9666426667,0.39312744140625,-0.9759368896484375,-0.0812835693359375,156700.9197913333,-1.43407735959739,2.284087006833468,1.5057275781971,156700.9197913333,-0.2299176361559821,0.8229770086145378,1.243386910945603,-1.443991661071777,2.296578407287598,1.541638255119324,-0.1550174206495285,0.0006353426724672318,0.3164126873016357,XTrueNorthZVertical,-0.5675682188616989,-0.261760605943763,-0.1459520984101,-0.7668413949679264,0.235782191157341,-0.9468786120414734,-0.2186954021453857,17.49526786804199,-39.22191619873047,15.71578598022461,2,192.168.1.8,10.83.46.32,1,0
2015-02-28 14:13:48.323,30,1425161622.111133,37.77938038579913,-122.4387080782302,60.1492,0.46,94.921875,4,50,-9999,1425161628.273474,15.2140998840332,-39.8306884765625,15.13829803466797,218.1757659912109,204.3879241943359,10,156701.015665375,0.6036224365234375,-0.89788818359375,-0.3057708740234375,156700.9715684583,-1.789447444928691,4.333790804025718,1.276032597338855,156700.9715684583,0.0980663124508255,0.7016861367883565,1.228659005840072,-1.799361705780029,4.346282005310059,1.311942934989929,0.1765591502189636,-0.03389714658260345,0.1749572455883026,XTrueNorthZVertical,-0.5268816870352796,-0.3070428015471232,-0.2354803264950122,-0.7567492713384721,0.2165682911872864,-0.9420397281646729,-0.2562408149242401,11.60025882720947,-41.86257171630859,14.29644107818604,2,192.168.1.8,10.83.46.32,1,0
2015-02-28 14:13:48.399,31,1425161622.111133,37.77938038579913,-122.4387080782302,60.1492,0.46,94.921875,4,50,-9999,1425161628.37722,6.195960998535156,-42.90650939941406,11.56005859375,195.4267578125,181.638916015625,10,156701.0647136667,0.5001373291015625,-0.7923583984375,-0.2891693115234375,156701.0751243334,-1.093413782437724,0.3405799539014374,0.8349318944084861,156701.0233465,0.3811864747841347,0.6123306712223382,1.195857333302419,-1.554218649864197,2.403669595718384,1.104892253875732,0.3931302726268768,0.03264178335666656,-0.006092565134167671,XTrueNorthZVertical,-0.4798417091532454,-0.3462842470736803,-0.3158904752060416,-0.741655175949148,0.2104921638965607,-0.9305299520492554,-0.2996782958507538,6.713691711425781,-43.46500396728516,12.53590965270996,2,192.168.1.8,10.83.46.32,1,0
2015-02-28 14:13:48.422,32,1425161622.111133,37.77938038579913,-122.4387080782302,60.1492,0.46,94.921875,4,50,-9999,1425161628.37722,6.195960998535156,-42.90650939941406,11.56005859375,195.4267578125,181.638916015625,10,156701.1137130834,0.381805419921875,-0.8793182373046875,-0.218353271484375,156701.0751243334,-1.093413782437724,0.3405799539014374,0.8349318944084861,156701.0751243334,0.5896905265374323,0.4779525356898012,1.167829361924166,-1.103327870368958,0.3530710339546204,0.8708415627479553,0.2581179440021515,0.09508770704269409,0.0777120515704155,XTrueNorthZVertical,-0.4551245865673387,-0.3446147253100264,-0.3604183616707763,-0.7376997657072362,0.1803738921880722,-0.9199015498161316,-0.3482046127319336,3.381075859069824,-44.4858512878418,10.05020141601562,2,192.168.1.8,10.83.46.32,1,0
2015-02-28 14:13:48.499,33,1425161622.111133,37.77938038579913,-122.4387080782302,60.1492,0.46,94.921875,4,50,-9999,1425161628.480726,0.87713623046875,-44.333984375,6.933311462402344,186.3435668945312,172.5557250976562,10,156701.1627474167,0.292327880859375,-0.8414306640625,-0.212127685546875,156701.12690175,-0.7525102544638418,0.01775822446475737,0.7556218918814903,156701.12690175,0.7205801140242544,0.3583795426856564,1.139666441138834,-0.7624241709709167,0.03024918399751186,0.7915312051773071,0.1826735585927963,0.05662647634744644,0.1679279059171677,XTrueNorthZVertical,-0.4438633013699152,-0.3275848318166675,-0.3820685910185968,-0.7414156576241587,0.1465805917978287,-0.9084941744804382,-0.3913470804691315,0.9764533042907715,-45.1528434753418,7.190009117126465,2,192.168.1.8,10.83.46.32,1,0
2015-02-28 14:13:48.522,34,1425161622.111133,37.77938038579913,-122.4387080782302,60.1492,0.46,94.921875,4,50,-9999,1425161628.480726,0.87713623046875,-44.333984375,6.933311462402344,186.3435668945312,172.5557250976562,10,156701.2117645,0.2241058349609375,-0.8112030029296875,-0.29266357421875,156701.1786795417,-0.6054289274648366,0.6608799361019214,0.6963103649282266,156701.1786795417,0.825506442053927,0.2812038988340289,1.119499067991191,-0.6153427958488464,0.6733707785606384,0.7322193384170532,0.1826785057783127,0.06159472838044167,0.1947139650583267,XTrueNorthZVertical,-0.4339475695330723,-0.3196686652359018,-0.4047221137736218,-0.7387161159320961,0.1210324317216873,-0.8998820781707764,-0.419002890586853,-0.590268611907959,-45.37028884887695,5.711169242858887,2,192.168.1.8,10.83.46.32,1,0
2015-02-28 14:13:48.598,35,1425161622.111133,37.77938038579913,-122.4387080782302,60.1492,0.46,94.921875,4,50,-9999,1425161628.584232,-2.7880859375,-44.894775390625,4.420204162597656,179.89208984375,166.104248046875,10,156701.260802125,0.2954254150390625,-0.792022705078125,-0.323883056640625,156701.230457625,-0.4007748513882805,0.7163956595534953,0.5196226760908106,156701.230457625,0.9151343068785462,0.2400499923071587,1.102163350854453,-0.410688579082489,0.7288864254951477,0.5555313229560852,0.1149056479334831,0.07961026579141617,0.130290150642395,XTrueNorthZVertical,-0.4213007651028275,-0.3211660615873763,-0.4299052532640311,-0.7311221083900891,0.1073843911290169,-0.8921865820884705,-0.4387160539627075,-2.220976829528809,-45.46410751342773,4.417154312133789,2,192.168.1.8,10.83.46.32,1,0
2015-02-28 14:13:48.618,36,1425161622.111133,37.77938038579913,-122.4387080782302,60.1492,0.46,94.921875,4,50,-9999,1425161628.584232,-2.7880859375,-44.894775390625,4.420204162597656,179.89208984375,166.104248046875,10,156701.3099254583,0.1991119384765625,-0.8089141845703125,-0.3954315185546875,156701.28223475,-0.09559123785119517,0.009779127522770962,0.4378332705889511,156701.28223475,0.9733039187152821,0.2061981095444415,1.096568131442097,-0.1055048778653145,0.0222697127610445,0.4737415015697479,0.2149919867515564,0.05024418607354164,0.1215847805142403,XTrueNorthZVertical,-0.4171891500932406,-0.3200999601122467,-0.4444137729511196,-0.725248691790976,0.09349494427442551,-0.8896454572677612,-0.4469784498214722,-3.855057001113892,-45.44802474975586,3.323343276977539,2,192.168.1.8,10.83.46.32,1,0
2015-02-28 14:13:48.698,37,1425161622.111133,37.77938038579913,-122.4387080782302,60.1492,0.46,94.921875,4,50,-9999,1425161628.687904,-5.106552124023438,-44.28303527832031,3.754493713378906,176.8872833251953,163.0994415283203,10,156701.3588447917,0.153533935546875,-0.858612060546875,-0.3389739990234375,156701.3340128333,0.1353722066342538,-0.6206576815262367,0.2515044059732301,156701.3340128333,1.013601977053525,0.1543595661564846,1.099354915516142,0.1254586726427078,-0.6081672310829163,0.2874122560024261,0.09043549746274948,0.07482875138521194,0.07908103615045547,XTrueNorthZVertical,-0.4234745614175666,-0.3102963239949129,-0.4478670486488143,-0.7237407214152027,0.06982756406068802,-0.8909145593643188,-0.4487709701061249,-4.734142303466797,-45.37635040283203,3.162836074829102,2,192.168.1.8,10.83.46.32,1,0
2015-02-28 14:13:48.716,38,1425161622.111133,37.77938038579913,-122.4387080782302,60.1492,0.46,94.921875,4,50,-9999,1425161628.687904,-5.106552124023438,-44.28303527832031,3.754493713378906,176.8872833251953,163.0994415283203,10,156701.4078611667,-0.03765869140625,-0.9049835205078125,-0.359893798828125,156701.3857906667,0.1164605671013831,-0.7447327588163744,0.2143045729186763,156701.3857906667,1.044919334206032,0.08943645481722041,1.105655881338814,0.1065471172332764,-0.7322424054145813,0.2502121031284332,0.008978631347417831,0.05695132538676262,0.05484889075160027,XTrueNorthZVertical,-0.4356056763828077,-0.2947369667325948,-0.4445991403017546,-0.7250582442396202,0.04006311669945717,-0.8937585949897766,-0.4467556178569794,-5.249342918395996,-45.29527282714844,3.494501113891602,2,192.168.1.8,10.83.46.32,1,0
2015-02-28 14:13:48.799,39,1425161622.111133,37.77938038579913,-122.4387080782302,60.1492,0.46,94.921875,4,50,-9999,1425161628.739755,-5.464546203613281,-44.36799621582031,4.037422180175781,177.5481567382812,163.7603149414062,10,156701.4569067083,0.0569915771484375,-0.925079345703125,-0.391845703125,156701.4375680417,0.1242279427367082,-0.4280109998565208,0.02526034925551058,156701.4375680417,1.052292828637876,0.05082434420950558,1.112470003881669,0.1143209934234619,-0.4155396819114685,0.06120757386088371,0.02900571376085281,-0.05153947323560715,0.05198393017053604,XTrueNorthZVertical,-0.4455964205779496,-0.2837350456927701,-0.4379605923880753,-0.7274124079787754,0.02247744053602219,-0.8967942595481873,-0.4418765008449554,-5.570025444030762,-45.21114349365234,4.044305801391602,2,192.168.1.8,10.83.46.32,1,0
2015-02-28 14:13:48.814,40,1425161622.111133,37.77938038579913,-122.4387080782302,60.1492,0.46,94.921875,4,50,-9999,1425161628.79131,-5.430458068847656,-44.46994018554688,4.237136840820312,178.2395172119141,164.4516754150391,10,156701.5059730417,-0.039215087890625,-0.9838714599609375,-0.467681884765625,156701.489345875,0.07642579906643993,-0.4454818692396586,0.006215817984244942,156701.489345875,1.06107914092498,0.02597096939406783,1.116546032164212,0.06651894748210907,-0.4330106675624847,0.04216268286108971,-0.02515791729092598,-0.02624496258795261,-0.02057242020964622,XTrueNorthZVertical,-0.4512921078763574,-0.2775157925417184,-0.4350703721738434,-0.728034496069742,0.01139448955655098,-0.8985902667045593,-0.438640832901001,-5.652997970581055,-45.17335891723633,4.340545654296875,2,192.168.1.8,10.83.46.32,1,0
2015-02-28 14:13:48.899,41,1425161622.111133,37.77938038579913,-122.4387080782302,60.1492,0.46,94.921875,4,50,-9999,1425161628.843323,-5.259979248046875,-44.94577026367188,4.76971435546875,179.0432891845703,165.2554473876953,10,156701.554954,0.0411834716796875,-0.96514892578125,-0.4718475341796875,156701.541124,0.02337616278427952,-0.8271882209068627,-0.19933787390854,156701.541124,1.049515370422635,0.005740912562309086,1.118627126871396,0.0134694017469883,-0.8147171139717102,-0.1633913367986679,0.04459558799862862,-0.1074412912130356,-0.04299356788396835,XTrueNorthZVertical,-0.4579883258729015,-0.2679391523888739,-0.4259765722397176,-0.732802362057276,0.002508293138816953,-0.8995014429092407,-0.4369105994701385,-5.564504623413086,-45.16004943847656,4.586418151855469,2,192.168.1.8,10.83.46.32,1,0
2015-02-28 14:13:48.912,42,1425161622.111133,37.77938038579913,-122.4387080782302,60.1492,0.46,94.921875,4,50,-9999,1425161628.897481,-5.277023315429688,-44.86080932617188,5.185791015625,180.2037048339844,166.4158630371094,10,156701.60395725,-0.138916015625,-1.010009765625,-0.373077392578125,156701.592901125,0.0874118711952348,-1.243985182045278,-0.08251165478948901,156701.541124,1.049515370422635,0.005740912562309086,1.118627126871396,0.0134694017469883,-0.8147171139717102,-0.1633913367986679,0.04459558799862862,-0.1074412912130356,-0.04299356788396835,XTrueNorthZVertical,-0.4579883258729015,-0.2679391523888739,-0.4259765722397176,-0.732802362057276,0.002508293138816953,-0.8995014429092407,-0.4369105994701385,-5.564504623413086,-45.16004943847656,4.586418151855469,2,192.168.1.8,10.83.46.32,1,0
2015-02-28 14:13:48.999,43,1425161622.111133,37.77938038579913,-122.4387080782302,60.1492,0.46,94.921875,4,50,-9999,1425161628.973023,-4.441696166992188,-44.23204040527344,5.834861755371094,183.5959014892578,169.8080596923828,10,156701.6529805833,-0.1410675048828125,-0.93896484375,-0.3861846923828125,156701.6446790417,0.06327484328751964,-0.5172103847754168,-0.1277260048285273,156701.6446790417,1.029740431497072,-0.07583122321928557,1.125858165914094,0.05336856842041016,-0.5047394633293152,-0.09178024530410767,-0.08676286041736603,-0.03506108000874519,0.03147539868950844,XTrueNorthZVertical,-0.4799313131663525,-0.2346983701287602,-0.3985329171554449,-0.7454892095781465,-0.03260664641857147,-0.9026373028755188,-0.4291652143001556,-4.557782173156738,-45.18288421630859,5.400238037109375,2,192.168.1.8,10.83.46.32,1,0
2015-02-28 14:13:49.010,44,1425161622.111133,37.77938038579913,-122.4387080782302,60.1492,0.46,94.921875,4,50,-9999,1425161628.973023,-4.441696166992188,-44.23204040527344,5.834861755371094,183.5959014892578,169.8080596923828,10,156701.702097,-0.0197296142578125,-0.939300537109375,-0.4322967529296875,156701.6964570417,0.04102306711547158,-0.2971049143703299,-0.1650462127643527,156701.6446790417,1.029740431497072,-0.07583122321928557,1.125858165914094,0.05336856842041016,-0.5047394633293152,-0.09178024530410767,-0.08676286041736603,-0.03506108000874519,0.03147539868950844,XTrueNorthZVertical,-0.4799313131663525,-0.2346983701287602,-0.3985329171554449,-0.7454892095781465,-0.03260664641857147,-0.9026373028755188,-0.4291652143001556,-4.557782173156738,-45.18288421630859,5.400238037109375,2,192.168.1.8,10.83.46.32,1,0
2015-02-28 14:13:49.102,45,1425161622.111133,37.77938038579913,-122.4387080782302,60.1492,0.46,94.921875,4,50,-9999,1425161629.077401,-3.367698669433594,-44.14707946777344,5.651802062988281,186.0471954345703,172.2593536376953,10,156701.7510127917,-0.07635498046875,-0.9373016357421875,-0.419677734375,156701.7482342917,0.0117735688631313,-0.5437562418891086,-0.2627397499800564,156701.6964570417,1.017209530344533,-0.08223134387489639,1.127602464665805,0.03111689165234566,-0.28463414311409,-0.1291008144617081,-0.02102060429751873,-0.06258624047040939,-0.01482176221907139,XTrueNorthZVertical,-0.4832844350350398,-0.2296675479773262,-0.392058715457886,-0.7483174285321783,-0.03522329032421112,-0.903386652469635,-0.4273779392242432,-4.222989082336426,-45.19427490234375,5.574289321899414,2,192.168.1.8,10.83.46.32,1,0
2015-02-28 14:13:49.108,46,1425161622.111133,37.77938038579913,-122.4387080782302,60.1492,0.46,94.921875,4,50,-9999,1425161629.077401,-3.367698669433594,-44.14707946777344,5.651802062988281,186.0471954345703,172.2593536376953,10,156701.8000324167,-0.0495452880859375,-0.91571044921875,-0.3780975341796875,156701.7482342917,0.0117735688631313,-0.5437562418891086,-0.2627397499800564,156701.7482342917,0.9934108893489209,-0.08089792762365285,1.129464037894803,0.00186748115811497,-0.5312855839729309,-0.2267946749925613,-0.0205515418201685,-0.03302669525146484,0.01362293865531683,XTrueNorthZVertical,-0.4864087985954827,-0.2247947832505711,-0.383185649014141,-0.7523580147871053,-0.03451742976903915,-0.9041833877563477,-0.4257475733757019,-3.675142765045166,-45.22343444824219,5.723941802978516,2,192.168.1.8,10.83.46.32,1,0
2015-02-28 14:13:49.197,47,1425161622.111133,37.77938038579913,-122.4387080782302,60.1492,0.46,94.921875,4,50,-9999,1425161629.179512,-2.413040161132812,-44.41899108886719,5.318939208984375,188.5289001464844,174.7410583496094,10,156701.8490653333,-0.032196044921875,-0.9364776611328125,-0.4163055419921875,156701.8517904167,-0.09879981433252263,-0.1326850770943638,-0.2190974639324919,156701.8000122917,0.9716697318222854,-0.08046525722345274,1.132558844273911,-0.05765686184167862,-0.2373285591602325,-0.238996833562851,-0.01778700947761536,-0.01014843117445707,0.0408758781850338,XTrueNorthZVertical,-0.4898813376920203,-0.2202967718450961,-0.3746570126434552,-0.7557233409954618,-0.03410813212394714,-0.9055010080337524,-0.4229712188243866,-3.186805248260498,-45.23400115966797,5.929466247558594,2,192.168.1.8,10.83.46.32,1,0
2015-02-28 14:13:49.207,48,1425161622.111133,37.77938038579913,-122.4387080782302,60.1492,0.46,94.921875,4,50,-9999,1425161629.179512,-2.413040161132812,-44.41899108886719,5.318939208984375,188.5289001464844,174.7410583496094,10,156701.8980812083,0.006378173828125,-0.9176788330078125,-0.4087982177734375,156701.8517904167,-0.09879981433252263,-0.1326850770943638,-0.2190974639324919,156701.8517904167,0.9497530971266982,-0.06930549478286978,1.132395732790502,-0.1086840853095055,-0.1202090159058571,-0.1831507831811905,-0.002799969166517258,-0.03104590438306332,0.007167302537709475,XTrueNorthZVertical,-0.4901536164727787,-0.2191187121626618,-0.3691164085761721,-0.7586102669429247,-0.02939607575535774,-0.9054317474365234,-0.4234728515148163,-2.701265811920166,-45.26228332519531,5.954631805419922,2,192.168.1.8,10.83.46.32,1,0
2015-02-28 14:13:49.300,49,1425161622.111133,37.77938038579913,-122.4387080782302,60.1492,0.46,94.921875,4,50,-9999,1425161629.283117,-2.055038452148438,-44.77584838867188,5.169143676757812,190.1922302246094,176.4043884277344,10,156701.9470944583,-0.087677001953125,-0.89544677734375,-0.38507080078125,156701.9553454584,-0.1648350240899094,-0.3332418798338331,0.2472340271652881,156701.9035677083,0.9363333677437388,-0.07113707589513209,1.123846638136982,-0.2130491137504578,-0.5031952857971191,0.03463945910334587,0.03709889575839043,-0.01590914092957973,0.02232555113732815,XTrueNorthZVertical,-0.4887610202649649,-0.2134262888869951,-0.3647128123977663,-0.763247329970398,-0.03072072193026543,-0.9017696976661682,-0.4311237633228302,-2.279485702514648,-45.33240509033203,5.586225509643555,2,192.168.1.8,10.83.46.32,1,0
2015-02-28 14:13:49.304,50,1425161622.111133,37.77938038579913,-122.4387080782302,60.1492,0.46,94.921875,4,50,-9999,1425161629.283117,-2.055038452148438,-44.77584838867188,5.169143676757812,190.1922302246094,176.4043884277344,10,156701.9961060833,0.0792694091796875,-0.9476165771484375,-0.402313232421875,156701.9553454584,-0.1648350240899094,-0.3332418798338331,0.2472340271652881,156701.9553454584,0.9567684634816666,-0.1138813239153076,1.118063006275364,-0.174709141254425,-0.3207620084285736,0.2831703722476959,-0.03797004744410515,0.003808062523603439,0.04952095448970795,XTrueNorthZVertical,-0.4922734701767691,-0.2009252410271979,-0.3628394384859203,-0.7652734530284327,-0.04970695450901985,-0.8992548584938049,-0.4345917701721191,-2.261783123016357,-45.34525299072266,5.488290786743164,2,192.168.1.8,10.83.46.32,1,0
2015-02-28 14:13:49.366,51,1425161622.111133,37.77938038579913,-122.4387080782302,60.1492,0.46,94.921875,4,50,-9999,1425161629.335852,-2.293701171875,-44.91178894042969,4.436859130859375,190.5791931152344,176.7913513183594,10,156702.0451339583,-0.0515899658203125,-0.9605865478515625,-0.6050567626953125,156702.007123625,-0.3126061098112451,-0.242828892406188,0.5155459090941172,156702.007123625,0.9918933594812555,-0.1520892638718584,1.108061859773821,-0.322477251291275,-0.2303471118211746,0.5514684915542603,0.1822394728660583,-0.05317811667919159,0.005162895657122135,XTrueNorthZVertical,-0.4921386401803531,-0.1928150529211063,-0.3683563455992158,-0.7648107967450574,-0.06763071566820145,-0.8948351740837097,-0.4412438273429871,-2.80779767036438,-45.34165954589844,5.261098861694336,2,192.168.1.8,10.83.46.32,1,0
2015-02-28 14:13:49.405,52,1425161622.111133,37.77938038579913,-122.4387080782302,60.1492,0.46,94.921875,4,50,-9999,1425161629.388811,-3.674552917480469,-44.45297241210938,3.055488586425781,188.9688110351562,175.1809692382812,10,156702.0941535833,-0.472991943359375,-1.076950073242188,-0.6060028076171875,156702.05890075,-1.09596242760093,-1.635136700834557,0.945973993955994,156702.05890075,1.057134349896479,-0.2541658496604566,1.059156826716407,-1.105833411216736,-1.622655034065247,0.9818962216377258,0.05651664361357689,-0.04738381505012512,-0.1306599080562592,XTrueNorthZVertical,-0.4878715179768048,-0.1582477603812732,-0.3764202112464819,-0.7715224499643725,-0.1231060028076172,-0.8719429969787598,-0.4738780558109283,-4.218465805053711,-45.36396789550781,3.967899322509766,2,192.168.1.8,10.83.46.32,1,0
2015-02-28 14:13:49.464,53,1425161622.111133,37.77938038579913,-122.4387080782302,60.1492,0.46,94.921875,4,50,-9999,1425161629.438895,-6.027107238769531,-44.35102844238281,1.857200622558594,188.8789520263672,175.0911102294922,10,156702.1431726667,-0.3586578369140625,-0.7849884033203125,-0.605743408203125,156702.1106788334,-1.001465216325539,-2.126347176519748,1.936772717483548,156702.1106788334,1.15754127984253,-0.4443232740768245,0.9883034179221681,-1.011336207389832,-2.113865613937378,1.972694635391235,-0.3972812592983246,-0.3585706651210785,-0.1624103635549545,XTrueNorthZVertical,-0.4933890577936506,-0.09066822077664198,-0.382240391982873,-0.7760404835316427,-0.2364620268344879,-0.8350938558578491,-0.4966930150985718,-6.311892509460449,-45.23460388183594,2.327962875366211,2,192.168.1.8,10.83.46.32,1,0
2015-02-28 14:13:49.501,54,1425161622.111133,37.77938038579913,-122.4387080782302,60.1492,0.46,94.921875,4,50,-9999,1425161629.438895,-6.027107238769531,-44.35102844238281,1.857200622558594,188.8789520263672,175.0911102294922,10,156702.1921853333,-0.307708740234375,-1.101150512695312,-0.2085723876953125,156702.162456625,0.2834836443429016,0.7210183745736548,0.8583301614298132,156702.162456625,1.251219051830225,-0.5471988963165394,0.9295944571830916,0.2736127972602844,0.7334997653961182,0.8942517042160034,-0.01144188828766346,0.07556261122226715,-0.1388544291257858,XTrueNorthZVertical,-0.4912728314319222,-0.05693410122821451,-0.4058208991983986,-0.7685824282017869,-0.3112204670906067,-0.8013774156570435,-0.5108190178871155,-9.881298065185547,-44.63835906982422,1.09815788269043,2,192.168.1.8,10.83.46.32,1,0
2015-02-28 14:13:49.563,55,1425161622.111133,37.77938038579913,-122.4387080782302,60.1492,0.46,94.921875,4,50,-9999,1425161629.542747,-11.31183624267578,-43.3314208984375,1.124908447265625,183.8171539306641,170.0293121337891,10,156702.2412082917,-0.180633544921875,-0.8114013671875,-0.626068115234375,156702.214234125,0.2317522728003304,1.506800033168074,0.4618376730743803,156702.214234125,1.310123769986761,-0.5194301568686021,0.9323210344788022,0.2218815237283707,1.519281387329102,0.4977588653564453,0.08675586432218552,-0.2337377965450287,0.1093901917338371,XTrueNorthZVertical,-0.4842277672968134,-0.08271186083958047,-0.4344230948693932,-0.7549561775704928,-0.2958317995071411,-0.8030053973197937,-0.5173644423484802,-12.15987205505371,-44.07460021972656,0.9981918334960938,2,192.168.1.8,10.83.46.32,1,0
2015-02-28 14:13:49.598,56,1425161622.111133,37.77938038579913,-122.4387080782302,60.1492,0.46,94.921875,4,50,-9999,1425161629.542747,-11.31183624267578,-43.3314208984375,1.124908447265625,183.8171539306641,170.0293121337891,10,156702.2902203334,-0.27130126953125,-0.7617950439453125,-0.323089599609375,156702.266012,0.511939722662041,-1.131164357205706,0.3774745886950682,156702.266012,1.360386639053859,-0.557900492037693,0.9384574641489238,0.5020690560340881,-1.118683099746704,0.4133954346179962,0.1360777169466019,0.08719546347856522,-0.01746132224798203,XTrueNorthZVertical,-0.4924325508965828,-0.08248201747271162,-0.442479865479616,-0.7449285242282049,-0.3128965497016907,-0.8066473603248596,-0.5014138221740723,-13.15928745269775,-43.78430557250977,1.094003677368164,2,192.168.1.8,10.83.46.32,1,0
2015-02-28 14:13:49.664,57,1425161622.111133,37.77938038579913,-122.4387080782302,60.1492,0.46,94.921875,4,50,-9999,1425161629.646317,-13.71554565429688,-42.70269775390625,2.872428894042969,179.5217895507812,165.7339477539062,10,156702.3392454167,-0.6071319580078125,-0.7838592529296875,-0.266021728515625,156702.3177900834,0.8025081744528804,-1.055135901773906,0.3150966980626872,156702.3177900834,1.425134903149957,-0.6749393992373616,0.9516710634327812,0.7926375865936279,-1.042654752731323,0.3510172069072723,-0.1371562629938126,0.09763529896736145,0.1329700797796249,XTrueNorthZVertical,-0.5194917826695838,-0.05988474318664667,-0.4336037893337288,-0.733845962787991,-0.3626148700714111,-0.8143864274024963,-0.4530842006206512,-13.9378833770752,-43.46584701538086,2.807975769042969,2,192.168.1.8,10.83.46.32,1,0
2015-02-28 14:13:49.699,58,1425161622.111133,37.77938038579913,-122.4387080782302,60.1492,0.46,94.921875,4,50,-9999,1425161629.646317,-13.71554565429688,-42.70269775390625,2.872428894042969,179.5217895507812,165.7339477539062,10,156702.388260875,-0.41119384765625,-0.82489013671875,-0.3193359375,156702.36956725,0.5743256027776922,0.5093367490125975,0.3604130471714755,156702.3177900834,1.425134903149957,-0.6749393992373616,0.9516710634327812,0.7926375865936279,-1.042654752731323,0.3510172069072723,-0.1371562629938126,0.09763529896736145,0.1329700797796249,XTrueNorthZVertical,-0.5194917826695838,-0.05988474318664667,-0.4336037893337288,-0.733845962787991,-0.3626148700714111,-0.8143864274024963,-0.4530842006206512,-13.9378833770752,-43.46584701538086,2.807975769042969,2,192.168.1.8,10.83.46.32,1,0
2015-02-28 14:13:49.766,59,1425161622.111133,37.77938038579913,-122.4387080782302,60.1492,0.46,94.921875,4,50,-9999,1425161629.750182,-15.06229400634766,-41.76806640625,5.685096740722656,177.4493408203125,163.6614990234375,10,156702.4372927917,-0.35748291015625,-0.832550048828125,-0.3284454345703125,156702.421345375,0.5617363076726696,0.3319710193616473,0.08357478869664864,156702.421345375,1.53855813317635,-0.7489273251123071,0.9763556179347588,0.5518748760223389,0.3444520533084869,0.1195034384727478,-0.03264672681689262,0.009507388807833195,0.1560226827859879,XTrueNorthZVertical,-0.5383158416947066,-0.07156735226819848,-0.4485422941558491,-0.7098619703687488,-0.3813089728355408,-0.8284618854522705,-0.4101883471012115,-15.62104034423828,-42.56106948852539,5.997297286987305,2,192.168.1.8,10.83.46.32,1,0
2015-02-28 14:13:49.799,60,1425161622.111133,37.77938038579913,-122.4387080782302,60.1492,0.46,94.921875,4,50,-9999,1425161629.750182,-15.06229400634766,-41.76806640625,5.685096740722656,177.4493408203125,163.6614990234375,10,156702.486302875,-0.51007080078125,-0.8259429931640625,-0.2640380859375,156702.4731232083,0.565445025806714,-0.05389119518662545,0.2706746384479475,156702.4731232083,1.582335025347881,-0.7824954610054913,0.9856840571551067,0.5555875897407532,-0.04142825305461884,0.3066418170928955,-0.07029137760400772,0.03329608216881752,0.05665537342429161,XTrueNorthZVertical,-0.546409844719053,-0.07486813991293161,-0.4523522768686892,-0.7008626818317166,-0.3893949091434479,-0.8336501121520996,-0.3916620910167694,-16.0161018371582,-42.29561233520508,6.781933784484863,2,192.168.1.8,10.83.46.32,1,0
2015-02-28 14:13:49.864,61,1425161622.111133,37.77938038579913,-122.4387080782302,60.1492,0.46,94.921875,4,50,-9999,1425161629.855231,-16.40904235839844,-40.90139770507812,7.532478332519531,174.3868560791016,160.5990142822266,10,156702.535337125,-0.4213104248046875,-0.851104736328125,-0.328460693359375,156702.5249006667,0.3649263062708328,0.5747304032633842,0.0105232147313391,156702.4731232083,1.582335025347881,-0.7824954610054913,0.9856840571551067,0.5555875897407532,-0.04142825305461884,0.3066418170928955,-0.07029137760400772,0.03329608216881752,0.05665537342429161,XTrueNorthZVertical,-0.546409844719053,-0.07486813991293161,-0.4523522768686892,-0.7008626818317166,-0.3893949091434479,-0.8336501121520996,-0.3916620910167694,-16.0161018371582,-42.29561233520508,6.781933784484863,2,192.168.1.8,10.83.46.32,1,0
2015-02-28 14:13:49.898,62,1425161622.111133,37.77938038579913,-122.4387080782302,60.1492,0.46,94.921875,4,50,-9999,1425161629.855231,-16.40904235839844,-40.90139770507812,7.532478332519531,174.3868560791016,160.5990142822266,10,156702.5843580833,-0.4550323486328125,-0.811279296875,-0.261016845703125,156702.5766785417,0.3594966534403793,0.2511789676880224,-0.06447726051969042,156702.5249006667,1.635858794032814,-0.8148545699684758,0.9993999296599489,0.3550839424133301,0.58719402551651,0.04649536684155464,-0.0539586991071701,-0.02291283383965492,0.1126637533307076,XTrueNorthZVertical,-0.5546005267933035,-0.08323676561733323,-0.4582564479691362,-0.6895585271588055,-0.3935053050518036,-0.8411465883255005,-0.3709797859191895,-16.75329399108887,-41.74034881591797,8.27645206451416,2,192.168.1.8,10.83.46.32,1,0
2015-02-28 14:13:49.967,63,1425161622.111133,37.77938038579913,-122.4387080782302,60.1492,0.46,94.921875,4,50,-9999,1425161629.957187,-16.40904235839844,-40.15370178222656,8.764060974121094,172.7747955322266,158.9869537353516,10,156702.6333901667,-0.4893035888671875,-0.8827972412109375,-0.256439208984375,156702.628456625,0.3300194549148372,0.4430301631401317,-0.1512225424940784,156702.628456625,1.713194139756208,-0.8526615886305029,1.025138278346399,0.3202262222766876,0.4554932415485382,-0.1152240261435509,-0.09544150531291962,0.009510082192718983,0.1111939325928688,XTrueNorthZVertical,-0.5647924498354853,-0.1013395290657794,-0.466728617412865,-0.6729815926888254,-0.3908103108406067,-0.8547859787940979,-0.3414795696735382,-17.30455017089844,-41.28495788574219,9.355954170227051,2,192.168.1.8,10.83.46.32,1,0
2015-02-28 14:13:50.001,64,1425161622.111133,37.77938038579913,-122.4387080782302,60.1492,0.46,94.921875,4,50,-9999,1425161629.957187,-16.40904235839844,-40.15370178222656,8.764060974121094,172.7747955322266,158.9869537353516,10,156702.68240475,-0.4369659423828125,-0.8057098388671875,-0.228729248046875,156702.628456625,0.3300194549148372,0.4430301631401317,-0.1512225424940784,156702.628456625,1.713194139756208,-0.8526615886305029,1.025138278346399,0.3202262222766876,0.4554932415485382,-0.1152240261435509,-0.09544150531291962,0.009510082192718983,0.1111939325928688,XTrueNorthZVertical,-0.5647924498354853,-0.1013395290657794,-0.466728617412865,-0.6729815926888254,-0.3908103108406067,-0.8547859787940979,-0.3414795696735382,-17.30455017089844,-41.28495788574219,9.355954170227051,2,192.168.1.8,10.83.46.32,1,0
2015-02-28 14:13:50.049,65,1425161622.111133,37.77938038579913,-122.4387080782302,60.1492,0.46,94.921875,4,50,-9999,1425161630.009938,-16.40904235839844,-40.28962707519531,8.863914489746094,172.3537292480469,158.5658874511719,10,156702.7314307083,-0.349700927734375,-0.9046173095703125,-0.3346099853515625,156702.7320117917,0.3296964134746106,0.4889313424243014,-0.2196572603936266,156702.6802338334,1.728151689609645,-0.8389051160200234,1.041253256723322,0.3615958392620087,0.7015210390090942,-0.2964199483394623,-0.09237593412399292,0.07298365235328674,0.06775204092264175,XTrueNorthZVertical,-0.5636829661892294,-0.1160814848924975,-0.470999872963808,-0.6685400213254985,-0.3757789731025696,-0.8630380034446716,-0.3375732004642487,-17.51063919067383,-41.03496170043945,10.04682922363281,2,192.168.1.8,10.83.46.32,1,0
2015-02-28 14:13:50.123,66,1425161622.111133,37.77938038579913,-122.4387080782302,60.1492,0.46,94.921875,4,50,-9999,1425161630.060717,-16.59657287597656,-40.13670349121094,9.0469970703125,170.8267669677734,157.0389251708984,10,156702.7804419167,-0.3510589599609375,-0.876983642578125,-0.3306732177734375,156702.7837897917,0.4833333778129548,0.4506305585751088,-0.4134562918670198,156702.7320117917,1.735671838023621,-0.8150317506640399,1.058946573140601,0.3199141323566437,0.5013936758041382,-0.183652326464653,0.006743059027940035,-0.03277730196714401,0.001310743507929146,XTrueNorthZVertical,-0.5607530428412277,-0.1326486356130866,-0.4751321889005344,-0.6649885754187311,-0.3564440011978149,-0.8718400001525879,-0.3359207212924957,-17.3548583984375,-41.07680511474609,10.14565181732178,2,192.168.1.8,10.83.46.32,1,0
2015-02-28 14:13:50.147,67,1425161622.111133,37.77938038579913,-122.4387080782302,60.1492,0.46,94.921875,4,50,-9999,1425161630.127693,-16.20448303222656,-40.08572387695312,8.997077941894531,170.1856384277344,156.3977966308594,10,156702.8294767083,-0.3253936767578125,-0.8565521240234375,-0.28814697265625,156702.7837897917,0.4833333778129548,0.4506305585751088,-0.4134562918670198,156702.7837897917,1.748434328214161,-0.803647273913326,1.084427787356332,0.4735503196716309,0.4630927741527557,-0.3774532079696655,-0.01456779986619949,0.007052453700453043,-0.006244595162570477,XTrueNorthZVertical,-0.5616747944564032,-0.1493556628537273,-0.4752042653382674,-0.6606021914910319,-0.3364911675453186,-0.884036123752594,-0.3244286179542542,-17.15935897827148,-41.09316253662109,10.40853404998779,2,192.168.1.8,10.83.46.32,1,0
2015-02-28 14:13:50.210,68,1425161630.126887,37.77934130077426,-122.4386913977804,56.63923,-1,-1,10,113.1993096164384,-9999,1425161630.127693,-16.20448303222656,-40.08572387695312,8.997077941894531,170.1856384277344,156.3977966308594,10,156702.8785036667,-0.1806793212890625,-0.8670654296875,-0.346466064453125,156702.835567125,0.1936458997107136,0.6178682866004878,-0.4881049635380498,156702.835567125,1.738416595457903,-0.7664754440978839,1.114976741332191,0.1838630139827728,0.6303304433822632,-0.45210200548172,-0.02007178217172623,0.0413484238088131,0.02895426563918591,XTrueNorthZVertical,-0.5590647115901989,-0.1699883198895634,-0.4734630095638981,-0.659077716117715,-0.3053219020366669,-0.8979005217552185,-0.3171012401580811,-16.45847129821777,-41.22749328613281,10.99278926849365,2,192.168.1.8,10.83.46.32,1,0
2015-02-28 14:13:50.245,69,1425161630.126887,37.77934130077426,-122.4386913977804,56.63923,-1,-1,10,113.1993096164384,-9999,1425161630.190374,-15.35211181640625,-40.18768310546875,9.130203247070312,170.0873107910156,156.2994689941406,10,156702.9275367083,-0.0458221435546875,-1.0367431640625,-0.241668701171875,156702.9391232083,0.09070566883144481,0.6283156012407596,-0.01113201335653122,156702.8873450833,1.722377422718364,-0.7222957990463446,1.127432424235867,0.04664022848010063,0.5999202728271484,-0.2125628590583801,0.1029235869646072,0.03624830022454262,-0.02460623346269131,XTrueNorthZVertical,-0.5522597175167806,-0.1846057666586805,-0.4768621590882848,-0.6584317994347343,-0.2836029231548309,-0.9033137559890747,-0.3218598365783691,-16.07164001464844,-41.42103576660156,10.83647632598877,2,192.168.1.8,10.83.46.32,1,0
2015-02-28 14:13:50.301,70,1425161630.126887,37.77934130077426,-122.4386913977804,56.63923,-1,-1,10,113.1993096164384,-9999,1425161630.243162,-15.01116180419922,-39.81381225585938,9.063636779785156,169.2909240722656,155.5030822753906,10,156702.9765548334,-0.0316619873046875,-1.012680053710938,-0.2445526123046875,156702.9391232083,0.09070566883144481,0.6283156012407596,-0.01113201335653122,156702.9391232083,1.707194337883421,-0.6779672741777839,1.13515795215907,0.08092395961284637,0.6407775282859802,0.02485120669007301,0.2545903325080872,-0.1401063203811646,0.1020120084285736,XTrueNorthZVertical,-0.5445545316392262,-0.1978063000972178,-0.4818199467224773,-0.6574059678812921,-0.2646763920783997,-0.9066008329391479,-0.3286660611629486,-15.79358100891113,-41.61202621459961,10.50862503051758,2,192.168.1.8,10.83.46.32,1,0
2015-02-28 14:13:50.343,71,1425161630.126887,37.77934130077426,-122.4386913977804,56.63923,-1,-1,10,113.1993096164384,-9999,1425161630.294123,-14.94297027587891,-39.98377990722656,8.63092041015625,168.4582824707031,154.6704406738281,10,156703.02559275,-0.1863861083984375,-0.957244873046875,-0.158843994140625,156702.9909004167,0.04125316423365442,0.07996008014908408,-0.02166428283557659,156702.9909004167,1.707275636059984,-0.6604648347267349,1.139428988207182,0.03147154673933983,0.09242192655801773,0.01431857794523239,0.2133539915084839,-0.09410754591226578,0.108965165913105,XTrueNorthZVertical,-0.5411466876067893,-0.2051017234732937,-0.4853902364476864,-0.6553547908074685,-0.2565058469772339,-0.9083948731422424,-0.3301870822906494,-15.99372482299805,-41.62833023071289,10.13467502593994,2,192.168.1.8,10.83.46.32,1,0
2015-02-28 14:13:50.395,72,1425161630.126887,37.77934130077426,-122.4386913977804,56.63923,-1,-1,10,113.1993096164384,-9999,1425161630.345524,-14.80659484863281,-40.42559814453125,8.131629943847656,168.2016754150391,154.4138336181641,10,156703.0746067917,-0.0889739990234375,-0.9821014404296875,-0.2206878662109375,156703.042678375,0.03045857338723625,0.2470579922172338,0.07077004385943865,156703.042678375,1.719078123946291,-0.6674628806627556,1.147672079245196,0.02070370875298977,0.2595184445381165,0.1067234948277473,0.07019121944904327,-0.06765113025903702,0.1599552482366562,XTrueNorthZVertical,-0.5432197741954875,-0.2089649280320299,-0.4850195119858862,-0.6526883228012447,-0.254166454076767,-0.9118105173110962,-0.3224918842315674,-16.08718490600586,-41.60234832763672,10.09338569641113,2,192.168.1.8,10.83.46.32,1,0
2015-02-28 14:13:50.441,73,1425161630.126887,37.77934130077426,-122.4386913977804,56.63923,-1,-1,10,113.1993096164384,-9999,1425161630.397932,-15.09640502929688,-40.61253356933594,7.948562622070312,167.1526489257812,153.3648071289062,10,156703.1236326667,-0.1542510986328125,-0.90911865234375,-0.2625732421875,156703.0944564167,-0.05897783286867679,0.2051880398751171,0.007157511745696961,156703.0944564167,1.729842825896621,-0.6567611430121809,1.144682672574093,-0.06873258948326111,0.2176483571529388,0.04311057180166245,0.178023025393486,-0.07777855545282364,0.1071052998304367,XTrueNorthZVertical,-0.5388931653453419,-0.2142867863872074,-0.4922656929787179,-0.6491146701413094,-0.2523638308048248,-0.9105789661407471,-0.3273506462574005,-16.23407554626465,-41.48685073852539,10.33078575134277,2,192.168.1.8,10.83.46.32,1,0
2015-02-28 14:13:50.495,74,1425161630.126887,37.77934130077426,-122.4386913977804,56.63923,-1,-1,10,113.1993096164384,-9999,1425161630.450572,-14.89183807373047,-40.61253356933594,8.381271362304688,167.0602569580078,153.2724151611328,10,156703.1726552917,-0.1648712158203125,-0.9511871337890625,-0.350128173828125,156703.1462337083,-0.1525338830148334,0.04524790586877328,0.05784465782484808,156703.1462337083,1.723395830116822,-0.6508115807511775,1.135236469490169,-0.1622885465621948,0.05770809948444366,0.09379735589027405,0.07799931615591049,-0.06364190578460693,0.170849397778511,XTrueNorthZVertical,-0.5362855928099992,-0.2110932149722597,-0.4944342392348507,-0.6506706068064813,-0.2556116282939911,-0.9066339731216431,-0.3356748223304749,-16.49671936035156,-41.49262619018555,9.881780624389648,2,192.168.1.8,10.83.46.32,1,0
2015-02-28 14:13:50.541,75,1425161630.126887,37.77934130077426,-122.4386913977804,56.63923,-1,-1,10,113.1993096164384,-9999,1425161630.502944,-15.1304931640625,-40.54454040527344,8.081695556640625,166.5516510009766,152.7638092041016,10,156703.2216802917,-0.1880645751953125,-0.80242919921875,-0.32086181640625,156703.198011875,-0.5542304544563903,-0.156048190389302,-0.1014856122918675,156703.198011875,1.692843809883949,-0.6166677536538456,1.122508828732522,-0.5639850497245789,-0.1435881108045578,-0.06553323566913605,0.1034860834479332,0.004095934331417084,-0.08967702090740204,XTrueNorthZVertical,-0.5284778308263003,-0.2095609236143284,-0.4970861697561123,-0.6555156591636789,-0.2506571114063263,-0.9011906385421753,-0.3535908162593842,-16.56145668029785,-41.58734893798828,9.361599922180176,2,192.168.1.8,10.83.46.32,1,0
2015-02-28 14:13:50.597,76,1425161630.126887,37.77934130077426,-122.4386913977804,56.63923,-1,-1,10,113.1993096164384,-9999,1425161630.554701,-15.06230163574219,-40.91839599609375,7.615692138671875,166.7783508300781,152.9905090332031,10,156703.2706955417,-0.390228271484375,-0.90606689453125,-0.4517822265625,156703.2497899167,-0.4412064304256454,-0.7586056975668152,-0.06690526448551566,156703.2497899167,1.65872711660975,-0.6262085015891385,1.107966945495143,-0.4509627223014832,-0.7461457252502441,-0.03095615468919277,-0.130188375711441,0.0731222853064537,0.03214382752776146,XTrueNorthZVertical,-0.5311971019939489,-0.1922174411774448,-0.4872720972630483,-0.6659189405039128,-0.2616725862026215,-0.8947927951812744,-0.3617641925811768,-16.25387001037598,-41.84698486328125,8.721845626831055,2,192.168.1.8,10.83.46.32,1,0
2015-02-28 14:13:50.640,77,1425161630.126887,37.77934130077426,-122.4386913977804,56.63923,-1,-1,10,113.1993096164384,-9999,1425161630.60637,-15.16459655761719,-40.98635864257812,6.883392333984375,167.6327056884766,153.8448638916016,10,156703.3197187083,-0.235260009765625,-0.980712890625,-0.6038970947265625,156703.3015672083,-0.6142831391410231,-0.157360063542275,0.09436858059473979,156703.3015672083,1.624573396816479,-0.6075061211141148,1.082247481313978,-0.624039351940155,-0.1449002176523209,0.1303173005580902,0.1489089876413345,-0.01639918237924576,-0.1344998776912689,XTrueNorthZVertical,-0.5241761064229704,-0.1804324631566077,-0.4877020904433596,-0.6744110353665842,-0.2679122686386108,-0.8830148577690125,-0.3853670656681061,-15.94862651824951,-42.10533142089844,8.013211250305176,2,192.168.1.8,10.83.46.32,1,0
2015-02-28 14:13:50.698,78,1425161630.126887,37.77934130077426,-122.4386913977804,56.63923,-1,-1,10,113.1993096164384,-9999,1425161630.657349,-15.14754486083984,-40.79945373535156,6.267608642578125,168.1350708007812,154.3472290039062,10,156703.368728625,-0.2414398193359375,-0.7940216064453125,-0.8211669921875,156703.3533450417,-1.480519693215063,-1.509726847206072,-0.05097157168357158,156703.3015672083,1.624573396816479,-0.6075061211141148,1.082247481313978,-0.624039351940155,-0.1449002176523209,0.1303173005580902,0.1489089876413345,-0.01639918237924576,-0.1344998776912689,XTrueNorthZVertical,-0.5241761064229704,-0.1804324631566077,-0.4877020904433596,-0.6744110353665842,-0.2679122686386108,-0.8830148577690125,-0.3853670656681061,-15.94862651824951,-42.10533142089844,8.013211250305176,2,192.168.1.8,10.83.46.32,1,0
2015-02-28 14:13:50.741,79,1425161630.126887,37.77934130077426,-122.4386913977804,56.63923,-1,-1,10,113.1993096164384,-9999,1425161630.709713,-15.16459655761719,-41.19033813476562,4.886238098144531,170.7841949462891,156.9963531494141,10,156703.417900125,-0.4144439697265625,-0.715118408203125,-0.4170379638671875,156703.4051230417,-0.9309215411587571,-1.236337914975115,-0.3242960554161479,156703.4051230417,1.493156766162416,-0.6297392808415456,0.9801326793165569,-0.9406775832176208,-1.223878264427185,-0.2883480191230774,0.2574127912521362,0.1330920159816742,-0.02470642328262329,XTrueNorthZVertical,-0.5140722002016057,-0.1033767099621041,-0.4627442798066544,-0.7147802447438433,-0.3279846906661987,-0.8305712938308716,-0.4500860571861267,-15.72267723083496,-42.6244010925293,5.233274459838867,2,192.168.1.8,10.83.46.32,1,0
2015-02-28 14:13:50.798,80,1425161630.126887,37.77934130077426,-122.4386913977804,56.63923,-1,-1,10,113.1993096164384,-9999,1425161630.761281,-14.44859313964844,-41.87007141113281,3.721229553222656,174.547607421875,160.759765625,10,156703.46677075,-0.226898193359375,-0.6099700927734375,-0.4760894775390625,156703.4569004167,-0.2162076678336469,0.5869876021804739,-0.2235992714391618,156703.4051230417,1.493156766162416,-0.6297392808415456,0.9801326793165569,-0.9406775832176208,-1.223878264427185,-0.2883480191230774,0.2574127912521362,0.1330920159816742,-0.02470642328262329,XTrueNorthZVertical,-0.5140722002016057,-0.1033767099621041,-0.4627442798066544,-0.7147802447438433,-0.3279846906661987,-0.8305712938308716,-0.4500860571861267,-15.72267723083496,-42.6244010925293,5.233274459838867,2,192.168.1.8,10.83.46.32,1,0
2015-02-28 14:13:50.834,81,1425161630.126887,37.77934130077426,-122.4386913977804,56.63923,-1,-1,10,113.1993096164384,-9999,1425161630.814391,-13.76670074462891,-42.20994567871094,2.789230346679688,175.8325653076172,162.0447235107422,10,156703.5159009583,0.04608154296875,-0.7277069091796875,-0.534027099609375,156703.5086785417,0.5174157144954619,0.8874808564057116,-0.549313460135777,156703.5086785417,1.418511503919981,-0.5256199547863969,0.9943773353396764,0.5077279806137085,0.8998885154724121,-0.5133088827133179,0.2746866941452026,0.1015423163771629,-0.05238042026758194,XTrueNorthZVertical,-0.4982207065631964,-0.1266855262073328,-0.4587339267213252,-0.7247690166036558,-0.2734659910202026,-0.8384197354316711,-0.4714538156986237,-14.02291679382324,-43.39749145507812,3.383028030395508,2,192.168.1.8,10.83.46.32,1,0
2015-02-28 14:13:50.896,82,1425161630.126887,37.77934130077426,-122.4386913977804,56.63923,-1,-1,10,113.1993096164384,-9999,1425161630.865603,-12.65860748291016,-42.66879272460938,2.739303588867188,175.7836303710938,161.9957885742188,10,156703.5648037083,0.064239501953125,-0.447845458984375,-0.2905120849609375,156703.560456375,1.043860876666837,-1.058431829938988,-0.6992939042974424,156703.5086785417,1.418511503919981,-0.5256199547863969,0.9943773353396764,0.5077279806137085,0.8998885154724121,-0.5133088827133179,0.2746866941452026,0.1015423163771629,-0.05238042026758194,XTrueNorthZVertical,-0.4982207065631964,-0.1266855262073328,-0.4587339267213252,-0.7247690166036558,-0.2734659910202026,-0.8384197354316711,-0.4714538156986237,-14.02291679382324,-43.39749145507812,3.383028030395508,2,192.168.1.8,10.83.46.32,1,0
2015-02-28 14:13:50.932,83,1425161630.126887,37.77934130077426,-122.4386913977804,56.63923,-1,-1,10,113.1993096164384,-9999,1425161630.916712,-10.88565063476562,-42.83872985839844,4.403594970703125,178.4287719726562,164.6409301757812,10,156703.613940625,-1.28375244140625,-1.732437133789062,-0.5441436767578125,156703.612233875,1.521466860239468,-0.01173734987230623,-0.4758166056362062,156703.560456375,1.400638148157403,-0.5187946863134946,1.041217991020869,1.034173250198364,-1.046024322509766,-0.6632896661758423,0.4253000617027283,0.3251936137676239,0.1634752452373505,XTrueNorthZVertical,-0.5110157386859794,-0.1396921658236681,-0.4428212418032578,-0.7233660203403891,-0.2504801154136658,-0.8630201816558838,-0.438698023557663,-13.08176231384277,-43.64297866821289,3.948019027709961,2,192.168.1.8,10.83.46.32,1,0
2015-02-28 14:13:50.999,84,1425161630.126887,37.77934130077426,-122.4386913977804,56.63923,-1,-1,10,113.1993096164384,-9999,1425161630.972962,-9.658241271972656,-42.90670776367188,6.766891479492188,180.7255706787109,166.9377288818359,10,156703.6628528333,0.18768310546875,-0.6782684326171875,-0.173492431640625,156703.612233875,1.521466860239468,-0.01173734987230623,-0.4758166056362062,156703.612233875,1.452909372158223,-0.6207065289991411,1.123685834867762,1.511779308319092,0.0006700529484078288,-0.4398127198219299,-0.8767688274383545,-0.3123806416988373,0.02724958956241608,XTrueNorthZVertical,-0.5508876659413274,-0.1437586158399455,-0.4136385500585585,-0.7104642339650242,-0.2514660358428955,-0.9017001986503601,-0.3517124652862549,-11.14202499389648,-43.59212112426758,8.186061859130859,2,192.168.1.8,10.83.46.32,1,0
2015-02-28 14:13:51.030,85,1425161630.126887,37.77934130077426,-122.4386913977804,56.63923,-1,-1,10,113.1993096164384,-9999,1425161631.024535,-9.607093811035156,-42.68580627441406,8.547691345214844,175.7844543457031,161.9966125488281,10,156703.7119829167,-0.1330108642578125,-0.7743988037109375,-0.4945220947265625,156703.7157899167,0.926143031214828,-2.391338362885358,0.2984551370430001,156703.6640117917,1.456191243961208,-0.4483371891742005,1.180806131007793,0.6806595325469971,3.080573558807373,-1.120338559150696,0.3524785935878754,0.2466443479061127,0.1691135168075562,XTrueNorthZVertical,-0.5280296565535141,-0.2233421319541887,-0.4465949969775419,-0.6869176955948367,-0.1647954732179642,-0.9249128103256226,-0.3426059484481812,-11.2458381652832,-43.23405456542969,9.786565780639648,2,192.168.1.8,10.83.46.32,1,0
2015-02-28 14:13:51.099,86,1425161630.126887,37.77934130077426,-122.4386913977804,56.63923,-1,-1,10,113.1993096164384,-9999,1425161631.024535,-9.607093811035156,-42.68580627441406,8.547691345214844,175.7844543457031,161.9966125488281,10,156703.7608856667,-0.3106536865234375,-0.6605377197265625,0.007171630859375,156703.7157899167,0.926143031214828,-2.391338362885358,0.2984551370430001,156703.7157899167,1.456747207044216,-0.4977841380466364,1.199516938985163,0.9164546132087708,-2.378931045532227,0.3344586193561554,0.04022261872887611,0.1574651300907135,-0.1757434606552124,XTrueNorthZVertical,-0.5435945122901699,-0.2124045446669267,-0.4287899939823135,-0.6895857413157926,-0.1732334792613983,-0.9318639636039734,-0.3187786340713501,-10.59691619873047,-43.40592956542969,9.749859809875488,2,192.168.1.8,10.83.46.32,1,0
2015-02-28 14:13:51.128,87,1425161630.126887,37.77934130077426,-122.4386913977804,56.63923,-1,-1,10,113.1993096164384,-9999,1425161631.097862,-9.283187866210938,-42.15902709960938,10.39505767822266,177.869873046875,164.08203125,10,156703.8100179167,-0.096038818359375,-1.0384521484375,-0.214996337890625,156703.767567125,0.5293117887687369,0.3274140844204127,-0.7761684460075606,156703.767567125,1.468295483517617,-0.5608337277509761,1.23287431874723,0.5196233987808228,0.3398212194442749,-0.7401652932167053,-0.1343167722225189,0.2829079031944275,0.2879130244255066,XTrueNorthZVertical,-0.5637288838235817,-0.2045459728919357,-0.4065077622231752,-0.6892910616869862,-0.1763369143009186,-0.94344562292099,-0.2807413935661316,-9.654642105102539,-42.93585205078125,12.43902969360352,2,192.168.1.8,10.83.46.32,1,0
2015-02-28 14:13:51.197,88,1425161630.126887,37.77934130077426,-122.4386913977804,56.63923,-1,-1,10,113.1993096164384,-9999,1425161631.149862,-8.635391235351562,-41.81913757324219,11.79307556152344,178.7124176025391,164.9245758056641,10,156703.8589141667,-0.104034423828125,-0.9171905517578125,0.0390472412109375,156703.8193452917,0.3516680250999824,-0.6808728190373643,-0.1265582086905275,156703.8193452917,1.487049925097077,-0.5820988602735911,1.260179663530906,0.3419797718524933,-0.668465793132782,-0.09055542200803757,0.07199870049953461,-0.08630687743425369,0.04031294956803322,XTrueNorthZVertical,-0.5724138926758386,-0.2113946341611323,-0.3994482636659499,-0.6841752456252629,-0.1680375188589096,-0.9521452784538269,-0.2553092837333679,-8.940158843994141,-42.78786468505859,13.44251441955566,2,192.168.1.8,10.83.46.32,1,0
2015-02-28 14:13:51.226,89,1425161630.126887,37.77934130077426,-122.4386913977804,56.63923,-1,-1,10,113.1993096164384,-9999,1425161631.202454,-7.663681030273438,-41.73417663574219,12.20914459228516,180.9351806640625,167.1473388671875,10,156703.908041625,-0.376800537109375,-1.089584350585938,-0.0522918701171875,156703.871123125,-0.2250056868108327,-0.9591009812851036,0.005044293420719085,156703.871123125,1.481376089745898,-0.6268711292357257,1.262238667828181,-0.2346938252449036,-0.9466940760612488,0.04104669392108917,0.01295401714742184,0.1894516497850418,0.2646363079547882,XTrueNorthZVertical,-0.5822230518452889,-0.1950491558138295,-0.3840008067454335,-0.689576364942769,-0.1781456619501114,-0.9527725577354431,-0.2459442913532257,-8.348602294921875,-42.63925552368164,14.26969242095947,2,192.168.1.8,10.83.46.32,1,0
2015-02-28 14:13:51.294,90,1425161630.126887,37.77934130077426,-122.4386913977804,56.63923,-1,-1,10,113.1993096164384,-9999,1425161631.254777,-7.152259826660156,-41.9381103515625,12.242431640625,183.2999267578125,169.5120849609375,10,156703.9569388333,0.141510009765625,-0.96826171875,-0.1327056884765625,156703.922900625,0.06379602391284815,0.6114223714980599,-0.0008716526247829347,156703.922900625,1.492584192156257,-0.6568338277345055,1.251479757363972,0.05410797148942947,0.6238290667533875,0.03513038530945778,-0.004408530425280333,-0.1558507233858109,0.3091324269771576,XTrueNorthZVertical,-0.5845342796791911,-0.1844431508546454,-0.3821728594606629,-0.6915521263266826,-0.1916821748018265,-0.9494501948356628,-0.2486007958650589,-7.904655456542969,-42.73200988769531,14.24503040313721,2,192.168.1.8,10.83.46.32,1,0
2015-02-28 14:13:51.324,91,1425161630.126887,37.77934130077426,-122.4386913977804,56.63923,-1,-1,10,113.1993096164384,-9999,1425161631.306846,-6.811302185058594,-41.73420715332031,12.54201507568359,183.0482788085938,169.2604370117188,10,156704.0059430417,-0.2401275634765625,-0.957244873046875,-0.1258087158203125,156703.9746785,0.2147610387295159,-0.1853413644835195,-0.1229205969575883,156703.9746785,1.481284287335436,-0.6164475116318694,1.267530566256203,0.2050730735063553,-0.1729347407817841,-0.08691888302564621,0.2631701231002808,-0.0482734739780426,0.02176186256110668,XTrueNorthZVertical,-0.5814036437266789,-0.2003361856536547,-0.385514938029426,-0.6879051433793827,-0.172655001282692,-0.9543663263320923,-0.2436704337596893,-8.079435348510742,-42.69695281982422,14.25209808349609,2,192.168.1.8,10.83.46.32,1,0
2015-02-28 14:13:51.364,92,1425161630.126887,37.77934130077426,-122.4386913977804,56.63923,-1,-1,10,113.1993096164384,-9999,1425161631.357326,-6.6749267578125,-41.87016296386719,13.10787963867188,183.24462890625,169.456787109375,10,156704.05493975,0.1566009521484375,-0.9222259521484375,-0.2052154541015625,156704.0264566667,-0.2411202082507932,0.04419862039928206,-0.2159682496516488,156704.0264566667,1.476806724699902,-0.6320591183645681,1.272211412368286,-0.25080806016922,0.05660510808229446,-0.179966926574707,-0.09153839945793152,-0.08173712342977524,0.09749177098274231,XTrueNorthZVertical,-0.5858642704313874,-0.1951762528208547,-0.3780992303243055,-0.689717548672956,-0.173796683549881,-0.9557537436485291,-0.2373385727405548,-7.766593456268311,-42.59941101074219,14.71052360534668,2,192.168.1.8,10.83.46.32,1,0
2015-02-28 14:13:51.424,93,1425161630.126887,37.77934130077426,-122.4386913977804,56.63923,-1,-1,10,113.1993096164384,-9999,1425161631.409632,-6.299880981445312,-42.44793701171875,12.60858154296875,184.0575103759766,170.2696685791016,10,156704.1039819167,-0.3541107177734375,-0.9818572998046875,-0.062957763671875,156704.0782338333,-0.6266644413649104,-0.5330229037477623,0.1797135724679641,156704.0782338333,1.435325060757632,-0.5854574745314581,1.24602776981993,-0.6363522410392761,-0.5206165313720703,0.2157145291566849,0.315482884645462,0.0523541197180748,-0.004681714344769716,XTrueNorthZVertical,-0.5749820387364216,-0.1908443629275223,-0.3845100411753283,-0.696509978720477,-0.176322728395462,-0.9477245807647705,-0.2659481763839722,-7.725722789764404,-42.90606307983398,13.81347560882568,2,192.168.1.8,10.83.46.32,1,0
2015-02-28 14:13:51.496,94,1425161630.126887,37.77934130077426,-122.4386913977804,56.63923,-1,-1,10,113.1993096164384,-9999,1425161631.460738,-6.709030151367188,-42.68585205078125,11.31044006347656,184.1563415527344,170.3684997558594,10,156704.1529815,-0.1414642333984375,-1.005142211914062,-0.239990234375,156704.1300119583,-0.6355719162628984,0.7345128781331953,0.3409978038764709,156704.1300119583,1.421970351897434,-0.5859134957783408,1.213307311000531,-0.6452595591545105,0.7469190955162048,0.3769984543323517,-0.120852530002594,-0.06357252597808838,0.1387265175580978,XTrueNorthZVertical,-0.5684138205879142,-0.1764269069667835,-0.3885394627671701,-0.7034318722434595,-0.1934937834739685,-0.9367784261703491,-0.291558563709259,-7.88074779510498,-43.18218231201172,12.83051681518555,2,192.168.1.8,10.83.46.32,1,0
2015-02-28 14:13:51.526,95,1425161630.126887,37.77934130077426,-122.4386913977804,56.63923,-1,-1,10,113.1993096164384,-9999,1425161631.513105,-7.902336120605469,-43.02569580078125,9.413124084472656,181.9341583251953,168.1463165283203,10,156704.202116375,-0.0126190185546875,-0.8951263427734375,-0.424652099609375,156704.181789875,-0.8920079639427373,0.7057906857766907,0.459611536719183,156704.181789875,1.42019255806285,-0.5343559605682712,1.167633136640627,-0.9016955494880676,0.7181968092918396,0.4956118166446686,0.1834663301706314,0.007532103452831507,0.1357030868530273,XTrueNorthZVertical,-0.546756475755526,-0.1795505700351215,-0.4142773516661775,-0.7051193252694706,-0.1998084932565689,-0.9198246002197266,-0.3376379013061523,-8.557878494262695,-43.33242797851562,11.85295486450195,2,192.168.1.8,10.83.46.32,1,0
2015-02-28 14:13:51.562,96,1425161630.126887,37.77934130077426,-122.4386913977804,56.63923,-1,-1,10,113.1993096164384,-9999,1425161631.513105,-7.902336120605469,-43.02569580078125,9.413124084472656,181.9341583251953,168.1463165283203,10,156704.2510145833,-0.197967529296875,-1.0146484375,-0.33819580078125,156704.2335673333,-0.733594087557118,0.2987824395409708,0.3619595448164846,156704.181789875,1.42019255806285,-0.5343559605682712,1.167633136640627,-0.9016955494880676,0.7181968092918396,0.4956118166446686,0.1834663301706314,0.007532103452831507,0.1357030868530273,XTrueNorthZVertical,-0.546756475755526,-0.1795505700351215,-0.4142773516661775,-0.7051193252694706,-0.1998084932565689,-0.9198246002197266,-0.3376379013061523,-8.557878494262695,-43.33242797851562,11.85295486450195,2,192.168.1.8,10.83.46.32,1,0
2015-02-28 14:13:51.618,97,1425161630.126887,37.77934130077426,-122.4386913977804,56.63923,-1,-1,10,113.1993096164384,-9999,1425161631.565032,-9.232048034667969,-42.82179260253906,7.349395751953125,179.5395812988281,165.7517395019531,10,156704.3000659167,0.1153717041015625,-0.828460693359375,-0.6011962890625,156704.2853452083,-0.2307429347471904,0.1774123349700266,0.01795263522433315,156704.2853452083,1.40724422340221,-0.4906426959248948,1.085786495387083,-0.2404302954673767,0.1898182034492493,0.05395215377211571,0.2836582660675049,-0.1032294183969498,-0.1082526445388794,XTrueNorthZVertical,-0.5166658269014184,-0.1656732884376701,-0.441702129307521,-0.7144984616696379,-0.2196781784296036,-0.8846703767776489,-0.4112175703048706,-11.53055667877197,-43.71414184570312,6.895604133605957,2,192.168.1.8,10.83.46.32,1,0
2015-02-28 14:13:51.694,98,1425161630.126887,37.77934130077426,-122.4386913977804,56.63923,-1,-1,10,113.1993096164384,-9999,1425161631.668406,-10.57878875732422,-42.77081298828125,4.8363037109375,177.2417755126953,163.4539337158203,10,156704.349063375,-0.4041290283203125,-0.9566192626953125,-0.2384796142578125,156704.3371234167,-0.3343753211937708,-1.133817131967534,0.1576594028487999,156704.3371234167,1.4041302369247,-0.5261308767104652,1.070125978384191,-0.3440625965595245,-1.121411323547363,0.1936585903167725,-0.1504512876272202,0.03287011384963989,-0.01224258728325367,XTrueNorthZVertical,-0.5203797328562105,-0.1471645471787123,-0.4351882977231227,-0.7198324201948596,-0.2410587221384048,-0.8772609829902649,-0.4150950610637665,-11.65511894226074,-43.76308441162109,6.354485511779785,2,192.168.1.8,10.83.46.32,1,0
2015-02-28 14:13:51.716,99,1425161630.126887,37.77934130077426,-122.4386913977804,56.63923,-1,-1,10,113.1993096164384,-9999,1425161631.668406,-10.57878875732422,-42.77081298828125,4.8363037109375,177.2417755126953,163.4539337158203,10,156704.39819675,-0.20556640625,-0.7989654541015625,-0.5040130615234375,156704.3889007083,-0.1307838463921563,0.1147625355903486,0.1734791123560886,156704.3371234167,1.4041302369247,-0.5261308767104652,1.070125978384191,-0.3440625965595245,-1.121411323547363,0.1936585903167725,-0.1504512876272202,0.03287011384963989,-0.01224258728325367,XTrueNorthZVertical,-0.5203797328562105,-0.1471645471787123,-0.4351882977231227,-0.7198324201948596,-0.2410587221384048,-0.8772609829902649,-0.4150950610637665,-11.65511894226074,-43.76308441162109,6.354485511779785,2,192.168.1.8,10.83.46.32,1,0
2015-02-28 14:13:51.792,100,1425161630.126887,37.77934130077426,-122.4386913977804,56.63923,-1,-1,10,113.1993096164384,-9999,1425161631.771686,-11.07318115234375,-43.09368896484375,4.087364196777344,177.9232635498047,164.1354217529297,10,156704.4471026667,-0.20697021484375,-0.79998779296875,-0.4391326904296875,156704.4406787917,-0.295123256203202,-0.316367292218764,0.2470417469345843,156704.3889007083,1.405508825962648,-0.5365362959449976,1.058441923194888,-0.1404710114002228,0.1271681487560272,0.2094779014587402,0.0953749492764473,0.1058914288878441,-0.03083331696689129,XTrueNorthZVertical,-0.519341640004941,-0.1400408567503799,-0.4358370987702397,-0.7216085370099866,-0.2505873441696167,-0.8715927004814148,-0.4213456511497498,-11.76037216186523,-43.76518249511719,6.142595291137695,2,192.168.1.8,10.83.46.32,1,0
2015-02-28 14:13:51.814,101,1425161630.126887,37.77934130077426,-122.4386913977804,56.63923,-1,-1,10,113.1993096164384,-9999,1425161631.771686,-11.07318115234375,-43.09368896484375,4.087364196777344,177.9232635498047,164.1354217529297,10,156704.49613975,-0.3903961181640625,-0.889617919921875,-0.460113525390625,156704.492456625,-0.1828853973262485,-0.01678936646018654,0.01176051937378992,156704.492456625,1.414087742416347,-0.5658424290273804,1.027481214756982,-0.1925764679908752,-0.004397805780172348,0.04779411479830742,-0.1516220420598984,0.009274088777601719,-0.03898836299777031,XTrueNorthZVertical,-0.5167110298613696,-0.121696784572711,-0.4389395903883302,-0.7249356372717137,-0.2771651744842529,-0.8559995293617249,-0.4363992214202881,-12.56707000732422,-43.64164352416992,5.376338958740234,2,192.168.1.8,10.83.46.32,1,0
2015-02-28 14:13:51.862,102,1425161630.126887,37.77934130077426,-122.4386913977804,56.63923,-1,-1,10,113.1993096164384,-9999,1425161631.82336,-11.15841674804688,-43.00872802734375,3.638008117675781,178.2926635742188,164.5048217773438,10,156704.5451472917,-0.279083251953125,-0.8035430908203125,-0.4940643310546875,156704.492456625,-0.1828853973262485,-0.01678936646018654,0.01176051937378992,156704.492456625,1.414087742416347,-0.5658424290273804,1.027481214756982,-0.1925764679908752,-0.004397805780172348,0.04779411479830742,-0.1516220420598984,0.009274088777601719,-0.03898836299777031,XTrueNorthZVertical,-0.5167110298613696,-0.121696784572711,-0.4389395903883302,-0.7249356372717137,-0.2771651744842529,-0.8559995293617249,-0.4363992214202881,-12.56707000732422,-43.64164352416992,5.376338958740234,2,192.168.1.8,10.83.46.32,1,0
2015-02-28 14:13:51.912,103,1425161630.126887,37.77934130077426,-122.4386913977804,56.63923,-1,-1,10,113.1993096164384,-9999,1425161631.875715,-11.55050659179688,-43.05967712402344,3.188644409179688,178.2840728759766,164.4962310791016,10,156704.5942778334,-0.121856689453125,-0.8283538818359375,-0.5471038818359375,156704.596012125,-0.4820729036690203,0.1181876270682995,0.1471124859837591,156704.5442339584,1.406687764906842,-0.5472388844172985,1.010303399417258,-0.238689973950386,0.1087582260370255,0.122073270380497,0.02827331982553005,0.07666846364736557,-0.0386287234723568,XTrueNorthZVertical,-0.5083035530188855,-0.1210046114496267,-0.4451995717817471,-0.7271745053521922,-0.2766101062297821,-0.8469931483268738,-0.4539707601070404,-12.83725166320801,-43.65856170654297,4.534784317016602,2,192.168.1.8,10.83.46.32,1,0
2015-02-28 14:13:51.963,104,1425161630.126887,37.77934130077426,-122.4386913977804,56.63923,-1,-1,10,113.1993096164384,-9999,1425161631.927631,-12.07898712158203,-43.24661254882812,2.706001281738281,177.6365356445312,163.8486938476562,10,156704.643205625,-0.3231353759765625,-0.916900634765625,-0.4322357177734375,156704.596012125,-0.4820729036690203,0.1181876270682995,0.1471124859837591,156704.596012125,1.395191914619384,-0.5337960534622691,0.997353852144964,-0.4917871952056885,0.130584642291069,0.183131992816925,0.1541837900876999,0.01168443914502859,-0.08005215227603912,XTrueNorthZVertical,-0.5023465862816587,-0.1188362079900259,-0.4475011405646474,-0.7302524426988312,-0.2760404646396637,-0.8400382995605469,-0.4670517146587372,-12.92596530914307,-43.68051147460938,4.044918060302734,2,192.168.1.8,10.83.46.32,1,0
2015-02-28 14:13:52.010,105,1425161630.126887,37.77934130077426,-122.4386913977804,56.63923,-1,-1,10,113.1993096164384,-9999,1425161631.978609,-12.5733642578125,-43.33157348632812,1.82391357421875,177.2635040283203,163.4756622314453,10,156704.6922065,0.0425262451171875,-0.88397216796875,-0.470550537109375,156704.6477902083,-0.5445266943924686,-0.114675982854921,0.1164070375634725,156704.6477902083,1.373170800319977,-0.5201302141944097,0.9707978930152199,-0.5542610287666321,-0.1022694110870361,0.1523930728435516,-0.04251256957650185,-0.09156413376331329,0.05773422122001648,XTrueNorthZVertical,-0.4928859718121839,-0.1099019983226552,-0.4490346621456703,-0.7371247382225924,-0.280622810125351,-0.8253365159034729,-0.489969938993454,-12.95658111572266,-43.76773834228516,2.818004608154297,2,192.168.1.8,10.83.46.32,1,0
2015-02-28 14:13:52.049,106,1425161630.126887,37.77934130077426,-122.4386913977804,56.63923,-1,-1,10,113.1993096164384,-9999,1425161632.030696,-12.77793121337891,-42.95770263671875,1.025054931640625,176.8410339355469,163.0531921386719,10,156704.741322125,-0.3475341796875,-0.794921875,-0.4576873779296875,156704.6995675,-0.4839496332891992,-0.5720528611034186,0.1951212909546175,156704.6995675,1.343523224702551,-0.4916594131600634,0.9528404736995463,-0.4936902523040771,-0.5596306324005127,0.2310457676649094,0.3160408139228821,-0.06890769302845001,0.04019374027848244,XTrueNorthZVertical,-0.4827607750490053,-0.1075634507584268,-0.4490765117361253,-0.7441118616810863,-0.2735145688056946,-0.8150644898414612,-0.5107442736625671,-12.7456521987915,-43.89148712158203,1.585762023925781,2,192.168.1.8,10.83.46.32,1,0
2015-02-28 14:13:52.108,107,1425161630.126887,37.77934130077426,-122.4386913977804,56.63923,-1,-1,10,113.1993096164384,-9999,1425161632.081772,-12.99954986572266,-42.43092346191406,-0.02346038818359375,177.2563781738281,163.4685363769531,10,156704.7902527917,-0.435333251953125,-0.656829833984375,-0.596710205078125,156704.8031234167,-0.9179796435254081,-0.0752721176822176,0.3607243707029058,156704.751345375,1.334823131098895,-0.5179100833339865,0.9204208151818313,-0.6394068598747253,-0.2163775414228439,0.3694263994693756,-0.02711895108222961,0.05284501239657402,0.1423971503973007,XTrueNorthZVertical,-0.4792118376173407,-0.08553547409646584,-0.4467415464736109,-0.7506408768282113,-0.2997548282146454,-0.7958564758300781,-0.5260794162750244,-13.0899543762207,-43.81012725830078,0.8689441680908203,2,192.168.1.8,10.83.46.32,1,0
2015-02-28 14:13:52.148,108,1425161630.126887,37.77934130077426,-122.4386913977804,56.63923,-1,-1,10,113.1993096164384,-9999,1425161632.134346,-13.97126770019531,-41.63223266601562,-1.571250915527344,176.1947784423828,162.4069366455078,10,156704.839365625,-0.2983856201171875,-0.58941650390625,-0.577850341796875,156704.8031234167,-0.9179796435254081,-0.0752721176822176,0.3607243707029058,156704.8031234167,1.32520829379915,-0.5129427994043437,0.8680577426547373,-0.9277200698852539,-0.06285016238689423,0.3966480791568756,-0.0480620414018631,0.006208621896803379,0.03656690940260887,XTrueNorthZVertical,-0.4622789923244595,-0.06878882189913289,-0.4557746354772902,-0.7575194722548787,-0.3171723484992981,-0.763075053691864,-0.5631324648857117,-13.81433582305908,-43.59226989746094,-0.5542201995849609,2,192.168.1.8,10.83.46.32,1,0
2015-02-28 14:13:52.206,109,1425161630.126887,37.77934130077426,-122.4386913977804,56.63923,-1,-1,10,113.1993096164384,-9999,1425161632.188964,-15.09640502929688,-41.7001953125,-3.535118103027344,175.4071655273438,161.6193237304688,10,156704.8882909583,-0.2339324951171875,-0.70751953125,-0.463409423828125,156704.85490075,-1.181629661966054,-0.1503125403495983,0.2664583218101341,156704.85490075,1.311069754332187,-0.4955685937109886,0.8079585591473932,-1.191369533538818,-0.137890636920929,0.3023816049098969,0.03050051257014275,0.1148000955581665,-0.08839310705661774,XTrueNorthZVertical,-0.4395563610506648,-0.05352676451693733,-0.4669724847729148,-0.7654161138608271,-0.3285809457302094,-0.722878098487854,-0.607850193977356,-14.90653038024902,-43.10143280029297,-3.389862060546875,2,192.168.1.8,10.83.46.32,1,0
2015-02-28 14:13:52.245,110,1425161630.126887,37.77934130077426,-122.4386913977804,56.63923,-1,-1,10,113.1993096164384,-9999,1425161632.188964,-15.09640502929688,-41.7001953125,-3.535118103027344,175.4071655273438,161.6193237304688,10,156704.9374069583,-0.2265167236328125,-0.670989990234375,-0.618072509765625,156704.906679,-1.262812399371593,-0.1134453361151954,0.4344763560349061,156704.906679,1.298276416702019,-0.502929899694876,0.7462426335393071,-1.272551774978638,-0.1010234504938126,0.4703989326953888,0.05504350364208221,0.05087875202298164,0.06822261214256287,XTrueNorthZVertical,-0.4213129024525656,-0.02884879582542262,-0.472949311527698,-0.7732930698541461,-0.3539021611213684,-0.678884744644165,-0.6433263421058655,-15.64060115814209,-42.63128662109375,-5.419763565063477,2,192.168.1.8,10.83.46.32,1,0
2015-02-28 14:13:52.305,111,1425161630.126887,37.77934130077426,-122.4386913977804,56.63923,-1,-1,10,113.1993096164384,-9999,1425161632.265572,-16.59658050537109,-41.02047729492188,-6.830429077148438,174.8769226074219,161.0890808105469,10,156704.9863227083,-0.3471832275390625,-0.6492156982421875,-0.5868682861328125,156704.9584567917,-1.274676249395678,-0.5791030474571853,0.4621548555602087,156704.9584567917,1.27648298722469,-0.5004863951602925,0.6812071333767818,-1.284415483474731,-0.5666812062263489,0.4980767369270325,0.1572099328041077,0.0368967279791832,0.05961870774626732,XTrueNorthZVertical,-0.3990025578683837,-0.005361248775627067,-0.4776263162326382,-0.7827140958361793,-0.3727555871009827,-0.6297311782836914,-0.6815364360809326,-16.26627159118652,-42.17027282714844,-6.964591979980469,2,192.168.1.8,10.83.46.32,1,0
2015-02-28 14:13:52.343,112,1425161630.126887,37.77934130077426,-122.4386913977804,56.63923,-1,-1,10,113.1993096164384,-9999,1425161632.316162,-17.51715850830078,-39.96690368652344,-9.027297973632812,174.5296325683594,160.7417907714844,10,156705.0354589167,-0.3785858154296875,-0.62347412109375,-0.687347412109375,156705.0102342917,-1.255529719054662,-0.2969022478113749,0.4611122279934426,156705.0102342917,1.262310107293183,-0.5095971402546929,0.6136385801756168,-1.265268802642822,-0.2844805419445038,0.4970338046550751,-0.05149155855178833,0.06850653886795044,0.04423129186034203,XTrueNorthZVertical,-0.3777521616503104,0.02152282078451098,-0.4828987024234228,-0.7897144760635488,-0.3988258242607117,-0.5758460164070129,-0.7136801481246948,-17.70232200622559,-40.81239318847656,-10.6021556854248,2,192.168.1.8,10.83.46.32,1,0
2015-02-28 14:13:52.403,113,1425161630.126887,37.77934130077426,-122.4386913977804,56.63923,-1,-1,10,113.1993096164384,-9999,1425161632.367571,-18.54000854492188,-38.3695068359375,-11.82331848144531,173.8676910400391,160.0798492431641,10,156705.0843785417,-0.379302978515625,-0.4319915771484375,-0.8241729736328125,156705.0620122083,-1.162181661789641,0.2969184930940243,0.406811172315054,156705.0620122083,1.256173959006455,-0.4955185598845057,0.5512992671007354,-1.171916246414185,0.3093408644199371,0.4427299499511719,0.09963718801736832,-0.05126353725790977,0.044171292334795,XTrueNorthZVertical,-0.3521621264983326,0.03589516868000756,-0.4941427027363801,-0.7940506286192004,-0.4050418436527252,-0.5237944722175598,-0.749386727809906,-18.65841674804688,-39.77373886108398,-12.70205497741699,2,192.168.1.8,10.83.46.32,1,0
2015-02-28 14:13:52.441,114,1425161630.126887,37.77934130077426,-122.4386913977804,56.63923,-1,-1,10,113.1993096164384,-9999,1425161632.419795,-19.23896026611328,-37.19696044921875,-13.77054595947266,173.2594604492188,159.4716186523438,10,156705.1335019167,-0.317230224609375,-0.3448028564453125,-0.663543701171875,156705.1137904167,-1.005607230768939,-0.1959988025337986,0.4581164380832126,156705.1137904167,1.248301688187931,-0.4937691403045594,0.4924297843886226,-1.015342116355896,-0.1835765093564987,0.4940347075462341,0.1402473151683807,-0.1084236428141594,-0.002343132626265287,XTrueNorthZVertical,-0.3302968973081796,0.05420569988834215,-0.5012635253978598,-0.7979352215477579,-0.4176368415355682,-0.4727683663368225,-0.7759314179420471,-19.06588363647461,-39.04204940795898,-14.27023506164551,2,192.168.1.8,10.83.46.32,1,0
2015-02-28 14:13:52.500,115,1425161630.126887,37.77934130077426,-122.4386913977804,56.63923,-1,-1,10,113.1993096164384,-9999,1425161632.472063,-20.56866455078125,-35.463623046875,-15.86756896972656,171.9683380126953,158.1804962158203,10,156705.182443125,-0.4547882080078125,-0.5005950927734375,-0.842437744140625,156705.1655675833,-0.8145517878505457,-0.3027822411821608,0.5179603309383831,156705.1655675833,1.245040753053457,-0.5017055415314851,0.4396551746585121,-0.8242867588996887,-0.290360152721405,0.5538784861564636,-0.2244674861431122,0.008650530129671097,-0.0152116846293211,XTrueNorthZVertical,-0.3128667890955217,0.07364332685390403,-0.5072666240998051,-0.7996071802565871,-0.4351852238178253,-0.4256274700164795,-0.7933820486068726,-20.4658317565918,-37.15264129638672,-17.09561538696289,2,192.168.1.8,10.83.46.32,1,0
2015-02-28 14:13:52.540,116,1425161630.126887,37.77934130077426,-122.4386913977804,56.63923,-1,-1,10,113.1993096164384,-9999,1425161632.523077,-22.10293579101562,-33.90023803710938,-17.29885864257812,170.0101470947266,156.2223052978516,10,156705.231465375,-0.4207305908203125,-0.2525482177734375,-0.8570098876953125,156705.2173455833,-0.756685558420868,0.05588323968200472,0.3314362566147594,156705.1655675833,1.245040753053457,-0.5017055415314851,0.4396551746585121,-0.8242867588996887,-0.290360152721405,0.5538784861564636,-0.2244674861431122,0.008650530129671097,-0.0152116846293211,XTrueNorthZVertical,-0.3128667890955217,0.07364332685390403,-0.5072666240998051,-0.7996071802565871,-0.4351852238178253,-0.4256274700164795,-0.7933820486068726,-20.4658317565918,-37.15264129638672,-17.09561538696289,2,192.168.1.8,10.83.46.32,1,0
2015-02-28 14:13:52.598,117,1425161630.126887,37.77934130077426,-122.4386913977804,56.63923,-1,-1,10,113.1993096164384,-9999,1425161632.575151,-23.09169006347656,-32.4727783203125,-18.49715423583984,168.2857818603516,154.4979400634766,10,156705.2806045834,-0.364501953125,-0.35601806640625,-0.8642425537109375,156705.2691236667,-0.7334982137578751,-0.1305271176630726,0.227235018959338,156705.2691236667,1.25295157596329,-0.5023715652312196,0.3492576996599376,-0.743233323097229,-0.1181045398116112,0.2631504833698273,0.0001344771008007228,-0.1355522722005844,-0.02366888523101807,XTrueNorthZVertical,-0.2798402760064987,0.09962238294362447,-0.5242740751283873,-0.7980611084635499,-0.4524354934692383,-0.3422004282474518,-0.8235296010971069,-21.74323081970215,-35.25725173950195,-19.38007164001465,2,192.168.1.8,10.83.46.32,1,0
2015-02-28 14:13:52.637,118,1425161630.126887,37.77934130077426,-122.4386913977804,56.63923,-1,-1,10,113.1993096164384,-9999,1425161632.627328,-23.77359008789062,-31.82701110839844,-19.26273345947266,167.9345703125,154.146728515625,10,156705.3295151667,-0.519195556640625,-0.37994384765625,-1.064773559570312,156705.3209011667,-0.6326070190213132,0.04058071605840942,0.2337435183473827,156705.2691236667,1.25295157596329,-0.5023715652312196,0.3492576996599376,-0.743233323097229,-0.1181045398116112,0.2631504833698273,0.0001344771008007228,-0.1355522722005844,-0.02366888523101807,XTrueNorthZVertical,-0.2798402760064987,0.09962238294362447,-0.5242740751283873,-0.7980611084635499,-0.4524354934692383,-0.3422004282474518,-0.8235296010971069,-21.74323081970215,-35.25725173950195,-19.38007164001465,2,192.168.1.8,10.83.46.32,5,0
2015-02-28 14:13:52.700,119,1425161630.126887,37.77934130077426,-122.4386913977804,56.63923,-1,-1,10,113.1993096164384,-9999,1425161632.678785,-24.42139434814453,-31.11329650878906,-20.327880859375,167.6838531494141,153.8960113525391,10,156705.3785512917,-0.6796417236328125,-0.0973968505859375,-0.8394317626953125,156705.3726790417,-0.3854113413757223,-0.214766897683914,0.2311834215914895,156705.3209011667,1.248273705150845,-0.5130996196737436,0.3158461736041372,-0.6423406004905701,0.05299868434667587,0.2696698904037476,-0.1413730531930923,-0.01568830572068691,-0.1113374531269073,XTrueNorthZVertical,-0.2698831600111821,0.1144448055737294,-0.5258539813082618,-0.798462957634464,-0.4665981531143188,-0.310620903968811,-0.8281309604644775,-22.89030075073242,-33.71210861206055,-20.75950050354004,2,192.168.1.8,10.83.46.32,5,0
2015-02-28 14:13:52.736,120,1425161630.126887,37.77934130077426,-122.4386913977804,56.63923,-1,-1,10,113.1993096164384,-9999,1425161632.730657,-25.08624267578125,-30.14468383789062,-21.17667388916016,167.1757507324219,153.3879089355469,10,156705.427689875,-0.3729248046875,-0.189605712890625,-0.8599700927734375,156705.42445725,-0.4591007424221058,0.1721283570512004,0.09433475844889579,156705.3726790417,1.24591873287339,-0.5211974716399692,0.2919001647396441,-0.3951448202133179,-0.2023490518331528,0.2671094536781311,-0.05341703817248344,0.2032846212387085,0.1440612971782684,XTrueNorthZVertical,-0.262856425694537,0.1250480739026731,-0.5273151079189233,-0.7982532765966787,-0.4768564105033875,-0.287772536277771,-0.8305389285087585,-23.44530487060547,-32.91619110107422,-21.40726852416992,2,192.168.1.8,10.83.46.32,5,0
2015-02-28 14:13:52.795,121,1425161630.126887,37.77934130077426,-122.4386913977804,56.63923,-1,-1,10,113.1993096164384,-9999,1425161632.782554,-25.46128845214844,-28.78518676757812,-22.10868835449219,166.5301055908203,152.7422637939453,10,156705.476603,-0.48297119140625,-0.31732177734375,-0.885833740234375,156705.4762344583,-0.3581038201902678,0.3356552364136629,0.1988912617937337,156705.42445725,1.241654929237356,-0.5104369207545142,0.279953252949499,-0.4688032865524292,0.1845559775829315,0.1302300989627838,0.1693977564573288,-0.05700226500630379,0.06227117031812668,XTrueNorthZVertical,-0.2552290615019984,0.1248082297800285,-0.5287104636398975,-0.7998414314939087,-0.4695381224155426,-0.2763107120990753,-0.8385620713233948,-23.82514953613281,-32.50096130371094,-21.62125587463379,2,192.168.1.8,10.83.46.32,5,0
2015-02-28 14:13:52.834,122,1425161630.126887,37.77934130077426,-122.4386913977804,56.63923,-1,-1,10,113.1993096164384,-9999,1425161632.782554,-25.46128845214844,-28.78518676757812,-22.10868835449219,166.5301055908203,152.7422637939453,10,156705.5257253333,-0.506561279296875,-0.15362548828125,-0.7814483642578125,156705.4762344583,-0.3581038201902678,0.3356552364136629,0.1988912617937337,156705.4762344583,1.247019838501693,-0.5224821945099805,0.2570369541108152,-0.3678089082241058,0.3480535447597504,0.2348656207323074,-0.08176913112401962,-0.04220126569271088,0.07290070503950119,XTrueNorthZVertical,-0.2500811094057643,0.1356561116709556,-0.5325513044763097,-0.7971486712890107,-0.4826382100582123,-0.2542159557342529,-0.8381137251853943,-24.28945732116699,-31.75765609741211,-22.20140838623047,2,192.168.1.8,10.83.46.32,5,0
2015-02-28 14:13:52.896,123,1425161630.126887,37.77934130077426,-122.4386913977804,56.63923,-1,-1,10,113.1993096164384,-9999,1425161632.888182,-25.66586303710938,-27.5277099609375,-22.47484588623047,166.2997741699219,152.5119323730469,10,156705.5746540417,-0.3690338134765625,-0.2439727783203125,-0.88433837890625,156705.5797905,-0.1452085921204614,0.04511181833707023,-0.01555712182380688,156705.528012625,1.251873486102238,-0.5328020062905691,0.2420575111216489,-0.08019040524959564,-0.4832648038864136,0.3116075992584229,-0.01342064701020718,0.08607517182826996,0.05482666194438934,XTrueNorthZVertical,-0.2474977587625692,0.1435525877116578,-0.5352973959250351,-0.7947290417728696,-0.4931406378746033,-0.23970066010952,-0.836275041103363,-24.44939804077148,-31.25104141235352,-22.73825836181641,2,192.168.1.8,10.83.46.32,5,0
2015-02-28 14:13:52.931,124,1425161630.126887,37.77934130077426,-122.4386913977804,56.63923,-1,-1,10,113.1993096164384,-9999,1425161632.888182,-25.66586303710938,-27.5277099609375,-22.47484588623047,166.2997741699219,152.5119323730469,10,156705.6236682917,-0.5069427490234375,-0.22625732421875,-0.7878570556640625,156705.5797905,-0.1452085921204614,0.04511181833707023,-0.01555712182380688,156705.5797905,1.25170458622086,-0.523582039749093,0.2365198920551291,-0.1549140959978104,0.05751891061663628,0.02039528451859951,0.1170317605137825,-0.009651945903897285,-0.04241557046771049,XTrueNorthZVertical,-0.2429136489399843,0.1415328738799823,-0.5371291142084215,-0.7952696130194887,-0.4860655665397644,-0.2343208342790604,-0.8419228196144104,-25.05972290039062,-30.93846893310547,-22.50000762939453,2,192.168.1.8,10.83.46.32,5,0
2015-02-28 14:13:52.996,125,1425161630.126887,37.77934130077426,-122.4386913977804,56.63923,-1,-1,10,113.1993096164384,-9999,1425161632.938364,-26.00681304931641,-27.39176940917969,-22.30839538574219,165.6082458496094,151.8204040527344,10,156705.6727080834,-0.4236297607421875,-0.2977752685546875,-0.832672119140625,156705.6315680417,-0.04883971123096315,-0.2405231275343974,0.0648730062576762,156705.6315680417,1.250858972369377,-0.5282892970226447,0.2254380279502584,-0.05856085568666458,-0.228113129734993,0.1008222475647926,-0.01564065366983414,-0.002723996527493,0.05395950004458427,XTrueNorthZVertical,-0.2399067138923708,0.1467531614814915,-0.5377455864569362,-0.7948194766254746,-0.491302102804184,-0.2235333323478699,-0.8418165445327759,-24.90953063964844,-30.5677547454834,-23.1636962890625,2,192.168.1.8,10.83.46.32,5,0
2015-02-28 14:13:53.030,126,1425161630.126887,37.77934130077426,-122.4386913977804,56.63923,-1,-1,10,113.1993096164384,-9999,1425161632.990688,-26.27957916259766,-27.25581359863281,-22.74111175537109,165.7938079833984,152.0059661865234,10,156705.7218211667,-0.631805419921875,-0.122772216796875,-0.895477294921875,156705.6833459167,-0.0797321135597733,0.1879193044187162,0.03821103532045691,156705.6833459167,1.257592826438809,-0.5296280194751518,0.2194485025752512,-0.08945181965827942,0.200328603386879,0.0741613358259201,0.1715477257966995,-0.1070003882050514,-0.01883134245872498,XTrueNorthZVertical,-0.2384892100658239,0.1482352434745422,-0.541076273560102,-0.792707836101733,-0.4930961728096008,-0.2176913917064667,-0.8422984480857849,-25.71561622619629,-30.06340789794922,-22.94183540344238,2,192.168.1.8,10.83.46.32,5,0
2015-02-28 14:13:53.096,127,1425161630.126887,37.77934130077426,-122.4386913977804,56.63923,-1,-1,10,113.1993096164384,-9999,1425161633.041821,-26.62052154541016,-27.119873046875,-22.50812530517578,165.5902404785156,151.8023986816406,10,156705.7707540417,-0.38739013671875,-0.131195068359375,-0.8758087158203125,156705.7351240834,0.07261934292038967,-0.02814322113552136,-0.02266110403159325,156705.7351240834,1.259938224707674,-0.5435013519486549,0.2131693997719258,0.06288885325193405,-0.01574095711112022,0.01330508943647146,-0.1038984581828117,-0.03950949758291245,-0.06595092266798019,XTrueNorthZVertical,-0.2400408872854864,0.1552909963580651,-0.5412062522712227,-0.790797641205643,-0.5054307579994202,-0.2115586251020432,-0.8365301489830017,-25.28997230529785,-30.21890449523926,-23.20913696289062,2,192.168.1.8,10.83.46.32,5,0
2015-02-28 14:13:53.128,128,1425161630.126887,37.77934130077426,-122.4386913977804,56.63923,-1,-1,10,113.1993096164384,-9999,1425161633.093345,-27.35356903076172,-26.93293762207031,-21.95890045166016,164.9204559326172,151.1326141357422,10,156705.819888375,-0.4078369140625,-0.27130126953125,-0.9177703857421875,156705.7869013333,0.2396277727759127,-0.4194523990613331,0.03462242575157513,156705.7869013333,1.262592947137336,-0.5465585289243591,0.2119748256392823,0.2298746109008789,-0.4070483148097992,0.07059329003095627,0.01801976375281811,0.1044796779751778,-0.0518885925412178,XTrueNorthZVertical,-0.2406238453805459,0.1565310844468326,-0.5420529846251499,-0.7897954067020775,-0.5081167817115784,-0.2103909254074097,-0.8351963758468628,-25.71830558776855,-30.10583114624023,-22.88311195373535,2,192.168.1.8,10.83.46.32,5,0
2015-02-28 14:13:53.192,129,1425161630.126887,37.77934130077426,-122.4386913977804,56.63923,-1,-1,10,113.1993096164384,-9999,1425161633.145858,-27.33650970458984,-26.84797668457031,-21.01023864746094,164.5016479492188,150.7138061523438,10,156705.8688025,-0.569610595703125,-0.24383544921875,-0.815155029296875,156705.8386795417,0.2037691076463228,-0.3981132881948553,-0.1493327633845582,156705.8386795417,1.26287812694158,-0.5508599311051267,0.2243093754789986,0.1940159052610397,-0.3856944739818573,-0.1133839264512062,0.1442643105983734,0.00357628078199923,-0.1549892425537109,XTrueNorthZVertical,-0.2464658518270272,0.1545649423604328,-0.5399196277528473,-0.7898424501101954,-0.5103074312210083,-0.2224330902099609,-0.8307285308837891,-26.03888130187988,-30.11590766906738,-22.50417518615723,2,192.168.1.8,10.83.46.32,5,0
2015-02-28 14:13:53.225,130,1425161630.126887,37.77934130077426,-122.4386913977804,56.63923,-1,-1,10,113.1993096164384,-9999,1425161633.197451,-27.13194274902344,-27.11988830566406,-20.71066284179688,165.1029357910156,151.3150939941406,10,156705.917817125,-0.6616668701171875,-0.1821746826171875,-0.92584228515625,156705.890457375,0.1273244001361434,-0.3668421843590358,-0.3261272449816864,156705.890457375,1.258145565668014,-0.5766014725058096,0.2371540948758554,0.1175715252757072,-0.3544242084026337,-0.2901778221130371,0.1356621980667114,-0.05253825336694717,0.0422731377184391,XTrueNorthZVertical,-0.2578257980809527,0.1615480869901156,-0.5329534671428938,-0.7895496901694521,-0.5299187898635864,-0.2349373251199722,-0.8148561716079712,-25.8995418548584,-30.43645858764648,-22.2320671081543,2,192.168.1.8,10.83.46.32,5,0
2015-02-28 14:13:53.294,131,1425161630.126887,37.77934130077426,-122.4386913977804,56.63923,-1,-1,10,113.1993096164384,-9999,1425161633.249354,-26.96147155761719,-27.93556213378906,-19.77864837646484,166.4794311523438,152.6915893554688,10,156705.9668477917,-0.564300537109375,-0.21832275390625,-0.9063873291015625,156705.94223475,0.3630580987661422,-0.3460578099476214,-0.2341113008939226,156705.94223475,1.258243934010809,-0.5998634846498788,0.2554303455820118,0.3533070683479309,-0.3336325287818909,-0.1981730163097382,-0.06445856392383575,-0.0656060054898262,0.1034719794988632,XTrueNorthZVertical,-0.2708255010539107,0.1653408610475133,-0.5271599779752488,-0.7883009217428686,-0.5462134480476379,-0.2526618242263794,-0.7986319065093994,-26.17372894287109,-31.21609115600586,-20.78270149230957,2,192.168.1.8,10.83.46.32,5,0
2015-02-28 14:13:53.324,132,1425161630.126887,37.77934130077426,-122.4386913977804,56.63923,-1,-1,10,113.1993096164384,-9999,1425161633.304754,-27.14900207519531,-28.49635314941406,-18.86329650878906,167.1826171875,153.394775390625,10,156706.015845,-0.529571533203125,-0.407684326171875,-0.689788818359375,156705.9940129167,0.535165416844731,-0.3897456360498263,-0.4033434702596618,156705.9940129167,1.260501196160303,-0.6040968453179257,0.2804451429945679,0.5254170894622803,-0.3773194551467896,-0.367407500743866,-0.03156475722789764,0.08697935193777084,-0.07302945107221603,XTrueNorthZVertical,-0.2813966925451853,0.1593261644651743,-0.5235556416861804,-0.7882389249159003,-0.5458278059959412,-0.2767834365367889,-0.7908621430397034,-26.02088165283203,-31.80253982543945,-20.07339477539062,2,192.168.1.8,10.83.46.32,5,0
2015-02-28 14:13:53.395,133,1425161630.126887,37.77934130077426,-122.4386913977804,56.63923,-1,-1,10,113.1993096164384,-9999,1425161633.37866,-26.48414611816406,-29.97477722167969,-17.44864654541016,168.5106201171875,154.7227783203125,10,156706.0648832917,-0.697998046875,-0.144073486328125,-0.758697509765625,156706.0457909583,0.5693734547306898,0.03804458775232696,-0.4239898929266102,156706.0457909583,1.262046850227025,-0.6093274745618447,0.3132240363829626,0.5596248507499695,0.05046752095222473,-0.3880502581596375,-0.08255930244922638,0.09984493255615234,0.001112263882532716,XTrueNorthZVertical,-0.29494562139585,0.1514590375713553,-0.5181367149821703,-0.7884171629901372,-0.5444701313972473,-0.3081274032592773,-0.7801344990730286,-25.87614822387695,-32.36388397216797,-19.35027313232422,2,192.168.1.8,10.83.46.32,5,0
2015-02-28 14:13:53.423,134,1425161630.126887,37.77934130077426,-122.4386913977804,56.63923,-1,-1,10,113.1993096164384,-9999,1425161633.37866,-26.48414611816406,-29.97477722167969,-17.44864654541016,168.5106201171875,154.7227783203125,10,156706.1139122084,-0.4797821044921875,-0.4334716796875,-0.8032073974609375,156706.097568375,0.8521156750261134,0.4142805402243993,-0.2272728358468172,156706.0457909583,1.262046850227025,-0.6093274745618447,0.3132240363829626,0.5596248507499695,0.05046752095222473,-0.3880502581596375,-0.08255930244922638,0.09984493255615234,0.001112263882532716,XTrueNorthZVertical,-0.29494562139585,0.1514590375713553,-0.5181367149821703,-0.7884171629901372,-0.5444701313972473,-0.3081274032592773,-0.7801344990730286,-25.87614822387695,-32.36388397216797,-19.35027313232422,2,192.168.1.8,10.83.46.32,5,0
2015-02-28 14:13:53.495,135,1425161630.126887,37.77934130077426,-122.4386913977804,56.63923,-1,-1,10,113.1993096164384,-9999,1425161633.481744,-24.94986724853516,-31.87806701660156,-15.15190887451172,169.4297790527344,155.6419372558594,10,156706.1629468334,-0.6620941162109375,-0.4769439697265625,-0.644012451171875,156706.1493462083,1.023808871555195,-0.3636029815251725,-0.406103304097311,156706.1493462083,1.281222605364566,-0.6122292058452022,0.3979112779078178,1.014060616493225,-0.3511808514595032,-0.3701636493206024,3.914937406079844e-05,0.1866879910230637,-0.04010868072509766,XTrueNorthZVertical,-0.3276552802278819,0.1242020707726744,-0.5109056466580426,-0.7849785481910011,-0.5297937989234924,-0.3874936401844025,-0.7544317245483398,-24.42020797729492,-34.86643218994141,-16.7156867980957,2,192.168.1.8,10.83.46.32,5,0
2015-02-28 14:13:53.521,136,1425161630.126887,37.77934130077426,-122.4386913977804,56.63923,-1,-1,10,113.1993096164384,-9999,1425161633.481744,-24.94986724853516,-31.87806701660156,-15.15190887451172,169.4297790527344,155.6419372558594,10,156706.21213425,-0.4319915771484375,-0.32952880859375,-0.83642578125,156706.2011244167,0.8669406938662575,0.5650948201233685,-0.5833912694444309,156706.1493462083,1.281222605364566,-0.6122292058452022,0.3979112779078178,1.014060616493225,-0.3511808514595032,-0.3701636493206024,3.914937406079844e-05,0.1866879910230637,-0.04010868072509766,XTrueNorthZVertical,-0.3276552802278819,0.1242020707726744,-0.5109056466580426,-0.7849785481910011,-0.5297937989234924,-0.3874936401844025,-0.7544317245483398,-24.42020797729492,-34.86643218994141,-16.7156867980957,2,192.168.1.8,10.83.46.32,5,0
2015-02-28 14:13:53.594,137,1425161630.126887,37.77934130077426,-122.4386913977804,56.63923,-1,-1,10,113.1993096164384,-9999,1425161633.588069,-23.60311126708984,-34.783935546875,-12.43911743164062,169.7060089111328,155.9181671142578,10,156706.2610149167,-0.5776519775390625,-0.6657562255859375,-0.6419677734375,156706.2529016667,1.212741775084795,0.05934295225412665,-0.5125301454757115,156706.2011244167,1.292163388065999,-0.6020246131524279,0.4498778992939579,0.8571923971176147,0.5775165557861328,-0.5474516153335571,-0.03378259763121605,-0.13188636302948,0.02672983892261982,XTrueNorthZVertical,-0.3440908340544038,0.102515986435063,-0.5077046374231667,-0.7831526093530929,-0.5099643468856812,-0.434855580329895,-0.7421839237213135,-24.13461303710938,-35.60891342163086,-15.5227222442627,2,192.168.1.8,10.83.46.32,5,0
2015-02-28 14:13:53.618,138,1425161630.126887,37.77934130077426,-122.4386913977804,56.63923,-1,-1,10,113.1993096164384,-9999,1425161633.588069,-23.60311126708984,-34.783935546875,-12.43911743164062,169.7060089111328,155.9181671142578,10,156706.3101431667,-0.4549713134765625,-0.5175018310546875,-0.6728363037109375,156706.3046798334,1.173254819286081,0.2742019953117574,-0.6707844985120351,156706.2529016667,1.301293320249941,-0.6000534733045034,0.5065165041545426,1.202987909317017,0.07176654785871506,-0.4765912592411041,-0.06560277193784714,-0.1112862005829811,-0.001754554337821901,XTrueNorthZVertical,-0.3637643608338837,0.08267734162870288,-0.5012630390948177,-0.7807530663137421,-0.4937844276428223,-0.485134094953537,-0.7216798663139343,-22.45831680297852,-37.49180603027344,-13.4691333770752,2,192.168.1.8,10.83.46.32,5,0
2015-02-28 14:13:53.694,139,1425161630.126887,37.77934130077426,-122.4386913977804,56.63923,-1,-1,10,113.1993096164384,-9999,1425161633.638188,-22.34159088134766,-36.68721008300781,-10.64167785644531,171.3990478515625,157.6112060546875,10,156706.3590802917,-0.4315948486328125,-0.5061798095703125,-0.7244415283203125,156706.3564577083,1.202868904291653,0.4468126508363712,-0.7216772406273404,156706.3564577083,1.316448376413751,-0.5720420585565921,0.639934308801319,1.193115472793579,0.4592356979846954,-0.685738742351532,-0.05749384686350822,0.06221538037061691,0.02654472924768925,XTrueNorthZVertical,-0.4025413635061137,0.02727626448475396,-0.4868737957680774,-0.7747066548115726,-0.4342359006404877,-0.59714275598526,-0.6744329333305359,-20.60249710083008,-39.45748519897461,-10.49156379699707,2,192.168.1.8,10.83.46.32,5,0
2015-02-28 14:13:53.717,140,1425161630.126887,37.77934130077426,-122.4386913977804,56.63923,-1,-1,10,113.1993096164384,-9999,1425161633.689485,-20.24474334716797,-37.79179382324219,-9.093879699707031,173.3729705810547,159.5851287841797,10,156706.40813325,-0.2649383544921875,-0.7928619384765625,-0.65643310546875,156706.3564577083,1.202868904291653,0.4468126508363712,-0.7216772406273404,156706.3564577083,1.316448376413751,-0.5720420585565921,0.639934308801319,1.193115472793579,0.4592356979846954,-0.685738742351532,-0.05749384686350822,0.06221538037061691,0.02654472924768925,XTrueNorthZVertical,-0.4025413635061137,0.02727626448475396,-0.4868737957680774,-0.7747066548115726,-0.4342359006404877,-0.59714275598526,-0.6744329333305359,-20.60249710083008,-39.45748519897461,-10.49156379699707,2,192.168.1.8,10.83.46.32,5,0
2015-02-28 14:13:53.797,141,1425161630.126887,37.77934130077426,-122.4386913977804,56.63923,-1,-1,10,113.1993096164384,-9999,1425161633.741352,-18.09675598144531,-39.38917541503906,-6.497581481933594,174.6876220703125,160.8997802734375,10,156706.4571434583,-0.36029052734375,-0.7005615234375,-0.489227294921875,156706.4600131667,1.470798356287947,0.4028904665582394,-0.8507092596544426,156706.4082350833,1.322988435430342,-0.5517096425166114,0.7152637544927426,1.484462738037109,0.4059627652168274,-0.7717656493186951,0.1307485848665237,-0.1370453834533691,-0.01352057140320539,XTrueNorthZVertical,-0.4225074180965625,-0.005587011486188008,-0.4784394176962931,-0.7697740113195679,-0.39568692445755,-0.6558165550231934,-0.6429125070571899,-18.18109893798828,-41.30447387695312,-7.403871536254883,2,192.168.1.8,10.83.46.32,5,0
2015-02-28 14:13:53.815,142,1425161630.126887,37.77934130077426,-122.4386913977804,56.63923,-1,-1,10,113.1993096164384,-9999,1425161633.793325,-16.47724914550781,-40.83363342285156,-4.250770568847656,176.3957824707031,162.6079406738281,10,156706.5062641667,-0.0938568115234375,-0.6063995361328125,-0.400115966796875,156706.4600131667,1.470798356287947,0.4028904665582394,-0.8507092596544426,156706.4600131667,1.31790406924529,-0.5401651145698132,0.7986600643018812,1.461043834686279,0.4152999222278595,-0.8147342205047607,-0.001495850854553282,0.01586038246750832,0.1091087833046913,XTrueNorthZVertical,-0.4467679960587327,-0.03507588488416901,-0.461647416292895,-0.7655388566101053,-0.3587946891784668,-0.716421902179718,-0.5983361005783081,-16.45295715332031,-42.37995529174805,-4.966762542724609,2,192.168.1.8,10.83.46.32,5,0
2015-02-28 14:13:53.895,143,1425161630.126887,37.77934130077426,-122.4386913977804,56.63923,-1,-1,10,113.1993096164384,-9999,1425161633.845398,-14.24402618408203,-42.07417297363281,-1.671096801757812,177.9081420898438,164.1203002929688,10,156706.5551931667,-0.3072052001953125,-0.9138641357421875,-0.596954345703125,156706.511791375,1.227615796088997,0.1954608439936026,-0.9367772997636233,156706.511791375,1.318595318153013,-0.5163111762953631,0.8768443320070809,1.217861533164978,0.2078703790903091,-0.9008029103279114,0.2218882739543915,0.1623248755931854,0.156092494726181,XTrueNorthZVertical,-0.466019419539801,-0.06871439346340202,-0.4505849251681588,-0.7583386419710555,-0.315745085477829,-0.7687243819236755,-0.5562084913253784,-15.32827281951904,-42.96017074584961,-3.301027297973633,2,192.168.1.8,10.83.46.32,5,0
2015-02-28 14:13:53.912,144,1425161630.126887,37.77934130077426,-122.4386913977804,56.63923,-1,-1,10,113.1993096164384,-9999,1425161633.896497,-12.48812866210938,-42.53300476074219,0.3426971435546875,179.1609344482422,165.3730926513672,10,156706.6043135833,-0.2698974609375,-0.71673583984375,-0.5369110107421875,156706.5635685417,1.380806680944753,0.06969439309515565,-0.725931374152633,156706.5635685417,1.322208178933217,-0.5083205016238158,0.9496218587349239,1.371052503585815,0.08210381120443344,-0.689957320690155,-0.02394406497478485,-0.1006686463952065,-0.08854873478412628,XTrueNorthZVertical,-0.4865584088919206,-0.09517410069798982,-0.4377963638727683,-0.7500247909404263,-0.2832611203193665,-0.8131954669952393,-0.5084056258201599,-12.86717414855957,-43.88142395019531,0.5344562530517578,2,192.168.1.8,10.83.46.32,5,0
2015-02-28 14:13:53.999,145,1425161630.126887,37.77934130077426,-122.4386913977804,56.63923,-1,-1,10,113.1993096164384,-9999,1425161633.949099,-11.15842437744141,-42.77093505859375,2.805870056152344,180.6739349365234,166.8860931396484,10,156706.6532320417,-0.1171875,-0.7370758056640625,-0.3226165771484375,156706.667124625,0.4611697522729884,-0.1269259912370675,-0.2752922934620359,156706.6153467083,1.326239991497432,-0.5150989118512497,1.010162399724812,0.8329246044158936,0.150132030248642,-0.3249700963497162,0.08258618414402008,-0.03536023572087288,0.07523199915885925,XTrueNorthZVertical,-0.5059721296678448,-0.1123731715732961,-0.4238162603510977,-0.7427949176754716,-0.2619379758834839,-0.8469182252883911,-0.4627289474010468,-11.56444644927979,-44.13984680175781,3.060457229614258,2,192.168.1.8,10.83.46.32,1,0
