loggingTime,loggingSample,locationTimestamp_since1970,locationLatitude,locationLongitude,locationAltitude,locationSpeed,locationCourse,locationVerticalAccuracy,locationHorizontalAccuracy,locationFloor,locationHeadingTimestamp_since1970,locationHeadingX,locationHeadingY,locationHeadingZ,locationTrueHeading,locationMagneticHeading,locationHeadingAccuracy,accelerometerTimestamp_sinceReboot,accelerometerAccelerationX,accelerometerAccelerationY,accelerometerAccelerationZ,gyroTimestamp_sinceReboot,gyroRotationX,gyroRotationY,gyroRotationZ,motionTimestamp_sinceReboot,motionYaw,motionRoll,motionPitch,motionRotationRateX,motionRotationRateY,motionRotationRateZ,motionUserAccelerationX,motionUserAccelerationY,motionUserAccelerationZ,motionAttitudeReferenceFrame,motionQuaternionX,motionQuaternionY,motionQuaternionZ,motionQuaternionW,motionGravityX,motionGravityY,motionGravityZ,motionMagneticFieldX,motionMagneticFieldY,motionMagneticFieldZ,motionMagneticFieldCalibrationAccuracy,IP_en0,IP_pdp_ip0,deviceOrientation,state
2015-03-01 17:33:03.752,1,1425259905.684141,37.77925986443586,-122.4387226084831,56.32411,-1,-1,10,65,-9999,1425259983.720794,28.97225570678711,-35.70272827148438,-14.60225677490234,243.4404296875,229.6633148193359,10,191334.8389498334,0.3962249755859375,-0.5858306884765625,-0.7613067626953125,191334.8111170834,-0.2160990108611717,0.5835337485627501,-0.07917364867918369,191334.8111170834,0.3441888915902566,0.4283288998795144,0.6530857287705478,-0.2280773818492889,0.5963724851608276,-0.04351873323321342,-0.009381569921970367,0.02956079505383968,0.01795072481036186,XTrueNorthZVertical,-0.2743402886524186,-0.252002516829617,-0.2256582092316321,-0.9001724617251763,0.3298771679401398,-0.6076400279998779,-0.7224642634391785,27.50721740722656,-34.07199859619141,-14.80353260040283,2,192.168.1.8,10.83.46.32,1,0
2015-03-01 17:33:03.803,2,1425259905.684141,37.77925986443586,-122.4387226084831,56.32411,-1,-1,10,65,-9999,1425259983.793729,29.46676254272461,-35.51580810546875,-14.618896484375,242.9280090332031,229.1508941650391,10,191334.8880127917,0.4398345947265625,-0.5909423828125,-0.7685546875,191334.86289475,-0.08470583321160528,-0.01590173486886313,-0.0997497638933539,191334.86289475,0.3449185789296785,0.4432523363990024,0.6453154566914072,-0.09668409079313278,-0.003063123673200607,-0.06409520655870438,0.0884702131152153,-0.006505442783236504,-0.03453619033098221,XTrueNorthZVertical,-0.2689688259337693,-0.2584636216301729,-0.2274366930215559,-0.8995136621226983,0.3426363468170166,-0.601450502872467,-0.7217046618461609,27.93756103515625,-33.87395858764648,-14.44784545898438,2,192.168.1.8,10.83.46.32,1,0
2015-03-01 17:33:03.875,3,1425259905.684141,37.77925986443586,-122.4387226084831,56.32411,-1,-1,10,65,-9999,1425259983.846428,29.77369689941406,-35.51580810546875,-14.45248413085938,243.3139495849609,229.5368347167969,10,191334.9370460417,0.25225830078125,-0.5687408447265625,-0.6697845458984375,191334.9146716667,0.04851134346855638,-0.493490141578299,0.06986137329550361,191334.9146716667,0.3450539316470372,0.4279049877665989,0.6452959566309959,0.03653319552540779,-0.4806516468524933,0.1055156141519547,0.0176570750772953,0.02692624367773533,-0.00129124743398279,XTrueNorthZVertical,-0.2706801254430135,-0.2515709195457978,-0.2254256298614522,-0.9014585837624204,0.331525057554245,-0.6014348864555359,-0.7268886566162109,28.03330230712891,-33.73636627197266,-14.5836877822876,2,192.168.1.8,10.83.46.32,1,0
2015-03-01 17:33:03.900,4,1425259905.684141,37.77925986443586,-122.4387226084831,56.32411,-1,-1,10,65,-9999,1425259983.846428,29.77369689941406,-35.51580810546875,-14.45248413085938,243.3139495849609,229.5368347167969,10,191334.986105,0.3423309326171875,-0.5910797119140625,-0.713714599609375,191334.966449375,-0.09611454900539573,0.04126701267132284,-0.1072889066232592,191334.966449375,0.3474268244534047,0.4147382873746233,0.6438579189310319,-0.1080925762653351,0.05410537868738174,-0.07163502275943756,-0.06018907949328423,0.03018653206527233,0.06080835312604904,XTrueNorthZVertical,-0.2712012380722908,-0.2458844522032825,-0.2246103108265078,-0.903073022303021,0.3222740292549133,-0.6002854108810425,-0.7319814562797546,27.57070541381836,-33.84510803222656,-15.2005672454834,2,192.168.1.8,10.83.46.32,1,0
2015-03-01 17:33:03.974,5,1425259905.684141,37.77925986443586,-122.4387226084831,56.32411,-1,-1,10,65,-9999,1425259983.948722,29.68843078613281,-35.56678771972656,-14.40255737304688,243.2220764160156,229.4449615478516,10,191335.0351334167,0.3403472900390625,-0.585784912109375,-0.7219390869140625,191335.0182272083,-0.04400980227799544,-0.03665335239886956,-0.03446929398889558,191335.0182272083,0.3483018523197066,0.4191662751337157,0.6392858166887611,-0.05598770081996918,-0.02381512522697449,0.001184192951768637,0.02974331192672253,0.005786874331533909,-0.007691341452300549,XTrueNorthZVertical,-0.2684789588108686,-0.2477816821193055,-0.2252826805890283,-0.9032003937205333,0.3266257047653198,-0.5966224670410156,-0.7330465912818909,27.67741584777832,-33.72410202026367,-15.27540969848633,2,192.168.1.8,10.83.46.32,1,0
2015-03-01 17:33:03.998,6,1425259905.684141,37.77925986443586,-122.4387226084831,56.32411,-1,-1,10,65,-9999,1425259983.948722,29.68843078613281,-35.56678771972656,-14.40255737304688,243.2220764160156,229.4449615478516,10,191335.0841851667,0.297454833984375,-0.5616912841796875,-0.698089599609375,191335.0700040833,0.05273511695742205,0.01174693725223051,-0.005284510551044232,191335.0700040833,0.349393326532237,0.4160734689062301,0.639757314149074,0.04075732454657555,0.02458504773676395,0.03036865592002869,-0.004617390688508749,0.02702395990490913,0.03851388767361641,XTrueNorthZVertical,-0.2689108148606854,-0.2465543335809697,-0.2253932369375531,-0.9033801933264664,0.3242432475090027,-0.597000777721405,-0.7337958812713623,27.67432594299316,-33.69164657592773,-15.35242652893066,2,192.168.1.8,10.83.46.32,1,0
2015-03-01 17:33:04.044,7,1425259905.684141,37.77925986443586,-122.4387226084831,56.32411,-1,-1,10,65,-9999,1425259984.000567,29.70548248291016,-35.27792358398438,-14.35264587402344,243.4817352294922,229.7046203613281,10,191335.1332096667,0.3646240234375,-0.6041412353515625,-0.71636962890625,191335.1217817917,-0.05107942970771979,0.1148648009762076,-0.03338858321854143,191335.0700040833,0.349393326532237,0.4160734689062301,0.639757314149074,0.04075732454657555,0.02458504773676395,0.03036865592002869,-0.004617390688508749,0.02702395990490913,0.03851388767361641,XTrueNorthZVertical,-0.2689108148606854,-0.2465543335809697,-0.2253932369375531,-0.9033801933264664,0.3242432475090027,-0.597000777721405,-0.7337958812713623,27.67432594299316,-33.69164657592773,-15.35242652893066,2,192.168.1.8,10.83.46.32,1,0
2015-03-01 17:33:04.097,8,1425259905.684141,37.77925986443586,-122.4387226084831,56.32411,-1,-1,10,65,-9999,1425259984.052462,29.68843078613281,-35.43084716796875,-14.76868438720703,243.4523468017578,229.6752319335938,10,191335.1822485834,0.30029296875,-0.56390380859375,-0.6837615966796875,191335.1735593333,0.07272347251901178,0.1642997287108035,0.07033701386619177,191335.1735593333,0.3527410452192923,0.4281759189221152,0.638980622462566,0.0607462003827095,0.1771416962146759,0.1059860661625862,-0.01926655881106853,0.03558647632598877,0.03146344795823097,XTrueNorthZVertical,-0.2667605655232034,-0.2524261353190501,-0.2284694415511559,-0.9016216012692233,0.3332924246788025,-0.5963774919509888,-0.7302396893501282,27.78211975097656,-33.68939208984375,-15.16149425506592,2,192.168.1.8,10.83.46.32,1,0
2015-03-01 17:33:04.142,9,1425259905.684141,37.77925986443586,-122.4387226084831,56.32411,-1,-1,10,65,-9999,1425259984.105104,30.06356811523438,-35.26092529296875,-14.53570556640625,243.696533203125,229.9194183349609,10,191335.231265375,0.21173095703125,-0.4990081787109375,-0.58282470703125,191335.1735593333,0.07272347251901178,0.1642997287108035,0.07033701386619177,191335.1735593333,0.3527410452192923,0.4281759189221152,0.638980622462566,0.0607462003827095,0.1771416962146759,0.1059860661625862,-0.01926655881106853,0.03558647632598877,0.03146344795823097,XTrueNorthZVertical,-0.2667605655232034,-0.2524261353190501,-0.2284694415511559,-0.9016216012692233,0.3332924246788025,-0.5963774919509888,-0.7302396893501282,27.78211975097656,-33.68939208984375,-15.16149425506592,2,192.168.1.8,10.83.46.32,1,0
2015-03-01 17:33:04.195,10,1425259905.684141,37.77925986443586,-122.4387226084831,56.32411,-1,-1,10,65,-9999,1425259984.15615,30.31934356689453,-35.14195251464844,-13.35414886474609,243.5890502929688,229.8119354248047,10,191335.2804304583,0.304962158203125,-0.6473846435546875,-0.5021820068359375,191335.2771140834,0.07592805425870412,2.478311611449056,0.4143505813610683,191335.2253361667,0.3572885126462217,0.4513915159416991,0.6459947703466639,0.1820245385169983,1.030108571052551,0.1258243918418884,-0.1293113231658936,0.1118807569146156,0.1303589046001434,XTrueNorthZVertical,-0.266727924425379,-0.263806979599745,-0.2341341780156274,-0.8969075923636066,0.3483207225799561,-0.6019930839538574,-0.718524158000946,27.77348899841309,-33.83605194091797,-14.84746837615967,2,192.168.1.8,10.83.46.32,1,0
2015-03-01 17:33:04.242,11,1425259905.684141,37.77925986443586,-122.4387226084831,56.32411,-1,-1,10,65,-9999,1425259984.208339,30.77974319458008,-35.97462463378906,-10.77468872070312,241.0853729248047,227.3082580566406,10,191335.3293685417,0.5380096435546875,-0.681671142578125,-0.4147796630859375,191335.32889175,0.1981447777401845,4.20252386021182,0.6702907484459345,191335.2771140834,0.3601178409270535,0.5410175142157296,0.6561814001479733,0.06395101547241211,2.491153240203857,0.4499989449977875,-0.1175433769822121,0.01970265805721283,0.1668118685483932,XTrueNorthZVertical,-0.2601945612344758,-0.3044881684942505,-0.2480861758627431,-0.8820651595007943,0.408055454492569,-0.610095739364624,-0.6791715025901794,28.5164623260498,-34.11862182617188,-12.62630367279053,2,192.168.1.8,10.83.46.32,1,0
2015-03-01 17:33:04.292,12,1425259905.684141,37.77925986443586,-122.4387226084831,56.32411,-1,-1,10,65,-9999,1425259984.260042,30.77974319458008,-36.65435791015625,-6.880538940429688,235.9806060791016,222.2034912109375,10,191335.3784378333,0.7884979248046875,-0.7478485107421875,-0.42724609375,191335.3806685,0.09599444044023317,3.832142601080178,0.6211098862793322,191335.32889175,0.3923990928471802,0.6962842948382103,0.6835592304572106,0.186168298125267,4.215365409851074,0.7059388160705566,-0.01978098042309284,-0.07043925672769547,0.2031025737524033,XTrueNorthZVertical,-0.2463540770235796,-0.3766713463953443,-0.2847973526381112,-0.8463561804448808,0.4972742795944214,-0.6315565705299377,-0.5948567390441895,29.01922035217285,-34.84455108642578,-8.968524932861328,2,192.168.1.8,10.83.46.32,1,0
2015-03-01 17:33:04.343,13,1425259905.684141,37.77925986443586,-122.4387226084831,56.32411,-1,-1,10,65,-9999,1425259984.312355,30.52396392822266,-37.48703002929688,-1.838119506835938,230.4981536865234,216.7210388183594,10,191335.4274777917,0.8529052734375,-0.6727294921875,-0.513336181640625,191335.3806685,0.09599444044023317,3.832142601080178,0.6211098862793322,191335.3806685,0.4182770078031389,0.8894395811339715,0.7183727044921376,0.08401838690042496,3.844984531402588,0.6567574739456177,0.2037235796451569,-0.08968812227249146,0.04695198684930801,XTrueNorthZVertical,-0.2267890644732695,-0.4598561517699696,-0.3233892297079814,-0.7953102518714804,0.5847743153572083,-0.658160388469696,-0.4741980731487274,29.0307788848877,-35.82829666137695,-3.199924468994141,2,192.168.1.8,10.83.46.32,1,0
2015-03-01 17:33:04.390,14,1425259905.684141,37.77925986443586,-122.4387226084831,56.32411,-1,-1,10,65,-9999,1425259984.365358,29.36444091796875,-37.89486694335938,2.48870849609375,225.3497009277344,211.5725860595703,10,191335.476535125,0.71832275390625,-0.6101531982421875,-0.3495025634765625,191335.4842240417,0.3307462315763198,0.1463313808360389,0.0703276928023765,191335.4324461667,0.4169519351709115,1.009277021556771,0.7353074071738851,0.4248932600021362,1.132072567939758,0.6035851240158081,0.2251593321561813,-0.001914324122481048,-0.1184412688016891,XTrueNorthZVertical,-0.2144311912380431,-0.5065291790297136,-0.3390801875727468,-0.7631985535361646,0.6277459263801575,-0.6708151698112488,-0.3948948979377747,27.90366172790527,-36.71784591674805,3.142910003662109,2,192.168.1.8,10.83.46.32,1,0
2015-03-01 17:33:04.431,15,1425259905.684141,37.77925986443586,-122.4387226084831,56.32411,-1,-1,10,65,-9999,1425259984.415938,28.59711074829102,-38.14976501464844,5.334434509277344,223.7627258300781,209.9856109619141,10,191335.525687125,0.766204833984375,-0.6604766845703125,-0.2660980224609375,191335.4842240417,0.3307462315763198,0.1463313808360389,0.0703276928023765,191335.4842240417,0.408787566716145,1.045951503188887,0.7613384180783139,0.3187996745109558,0.1591497361660004,0.1060261577367783,0.09184698760509491,0.07973776012659073,0.01323496364057064,XTrueNorthZVertical,-0.2210598716001858,-0.5193878797757653,-0.3449635914503607,-0.7499125514299373,0.6264757513999939,-0.68989098072052,-0.3627375364303589,26.88347816467285,-37.24285888671875,5.190425872802734,2,192.168.1.8,10.83.46.32,1,0
2015-03-01 17:33:04.502,16,1425259905.684141,37.77925986443586,-122.4387226084831,56.32411,-1,-1,10,65,-9999,1425259984.471628,27.77862167358398,-38.04782104492188,6.033378601074219,222.8548583984375,209.0777435302734,10,191335.5746092084,0.3815460205078125,-0.821014404296875,-0.1652679443359375,191335.5360008334,0.2454105607669108,0.03237418515933024,-0.03550766049791747,191335.5360008334,0.38507392616626,1.064694482648219,0.7682148270685224,0.2334641367197037,0.04519239068031311,0.000190415041288361,0.1192300766706467,0.01424950826913118,0.07341694086790085,XTrueNorthZVertical,-0.2268655494889983,-0.5236599982028176,-0.3395400263714485,-0.7476795770497552,0.6289998888969421,-0.6948525309562683,-0.3486244678497314,26.63525772094727,-37.28449249267578,6.092776298522949,2,192.168.1.8,10.83.46.32,1,0
2015-03-01 17:33:04.528,17,1425259905.684141,37.77925986443586,-122.4387226084831,56.32411,-1,-1,10,65,-9999,1425259984.471628,27.77862167358398,-38.04782104492188,6.033378601074219,222.8548583984375,209.0777435302734,10,191335.6236358334,1.070587158203125,-1.035812377929688,-0.295562744140625,191335.5877785417,0.1958145117863652,1.785370411615889,0.7251987385367522,191335.5877785417,0.3966957176249895,1.099343281760433,0.7951724841014153,0.1838681995868683,1.798188447952271,0.7608964443206787,-0.1717693358659744,-0.02431212738156319,0.1659464538097382,XTrueNorthZVertical,-0.2287747812262377,-0.537272699142234,-0.3532246096363547,-0.7309120823237872,0.6237804293632507,-0.7139843702316284,-0.3180002868175507,26.62065887451172,-37.19724273681641,6.663183212280273,2,192.168.1.8,10.83.46.32,1,0
2015-03-01 17:33:04.587,18,1425259905.684141,37.77925986443586,-122.4387226084831,56.32411,-1,-1,10,65,-9999,1425259984.545039,26.55088806152344,-38.11575317382812,7.997085571289062,220.7468109130859,206.9696960449219,10,191335.6726853334,0.4354705810546875,-0.6567230224609375,-0.353668212890625,191335.6395562083,0.2294829932354739,0.6546020664642777,0.2484984960508577,191335.6395562083,0.3773171059094135,1.188754590755806,0.7994454639546461,0.2175368070602417,0.6674200296401978,0.2841958999633789,0.3051184415817261,-0.146021693944931,-0.07433701306581497,XTrueNorthZVertical,-0.2199567818207443,-0.5671624653859271,-0.3571907473218678,-0.7087739221531846,0.6468468904495239,-0.7169696092605591,-0.2598915100097656,24.91592788696289,-37.82676315307617,9.220888137817383,2,192.168.1.8,10.83.46.32,1,0
2015-03-01 17:33:04.626,19,1425259905.684141,37.77925986443586,-122.4387226084831,56.32411,-1,-1,10,65,-9999,1425259984.597214,26.02227783203125,-38.40464782714844,9.511474609375,218.1737365722656,204.3966217041016,10,191335.721713125,0.9664459228515625,-0.7145843505859375,-0.3789520263671875,191335.6913332917,0.1615577380524579,-1.795963933800006,-0.8650194894558743,191335.6913332917,0.3619946963270455,1.171201576441236,0.8007105291751423,0.1496116667985916,-1.783146023750305,-0.8293224573135376,-0.1132580786943436,0.0867474228143692,-0.06624525785446167,XTrueNorthZVertical,-0.2278759912473187,-0.5591480813974938,-0.3500479860232315,-0.7161650046406746,0.6413494944572449,-0.717850923538208,-0.2708519101142883,24.39912605285645,-37.83419036865234,10.48564434051514,2,192.168.1.8,10.83.46.32,1,0
2015-03-01 17:33:04.685,20,1425259905.684141,37.77925986443586,-122.4387226084831,56.32411,-1,-1,10,65,-9999,1425259984.649066,27.16475296020508,-37.87783813476562,8.729316711425781,221.9102172851562,208.1331024169922,10,191335.7707590417,0.347320556640625,-0.719696044921875,-0.12060546875,191335.7431108333,0.1631931852778755,-3.016372949663139,-0.3889653298504331,191335.7431108333,0.3287409415363818,1.048356778625962,0.7576754008993621,0.1512472331523895,-3.003555297851562,-0.3532686829566956,0.1330257803201675,-0.06506944447755814,0.09100383520126343,XTrueNorthZVertical,-0.2397779033907647,-0.5111383885367793,-0.31422805587067,-0.7632200104960803,0.6295322179794312,-0.68723464012146,-0.3624882102012634,27.23048782348633,-36.53353881835938,7.777752876281738,2,192.168.1.8,10.83.46.32,1,0
2015-03-01 17:33:04.725,21,1425259905.684141,37.77925986443586,-122.4387226084831,56.32411,-1,-1,10,65,-9999,1425259984.700586,28.93814086914062,-37.33404541015625,6.499343872070312,226.9098663330078,213.1327514648438,10,191335.8198910833,0.475372314453125,-0.5585479736328125,-0.2543487548828125,191335.7948887083,-0.05615674632595585,-0.2897876129592282,-0.3485377455547032,191335.7948887083,0.3156226535770586,0.9831221869175537,0.7565321966239684,-0.06810256838798523,-0.2769700586795807,-0.3128414452075958,-0.3627849817276001,0.1048302352428436,0.184669554233551,XTrueNorthZVertical,-0.2526019150560171,-0.4843520811164623,-0.3009037931604956,-0.7816982742709327,0.6052166223526001,-0.6864036917686462,-0.4031906723976135,28.49636459350586,-36.08575439453125,4.740043640136719,2,192.168.1.8,10.83.46.32,1,0
2015-03-01 17:33:04.783,22,1425259905.684141,37.77925986443586,-122.4387226084831,56.32411,-1,-1,10,65,-9999,1425259984.752341,30.33639144897461,-36.62033081054688,5.001602172851562,230.2143096923828,216.4371948242188,10,191335.86887575,0.9870147705078125,-0.7247161865234375,-0.3785247802734375,191335.8466654583,0.02851206894649733,0.9068939691718442,-0.5146761206820973,191335.8466654583,0.3015812027183044,1.028788056330444,0.7310634099054978,0.01656635478138924,0.9197114109992981,-0.4789801239967346,0.09655001759529114,-0.03419683873653412,0.007572872564196587,XTrueNorthZVertical,-0.2386316747171487,-0.5010349944364479,-0.2960103155962693,-0.7774295478953054,0.6377639174461365,-0.6676616668701172,-0.3840377032756805,29.05745697021484,-35.68679046630859,4.337005615234375,2,192.168.1.8,10.83.46.32,1,0
2015-03-01 17:33:04.822,23,1425259905.684141,37.77925986443586,-122.4387226084831,56.32411,-1,-1,10,65,-9999,1425259984.8048,30.8650016784668,-36.29745483398438,5.35107421875,229.5304107666016,215.7532958984375,10,191335.9179369583,0.369873046875,-0.6054534912109375,-0.1973114013671875,191335.8984432917,0.2697196288810451,0.09436245532423261,0.1732753805326975,191335.8984432917,0.2922819238234044,1.053017538101654,0.7355988631742101,0.2577740550041199,0.1071797609329224,0.2089709639549255,-0.03651595488190651,0.1283524632453918,0.09769939631223679,XTrueNorthZVertical,-0.2392691236501537,-0.5091803847312306,-0.2962401148981272,-0.7718337692185618,0.6442430019378662,-0.6710312962532043,-0.3669712543487549,29.59532737731934,-35.04592132568359,5.708964347839355,2,192.168.1.8,10.83.46.32,1,0
2015-03-01 17:33:04.883,24,1425259905.684141,37.77925986443586,-122.4387226084831,56.32411,-1,-1,10,65,-9999,1425259984.855122,31.08667373657227,-35.80465698242188,6.3662109375,230.3509826660156,216.5738677978516,10,191335.9669151667,0.6213836669921875,-0.4994354248046875,-0.196533203125,191335.950220875,-0.231906469827446,0.7884927565841203,0.231268110114154,191335.950220875,0.2927270462152392,1.078750439221116,0.7381060442015012,-0.2438519299030304,0.8013099431991577,0.2669633328914642,-0.03248020634055138,0.02002552710473537,0.03874744102358818,XTrueNorthZVertical,-0.2363488624427245,-0.519038056230465,-0.3000020755671479,-0.7646812517449856,0.6519870162010193,-0.6728881001472473,-0.3494774103164673,29.33548164367676,-35.15945434570312,6.319385528564453,2,192.168.1.8,10.83.46.32,1,0
2015-03-01 17:33:04.921,25,1425259905.684141,37.77925986443586,-122.4387226084831,56.32411,-1,-1,10,65,-9999,1425259984.90709,30.7626838684082,-35.78765869140625,8.41314697265625,229.2894744873047,215.5123596191406,10,191336.0160517917,0.922576904296875,-0.6520233154296875,-0.2546844482421875,191336.0019979167,0.181660609540921,2.180847969279893,-0.3880944761739771,191335.950220875,0.2927270462152392,1.078750439221116,0.7381060442015012,-0.2438519299030304,0.8013099431991577,0.2669633328914642,-0.03248020634055138,0.02002552710473537,0.03874744102358818,XTrueNorthZVertical,-0.2363488624427245,-0.519038056230465,-0.3000020755671479,-0.7646812517449856,0.6519870162010193,-0.6728881001472473,-0.3494774103164673,29.33548164367676,-35.15945434570312,6.319385528564453,2,192.168.1.8,10.83.46.32,1,0
2015-03-01 17:33:04.980,26,1425259905.684141,37.77925986443586,-122.4387226084831,56.32411,-1,-1,10,65,-9999,1425259984.959228,29.8248291015625,-35.36282348632812,10.926025390625,225.9853363037109,212.2082214355469,10,191336.0651150834,0.8706207275390625,-0.609832763671875,-0.252838134765625,191336.0537754583,0.1904293337461159,1.400109538841756,0.09764213820666519,191336.0537754583,0.2549054099833828,1.287064350353321,0.7295887878574203,0.1784840971231461,1.412926435470581,0.133336678147316,0.2195218652486801,-0.02578914165496826,0.02260018698871136,XTrueNorthZVertical,-0.2118349583378016,-0.5922713829107377,-0.3073198018002064,-0.7140693590547423,0.7156435251235962,-0.6665631532669067,-0.208681121468544,28.41373443603516,-34.50082015991211,11.79174995422363,2,192.168.1.8,10.83.46.32,1,0
2015-03-01 17:33:05.019,27,1425259905.684141,37.77925986443586,-122.4387226084831,56.32411,-1,-1,10,65,-9999,1425259985.010941,28.66530990600586,-35.05697631835938,13.62196350097656,224.5010528564453,210.7239379882812,10,191336.1141397917,0.7184906005859375,-0.7261962890625,0.01708984375,191336.1055533334,0.4281787790051958,0.7019394885243271,0.2897599160838913,191336.0537754583,0.2549054099833828,1.287064350353321,0.7295887878574203,0.1784840971231461,1.412926435470581,0.133336678147316,0.2195218652486801,-0.02578914165496826,0.02260018698871136,XTrueNorthZVertical,-0.2118349583378016,-0.5922713829107377,-0.3073198018002064,-0.7140693590547423,0.7156435251235962,-0.6665631532669067,-0.208681121468544,28.41373443603516,-34.50082015991211,11.79174995422363,2,192.168.1.8,10.83.46.32,1,0
2015-03-01 17:33:05.077,28,1425259905.684141,37.77925986443586,-122.4387226084831,56.32411,-1,-1,10,65,-9999,1425259985.063183,27.36936950683594,-34.88705444335938,15.35269165039062,223.3504791259766,209.5733642578125,10,191336.1630893333,0.942535400390625,-0.63592529296875,0.0588226318359375,191336.157330125,0.4853046496518315,1.774319624672605,0.02772856695379602,191336.1055533334,0.2381073372831241,1.341900303289465,0.7481802783269818,0.4162336885929108,0.7147562503814697,0.32545405626297,0.07235193997621536,0.007866586558520794,0.1749549061059952,XTrueNorthZVertical,-0.2154494006996197,-0.6086295803198735,-0.3121808935199731,-0.6969179507856325,0.7138113975524902,-0.6803061366081238,-0.1663031727075577,27.44393539428711,-34.57234573364258,13.72136402130127,2,192.168.1.8,10.83.46.32,1,0
2015-03-01 17:33:05.116,29,1425259905.684141,37.77925986443586,-122.4387226084831,56.32411,-1,-1,10,65,-9999,1425259985.063183,27.36936950683594,-34.88705444335938,15.35269165039062,223.3504791259766,209.5733642578125,10,191336.2121288333,0.6769561767578125,-0.690185546875,0.030426025390625,191336.2091079583,0.6231013981424934,1.386803320771284,0.5595751524480703,191336.157330125,0.2133800477301275,1.419092690816844,0.7612332214260478,0.4733596742153168,1.787136316299438,0.06342235952615738,0.1645628958940506,0.03931736946105957,0.1847126185894012,XTrueNorthZVertical,-0.2158226104712594,-0.6314391158052268,-0.31565394715651,-0.6745871183126343,0.7156708836555481,-0.6898148059844971,-0.1094104871153831,26.45878410339355,-34.6884765625,15.27529811859131,2,192.168.1.8,10.83.46.32,1,0
2015-03-01 17:33:05.177,30,1425259905.684141,37.77925986443586,-122.4387226084831,56.32411,-1,-1,10,65,-9999,1425259985.116333,25.8858642578125,-34.39422607421875,17.43289947509766,220.8533020019531,207.0761871337891,10,191336.2611897917,0.73504638671875,-0.704315185546875,-0.007415771484375,191336.2608855417,0.6068651702407163,0.6516353050099294,0.7775463655555677,191336.2091079583,0.182136789554427,1.521249140649584,0.7841195342187871,0.6111565232276917,1.399619817733765,0.5952686071395874,-0.05522488057613373,0.06778959929943085,0.008942518383264542,XTrueNorthZVertical,-0.2177065910976982,-0.6595991644214216,-0.3231939368470297,-0.6427117646199147,0.7071413993835449,-0.7062020897865295,-0.03506556525826454,24.44955444335938,-34.53275299072266,18.61184120178223,2,192.168.1.8,10.83.46.32,1,0
2015-03-01 17:33:05.215,31,1425259905.684141,37.77925986443586,-122.4387226084831,56.32411,-1,-1,10,65,-9999,1425259985.19363,22.61191558837891,-33.71450805664062,20.76123046875,216.8719177246094,203.0948028564453,10,191336.31022625,0.8161163330078125,-0.6662139892578125,0.0854034423828125,191336.2608855417,0.6068651702407163,0.6516353050099294,0.7775463655555677,191336.2608855417,0.134632850716286,1.613398620825503,0.8096464637813275,0.5949203968048096,0.6644517183303833,0.8132394552230835,0.1314891427755356,-0.002412321977317333,-0.005297861527651548,XTrueNorthZVertical,-0.2272454403493824,-0.6804760284276973,-0.3265014546867587,-0.6153930738734862,0.6891285181045532,-0.7240433692932129,0.02937623113393784,22.40521240234375,-34.51779556274414,21.05279922485352,2,192.168.1.8,10.83.46.32,1,0
2015-03-01 17:33:05.276,32,1425259905.684141,37.77925986443586,-122.4387226084831,56.32411,-1,-1,10,65,-9999,1425259985.243821,20.71916198730469,-33.28968811035156,22.9412841796875,215.9722442626953,202.1951293945312,10,191336.3592856667,0.629608154296875,-0.8246917724609375,0.11773681640625,191336.3644401667,0.7067707290578399,-0.7531297057333942,1.444006689405641,191336.312662625,0.07827656048147148,1.668825947458793,0.8574874126698376,0.7104825377464294,0.06947796046733856,1.060461401939392,0.164918377995491,0.08998687565326691,0.02136147953569889,XTrueNorthZVertical,-0.252628461022577,-0.6842513005755122,-0.3316789207536561,-0.5983043227138831,0.6511979699134827,-0.7562008500099182,0.06404196470975876,20.51083755493164,-34.63177490234375,22.72966766357422,2,192.168.1.8,10.83.46.32,1,0
2015-03-01 17:33:05.313,33,1425259905.684141,37.77925986443586,-122.4387226084831,56.32411,-1,-1,10,65,-9999,1425259985.297253,18.8264045715332,-32.42300415039062,24.55553436279297,215.6724090576172,201.8952941894531,10,191336.40842425,0.5331268310546875,-0.5032806396484375,0.145782470703125,191336.3644401667,0.7067707290578399,-0.7531297057333942,1.444006689405641,191336.3644401667,0.007820212376762592,1.703589462668519,0.9164556609559714,0.6948261857032776,-0.7403135895729065,1.479699015617371,0.0263304840773344,-0.03124237805604935,0.03715144470334053,XTrueNorthZVertical,-0.2887119500498632,-0.6759719641434198,-0.3351665517486286,-0.58938158003773,0.6032776832580566,-0.7934494018554688,0.08058537542819977,18.22074890136719,-34.8785514831543,24.25248908996582,2,192.168.1.8,10.83.46.32,1,0
2015-03-01 17:33:05.380,34,1425259905.684141,37.77925986443586,-122.4387226084831,56.32411,-1,-1,10,65,-9999,1425259985.347588,16.95071029663086,-32.28707885742188,25.48746109008789,215.2758636474609,201.4987487792969,10,191336.4573706667,0.417510986328125,-0.780975341796875,0.1620941162109375,191336.4162180417,0.5208173701558201,-0.8536975927136204,1.624244105660024,191336.4162180417,-0.06956181335449099,1.724139573711767,1.001343725531777,0.5089007616043091,-0.8409033417701721,1.659985065460205,0.0002824802650138736,0.33891561627388,0.0634278729557991,XTrueNorthZVertical,-0.3353969438794261,-0.6547413140195384,-0.3443476926506863,-0.5833072252482415,0.5328443646430969,-0.8421962261199951,0.0823545977473259,16.5320987701416,-35.35202407836914,24.77128410339355,2,192.168.1.8,10.83.46.32,1,0
2015-03-01 17:33:05.411,35,1425259905.684141,37.77925986443586,-122.4387226084831,56.32411,-1,-1,10,65,-9999,1425259985.399934,15.978759765625,-32.57595825195312,25.63723373413086,215.0151062011719,201.2379913330078,10,191336.5064016667,0.40380859375,-0.808807373046875,-0.0059661865234375,191336.4679948333,0.05065279130108909,-0.971284410639998,0.7938276008797671,191336.4679948333,-0.1139964552906504,1.71980179950797,1.050874205457118,0.03873631730675697,-0.9584903120994568,0.8295682072639465,-0.007756344974040985,0.07084554433822632,0.1099921986460686,XTrueNorthZVertical,-0.3641084188459603,-0.6358475684553846,-0.347319888392217,-0.585227968274272,0.4913073778152466,-0.8678578734397888,0.07375413924455643,14.90928649902344,-35.89626693725586,25.01726722717285,2,192.168.1.8,10.83.46.32,1,0
2015-03-01 17:33:05.475,36,1425259905.684141,37.77925986443586,-122.4387226084831,56.32411,-1,-1,10,65,-9999,1425259985.451118,16.25159454345703,-33.52760314941406,24.43902587890625,215.4046325683594,201.6275177001953,10,191336.5554702083,0.2948455810546875,-0.8050384521484375,-0.038116455078125,191336.5197726667,-0.7681352868954456,-2.2470227286784,0.6819407466344861,191336.5197726667,-0.0770936887643156,1.608897708434295,1.096494010458854,-0.7800516486167908,-2.234228610992432,0.7176809906959534,-0.09894917905330658,0.1335691064596176,-0.001207793247886002,XTrueNorthZVertical,-0.3848775216384748,-0.6004731280848186,-0.3524041140838859,-0.605898181933693,0.4563862979412079,-0.8896116018295288,0.01739736832678318,14.55838108062744,-36.73305130004883,23.98809623718262,2,192.168.1.8,10.83.46.32,1,0
2015-03-01 17:33:05.509,37,1425259905.684141,37.77925986443586,-122.4387226084831,56.32411,-1,-1,10,65,-9999,1425259985.503353,17.66689682006836,-35.31187438964844,21.6265869140625,217.6376037597656,203.8604888916016,10,191336.6046140417,0.4832916259765625,-0.8173370361328125,-0.092864990234375,191336.5715502083,-1.353959087679555,-0.5435418574213572,-0.3018834243142591,191336.5715502083,0.05088834737192707,1.397722661608915,1.092323686746349,-1.365875363349915,-0.5307480096817017,-0.2661434710025787,-0.1274189949035645,-0.0789908692240715,0.2384391576051712,XTrueNorthZVertical,-0.3835331368442374,-0.5596939661025647,-0.350697077557334,-0.6454893552583888,0.453545093536377,-0.8876991868019104,-0.0792899951338768,15.91574096679688,-38.00214767456055,20.95753288269043,2,192.168.1.8,10.83.46.32,1,0
2015-03-01 17:33:05.582,38,1425259905.684141,37.77925986443586,-122.4387226084831,56.32411,-1,-1,10,65,-9999,1425259985.55481,17.85446929931641,-37.94583129882812,18.04863739013672,214.6489562988281,200.8718414306641,10,191336.6535780834,0.224517822265625,-1.5135498046875,-0.3128814697265625,191336.6233272917,-1.965166542077645,2.862969544552395,0.4168656706945392,191336.6233272917,0.2501714460554195,1.301859248836042,1.082743897059763,-1.9770827293396,2.875763416290283,0.452605277299881,0.1236935034394264,0.2784198820590973,-0.06339660286903381,XTrueNorthZVertical,-0.3419534523618408,-0.5663673689383792,-0.3948583311381209,-0.6374815204057281,0.4520511329174042,-0.8832477331161499,-0.1245916783809662,16.79635047912598,-39.16374969482422,17.91021347045898,2,192.168.1.8,10.83.46.32,1,0
2015-03-01 17:33:05.608,39,1425259905.684141,37.77925986443586,-122.4387226084831,56.32411,-1,-1,10,65,-9999,1425259985.55481,17.85446929931641,-37.94583129882812,18.04863739013672,214.6489562988281,200.8718414306641,10,191336.7027617917,0.3710784912109375,-1.12890625,-0.084564208984375,191336.675104875,-2.85673242127943,0.03160506423651536,0.2465240284186729,191336.675104875,0.4734943235050644,1.162662567616664,1.028009031358947,-2.868648290634155,0.04439865052700043,0.2822632193565369,0.03089073672890663,-0.6014761328697205,-0.03475425392389297,XTrueNorthZVertical,-0.2872883887974332,-0.561214604052989,-0.4331477875513657,-0.6441168331192121,0.4740988910198212,-0.856272280216217,-0.2050071060657501,14.69944477081299,-41.2266960144043,14.86534023284912,2,192.168.1.8,10.83.46.32,1,0
2015-03-01 17:33:05.685,40,1425259905.684141,37.77925986443586,-122.4387226084831,56.32411,-1,-1,10,65,-9999,1425259985.659446,12.51724243164062,-43.29872131347656,10.27700042724609,199.3023834228516,185.5252685546875,10,191336.7516566667,0.173858642578125,-0.810699462890625,0.02435302734375,191336.7268827917,-1.97164548037759,1.577500302206953,3.059658372124634,191336.7268827917,0.7933723644736218,0.9202427297664941,1.067754559508849,-1.983561396598816,1.590293765068054,3.095397233963013,-0.1299472004175186,-0.03609598428010941,0.2917547225952148,XTrueNorthZVertical,-0.272852604578175,-0.5287412308787474,-0.5064292015778326,-0.6241102318030979,0.3836245834827423,-0.8761202096939087,-0.2919683456420898,13.01323413848877,-43.23514175415039,9.903058052062988,2,192.168.1.8,10.83.46.32,1,0
2015-03-01 17:33:05.705,41,1425259905.684141,37.77925986443586,-122.4387226084831,56.32411,-1,-1,10,65,-9999,1425259985.659446,12.51724243164062,-43.29872131347656,10.27700042724609,199.3023834228516,185.5252685546875,10,191336.800687125,0.25628662109375,-1.014556884765625,-0.246612548828125,191336.7786595417,-2.241356054510929,2.8743905108872,2.801108839803708,191336.7786595417,1.168145422678826,0.7051116192393587,1.10349155588801,-2.253271818161011,2.887183904647827,2.836847305297852,-0.06612026691436768,0.0006500605959445238,0.3297995030879974,XTrueNorthZVertical,-0.2482315728822746,-0.5165766041813519,-0.5917081574287257,-0.5669313056954091,0.2919656038284302,-0.8927856683731079,-0.3430593907833099,6.519139289855957,-45.30000686645508,6.48863410949707,2,192.168.1.8,10.83.46.32,1,0
2015-03-01 17:33:05.780,42,1425259905.684141,37.77925986443586,-122.4387226084831,56.32411,-1,-1,10,65,-9999,1425259985.775934,-1.345893859863281,-45.11703491210938,1.373725891113281,170.7250213623047,156.9479064941406,10,191336.8497398334,0.1712646484375,-0.950408935546875,-0.17083740234375,191336.83043725,-1.748895491010055,3.145713096428364,3.473480316009321,191336.83043725,1.601911878532321,0.4791269674867202,1.105697236995252,-1.760810732841492,3.158506870269775,3.509218215942383,-0.0615326315164566,-0.1479556560516357,0.1392341107130051,XTrueNorthZVertical,-0.2100607462652194,-0.5068239602891953,-0.6803316798228091,-0.4859554632814553,0.2067657858133316,-0.8937771320343018,-0.3980078995227814,-2.290499687194824,-46.16082000732422,0.7904558181762695,2,192.168.1.8,10.83.46.32,1,0
2015-03-01 17:33:05.803,43,1425259905.684141,37.77925986443586,-122.4387226084831,56.32411,-1,-1,10,65,-9999,1425259985.775934,-1.345893859863281,-45.11703491210938,1.373725891113281,170.7250213623047,156.9479064941406,10,191336.8988641667,0.41241455078125,-1.035659790039062,-0.213104248046875,191336.882215,-0.8098324000828163,2.575521518610802,2.995682318522096,191336.882215,2.000060153196921,0.2662810616684991,1.108181519511624,-0.8217474818229675,2.588315010070801,3.03141975402832,0.1750566959381104,-0.1006253212690353,0.2109408378601074,XTrueNorthZVertical,-0.1867699061451402,-0.4998366836388971,-0.7469874034435899,-0.3965981110045186,0.1174390316009521,-0.8948885798454285,-0.4305605888366699,-9.246152877807617,-45.15837478637695,-3.452834129333496,2,192.168.1.8,10.83.46.32,1,0
2015-03-01 17:33:05.879,44,1425259905.684141,37.77925986443586,-122.4387226084831,56.32411,-1,-1,10,65,-9999,1425259985.839508,-12.12262725830078,-42.56805419921875,-4.38427734375,146.0615081787109,132.2843933105469,10,191336.9477904167,0.0491485595703125,-0.7813262939453125,-0.384674072265625,191336.9339919167,-0.4727310671972404,1.268010090871101,2.886192841890104,191336.9339919167,2.331567932308063,0.06497201161357423,1.106474807642834,-0.4846460521221161,1.280803561210632,2.921930074691772,0.3720937669277191,-0.04044470563530922,0.1585717648267746,XTrueNorthZVertical,-0.1815323033277728,-0.49356899915976,-0.7883059481456396,-0.3193890241437478,0.02907505258917809,-0.8941255807876587,-0.4468713402748108,-14.76653575897217,-43.31625747680664,-6.507200241088867,2,192.168.1.8,10.83.46.32,1,0
2015-03-01 17:33:05.901,45,1425259905.684141,37.77925986443586,-122.4387226084831,56.32411,-1,-1,10,65,-9999,1425259985.892338,-17.59626770019531,-39.56024169921875,-6.897163391113281,133.5391082763672,119.7619934082031,10,191336.9968713333,-0.0782928466796875,-0.90814208984375,-0.2868804931640625,191336.9857698334,-0.1015806871427834,0.6587640546158535,1.178627480469207,191336.9339919167,2.331567932308063,0.06497201161357423,1.106474807642834,-0.4846460521221161,1.280803561210632,2.921930074691772,0.3720937669277191,-0.04044470563530922,0.1585717648267746,XTrueNorthZVertical,-0.1815323033277728,-0.49356899915976,-0.7883059481456396,-0.3193890241437478,0.02907505258917809,-0.8941255807876587,-0.4468713402748108,-14.76653575897217,-43.31625747680664,-6.507200241088867,2,192.168.1.8,10.83.46.32,1,0
2015-03-01 17:33:05.976,46,1425259905.684141,37.77925986443586,-122.4387226084831,56.32411,-1,-1,10,65,-9999,1425259985.943452,-20.59738159179688,-37.35113525390625,-8.761024475097656,126.8113098144531,113.0341949462891,10,191337.045858125,0.2380523681640625,-1.145416259765625,-0.436614990234375,191337.037547375,-1.035481240296903,0.9783567012308125,-0.4705352908784701,191337.037547375,2.571408911991207,-0.06110056668431378,1.059695369214569,-1.047395586967468,0.9911505579948425,-0.4347992241382599,0.2520970106124878,-0.1700603365898132,0.08594227582216263,XTrueNorthZVertical,-0.1673691046632434,-0.4773626355128264,-0.8233262217777058,-0.2573837218280651,-0.02986800111830235,-0.8722065091133118,-0.488224983215332,-22.36853218078613,-39.18259429931641,-10.05311870574951,2,192.168.1.8,10.83.46.32,1,0
2015-03-01 17:33:06.000,47,1425259905.684141,37.77925986443586,-122.4387226084831,56.32411,-1,-1,10,65,-9999,1425259985.943452,-20.59738159179688,-37.35113525390625,-8.761024475097656,126.8113098144531,113.0341949462891,10,191337.094882,0.201202392578125,-0.895843505859375,-0.4256744384765625,191337.037547375,-1.035481240296903,0.9783567012308125,-0.4705352908784701,191337.037547375,2.571408911991207,-0.06110056668431378,1.059695369214569,-1.047395586967468,0.9911505579948425,-0.4347992241382599,0.2520970106124878,-0.1700603365898132,0.08594227582216263,XTrueNorthZVertical,-0.1673691046632434,-0.4773626355128264,-0.8233262217777058,-0.2573837218280651,-0.02986800111830235,-0.8722065091133118,-0.488224983215332,-22.36853218078613,-39.18259429931641,-10.05311870574951,2,192.168.1.8,10.83.46.32,1,0
2015-03-01 17:33:06.079,48,1425259905.684141,37.77925986443586,-122.4387226084831,56.32411,-1,-1,10,65,-9999,1425259986.047378,-21.05778503417969,-36.75637817382812,-12.27242279052734,126.6645965576172,112.8874816894531,10,191337.14393725,-0.12921142578125,-0.932830810546875,-0.5027313232421875,191337.1411020417,-0.7877713062448179,-1.963479695843189,-0.4774456612750076,191337.0893245417,2.527714817933187,-0.01777395291977688,1.008767387555848,-1.06092643737793,-0.771425724029541,-0.07469122111797333,0.303523451089859,-0.1795812100172043,0.1272718161344528,XTrueNorthZVertical,-0.1534263773569698,-0.4583125449339595,-0.8332248438043902,-0.2686005738317948,-0.00947131309658289,-0.8461756110191345,-0.532819926738739,-21.25321578979492,-39.04878616333008,-12.65645313262939,2,192.168.1.8,10.83.46.32,1,0
2015-03-01 17:33:06.098,49,1425259905.684141,37.77925986443586,-122.4387226084831,56.32411,-1,-1,10,65,-9999,1425259986.047378,-21.05778503417969,-36.75637817382812,-12.27242279052734,126.6645965576172,112.8874816894531,10,191337.192957875,-0.0982208251953125,-0.717559814453125,-0.3795623779296875,191337.1928799583,0.4608648203281743,-2.661237222507765,-0.09021591350697923,191337.1411020417,2.51220413556505,-0.0804965447253583,0.9608498171028231,-0.7996853590011597,-1.950686097145081,-0.4417102932929993,-0.1092891916632652,-0.0754934623837471,0.06350716948509216,XTrueNorthZVertical,-0.1768634911673134,-0.428059511410246,-0.8368100209600032,-0.2919474262818499,-0.04606053978204727,-0.8196786642074585,-0.5709687471389771,-21.51017189025879,-38.42971801757812,-14.04142951965332,2,192.168.1.8,10.83.46.32,1,0
2015-03-01 17:33:06.176,50,1425259905.684141,37.77925986443586,-122.4387226084831,56.32411,-1,-1,10,65,-9999,1425259986.150942,-22.2855224609375,-36.85833740234375,-9.643035888671875,133.8860015869141,120.1088943481445,10,191337.2420144583,-0.25604248046875,-0.8885955810546875,-0.448089599609375,191337.24465675,0.8436023479694571,-1.75479439282458,0.2433913520284127,191337.1928799583,2.481210326758202,-0.1702210529543846,0.9573074454789973,0.4489508271217346,-2.648443698883057,-0.0544809065759182,0.04506798088550568,0.04321504384279251,0.2041978985071182,XTrueNorthZVertical,-0.2201702486180014,-0.4096628323898475,-0.8239333179549018,-0.32378274143936,-0.09752769768238068,-0.8176443576812744,-0.5674028396606445,-22.01434326171875,-38.44999694824219,-13.1779670715332,2,192.168.1.8,10.83.46.32,1,0
2015-03-01 17:33:06.196,51,1425259905.684141,37.77925986443586,-122.4387226084831,56.32411,-1,-1,10,65,-9999,1425259986.150942,-22.2855224609375,-36.85833740234375,-9.643035888671875,133.8860015869141,120.1088943481445,10,191337.2910302917,-0.0779571533203125,-0.98602294921875,-0.4607086181640625,191337.24465675,0.8436023479694571,-1.75479439282458,0.2433913520284127,191337.24465675,2.516400669203038,-0.3170218537161886,0.9927913800895194,0.8316885232925415,-1.742001056671143,0.2791259586811066,-0.08572305738925934,-0.05104126036167145,0.07103852182626724,XTrueNorthZVertical,-0.2766980115845787,-0.4048137226569535,-0.8030840329477664,-0.3385558256277053,-0.1703194230794907,-0.8375543355941772,-0.519128143787384,-23.23175430297852,-38.73360061645508,-9.832904815673828,2,192.168.1.8,10.83.46.32,1,0
2015-03-01 17:33:06.283,52,1425259905.684141,37.77925986443586,-122.4387226084831,56.32411,-1,-1,10,65,-9999,1425259986.254359,-22.95054626464844,-37.58901977539062,-3.402427673339844,140.4284057617188,126.6512908935547,10,191337.3400626667,-0.160888671875,-0.880401611328125,-0.4490509033203125,191337.34821225,-0.3488882175541576,-1.279009212489237,-0.9419840460108373,191337.2964344583,2.495943729974811,-0.3661969403807497,1.015132793676299,-0.1034391298890114,-1.161707401275635,-0.7552253603935242,0.1109257936477661,-0.1364723443984985,0.03182254359126091,XTrueNorthZVertical,-0.3025235407210066,-0.4027578996880146,-0.7868557174341526,-0.3565439835392771,-0.1888829469680786,-0.8495506048202515,-0.4925311505794525,-24.25324630737305,-38.94149398803711,-5.659706115722656,2,192.168.1.8,10.83.46.32,1,0
2015-03-01 17:33:06.295,53,1425259905.684141,37.77925986443586,-122.4387226084831,56.32411,-1,-1,10,65,-9999,1425259986.254359,-22.95054626464844,-37.58901977539062,-3.402427673339844,140.4284057617188,126.6512908935547,10,191337.3891984583,-0.325897216796875,-0.976806640625,-0.4686279296875,191337.34821225,-0.3488882175541576,-1.279009212489237,-0.9419840460108373,191337.34821225,2.415847674533776,-0.3557007336564477,1.014832908856776,-0.3608019351959229,-1.266215920448303,-0.9062508344650269,0.02290296740829945,-0.03100923262536526,0.04567444324493408,XTrueNorthZVertical,-0.3143169515352083,-0.392227204692015,-0.773685409491788,-0.3857116950845189,-0.1837916374206543,-0.8493923544883728,-0.4947253465652466,-23.23416328430176,-39.68940734863281,-4.64942455291748,2,192.168.1.8,10.83.46.32,1,0
2015-03-01 17:33:06.374,54,1425259905.684141,37.77925986443586,-122.4387226084831,56.32411,-1,-1,10,65,-9999,1425259986.357937,-20.10289001464844,-39.30532836914062,-2.98638916015625,148.1764526367188,134.3993377685547,10,191337.4381071667,-0.0865020751953125,-1.0146484375,-0.3187103271484375,191337.399989375,-0.3369750990499062,-0.3715559794884761,-0.4682905123956422,191337.399989375,2.34632405300754,-0.3470341427973774,1.008374739866492,-0.3488621413707733,-0.358783096075058,-0.4325109124183655,-0.131446048617363,-0.1323356926441193,0.07325557619333267,XTrueNorthZVertical,-0.3236348922614914,-0.3801796935233055,-0.7628354513147774,-0.4108599299872702,-0.181359127163887,-0.8459663391113281,-0.5014477372169495,-21.95111465454102,-40.47870635986328,-4.039183616638184,2,192.168.1.8,10.83.46.32,1,0
2015-03-01 17:33:06.392,55,1425259905.684141,37.77925986443586,-122.4387226084831,56.32411,-1,-1,10,65,-9999,1425259986.357937,-20.10289001464844,-39.30532836914062,-2.98638916015625,148.1764526367188,134.3993377685547,10,191337.4871275417,0.3780059814453125,-0.899383544921875,-0.453826904296875,191337.4517669167,-0.661200847013276,0.7698285247165181,-1.061645732742496,191337.4517669167,2.263626964326331,-0.2559619542816617,0.9963294718756717,-0.6730877757072449,0.7826012372970581,-1.025866508483887,0.1222681254148483,-0.1297103762626648,0.1239809319376945,XTrueNorthZVertical,-0.3029081537537351,-0.3813197412660548,-0.762746463829891,-0.4255110902592737,-0.1375726908445358,-0.8394821286201477,-0.5256838202476501,-20.60453224182129,-41.12005615234375,-4.613718032836914,2,192.168.1.8,10.83.46.32,1,0
2015-03-01 17:33:06.481,56,1425259905.684141,37.77925986443586,-122.4387226084831,56.32411,-1,-1,10,65,-9999,1425259986.461866,-16.69252777099609,-41.41249084472656,-2.853256225585938,154.3282165527344,140.5511016845703,10,191337.5361644583,0.2415313720703125,-0.8395538330078125,-0.51593017578125,191337.5035447917,0.3808365632551842,-1.265839880898795,-0.4763601568146913,191337.5035447917,2.18761501575537,-0.197579806024697,0.9995378764328603,0.3689497113227844,-1.253067135810852,-0.4405812323093414,0.4977374970912933,-0.03205454722046852,0.136739045381546,XTrueNorthZVertical,-0.295845256483285,-0.3839137278656437,-0.7542248010379148,-0.442979383245212,-0.1061359271407127,-0.8412212133407593,-0.5301716923713684,-18.61975860595703,-41.85163497924805,-6.199800491333008,2,192.168.1.8,10.83.46.32,1,0
2015-03-01 17:33:06.491,57,1425259905.684141,37.77925986443586,-122.4387226084831,56.32411,-1,-1,10,65,-9999,1425259986.461866,-16.69252777099609,-41.41249084472656,-2.853256225585938,154.3282165527344,140.5511016845703,10,191337.585193,-0.12066650390625,-0.9965362548828125,-0.201812744140625,191337.555321625,0.503000289830972,-3.915865195217326,-0.008467254369797931,191337.555321625,2.162296680629472,-0.3143552583246433,1.008608618911473,0.4911112487316132,-3.9030921459198,0.02730626612901688,0.3953928351402283,-0.003991393372416496,0.008290666155517101,XTrueNorthZVertical,-0.3453960765438422,-0.3567111752238265,-0.72754005764574,-0.4734385947593799,-0.164817288517952,-0.8460910320281982,-0.5069173574447632,-17.955078125,-42.31685638427734,-4.857061386108398,2,192.168.1.8,10.83.46.32,1,0
2015-03-01 17:33:06.574,58,1425259905.684141,37.77925986443586,-122.4387226084831,56.32411,-1,-1,10,65,-9999,1425259986.514153,-16.77777862548828,-41.63339233398438,0.1588821411132812,160.7635498046875,146.9864349365234,10,191337.6342375417,-0.5369873046875,-0.8079681396484375,-0.1537017822265625,191337.6070995417,0.6334264736887306,-3.453119916843447,1.023014716918133,191337.6070995417,2.254118046883387,-0.5900418465057677,1.020243158439376,0.6215404868125916,-3.44034218788147,1.058781027793884,-0.06137947738170624,0.02035659551620483,0.2277924716472626,XTrueNorthZVertical,-0.4297397670432923,-0.3130062399313768,-0.6931649838616811,-0.4866960881720542,-0.2910833060741425,-0.8522352576255798,-0.4347016513347626,-18.87600898742676,-42.19388961791992,0.2534751892089844,2,192.168.1.8,10.83.46.32,1,0
2015-03-01 17:33:06.591,59,1425259905.684141,37.77925986443586,-122.4387226084831,56.32411,-1,-1,10,65,-9999,1425259986.565815,-17.83499908447266,-40.64776611328125,3.886611938476562,163.5707855224609,149.7936706542969,10,191337.683489125,-0.71240234375,-0.602264404296875,-0.6226959228515625,191337.658877125,0.4705864235713996,0.02655757502248818,0.6051964335016726,191337.658877125,2.340115529274082,-0.7562132027218125,1.019636428873139,0.4587011635303497,0.03933534398674965,0.6409630179405212,-0.1081673577427864,0.1776623129844666,0.2264624387025833,XTrueNorthZVertical,-0.4736164218917872,-0.2919182676783753,-0.676634306647209,-0.4823247616352223,-0.3593314290046692,-0.8519176840782166,-0.3809424340724945,-20.32784652709961,-41.29459381103516,4.269338607788086,2,192.168.1.8,10.83.46.32,1,0
2015-03-01 17:33:06.682,60,1425259905.684141,37.77925986443586,-122.4387226084831,56.32411,-1,-1,10,65,-9999,1425259986.669565,-20.08583068847656,-38.91448974609375,7.714187622070312,161.3169097900391,147.539794921875,10,191337.7323035417,-0.6248016357421875,-0.8228759765625,-0.0648651123046875,191337.7106542083,0.5364631752439266,-0.3190416385854216,0.4278749123248177,191337.7106542083,2.412511783967828,-0.805452766373657,1.011727220925729,0.5245780348777771,-0.3062639832496643,0.4636412262916565,-0.3483267426490784,0.1315321773290634,-0.1061359196901321,XTrueNorthZVertical,-0.4792478313686169,-0.2942719093170184,-0.6841806537110089,-0.4643515298901441,-0.3824929594993591,-0.8477492332458496,-0.3674511313438416,-21.48510551452637,-40.58396148681641,5.293828964233398,2,192.168.1.8,10.83.46.32,1,0
2015-03-01 17:33:06.685,61,1425259905.684141,37.77925986443586,-122.4387226084831,56.32411,-1,-1,10,65,-9999,1425259986.669565,-20.08583068847656,-38.91448974609375,7.714187622070312,161.3169097900391,147.539794921875,10,191337.78132975,-0.494903564453125,-0.8328399658203125,-0.3193206787109375,191337.7624317917,-0.04895156399674648,0.4058718753985831,0.3445720323754662,191337.7624317917,2.443772363274564,-0.8263799315167704,0.991111537561403,-0.06083656474947929,0.4186493754386902,0.3803379535675049,-0.1521393805742264,-0.01364541053771973,0.04593560472130775,XTrueNorthZVertical,-0.4808338063618726,-0.2885019807039854,-0.6918511120439039,-0.454870802823604,-0.4028685390949249,-0.8366353511810303,-0.3711309134960175,-22.84641647338867,-39.74078750610352,5.950078964233398,2,192.168.1.8,10.83.46.32,1,0
2015-03-01 17:33:06.771,62,1425259905.684141,37.77925986443586,-122.4387226084831,56.32411,-1,-1,10,65,-9999,1425259986.722602,-20.80200958251953,-38.23477172851562,7.91387939453125,159.9598388671875,146.1827239990234,10,191337.83038075,-0.3467254638671875,-0.7638702392578125,-0.3613128662109375,191337.8142096667,-0.3417493479360912,-0.3630604956111233,-0.1541315133527719,191337.8142096667,2.444985291712148,-0.8294377053398428,0.983640643726331,-0.3536185324192047,-0.3502808213233948,-0.1183476597070694,-0.01925625652074814,0.009842170402407646,0.06487316638231277,XTrueNorthZVertical,-0.4813592780645256,-0.2850251787088099,-0.6933663366143521,-0.4541992590059442,-0.4086001813411713,-0.8325197696685791,-0.3741077780723572,-23.43389129638672,-39.47305297851562,5.424310684204102,2,192.168.1.8,10.83.46.32,1,0
2015-03-01 17:33:06.784,63,1425259905.684141,37.77925986443586,-122.4387226084831,56.32411,-1,-1,10,65,-9999,1425259986.773276,-21.10894775390625,-37.96287536621094,6.981956481933594,159.7987670898438,146.0216522216797,10,191337.8794089167,-0.4340362548828125,-0.9306793212890625,-0.1478271484375,191337.8659865,-0.4027357368989058,-0.4232500667757861,-0.06810102381496123,191337.8142096667,2.444985291712148,-0.8294377053398428,0.983640643726331,-0.3536185324192047,-0.3502808213233948,-0.1183476597070694,-0.01925625652074814,0.009842170402407646,0.06487316638231277,XTrueNorthZVertical,-0.4813592780645256,-0.2850251787088099,-0.6933663366143521,-0.4541992590059442,-0.4086001813411713,-0.8325197696685791,-0.3741077780723572,-23.43389129638672,-39.47305297851562,5.424310684204102,2,192.168.1.8,10.83.46.32,1,0
2015-03-01 17:33:06.875,64,1425259905.684141,37.77925986443586,-122.4387226084831,56.32411,-1,-1,10,65,-9999,1425259986.825447,-20.35866546630859,-38.20077514648438,5.950180053710938,161.6662750244141,147.88916015625,10,191337.9284354167,-0.30609130859375,-0.82763671875,-0.45245361328125,191337.917764375,-0.7116589612386803,0.4688843973187299,-0.2258448488703167,191337.917764375,2.368606755387785,-0.7837783981418686,0.960800143551055,-0.7234956026077271,0.4816813766956329,-0.1900636404752731,0.1058966070413589,0.006372006144374609,-0.0205071996897459,XTrueNorthZVertical,-0.4747117778473875,-0.2679231622580843,-0.6925930276946388,-0.4724201051984569,-0.4044195711612701,-0.8196502327919006,-0.4057318270206451,-23.05168914794922,-39.76992416381836,4.864627838134766,2,192.168.1.8,10.83.46.32,1,0
2015-03-01 17:33:06.883,65,1425259905.684141,37.77925986443586,-122.4387226084831,56.32411,-1,-1,10,65,-9999,1425259986.876978,-20.11994171142578,-38.88050842285156,5.384368896484375,162.529296875,148.7521820068359,10,191337.9774596667,-0.499114990234375,-0.68408203125,-0.347137451171875,191337.969542,-0.3544939053326654,0.1414929497675829,0.1365096427358266,191337.917764375,2.368606755387785,-0.7837783981418686,0.960800143551055,-0.7234956026077271,0.4816813766956329,-0.1900636404752731,0.1058966070413589,0.006372006144374609,-0.0205071996897459,XTrueNorthZVertical,-0.4747117778473875,-0.2679231622580843,-0.6925930276946388,-0.4724201051984569,-0.4044195711612701,-0.8196502327919006,-0.4057318270206451,-23.05168914794922,-39.76992416381836,4.864627838134766,2,192.168.1.8,10.83.46.32,1,0
2015-03-01 17:33:06.973,66,1425259905.684141,37.77925986443586,-122.4387226084831,56.32411,-1,-1,10,65,-9999,1425259986.929207,-20.54624176025391,-38.82952880859375,3.90325927734375,162.0359954833984,148.2588806152344,10,191338.0264884167,-0.3492584228515625,-0.812835693359375,-0.39739990234375,191338.0213190833,-0.3422675990842207,1.158214883345968,0.2062312000741011,191337.969542,2.34017705573679,-0.7544508020006027,0.9506046498243791,-0.3663323223590851,0.1542893052101135,0.1722887307405472,-0.02809629961848259,0.1129156276583672,0.1767337322235107,XTrueNorthZVertical,-0.4675180634732841,-0.2639792668296275,-0.695407367855013,-0.477650866691972,-0.3980511724948883,-0.8137670755386353,-0.4234836101531982,-22.72950744628906,-40.10178375244141,3.450891494750977,2,192.168.1.8,10.83.46.32,1,0
2015-03-01 17:33:06.982,67,1425259905.684141,37.77925986443586,-122.4387226084831,56.32411,-1,-1,10,65,-9999,1425259986.929207,-20.54624176025391,-38.82952880859375,3.90325927734375,162.0359954833984,148.2588806152344,10,191338.0755060833,-0.2847747802734375,-0.745574951171875,-0.3274383544921875,191338.0730967917,-0.4707621922033448,1.125903548788364,0.6415168907642823,191338.0213190833,2.35048969357499,-0.7196864699685612,0.9244844766338618,-0.354098916053772,1.171007871627808,0.2420331388711929,-0.03114592470228672,-0.03140151500701904,0.0728306919336319,XTrueNorthZVertical,-0.4516659632136197,-0.263722492568551,-0.7125348068374996,-0.4676990531753697,-0.3969699144363403,-0.798310399055481,-0.4528965950012207,-23.27364921569824,-39.8522834777832,2.612485885620117,2,192.168.1.8,10.83.46.32,1,0
2015-03-01 17:33:07.043,68,1425259905.684141,37.77925986443586,-122.4387226084831,56.32411,-1,-1,10,65,-9999,1425259987.033501,-22.62655639648438,-37.80992126464844,0.30865478515625,156.2991180419922,142.5220031738281,10,191338.1245344584,-0.570770263671875,-0.81536865234375,-0.368682861328125,191338.1248745417,-0.1941409813573594,0.5008178293176521,0.8659697053328146,191338.0730967917,2.353038912070001,-0.6586124823754631,0.8932663536820299,-0.4825931787490845,1.138696551322937,0.6773182153701782,0.09091746062040329,-0.01561528909951448,0.1810735762119293,XTrueNorthZVertical,-0.4262933056461254,-0.265322866440806,-0.7343062590668309,-0.4568063733230478,-0.3836573362350464,-0.7791234850883484,-0.4957555830478668,-24.12980270385742,-39.42644500732422,-0.01223564147949219,2,192.168.1.8,10.83.46.32,1,0
2015-03-01 17:33:07.078,69,1425259905.684141,37.77925986443586,-122.4387226084831,56.32411,-1,-1,10,65,-9999,1425259987.033501,-22.62655639648438,-37.80992126464844,0.30865478515625,156.2991180419922,142.5220031738281,10,191338.173658625,-0.500579833984375,-0.7875213623046875,-0.7825775146484375,191338.1248745417,-0.1941409813573594,0.5008178293176521,0.8659697053328146,191338.1248745417,2.388359096747236,-0.6352558812949937,0.8434358007240924,-0.2059718519449234,0.5136107206344604,0.9017707109451294,-0.176229327917099,-0.06843665987253189,0.1665087044239044,XTrueNorthZVertical,-0.4079914005975418,-0.2568019372727315,-0.7589855562773385,-0.4376490124770677,-0.394540935754776,-0.7469319701194763,-0.535191535949707,-25.41327857971191,-38.53722763061523,-2.395721435546875,2,192.168.1.8,10.83.46.32,1,0
2015-03-01 17:33:07.174,70,1425259905.684141,37.77925986443586,-122.4387226084831,56.32411,-1,-1,10,65,-9999,1425259987.135663,-25.47421264648438,-35.65179443359375,-3.402427673339844,150.3879699707031,136.6108551025391,10,191338.2225880834,-0.565582275390625,-0.6073455810546875,-0.50396728515625,191338.2284292917,-0.4298911915861167,-0.1834119042737571,0.1093741617567913,191338.176651375,2.403715139120994,-0.6138024487034602,0.7998143142398946,-0.411692202091217,0.3780965507030487,0.5337045788764954,-0.09921401739120483,-0.07029465585947037,-0.2129361480474472,XTrueNorthZVertical,-0.3933875291794618,-0.2458161273687215,-0.776557439963528,-0.4263556925351883,-0.4013658165931702,-0.7172266840934753,-0.5696413516998291,-26.86095428466797,-37.4210090637207,-3.853504180908203,2,192.168.1.8,10.83.46.32,1,0
2015-03-01 17:33:07.176,71,1425259905.684141,37.77925986443586,-122.4387226084831,56.32411,-1,-1,10,65,-9999,1425259987.135663,-25.47421264648438,-35.65179443359375,-3.402427673339844,150.3879699707031,136.6108551025391,10,191338.2716011667,-0.6015472412109375,-0.7006988525390625,-0.369537353515625,191338.2284292917,-0.4298911915861167,-0.1834119042737571,0.1093741617567913,191338.2284292917,2.421832090785665,-0.643273706171636,0.7741962429368169,-0.4416985809803009,-0.1706223040819168,0.1452159434556961,-0.1367224454879761,0.09179604798555374,0.06811679154634476,XTrueNorthZVertical,-0.4001019843488898,-0.2321128230290521,-0.7802172970619149,-0.4210735797687985,-0.4288598299026489,-0.6991416215896606,-0.5720840692520142,-27.87958717346191,-36.48116302490234,-5.342823028564453,2,192.168.1.8,10.83.46.32,1,0
2015-03-01 17:33:07.246,72,1425259905.684141,37.77925986443586,-122.4387226084831,56.32411,-1,-1,10,65,-9999,1425259987.239176,-25.74703216552734,-34.97206115722656,-5.632400512695312,150.4500579833984,136.6729431152344,10,191338.3206360417,-0.49676513671875,-0.6387786865234375,-0.587066650390625,191338.280206875,-0.3597318105646333,0.5769578711991264,-0.04450009023467903,191338.280206875,2.423434111636757,-0.6499925438695994,0.760532054915646,-0.3715099096298218,0.5897454023361206,-0.008617369458079338,-0.1631125509738922,-0.01139185205101967,0.2072042226791382,XTrueNorthZVertical,-0.4011906465039478,-0.22511170657639,-0.7821863644841955,-0.4201847529877224,-0.4384346902370453,-0.6893069744110107,-0.5767415761947632,-28.90814590454102,-35.73238754272461,-4.920164108276367,2,192.168.1.8,10.83.46.32,1,0
2015-03-01 17:33:07.280,73,1425259905.684141,37.77925986443586,-122.4387226084831,56.32411,-1,-1,10,65,-9999,1425259987.239176,-25.74703216552734,-34.97206115722656,-5.632400512695312,150.4500579833984,136.6729431152344,10,191338.3696507083,-0.5154876708984375,-0.6877288818359375,-0.57806396484375,191338.3319838333,-0.410844529785979,0.8663649184385823,-0.3929901652058698,191338.3319838333,2.391690732223013,-0.58326763067735,0.744019754709385,-0.4226206839084625,0.8791521787643433,-0.3571056425571442,-0.06731557846069336,0.009831484407186508,0.09083867818117142,XTrueNorthZVertical,-0.3767404621796748,-0.225859380247154,-0.7919987375538248,-0.4240190030323058,-0.4052186012268066,-0.6772509217262268,-0.6141083240509033,-28.71744537353516,-35.68070220947266,-6.236034393310547,2,192.168.1.8,10.83.46.32,1,0
2015-03-01 17:33:07.342,74,1425259905.684141,37.77925986443586,-122.4387226084831,56.32411,-1,-1,10,65,-9999,1425259987.291493,-24.92853546142578,-35.00604248046875,-7.296562194824219,150.7084655761719,136.9313507080078,10,191338.4186885417,-0.3734893798828125,-0.5740814208984375,-0.6474761962890625,191338.38376175,-0.4262557103820496,1.182934078267974,-0.3251149774513473,191338.38376175,2.359477743437275,-0.5115600320181625,0.7304175606743478,-0.4380312561988831,1.19572114944458,-0.2892303466796875,-0.1073756888508797,-0.02968816459178925,0.06561234593391418,XTrueNorthZVertical,-0.3501768569506178,-0.2293650514894192,-0.8009992850512838,-0.427981235648388,-0.3646549582481384,-0.6671807169914246,-0.6495356559753418,-27.68869209289551,-35.93116760253906,-8.887069702148438,2,192.168.1.8,10.83.46.32,1,0
2015-03-01 17:33:07.377,75,1425259905.684141,37.77925986443586,-122.4387226084831,56.32411,-1,-1,10,65,-9999,1425259987.342732,-23.59849548339844,-35.51585388183594,-9.692962646484375,151.7020111083984,137.9248962402344,10,191338.467700875,-0.1732177734375,-0.672760009765625,-0.5808258056640625,191338.43553925,-0.3280660262552641,1.580405278324011,-0.4576461238347045,191338.43553925,2.328155663529427,-0.4166321945286862,0.7168257567786581,-0.3398213982582092,1.593172430992126,-0.4217226207256317,-0.03127624094486237,0.006711126305162907,0.03931909054517746,XTrueNorthZVertical,-0.3136427523711329,-0.2385916034942143,-0.8127687254692417,-0.4290795033960145,-0.3050885200500488,-0.6569949388504028,-0.6894045472145081,-26.68798828125,-36.02799224853516,-11.24399948120117,2,192.168.1.8,10.83.46.32,1,0
2015-03-01 17:33:07.441,76,1425259905.684141,37.77925986443586,-122.4387226084831,56.32411,-1,-1,10,65,-9999,1425259987.39534,-22.31961822509766,-35.97467041015625,-12.07271575927734,150.7632598876953,136.9861450195312,10,191338.5167330417,0.02728271484375,-0.796905517578125,-0.680816650390625,191338.4873164167,-0.5019187801122909,1.669072297341001,-0.6870894359699363,191338.4873164167,2.284780911507438,-0.3014941971153013,0.7048021184717476,-0.5136740803718567,1.681839346885681,-0.6511662602424622,0.112289734184742,-0.0008900853572413325,0.07396874576807022,XTrueNorthZVertical,-0.2699678708557681,-0.2518472614600716,-0.8225144941151952,-0.4326201142797657,-0.2261965870857239,-0.6478831171989441,-0.727380633354187,-25.1246337890625,-36.2721061706543,-13.77604579925537,2,192.168.1.8,10.83.46.32,1,0
2015-03-01 17:33:07.478,77,1425259905.684141,37.77925986443586,-122.4387226084831,56.32411,-1,-1,10,65,-9999,1425259987.446544,-20.69969177246094,-36.63739013671875,-14.35262298583984,150.1602172851562,136.3831024169922,10,191338.56576,0.098297119140625,-0.684722900390625,-0.7889404296875,191338.539094,-0.307090170561473,1.128934226108874,-0.8156958818548438,191338.539094,2.232047090939683,-0.2009933450856633,0.6972382846003365,-0.3188453018665314,1.141701221466064,-0.7797731161117554,0.1915630102157593,-0.1963369846343994,0.1415662616491318,XTrueNorthZVertical,-0.2340022840349509,-0.2639132933130261,-0.8250059381582844,-0.441540323629694,-0.1530498266220093,-0.6421029567718506,-0.751185417175293,-22.23070526123047,-36.77257919311523,-17.03718185424805,2,192.168.1.8,10.83.46.32,1,0
2015-03-01 17:33:07.529,78,1425259905.684141,37.77925986443586,-122.4387226084831,56.32411,-1,-1,10,65,-9999,1425259987.499108,-18.10781860351562,-36.94326782226562,-16.449462890625,151.4680480957031,137.6909332275391,10,191338.6147979583,0.1039276123046875,-0.8442840576171875,-0.7193450927734375,191338.5908719167,-0.1178504708742955,0.7148004260605377,-0.7835632454063837,191338.5908719167,2.176364594419796,-0.1248659243063027,0.6859405152534277,-0.1296055018901825,0.7275672554969788,-0.7476407885551453,0.1991565227508545,0.03754537180066109,-0.08864635974168777,XTrueNorthZVertical,-0.2078124596011477,-0.2700268629454932,-0.8228338474785893,-0.4548009290604684,-0.0963733121752739,-0.633401095867157,-0.7677989602088928,-20.06464767456055,-37.22382736206055,-18.66785621643066,2,192.168.1.8,10.83.46.32,1,0
2015-03-01 17:33:07.573,79,1425259905.684141,37.77925986443586,-122.4387226084831,56.32411,-1,-1,10,65,-9999,1425259987.5507,-15.68646240234375,-37.58901977539062,-18.01377868652344,153.7408294677734,139.9637145996094,10,191338.6638148334,0.244537353515625,-0.6920013427734375,-0.799774169921875,191338.6426487917,0.1263281115723447,1.013215349371078,-0.1579121368362484,191338.5908719167,2.176364594419796,-0.1248659243063027,0.6859405152534277,-0.1296055018901825,0.7275672554969788,-0.7476407885551453,0.1991565227508545,0.03754537180066109,-0.08864635974168777,XTrueNorthZVertical,-0.2078124596011477,-0.2700268629454932,-0.8228338474785893,-0.4548009290604684,-0.0963733121752739,-0.633401095867157,-0.7677989602088928,-20.06464767456055,-37.22382736206055,-18.66785621643066,2,192.168.1.8,10.83.46.32,1,0
2015-03-01 17:33:07.627,80,1425259905.684141,37.77925986443586,-122.4387226084831,56.32411,-1,-1,10,65,-9999,1425259987.602847,-14.15179443359375,-38.26876831054688,-18.61287689208984,153.5192565917969,139.7421417236328,10,191338.7129490833,0.139251708984375,-0.728485107421875,-0.7097320556640625,191338.6944266667,0.3045204864256555,0.2074570531238646,-0.0278018038837732,191338.6944266667,2.144957873777006,-0.02423436781555839,0.7090682597811258,0.2927627861499786,0.2202258259057999,0.008110284805297852,0.2386061698198318,-0.06373211741447449,0.09393582493066788,XTrueNorthZVertical,-0.1758906231767309,-0.299482026676824,-0.8216886392724354,-0.4518857545608218,-0.01839132979512215,-0.6511269211769104,-0.7587460279464722,-16.60612487792969,-38.20745849609375,-20.0279655456543,2,192.168.1.8,10.83.46.32,1,0
2015-03-01 17:33:07.676,81,1425259905.684141,37.77925986443586,-122.4387226084831,56.32411,-1,-1,10,65,-9999,1425259987.654224,-13.14572906494141,-38.52366638183594,-18.7293701171875,155.9391784667969,142.1620635986328,10,191338.7618549583,0.0858001708984375,-0.6549072265625,-0.660614013671875,191338.74620425,0.1403901347601811,-0.09220529484126842,-0.3049500543094853,191338.74620425,2.128890571773231,-0.001546615297066804,0.725029051405049,0.1286347955465317,-0.07942400872707367,-0.269085019826889,0.1119669377803802,0.01853438466787338,0.06306970119476318,XTrueNorthZVertical,-0.1726223354985918,-0.3097771890353309,-0.8175500216372146,-0.4537086457956435,-0.001157610327936709,-0.6631571650505066,-0.7484792470932007,-15.88451385498047,-38.73177719116211,-19.60163307189941,2,192.168.1.8,10.83.46.32,1,0
2015-03-01 17:33:07.725,82,1425259905.684141,37.77925986443586,-122.4387226084831,56.32411,-1,-1,10,65,-9999,1425259987.705929,-12.53186798095703,-38.76156616210938,-18.5296630859375,155.6763916015625,141.8992767333984,10,191338.81089525,-0.0404052734375,-0.633209228515625,-0.6820831298828125,191338.7979814167,-0.02188639047048919,0.1470863870050763,-0.1737004210426742,191338.7979814167,2.106862071755861,0.02074101806312265,0.7344594789464124,-0.03363465145230293,0.1598796844482422,-0.1378741860389709,-0.02975125797092915,0.01239494513720274,0.0807328000664711,XTrueNorthZVertical,-0.1691522572631995,-0.3168134858263499,-0.8129747031712302,-0.4583544608415166,0.01539273653179407,-0.6701861023902893,-0.7420334815979004,-15.232253074646,-39.11771392822266,-19.35137557983398,2,192.168.1.8,10.83.46.32,1,0
2015-03-01 17:33:07.774,83,1425259905.684141,37.77925986443586,-122.4387226084831,56.32411,-1,-1,10,65,-9999,1425259987.757596,-12.36135101318359,-39.23736572265625,-18.39653015136719,156.0251922607422,142.2480773925781,10,191338.85991775,0.0740966796875,-0.67449951171875,-0.642913818359375,191338.849759,-0.0772415253083312,0.578724079634067,-0.002239452160647631,191338.7979814167,2.106862071755861,0.02074101806312265,0.7344594789464124,-0.03363465145230293,0.1598796844482422,-0.1378741860389709,-0.02975125797092915,0.01239494513720274,0.0807328000664711,XTrueNorthZVertical,-0.1691522572631995,-0.3168134858263499,-0.8129747031712302,-0.4583544608415166,0.01539273653179407,-0.6701861023902893,-0.7420334815979004,-15.232253074646,-39.11771392822266,-19.35137557983398,2,192.168.1.8,10.83.46.32,1,0
2015-03-01 17:33:07.824,84,1425259905.684141,37.77925986443586,-122.4387226084831,56.32411,-1,-1,10,65,-9999,1425259987.809593,-11.74748229980469,-39.44126892089844,-18.46309661865234,156.3893127441406,142.6121978759766,10,191338.908966375,0.07952880859375,-0.6446990966796875,-0.71063232421875,191338.9015369167,-0.1380785109339923,0.4681016942743557,-0.1803727048377587,191338.9015369167,2.093511638793696,0.07552873665672646,0.7247249105419574,-0.1498265266418457,0.4808947145938873,-0.1445472240447998,0.0191903505474329,-0.02669145911931992,0.009029041975736618,XTrueNorthZVertical,-0.1466852074138812,-0.3243605615142887,-0.8157005573113575,-0.4559673536234459,0.05649324133992195,-0.6629295349121094,-0.7465473413467407,-14.03836059570312,-39.28636932373047,-19.90472412109375,2,192.168.1.8,10.83.46.32,1,0
2015-03-01 17:33:07.871,85,1425259905.684141,37.77925986443586,-122.4387226084831,56.32411,-1,-1,10,65,-9999,1425259987.861085,-10.6732177734375,-39.39031982421875,-19.17868041992188,156.4266204833984,142.6495056152344,10,191338.9579806667,0.1493682861328125,-0.6909942626953125,-0.745635986328125,191338.9015369167,-0.1380785109339923,0.4681016942743557,-0.1803727048377587,191338.9015369167,2.093511638793696,0.07552873665672646,0.7247249105419574,-0.1498265266418457,0.4808947145938873,-0.1445472240447998,0.0191903505474329,-0.02669145911931992,0.009029041975736618,XTrueNorthZVertical,-0.1466852074138812,-0.3243605615142887,-0.8157005573113575,-0.4559673536234459,0.05649324133992195,-0.6629295349121094,-0.7465473413467407,-14.03836059570312,-39.28636932373047,-19.90472412109375,2,192.168.1.8,10.83.46.32,1,0
2015-03-01 17:33:07.921,86,1425259905.684141,37.77925986443586,-122.4387226084831,56.32411,-1,-1,10,65,-9999,1425259987.913445,-9.871772766113281,-39.30535888671875,-19.86099243164062,155.3656921386719,141.5885772705078,10,191339.0071527083,0.2059326171875,-0.742431640625,-0.6746673583984375,191339.0050915834,0.05219928894609811,0.4654566426796889,-0.3494501445441643,191338.95331375,2.08447283950385,0.116232516486982,0.7184651338771915,-0.139277458190918,0.7673724889755249,-0.1040938571095467,0.04503456875681877,-0.03584656491875648,0.0523638054728508,XTrueNorthZVertical,-0.130031465993451,-0.3304892559269114,-0.8173447007999365,-0.4536697701534443,0.08730491250753403,-0.6582299470901489,-0.7477373480796814,-13.27651691436768,-39.25914764404297,-20.47305488586426,2,192.168.1.8,10.83.46.32,1,0
2015-03-01 17:33:07.970,87,1425259905.684141,37.77925986443586,-122.4387226084831,56.32411,-1,-1,10,65,-9999,1425259987.964682,-8.592880249023438,-39.49227905273438,-20.57658386230469,155.6634826660156,141.8863677978516,10,191339.0560675834,0.1487884521484375,-0.519989013671875,-0.739654541015625,191339.0568692083,-0.1343269159063977,0.2509051947279623,-0.2421726895135925,191339.0050915834,2.073489315168701,0.1534339966077782,0.7126617589626553,0.04045193269848824,0.478249728679657,-0.3136261105537415,0.08832733333110809,-0.05292181298136711,-0.01459371205419302,XTrueNorthZVertical,-0.1152194194221393,-0.3359416473287517,-0.8179183040075715,-0.4526337301348564,0.1156369000673294,-0.6538500189781189,-0.7477353811264038,-12.06373405456543,-39.20783996582031,-21.30502319335938,2,192.168.1.8,10.83.46.32,1,0
2015-03-01 17:33:08.019,88,1425259905.684141,37.77925986443586,-122.4387226084831,56.32411,-1,-1,10,65,-9999,1425259987.964682,-8.592880249023438,-39.49227905273438,-20.57658386230469,155.6634826660156,141.8863677978516,10,191339.10511575,0.0706024169921875,-0.6253509521484375,-0.6387939453125,191339.108646375,-0.02772750168935999,0.4996036941766849,-0.1630176829620393,191339.0568692083,2.05786199040297,0.1834191048451342,0.7077274325582791,-0.1460731029510498,0.2637007534503937,-0.2063567489385605,0.01019919663667679,0.130119651556015,0.007440983317792416,XTrueNorthZVertical,-0.1043634264794754,-0.3399419259654075,-0.8166543519974726,-0.4545584475689859,0.1385892480611801,-0.6501086354255676,-0.74709552526474,-11.14595794677734,-39.32528686523438,-21.58661651611328,2,192.168.1.8,10.83.46.32,1,0
2015-03-01 17:33:08.069,89,1425259905.684141,37.77925986443586,-122.4387226084831,56.32411,-1,-1,10,65,-9999,1425259988.017172,-7.603874206542969,-39.35630798339844,-20.77629089355469,156.2526702880859,142.4755554199219,10,191339.154143125,0.170379638671875,-0.6053009033203125,-0.6575164794921875,191339.108646375,-0.02772750168935999,0.4996036941766849,-0.1630176829620393,191339.108646375,2.047117748207447,0.2068450688133888,0.7015879042265553,-0.03947971388697624,0.5123958587646484,-0.1271955221891403,-0.08626541495323181,0.02008041925728321,0.1087425425648689,XTrueNorthZVertical,-0.09505978406137255,-0.3423381261897652,-0.8161335602039891,-0.455734799448312,0.1568678319454193,-0.6454313993453979,-0.7475364804267883,-10.45157814025879,-39.28868103027344,-21.99673652648926,2,192.168.1.8,10.83.46.32,1,0
2015-03-01 17:33:08.118,90,1425259905.684141,37.77925986443586,-122.4387226084831,56.32411,-1,-1,10,65,-9999,1425259988.068434,-6.273841857910156,-39.45828247070312,-21.04254913330078,156.7787322998047,143.0016174316406,10,191339.2032989167,0.2718505859375,-0.5769805908203125,-0.65850830078125,191339.2122018333,0.02815600430875374,0.9901742122519301,-0.2586805598465576,191339.1604239584,2.032862486331505,0.2546487225828776,0.6986344905227548,0.0752125084400177,1.021366357803345,-0.2699064910411835,-0.02250970900058746,0.03787178546190262,0.08351156860589981,XTrueNorthZVertical,-0.07726349442176318,-0.3514488988558561,-0.8152968923659459,-0.4536573067079614,0.1928893476724625,-0.6431726813316345,-0.7410280704498291,-9.3236083984375,-39.35319519042969,-22.38501167297363,2,192.168.1.8,10.83.46.32,1,0
2015-03-01 17:33:08.171,91,1425259905.684141,37.77925986443586,-122.4387226084831,56.32411,-1,-1,10,65,-9999,1425259988.119985,-5.284828186035156,-40.17201232910156,-21.40866088867188,156.4355773925781,142.6584625244141,10,191339.2522225417,0.3279266357421875,-0.5114898681640625,-0.559661865234375,191339.2122018333,0.02815600430875374,0.9901742122519301,-0.2586805598465576,191339.2122018333,2.016568698605214,0.3149102676331479,0.6967291096635376,0.01640261150896549,1.002964377403259,-0.2228544354438782,0.03430375084280968,0.06473194062709808,0.07072177529335022,XTrueNorthZVertical,-0.05512332741646066,-0.3637944212350915,-0.8138166282055466,-0.4497971589697551,0.2375468313694,-0.6417125463485718,-0.7292300462722778,-7.840925216674805,-39.52263641357422,-22.6533374786377,2,192.168.1.8,10.83.46.32,1,0
2015-03-01 17:33:08.216,92,1425259905.684141,37.77925986443586,-122.4387226084831,56.32411,-1,-1,10,65,-9999,1425259988.171961,-3.392066955566406,-40.49485778808594,-21.85799407958984,156.8128509521484,143.0357360839844,10,191339.3012689583,0.3638916015625,-0.732574462890625,-0.660430908203125,191339.2639787083,-0.2125346360582096,0.9756453369250028,-0.360631692696971,191339.2639787083,2.001232409090291,0.375434553306243,0.6891878129342451,-0.2242878973484039,0.9884352684020996,-0.3248059749603271,0.05371291190385818,0.140015184879303,0.1307279169559479,XTrueNorthZVertical,-0.03128389284177148,-0.3741887485344925,-0.8124265630020231,-0.4460573157744649,0.2829875349998474,-0.6359105706214905,-0.7180082201957703,-6.390788078308105,-39.6084098815918,-22.95700073242188,2,192.168.1.8,10.83.46.32,1,0
2015-03-01 17:33:08.271,93,1425259905.684141,37.77925986443586,-122.4387226084831,56.32411,-1,-1,10,65,-9999,1425259988.224609,-1.516365051269531,-40.93667602539062,-22.0244140625,156.9204864501953,143.1433715820312,10,191339.3502980834,0.391021728515625,-0.5095367431640625,-0.5837554931640625,191339.3157564167,0.093602655465233,0.9169215696243196,-0.4159660548783104,191339.3157564167,1.974980921964162,0.4364354097681843,0.6766915922247089,0.08184950798749924,0.9297114014625549,-0.3801406919956207,0.02822144143283367,-0.0955541804432869,0.07111548632383347,XTrueNorthZVertical,-0.008037047806831737,-0.3829510783339662,-0.8082334489471932,-0.4472611319762468,0.3295666575431824,-0.6262170672416687,-0.7065677642822266,-4.159526824951172,-39.53535461425781,-23.58699798583984,2,192.168.1.8,10.83.46.32,1,0
2015-03-01 17:33:08.316,94,1425259905.684141,37.77925986443586,-122.4387226084831,56.32411,-1,-1,10,65,-9999,1425259988.276119,0.1376571655273438,-40.98764038085938,-22.10761260986328,157.3090209960938,143.5319061279297,10,191339.3994517917,0.4603271484375,-0.605712890625,-0.5267333984375,191339.3675342083,0.266052189743897,1.236279059115025,-0.3974269915819418,191339.3675342083,1.956605548220431,0.4985912316474531,0.6771245819293652,0.254299134016037,1.249068737030029,-0.3616019487380981,0.03888574987649918,0.1066113412380219,0.1028135418891907,XTrueNorthZVertical,0.01331067999367617,-0.3969583192994272,-0.8040312196507333,-0.4424710917928758,0.3726895749568939,-0.6265546083450317,-0.6844938397407532,-2.58741569519043,-39.67456817626953,-23.57808685302734,2,192.168.1.8,10.83.46.32,1,0
2015-03-01 17:33:08.376,95,1425259905.684141,37.77925986443586,-122.4387226084831,56.32411,-1,-1,10,65,-9999,1425259988.327928,2.183876037597656,-40.88568115234375,-21.84135437011719,156.1072845458984,142.3301696777344,10,191339.44837325,0.493560791015625,-0.5865325927734375,-0.577545166015625,191339.4193113333,0.3121578997997848,1.304973967853073,-0.6328770635558473,191339.4193113333,1.917796374307324,0.5939040135876448,0.6778199967417782,0.3004241287708282,1.317743897438049,-0.5970106720924377,0.06720119714736938,0.07033372670412064,0.1108131930232048,XTrueNorthZVertical,0.04327818965938539,-0.4187460689674846,-0.7940891123633861,-0.4384075277163471,0.4358963370323181,-0.62709641456604,-0.6455574631690979,-0.6742782592773438,-39.96479797363281,-23.21751022338867,2,192.168.1.8,10.83.46.32,1,0
2015-03-01 17:33:08.412,96,1425259905.684141,37.77925986443586,-122.4387226084831,56.32411,-1,-1,10,65,-9999,1425259988.38019,4.519973754882812,-41.27651977539062,-21.52516937255859,154.5704956054688,140.7933807373047,10,191339.4975217917,0.36968994140625,-0.517486572265625,-0.2530975341796875,191339.4710889584,1.232209216337165,0.7207792227077656,-0.1977727341359004,191339.4710889584,1.868689516700029,0.6741826153589694,0.6940763186955656,1.220475554466248,0.7335491180419922,-0.1619067192077637,0.009363328106701374,0.01809369772672653,0.1110531389713287,XTrueNorthZVertical,0.05936149367456938,-0.442986247839996,-0.780562276334602,-0.4369918543463435,0.4798334538936615,-0.6396757364273071,-0.6004787683486938,2.342508316040039,-40.49411010742188,-22.16826629638672,2,192.168.1.8,10.83.46.32,1,0
2015-03-01 17:33:08.474,97,1425259905.684141,37.77925986443586,-122.4387226084831,56.32411,-1,-1,10,65,-9999,1425259988.434327,6.651447296142578,-42.21115112304688,-19.24526214599609,156.4915618896484,142.7144470214844,10,191339.5464439584,0.59588623046875,-0.500274658203125,-0.1220703125,191339.522866875,1.844713896502234,0.7898395171473734,-0.06728556388917897,191339.522866875,1.79814551120197,0.7561147892659441,0.7576584536922473,1.832980394363403,0.8026092648506165,-0.03141988068819046,-0.07403801381587982,0.1648834496736526,0.4435650408267975,XTrueNorthZVertical,0.05453287678047571,-0.4824711684532248,-0.7608516252001716,-0.4305258320937648,0.498415470123291,-0.6872223019599915,-0.5284954905509949,3.210968017578125,-41.71070861816406,-19.66212272644043,2,192.168.1.8,10.83.46.32,1,0
2015-03-01 17:33:08.510,98,1425259905.684141,37.77925986443586,-122.4387226084831,56.32411,-1,-1,10,65,-9999,1425259988.434327,6.651447296142578,-42.21115112304688,-19.24526214599609,156.4915618896484,142.7144470214844,10,191339.5955774584,0.608001708984375,-0.83428955078125,-0.044342041015625,191339.5746436667,2.399702020288752,1.600193364171627,-0.196381498782443,191339.5746436667,1.687412672727415,0.8999643586164247,0.8267801360915736,2.38796854019165,1.612962961196899,-0.1605161726474762,-0.06239790469408035,0.2053285092115402,0.2613351941108704,XTrueNorthZVertical,0.05714352478248207,-0.5350075054281315,-0.7322119093015599,-0.4175730562384405,0.5304917693138123,-0.7357545495033264,-0.4210031628608704,3.897178649902344,-43.18234252929688,-16.02466583251953,2,192.168.1.8,10.83.46.32,1,0
2015-03-01 17:33:08.579,99,1425259905.684141,37.77925986443586,-122.4387226084831,56.32411,-1,-1,10,65,-9999,1425259988.560495,10.11296463012695,-45.66075134277344,-7.546173095703125,157.2002258300781,143.4231109619141,10,191339.6445216667,0.76531982421875,-0.7665252685546875,-0.0559844970703125,191339.6264215834,2.608695717361591,2.128010853252721,-0.5904995127099614,191339.6264215834,1.507484372555278,1.126154850211881,0.8760127275999977,2.596962451934814,2.140780210494995,-0.5546345710754395,0.1897633075714111,-0.04024889692664146,0.2026262730360031,XTrueNorthZVertical,0.06931846964750507,-0.5979170985907658,-0.6891601584996538,-0.4034207724245322,0.5779674053192139,-0.7681922912597656,-0.2753801941871643,5.675104141235352,-44.91461944580078,-9.336086273193359,2,192.168.1.8,10.83.46.32,1,0
2015-03-01 17:33:08.608,100,1425259905.684141,37.77925986443586,-122.4387226084831,56.32411,-1,-1,10,65,-9999,1425259988.560495,10.11296463012695,-45.66075134277344,-7.546173095703125,157.2002258300781,143.4231109619141,10,191339.6936629583,0.8747406005859375,-0.6891632080078125,-0.115875244140625,191339.6781992083,2.429026885999941,2.057696476255794,-1.894790113427321,191339.6781992083,1.292331410925185,1.401685703344451,0.8553032752696422,2.417293787002563,2.070465803146362,-1.858925461769104,0.139790952205658,0.06287536770105362,0.06815521419048309,XTrueNorthZVertical,0.1002443790256542,-0.6593539747073738,-0.6322909534719811,-0.3942226545712312,0.6466317772865295,-0.7547699213027954,-0.1104068011045456,7.728599548339844,-45.44557189941406,-3.414797782897949,2,192.168.1.8,10.83.46.32,1,0
2015-03-01 17:33:08.684,101,1425259905.684141,37.77925986443586,-122.4387226084831,56.32411,-1,-1,10,65,-9999,1425259988.673489,16.72907257080078,-43.89344787597656,5.001617431640625,161.5055236816406,147.7284088134766,10,191339.7425883333,1.104568481445312,-0.97918701171875,0.6154022216796875,191339.7299762084,2.699149451153915,2.19546819103221,-2.644910713445034,191339.6781992083,1.292331410925185,1.401685703344451,0.8553032752696422,2.417293787002563,2.070465803146362,-1.858925461769104,0.139790952205658,0.06287536770105362,0.06815521419048309,XTrueNorthZVertical,0.1002443790256542,-0.6593539747073738,-0.6322909534719811,-0.3942226545712312,0.6466317772865295,-0.7547699213027954,-0.1104068011045456,7.728599548339844,-45.44557189941406,-3.414797782897949,2,192.168.1.8,10.83.46.32,1,0
2015-03-01 17:33:08.707,102,1425259905.684141,37.77925986443586,-122.4387226084831,56.32411,-1,-1,10,65,-9999,1425259988.673489,16.72907257080078,-43.89344787597656,5.001617431640625,161.5055236816406,147.7284088134766,10,191339.7916943333,1.124679565429688,-0.4645843505859375,0.4099884033203125,191339.781754,2.26515592622464,2.397244987867044,-1.351400056188098,191339.781754,0.9791295470698667,1.82595581273994,0.6191384131737934,2.253422737121582,2.410014152526855,-1.315536141395569,0.8787822127342224,-0.3998908996582031,0.5319541096687317,XTrueNorthZVertical,0.1900458966702598,-0.752766258576847,-0.4865949282237008,-0.4005631581190793,0.7880116105079651,-0.5803337097167969,0.2055489718914032,17.09084701538086,-41.56233978271484,10.82437896728516,2,192.168.1.8,10.83.46.32,1,0
2015-03-01 17:33:08.778,103,1425259905.684141,37.77925986443586,-122.4387226084831,56.32411,-1,-1,10,65,-9999,1425259988.742029,20.82151412963867,-38.89744567871094,15.28615570068359,172.3303527832031,158.5532379150391,10,191339.8406612917,1.27886962890625,-0.2672119140625,0.7563629150390625,191339.833531875,3.425016643124277,0.8262699629630034,-2.274042362150017,191339.781754,0.9791295470698667,1.82595581273994,0.6191384131737934,2.253422737121582,2.410014152526855,-1.315536141395569,0.8787822127342224,-0.3998908996582031,0.5319541096687317,XTrueNorthZVertical,0.1900458966702598,-0.752766258576847,-0.4865949282237008,-0.4005631581190793,0.7880116105079651,-0.5803337097167969,0.2055489718914032,17.09084701538086,-41.56233978271484,10.82437896728516,2,192.168.1.8,10.83.46.32,1,0
2015-03-01 17:33:08.804,104,1425259905.684141,37.77925986443586,-122.4387226084831,56.32411,-1,-1,10,65,-9999,1425259988.795017,22.782470703125,-33.06875610351562,21.56004333496094,185.0354156494141,171.25830078125,10,191339.889821625,0.8911285400390625,-0.2623443603515625,0.6421356201171875,191339.885308875,3.954301533966004,0.3679966646915852,-2.94352803699842,191339.833531875,0.8419770606477603,1.984349473177056,0.4877821633071886,3.413283824920654,0.8390389680862427,-2.238178968429565,0.4377230107784271,0.2008455991744995,0.4184856116771698,XTrueNorthZVertical,0.2114863965872736,-0.7954698829820724,-0.4013907510822184,-0.401729492296766,0.808904767036438,-0.4686678647994995,0.3549976646900177,18.42876434326172,-38.77492523193359,17.13412666320801,2,192.168.1.8,10.83.46.32,1,0
2015-03-01 17:33:08.878,105,1425259905.684141,37.77925986443586,-122.4387226084831,56.32411,-1,-1,10,65,-9999,1425259988.846061,24.93100738525391,-25.04795837402344,26.55253601074219,209.0785827636719,195.3014678955078,10,191339.938735125,1.04388427734375,-0.1729278564453125,0.72442626953125,191339.9370864583,3.768160422207134,0.2852032474587658,-2.893398556851531,191339.885308875,0.7252105452199741,2.063700055831229,0.2886019038076122,3.942568778991699,0.3807655274868011,-2.907664775848389,0.08789052814245224,-0.00301594496704638,0.1648987680673599,XTrueNorthZVertical,0.2322627962240607,-0.8202817281762682,-0.2955489231855119,-0.4310947281312615,0.8445283174514771,-0.284612238407135,0.4536162316799164,21.11849975585938,-33.66511535644531,23.60849761962891,2,192.168.1.8,10.83.46.32,1,0
2015-03-01 17:33:08.902,106,1425259905.684141,37.77925986443586,-122.4387226084831,56.32411,-1,-1,10,65,-9999,1425259988.898019,26.2951545715332,-14.71609497070312,30.57981109619141,235.2062377929688,221.4291229248047,10,191339.9877852084,0.6440887451171875,0.1182708740234375,0.379302978515625,191339.988864375,3.764386190310273,0.9499753934938381,-2.390309850072369,191339.9370864583,0.6249974075338196,2.082958782850935,0.06438314810649649,3.756427764892578,0.2979719638824463,-2.857535600662231,0.1648177802562714,-0.1668777465820312,0.3042869865894318,XTrueNorthZVertical,0.2497626688497325,-0.8259192472833478,-0.1815940671116331,-0.4716985814205615,0.869880735874176,-0.06433867663145065,0.4890479743480682,25.57412338256836,-23.2282829284668,30.70998382568359,2,192.168.1.8,10.83.46.32,1,0
2015-03-01 17:33:08.943,107,1425259905.684141,37.77925986443586,-122.4387226084831,56.32411,-1,-1,10,65,-9999,1425259988.898019,26.2951545715332,-14.71609497070312,30.57981109619141,235.2062377929688,221.4291229248047,10,191340.0368150417,0.842926025390625,0.4211578369140625,0.4660491943359375,191339.988864375,3.764386190310273,0.9499753934938381,-2.390309850072369,191339.988864375,0.5282683213851905,2.128586565800176,-0.1404584293775599,3.7526535987854,0.9627437591552734,-2.354446887969971,-0.1959826499223709,-0.02172617055475712,-0.1447969377040863,XTrueNorthZVertical,0.2605932068708136,-0.833151330615823,-0.06710726423521904,-0.483163126305268,0.8400713801383972,0.1399970501661301,0.5240999460220337,27.17747116088867,-14.35722637176514,34.52458953857422,2,192.168.1.8,10.83.46.32,1,0
2015-03-01 17:33:09.000,108,1425259905.684141,37.77925986443586,-122.4387226084831,56.32411,-1,-1,10,65,-9999,1425259988.949606,25.92001342773438,-3.6025390625,33.17590713500977,266.4971313476562,252.7200164794922,10,191340.0858692917,0.8824920654296875,0.6994476318359375,0.549285888671875,191340.0924192083,2.609118893658805,-0.1513000404817997,-2.704156992951591,191340.0406412917,0.442766707493105,2.141719173154297,-0.3345736716011484,3.20289134979248,0.6866590976715088,-2.375850200653076,0.04817892238497734,0.09279132634401321,-0.04439407214522362,XTrueNorthZVertical,0.2678863787074106,-0.8267155015786195,0.03877256608612595,-0.4932291621346873,0.7947471141815186,0.3283665180206299,0.5104432702064514,26.7215461730957,-5.433047294616699,37.32469940185547,2,192.168.1.8,10.83.46.32,1,0
2015-03-01 17:33:09.047,109,1425259905.684141,37.77925986443586,-122.4387226084831,56.32411,-1,-1,10,65,-9999,1425259989.000969,23.99316024780273,6.54241943359375,34.09120178222656,295.1224975585938,281.3453979492188,10,191340.1348930833,0.4970703125,0.423797607421875,0.3556671142578125,191340.0924192083,2.609118893658805,-0.1513000404817997,-2.704156992951591,191340.0924192083,0.3820172520821801,2.129857888944588,-0.5193535557544628,2.597384452819824,-0.1385315805673599,-2.668296813964844,0.1465234756469727,0.2031285911798477,0.08883229643106461,XTrueNorthZVertical,0.2826620415304682,-0.8064297652667444,0.131613947179607,-0.5024449458257116,0.7359685897827148,0.4963190257549286,0.460453599691391,25.44758224487305,5.705077171325684,38.16497039794922,2,192.168.1.8,10.83.46.32,1,0
2015-03-01 17:33:09.098,110,1425259905.684141,37.77925986443586,-122.4387226084831,56.32411,-1,-1,10,65,-9999,1425259989.053118,21.33307647705078,15.51486206054688,32.92628479003906,314.6128234863281,300.8357238769531,10,191340.1839470833,0.5175628662109375,0.5779876708984375,0.1894683837890625,191340.14419675,2.363340017713136,-0.318955085849994,-2.618751547321622,191340.14419675,0.3309425024484861,2.095793029203342,-0.6982804746757848,2.351605176925659,-0.3061869740486145,-2.582891702651978,-0.1657247096300125,-0.2191039621829987,-0.02823415771126747,XTrueNorthZVertical,0.3026012830789488,-0.7748439192808864,0.2150339424805226,-0.5116734491079631,0.6627950072288513,0.642901599407196,0.3839012682437897,24.40815544128418,13.17251968383789,36.97863006591797,2,192.168.1.8,10.83.46.32,1,0
2015-03-01 17:33:09.143,111,1425259905.684141,37.77925986443586,-122.4387226084831,56.32411,-1,-1,10,65,-9999,1425259989.106414,18.7411994934082,23.16180419921875,30.49660873413086,330.4089660644531,316.6318664550781,10,191340.232971625,0.2391815185546875,0.993011474609375,0.1230926513671875,191340.195974,1.839385710109312,-0.7704066969891743,-2.364218860872862,191340.195974,0.2939124908960878,2.040886930112252,-0.8593541630689008,1.827651262283325,-0.757638692855835,-2.328359603881836,-0.06492052972316742,-0.04482032731175423,-0.1297691762447357,XTrueNorthZVertical,0.3289781064112463,-0.7346091103217052,0.2816194478686228,-0.5223153241337481,0.5821019411087036,0.7574210166931152,0.2957542836666107,22.92020225524902,19.76174545288086,34.94038009643555,2,192.168.1.8,10.83.46.32,1,0
2015-03-01 17:33:09.198,112,1425259905.684141,37.77925986443586,-122.4387226084831,56.32411,-1,-1,10,65,-9999,1425259989.156944,16.40509796142578,29.3983154296875,27.61760711669922,342.0671691894531,328.2900695800781,10,191340.2820987917,0.1339569091796875,0.8702850341796875,0.0564117431640625,191340.2477515833,1.226182216474207,-1.510799035860938,-2.338311363472463,191340.2477515833,0.2582363810618847,1.951733637485395,-0.9937074209440875,1.214447379112244,-1.498026013374329,-2.302465200424194,-0.2912822663784027,0.1120493039488792,-0.06177650764584541,XTrueNorthZVertical,0.3586650439704438,-0.6875910063366221,0.3280418037430285,-0.5394131254836479,0.5064769983291626,0.8380544781684875,0.2028440088033676,21.31969833374023,26.45952987670898,31.3377742767334,2,192.168.1.8,10.83.46.32,1,0
2015-03-01 17:33:09.243,113,1425259905.684141,37.77925986443586,-122.4387226084831,56.32411,-1,-1,10,65,-9999,1425259989.20829,14.0860481262207,33.1368408203125,25.25448989868164,347.6531677246094,333.8760681152344,10,191340.331034875,0.0797576904296875,0.74176025390625,0.05255126953125,191340.2995294583,0.6432412875701087,-1.162175536519134,-2.147906264492267,191340.2995294583,0.2535684824193591,1.883026315346367,-1.114264718879573,0.6315071582794189,-1.149401426315308,-2.112062931060791,-0.3288556337356567,-0.083133764564991,-0.102061428129673,XTrueNorthZVertical,0.3954740932114911,-0.6413336199763585,0.3608735593666803,-0.5496013594824326,0.4195233583450317,0.8975868821144104,0.1354171484708786,20.24331283569336,30.20582580566406,28.53959655761719,2,192.168.1.8,10.83.46.32,1,0
2015-03-01 17:33:09.294,114,1425259905.684141,37.77925986443586,-122.4387226084831,56.32411,-1,-1,10,65,-9999,1425259989.261331,11.98867797851562,36.14462280273438,23.50711822509766,351.5514221191406,337.7743225097656,10,191340.3800890417,0.0350494384765625,0.9712982177734375,0.0167694091796875,191340.351306375,0.2147605060972979,-0.08273376242440161,-1.112641006559769,191340.351306375,0.2526079496870997,1.854205510132614,-1.195917378550887,0.2030265033245087,-0.06995974481105804,-1.076797842979431,-0.3450830578804016,-0.1013283208012581,-0.1264372617006302,XTrueNorthZVertical,0.4184462216357439,-0.6132678581913222,0.3842305294293459,-0.5487915311582252,0.3515527844429016,0.9305519461631775,0.1023894101381302,18.65909194946289,32.835205078125,26.65295219421387,2,192.168.1.8,10.83.46.32,1,0
2015-03-01 17:33:09.342,115,1425259905.684141,37.77925986443586,-122.4387226084831,56.32411,-1,-1,10,65,-9999,1425259989.313037,9.686683654785156,37.79296875,22.55854797363281,355.4052429199219,341.6281433105469,10,191340.4291141667,0.1607208251953125,1.118362426757812,0.1008453369140625,191340.4030842917,-0.1627883847921835,-0.1901821923969566,-1.007724710151661,191340.4030842917,0.2987272600285376,1.891301665119056,-1.245252377257752,-0.1745218485593796,-0.1774069219827652,-0.9718851447105408,-0.1724339127540588,0.120027981698513,-0.01610358990728855,XTrueNorthZVertical,0.4355033513600867,-0.6005967919948477,0.3968715023243574,-0.5404750556230927,0.3035374283790588,0.9474769234657288,0.1007593497633934,16.56171798706055,34.46439743041992,25.97319412231445,2,192.168.1.8,10.83.46.32,1,0
2015-03-01 17:33:09.392,116,1425259905.684141,37.77925986443586,-122.4387226084831,56.32411,-1,-1,10,65,-9999,1425259989.364752,7.759822845458984,38.4217529296875,22.14250183105469,358.0953674316406,344.3182678222656,10,191340.4781639167,-0.0661468505859375,1.050827026367188,0.02093505859375,191340.454861875,-0.1954211628933605,-0.2466449359321625,-0.7090008601546722,191340.454861875,0.3730355151175335,1.957372974589269,-1.274424333565529,-0.2071360796689987,-0.2338884472846985,-0.6731207370758057,-0.2146987766027451,0.07567162811756134,-0.06511129438877106,XTrueNorthZVertical,0.449968314936145,-0.5937872057393685,0.4019270048926595,-0.5323531753452053,0.2705001831054688,0.9564023613929749,0.1101094633340836,15.33895874023438,34.88264465332031,26.16504859924316,2,192.168.1.8,10.83.46.32,2,0
2015-03-01 17:33:09.445,117,1425259905.684141,37.77925986443586,-122.4387226084831,56.32411,-1,-1,10,65,-9999,1425259989.417586,6.276313781738281,38.40472412109375,22.69168090820312,359.81298828125,346.035888671875,10,191340.5271854167,0.0123291015625,0.99163818359375,0.0904541015625,191340.506639,-0.4805884576774102,-0.2246493558569801,-0.8754007577011121,191340.454861875,0.3730355151175335,1.957372974589269,-1.274424333565529,-0.2071360796689987,-0.2338884472846985,-0.6731207370758057,-0.2146987766027451,0.07567162811756134,-0.06511129438877106,XTrueNorthZVertical,0.449968314936145,-0.5937872057393685,0.4019270048926595,-0.5323531753452053,0.2705001831054688,0.9564023613929749,0.1101094633340836,15.33895874023438,34.88264465332031,26.16504859924316,2,192.168.1.8,10.83.46.32,2,0
2015-03-01 17:33:09.491,118,1425259905.684141,37.77925986443586,-122.4387226084831,56.32411,-1,-1,10,65,-9999,1425259989.468552,4.946277618408203,38.33676147460938,23.32406616210938,1.321303367614746,347.544189453125,10,191340.57623225,-0.0182647705078125,0.8921356201171875,0.1171722412109375,191340.5584166667,-0.6619140415531992,0.5029582118857487,-0.887327724643032,191340.5584166667,0.6748554205652078,2.245978047090046,-1.326660166812253,-0.673626184463501,0.5157216787338257,-0.8514655828475952,-0.1758355349302292,-0.05069927498698235,-0.03012677095830441,XTrueNorthZVertical,0.4867139976395709,-0.5819373511611851,0.4107835133449587,-0.5056829636220027,0.1886834353208542,0.9703465104103088,0.1510831862688065,12.7845983505249,35.07839584350586,27.25348281860352,2,192.168.1.8,10.83.46.32,2,0
2015-03-01 17:33:09.530,119,1425259905.684141,37.77925986443586,-122.4387226084831,56.32411,-1,-1,10,65,-9999,1425259989.521552,3.070579528808594,37.623046875,24.3558349609375,4.076491355895996,350.2993774414062,10,191340.62535425,-0.0712890625,0.9956207275390625,0.22528076171875,191340.6101945833,-0.9926759857799505,-0.2356452816818083,-0.8986685298290255,191340.6101945833,0.9292309539903435,2.505341388323357,-1.325036800952107,-1.004387974739075,-0.2228819131851196,-0.8628067374229431,-0.2259054332971573,-0.03098797425627708,-0.02398030832409859,XTrueNorthZVertical,0.5075606393935588,-0.5832888894036498,0.4118043667920921,-0.4822586267097465,0.1445608288049698,0.9699528217315674,0.1956874579191208,10.85976123809814,34.64353942871094,28.61088752746582,2,192.168.1.8,10.83.46.32,2,0
2015-03-01 17:33:09.591,120,1425259905.684141,37.77925986443586,-122.4387226084831,56.32411,-1,-1,10,65,-9999,1425259989.572169,1.535911560058594,37.01129150390625,25.48746490478516,6.516402244567871,352.7392883300781,10,191340.6744277917,-0.19158935546875,1.098068237304688,0.3050384521484375,191340.6619714167,-0.6404012925836482,-0.5519766212258562,-0.3873527858103901,191340.6619714167,1.127498831929262,2.669105822659404,-1.30428753956591,-0.6521126627922058,-0.5392125248908997,-0.35149285197258,-0.2228547185659409,0.08579509705305099,0.02543831616640091,XTrueNorthZVertical,0.5329679392149165,-0.5772351193446673,0.3993292638646533,-0.4725260654120729,0.1198578923940659,0.9646962285041809,0.2345104217529297,9.809097290039062,33.42680358886719,30.38293266296387,2,192.168.1.8,10.83.46.32,2,0
2015-03-01 17:33:09.628,121,1425259905.684141,37.77925986443586,-122.4387226084831,56.32411,-1,-1,10,65,-9999,1425259989.62458,1.160774230957031,36.02569580078125,27.05178451538086,6.244612693786621,352.4674987792969,10,191340.7233159167,-0.1401214599609375,1.019989013671875,0.25048828125,191340.713749375,-0.1094236965530667,0.01179274362297987,-0.0747173812271541,191340.6619714167,1.127498831929262,2.669105822659404,-1.30428753956591,-0.6521126627922058,-0.5392125248908997,-0.35149285197258,-0.2228547185659409,0.08579509705305099,0.02543831616640091,XTrueNorthZVertical,0.5329679392149165,-0.5772351193446673,0.3993292638646533,-0.4725260654120729,0.1198578923940659,0.9646962285041809,0.2345104217529297,9.809097290039062,33.42680358886719,30.38293266296387,2,192.168.1.8,10.83.46.32,2,0
2015-03-01 17:33:09.688,122,1425259905.684141,37.77925986443586,-122.4387226084831,56.32411,-1,-1,10,65,-9999,1425259989.676228,1.177825927734375,35.8048095703125,27.53438949584961,6.996199607849121,353.2190856933594,10,191340.7725842083,-0.0676422119140625,0.94073486328125,0.2413330078125,191340.7655269583,0.02858077850262138,0.1609619889166072,0.1536790422835675,191340.7655269583,1.24248896230467,2.781549658973896,-1.297737471870051,0.01688774302601814,0.1737568825483322,0.1894737780094147,-0.1839091628789902,-0.01345708779990673,-0.007986665703356266,XTrueNorthZVertical,0.5442439553416216,-0.5744491815204327,0.4004008635171673,-0.4620451862401188,0.09501145780086517,0.9629504680633545,0.2523866891860962,9.890737533569336,32.64990615844727,31.19052696228027,2,192.168.1.8,10.83.46.32,2,0
2015-03-01 17:33:09.726,123,1425259905.684141,37.77925986443586,-122.4387226084831,56.32411,-1,-1,10,65,-9999,1425259989.676228,1.177825927734375,35.8048095703125,27.53438949584961,6.996199607849121,353.2190856933594,10,191340.821485625,-0.023681640625,0.9592437744140625,0.2156829833984375,191340.7655269583,0.02858077850262138,0.1609619889166072,0.1536790422835675,191340.7655269583,1.24248896230467,2.781549658973896,-1.297737471870051,0.01688774302601814,0.1737568825483322,0.1894737780094147,-0.1839091628789902,-0.01345708779990673,-0.007986665703356266,XTrueNorthZVertical,0.5442439553416216,-0.5744491815204327,0.4004008635171673,-0.4620451862401188,0.09501145780086517,0.9629504680633545,0.2523866891860962,9.890737533569336,32.64990615844727,31.19052696228027,2,192.168.1.8,10.83.46.32,2,0
2015-03-01 17:33:09.784,124,1425259905.684141,37.77925986443586,-122.4387226084831,56.32411,-1,-1,10,65,-9999,1425259989.779803,1.228981018066406,35.7198486328125,27.58431243896484,8.595808982849121,354.8186950683594,10,191340.8705199583,-0.0310821533203125,1.003814697265625,0.2912445068359375,191340.869081875,0.3049780175009311,-0.134607346769183,-0.7090575854858909,191340.8173040833,1.244095107722398,2.790708927697743,-1.299487500580227,0.04905012622475624,0.1404076814651489,0.2134622782468796,-0.09495457261800766,-0.03603754192590714,-0.01477072760462761,XTrueNorthZVertical,0.5426627181183494,-0.5756291237583309,0.4031315432664884,-0.4600578178637416,0.09211643785238266,0.9634209871292114,0.2516634166240692,8.649444580078125,32.90519714355469,31.29100799560547,2,192.168.1.8,10.83.46.32,2,0
2015-03-01 17:33:09.824,125,1425259905.684141,37.77925986443586,-122.4387226084831,56.32411,-1,-1,10,65,-9999,1425259989.779803,1.228981018066406,35.7198486328125,27.58431243896484,8.595808982849121,354.8186950683594,10,191340.9195559583,-0.124664306640625,0.972686767578125,0.1502532958984375,191340.920859625,0.2655107690942838,0.05993337506779722,-1.041718363569869,191340.869081875,1.331329013639241,2.880059395671708,-1.319812148566321,0.2933070957660675,-0.1217735260725021,-0.6733523011207581,-0.1281195282936096,0.04013585671782494,0.006624546367675066,XTrueNorthZVertical,0.5466258862784573,-0.5667062683956879,0.4144234711969208,-0.4563959717622046,0.06421571969985962,0.9686684608459473,0.2399117052555084,8.229243278503418,33.1834602355957,31.10995864868164,2,192.168.1.8,10.83.46.32,2,0
2015-03-01 17:33:09.884,126,1425259905.684141,37.77925986443586,-122.4387226084831,56.32411,-1,-1,10,65,-9999,1425259989.831572,0.2911300659179688,36.042724609375,27.43453598022461,10.25086879730225,356.4737548828125,10,191340.9685027083,-0.0935516357421875,0.9108123779296875,0.200164794921875,191340.920859625,0.2655107690942838,0.05993337506779722,-1.041718363569869,191340.920859625,1.492757939888749,3.041372211760445,-1.341240256877799,0.2538403272628784,0.07276774197816849,-1.006014466285706,-0.147430807352066,-0.001080737565644085,-0.07614991068840027,XTrueNorthZVertical,0.5541271995474053,-0.5533033971876155,0.4290377972858595,-0.4502498379686969,0.02276650443673134,0.9737675189971924,0.2264032065868378,6.963578224182129,33.88424682617188,30.66037750244141,2,192.168.1.8,10.83.46.32,2,0
2015-03-01 17:33:09.922,127,1425259905.684141,37.77925986443586,-122.4387226084831,56.32411,-1,-1,10,65,-9999,1425259989.884094,-1.431106567382812,36.63751220703125,26.75223159790039,13.25990200042725,359.4827880859375,10,191341.0176272083,-0.253143310546875,0.901519775390625,0.1485443115234375,191340.9726366667,0.2256267359770392,-0.2566530953086803,-1.155975697501429,191340.9726366667,1.764570690370761,-2.98691736308795,-1.351500906110823,0.2139564007520676,-0.2438188642263412,-1.120272159576416,-0.06003731861710548,-0.0652385875582695,-0.01477980334311724,XTrueNorthZVertical,0.5699879882906685,-0.5315881793019583,0.4427855515294844,-0.4432477940112756,-0.03351431712508202,0.9760509729385376,0.21494460105896,4.820065498352051,34.71796417236328,30.13506317138672,2,192.168.1.8,10.83.46.32,2,0
2015-03-01 17:33:09.981,128,1425259905.684141,37.77925986443586,-122.4387226084831,56.32411,-1,-1,10,65,-9999,1425259989.934761,-3.5455322265625,36.5015869140625,27.01849746704102,16.40092086791992,2.623806715011597,10,191341.0665722917,-0.307098388671875,0.9402008056640625,0.1249847412109375,191341.0761922083,-0.4626965425259308,-0.360662585365616,-1.100739605964314,191341.0244144167,1.971350083498097,-2.795209493731444,-1.342996530466994,-0.1409251540899277,-0.236128032207489,-0.9510266184806824,-0.1764729619026184,-0.07264585793018341,-0.06387709826231003,XTrueNorthZVertical,0.583674041659256,-0.515301190614175,0.450948158722316,-0.4363885939137984,-0.07667034119367599,0.9741656184196472,0.2124214023351669,3.510966539382935,35.14340209960938,29.82124519348145,2,192.168.1.8,10.83.46.32,2,0
2015-03-01 17:33:10.022,129,1425259905.684141,37.77925986443586,-122.4387226084831,56.32411,-1,-1,10,65,-9999,1425259989.98643,-5.318916320800781,36.127685546875,27.01849746704102,19.45980072021484,5.682687282562256,10,191341.115592,-0.355072021484375,0.852142333984375,0.218048095703125,191341.0761922083,-0.4626965425259308,-0.360662585365616,-1.100739605964314,191341.0761922083,2.141987139591196,-2.644774421443572,-1.307630297422427,-0.4743666648864746,-0.347828596830368,-1.065036654472351,-0.1831082850694656,-0.0253704059869051,-0.1037040650844574,XTrueNorthZVertical,0.6036219558367363,-0.4999849355998215,0.4538286731189238,-0.4239045703558041,-0.1239901036024094,0.9655712246894836,0.2286888062953949,2.302321434020996,35.06719589233398,30.02803993225098,2,192.168.1.8,10.83.46.32,2,0
2015-03-01 17:33:10.079,130,1425259905.684141,37.77925986443586,-122.4387226084831,56.32411,-1,-1,10,65,-9999,1425259990.039179,-6.359085083007812,35.1251220703125,27.43453598022461,20.93572998046875,7.158616065979004,10,191341.164728,-0.419708251953125,0.89373779296875,0.3033447265625,191341.1279690417,-0.8998110259366695,-0.1755547801096964,-1.074048073938995,191341.1279690417,2.236719858667468,-2.565234117551561,-1.249276686099115,-0.9114810228347778,-0.1627209335565567,-1.038345575332642,-0.2306612730026245,-0.1014357358217239,-0.04257658869028091,XTrueNorthZVertical,0.6268151888537294,-0.4894709479947168,0.4524549409155107,-0.4034914958718521,-0.172216534614563,0.9487562775611877,0.2649581730365753,0.6028265953063965,34.15615463256836,31.13977813720703,2,192.168.1.8,10.83.46.32,2,0
2015-03-01 17:33:10.118,131,1425259905.684141,37.77925986443586,-122.4387226084831,56.32411,-1,-1,10,65,-9999,1425259990.091096,-7.29693603515625,33.95260620117188,28.28326797485352,22.7599925994873,8.982878684997559,10,191341.2136364584,-0.5099029541015625,0.9293365478515625,0.399810791015625,191341.1797468333,-0.848672740368859,-0.0875596766357342,-0.9161207570845328,191341.1797468333,2.28228179805584,-2.530697948252205,-1.183883767220112,-0.8603426218032837,-0.07472594082355499,-0.8804185390472412,-0.1738978922367096,-0.0005413494654931128,0.01522535551339388,XTrueNorthZVertical,0.6496157865677854,-0.4822258842573934,0.4485423319717598,-0.3798252934334075,-0.2164371907711029,0.9260784387588501,0.309084951877594,-8.908225059509277,32.99779891967773,27.04331207275391,2,192.168.1.8,10.83.46.32,2,0
2015-03-01 17:33:10.177,132,1425259905.684141,37.77925986443586,-122.4387226084831,56.32411,-1,-1,10,65,-9999,1425259990.142443,-8.524665832519531,32.695068359375,29.74773406982422,25.3307991027832,11.55368614196777,10,191341.2627768333,-0.4337310791015625,0.9686279296875,0.41033935546875,191341.2315247917,-0.4043315030240813,-0.01305295145080537,-0.5750766142050945,191341.2315247917,2.306752372483425,-2.51070155012755,-1.137327648695396,-0.4160012602806091,-0.0002193411637563258,-0.5393747091293335,-0.2601943016052246,0.0374625138938427,0.08804766088724136,XTrueNorthZVertical,0.6645361519245652,-0.4774679672032109,0.4465097341291649,-0.3620014518152831,-0.2477555274963379,0.9075142741203308,0.3391679227352142,-10.04245662689209,31.62047958374023,28.26386642456055,2,192.168.1.8,10.83.46.32,2,0
2015-03-01 17:33:10.216,133,1425259905.684141,37.77925986443586,-122.4387226084831,56.32411,-1,-1,10,65,-9999,1425259990.194628,-9.42840576171875,31.65847778320312,30.33019256591797,29.03888702392578,15.26177310943604,10,191341.3116995,-0.4587249755859375,0.8422088623046875,0.3625946044921875,191341.2833017917,-0.01931271159303662,-0.05760603859117698,-0.02542200313367839,191341.2833017917,2.313169464549031,-2.505257379433885,-1.123514514433623,-0.03098234161734581,-0.04477256909012794,0.01027945056557655,-0.1874191462993622,-0.0220942310988903,0.05806590616703033,XTrueNorthZVertical,0.6688006188627912,-0.4760646607706474,0.4459871445333417,-0.3566000400917213,-0.2570236027240753,0.9016261100769043,0.347863644361496,-10.81379699707031,30.73683547973633,28.94582176208496,2,192.168.1.8,10.83.46.32,2,0
2015-03-01 17:33:10.275,134,1425259905.684141,37.77925986443586,-122.4387226084831,56.32411,-1,-1,10,65,-9999,1425259990.246163,-9.820594787597656,31.33560180664062,30.94592666625977,30.02566528320312,16.24855041503906,10,191341.3607323334,-0.408599853515625,0.8667449951171875,0.3708648681640625,191341.335079375,0.1996172395068893,-0.08827979539449163,0.1902442440503554,191341.335079375,2.304192680217196,-2.515811343095876,-1.132111377336633,0.1879477202892303,-0.07544644922018051,0.2259453386068344,-0.2297422587871552,-0.03554477915167809,0.005118876229971647,XTrueNorthZVertical,0.6665579663821112,-0.4773167564915134,0.4448182885534815,-0.3605632154028782,-0.2487886250019073,0.9053109884262085,0.3442616164684296,-10.65460681915283,30.78993034362793,28.94842720031738,2,192.168.1.8,10.83.46.32,2,0
2015-03-01 17:33:10.314,135,1425259905.684141,37.77925986443586,-122.4387226084831,56.32411,-1,-1,10,65,-9999,1425259990.298535,-9.513671875,31.50552368164062,31.07905578613281,29.30154037475586,15.52442741394043,10,191341.40975275,-0.4655914306640625,0.9064788818359375,0.3146209716796875,191341.386857125,0.1245081072833845,-0.0384525840313271,0.3787185512402442,191341.386857125,2.330169625194146,-2.484132820418579,-1.131475240310402,0.112856462597847,-0.02558133937418461,0.4143315851688385,-0.1672502458095551,-0.01263035275042057,-0.001139229163527489,XTrueNorthZVertical,0.6658287845239514,-0.47434628765984,0.4506474718540106,-0.3585867201983637,-0.2599195539951324,0.9050406217575073,0.3366647362709045,-10.87851333618164,30.91326141357422,28.73290824890137,2,192.168.1.8,10.83.46.32,2,0
2015-03-01 17:33:10.373,136,1425259905.684141,37.77925986443586,-122.4387226084831,56.32411,-1,-1,10,65,-9999,1425259990.349868,-8.916854858398438,31.76040649414062,30.96256256103516,28.03025436401367,14.25314044952393,10,191341.4588022917,-0.3933868408203125,0.915771484375,0.3470458984375,191341.4386341667,0.2315432146547592,-0.05697060835508407,0.4976454718271497,191341.4386341667,2.317907186509959,-2.496018347543392,-1.146135658798767,0.2199128717184067,-0.04411083459854126,0.5332788228988647,-0.1650894433259964,-0.00617981469258666,-0.001215087599121034,XTrueNorthZVertical,0.6613689777609184,-0.4765910707501064,0.4500849853889154,-0.3645208953853665,-0.2478896826505661,0.9111785888671875,0.3290959596633911,-10.8442268371582,31.21550750732422,28.41736221313477,2,192.168.1.8,10.83.46.32,2,0
2015-03-01 17:33:10.412,137,1425259905.684141,37.77925986443586,-122.4387226084831,56.32411,-1,-1,10,65,-9999,1425259990.402465,-7.979011535644531,32.32119750976562,30.71294403076172,25.90792083740234,12.1308069229126,10,191341.507835375,-0.392181396484375,0.943145751953125,0.348663330078125,191341.4904121667,0.2090301823797744,-0.1786725427978521,0.6218558377006633,191341.4904121667,2.27599499553311,-2.536252715085181,-1.170753275944367,0.1974014341831207,-0.165808841586113,0.6574802398681641,-0.2122049033641815,0.03484261408448219,0.01171565242111683,XTrueNorthZVertical,0.6531847225905295,-0.4831945769347273,0.4467327010907913,-0.3745698379203449,-0.221617728471756,0.9210442304611206,0.3202545642852783,-10.1153678894043,31.71413803100586,28.13262557983398,2,192.168.1.8,10.83.46.32,2,0
2015-03-01 17:33:10.471,138,1425259905.684141,37.77925986443586,-122.4387226084831,56.32411,-1,-1,10,65,-9999,1425259990.453152,-6.717170715332031,33.20486450195312,30.34682846069336,22.86484909057617,9.087735176086426,10,191341.5568788333,-0.3758087158203125,0.974151611328125,0.2828521728515625,191341.5421897084,0.1535501452868076,-0.1128040469247043,0.9371040696293761,191341.5421897084,2.19638503847048,-2.61739944053923,-1.199895639433189,0.1419220715761185,-0.09993913769721985,0.9727249145507812,-0.1898476183414459,-0.002527388045564294,0.01081290282309055,XTrueNorthZVertical,0.6432034287557002,-0.4931358917785712,0.4386473833506295,-0.3881942365165342,-0.1814139783382416,0.9320012927055359,0.3137873113155365,-8.942350387573242,32.25098037719727,27.91882133483887,2,192.168.1.8,10.83.46.32,2,0
2015-03-01 17:33:10.511,139,1425259905.684141,37.77925986443586,-122.4387226084831,56.32411,-1,-1,10,65,-9999,1425259990.506077,-4.568641662597656,33.6806640625,30.04727554321289,18.86025619506836,5.083141803741455,10,191341.6059050417,-0.2983551025390625,0.98681640625,0.3799285888671875,191341.5939669167,0.2320366984047509,-0.2752073386232624,1.12943729723879,191341.5421897084,2.19638503847048,-2.61739944053923,-1.199895639433189,0.1419220715761185,-0.09993913769721985,0.9727249145507812,-0.1898476183414459,-0.002527388045564294,0.01081290282309055,XTrueNorthZVertical,0.6432034287557002,-0.4931358917785712,0.4386473833506295,-0.3881942365165342,-0.1814139783382416,0.9320012927055359,0.3137873113155365,-8.942350387573242,32.25098037719727,27.91882133483887,2,192.168.1.8,10.83.46.32,2,0
2015-03-01 17:33:10.572,140,1425259905.684141,37.77925986443586,-122.4387226084831,56.32411,-1,-1,10,65,-9999,1425259990.557622,-2.624732971191406,34.08853149414062,29.31504058837891,15.51594543457031,1.738831639289856,10,191341.6549614167,-0.2960052490234375,1.01739501953125,0.298370361328125,191341.6457445417,0.2324942294800265,-0.1293494678290396,1.334923344839887,191341.6457445417,1.884404720207142,-2.927442640262075,-1.263210260982541,0.2208663821220398,-0.1164848133921623,1.370543599128723,-0.2379505187273026,0.01562177855521441,-0.008886081166565418,XTrueNorthZVertical,0.6119689696979336,-0.5228913981465975,0.4149619931656842,-0.424128589943491,-0.06434134393930435,0.9530671834945679,0.2958428561687469,-4.687413692474365,33.59884262084961,27.36233901977539,2,192.168.1.8,10.83.46.32,2,0
2015-03-01 17:33:10.609,141,1425259905.684141,37.77925986443586,-122.4387226084831,56.32411,-1,-1,10,65,-9999,1425259990.557622,-2.624732971191406,34.08853149414062,29.31504058837891,15.51594543457031,1.738831639289856,10,191341.7041019167,-0.160308837890625,1.020217895507812,0.351531982421875,191341.6975225,0.2285359731518417,-0.07298712546692962,1.453382081707156,191341.6457445417,1.884404720207142,-2.927442640262075,-1.263210260982541,0.2208663821220398,-0.1164848133921623,1.370543599128723,-0.2379505187273026,0.01562177855521441,-0.008886081166565418,XTrueNorthZVertical,0.6119689696979336,-0.5228913981465975,0.4149619931656842,-0.424128589943491,-0.06434134393930435,0.9530671834945679,0.2958428561687469,-4.687413692474365,33.59884262084961,27.36233901977539,2,192.168.1.8,10.83.46.32,2,0
2015-03-01 17:33:10.672,142,1425259905.684141,37.77925986443586,-122.4387226084831,56.32411,-1,-1,10,65,-9999,1425259990.609485,-0.3909378051757812,33.76565551757812,29.13198471069336,11.70921230316162,357.9320983886719,10,191341.7530495833,-0.1566314697265625,0.9554290771484375,0.313446044921875,191341.749299375,0.3838448700225377,-0.1567355522666514,1.532279826897408,191341.6975225,1.654373243030434,3.124886559330186,-1.279746575813663,0.2169082313776016,-0.06012259796261787,1.489001870155334,-0.1860223561525345,0.09477594494819641,0.09914489835500717,XTrueNorthZVertical,0.5937777278080245,-0.5393392905066404,0.3992562822037596,-0.4439994498916756,0.004793720319867134,0.9579431414604187,0.2869177162647247,-2.426868438720703,34.07528305053711,27.0654239654541,2,192.168.1.8,10.83.46.32,2,0
2015-03-01 17:33:10.707,143,1425259905.684141,37.77925986443586,-122.4387226084831,56.32411,-1,-1,10,65,-9999,1425259990.660935,2.303245544433594,34.03756713867188,28.93227767944336,7.410719871520996,353.6336059570312,10,191341.8020845834,-0.0315399169921875,1.005889892578125,0.1795806884765625,191341.749299375,0.3838448700225377,-0.1567355522666514,1.532279826897408,191341.749299375,1.374387118201311,2.854785007557389,-1.28204431496437,0.3722172379493713,-0.1438711434602737,1.567899346351624,-0.2672311067581177,-0.0446900837123394,-0.01575415953993797,XTrueNorthZVertical,0.5692853764955694,-0.5589957397672805,0.3848756446400964,-0.4640135902121231,0.08055508881807327,0.9585999846458435,0.2731241583824158,0.7997323274612427,34.51841735839844,26.59683036804199,2,192.168.1.8,10.83.46.32,2,0
2015-03-01 17:33:10.773,144,1425259905.684141,37.77925986443586,-122.4387226084831,56.32411,-1,-1,10,65,-9999,1425259990.766484,8.441909790039062,33.79965209960938,27.50109100341797,356.408203125,342.631103515625,10,191341.85112425,0.020294189453125,1.061141967773438,0.3286590576171875,191341.8528549167,0.5220530769016168,0.1617321751038581,1.783312587041585,191341.8010772917,1.075941178042406,2.570707291683867,-1.264855219772952,0.3969098925590515,0.06877095997333527,1.907431721687317,-0.1679749935865402,0.03366447240114212,-0.01327050291001797,XTrueNorthZVertical,0.5395058505409632,-0.5793511278461803,0.370695435241519,-0.4856650624606188,0.1627564877271652,0.953563928604126,0.25342857837677,3.383508682250977,34.82963180541992,25.98077011108398,2,192.168.1.8,10.83.46.32,2,0
2015-03-01 17:33:10.805,145,1425259905.684141,37.77925986443586,-122.4387226084831,56.32411,-1,-1,10,65,-9999,1425259990.766484,8.441909790039062,33.79965209960938,27.50109100341797,356.408203125,342.631103515625,10,191341.9002744583,0.0555877685546875,0.8994598388671875,0.1820220947265625,191341.8528549167,0.5220530769016168,0.1617321751038581,1.783312587041585,191341.8528549167,0.8157994967352498,2.322749329228923,-1.221707135159457,0.5104256868362427,0.1745963096618652,1.818931341171265,-0.229518249630928,0.1214573308825493,0.09502170979976654,XTrueNorthZVertical,0.5076815324280267,-0.5992312862125536,0.3536398090248044,-0.5080552759659369,0.249812439084053,0.9396846294403076,0.233637347817421,6.30524206161499,34.88892364501953,25.3487434387207,2,192.168.1.8,10.83.46.32,2,0
2015-03-01 17:33:10.873,146,1425259905.684141,37.77925986443586,-122.4387226084831,56.32411,-1,-1,10,65,-9999,1425259990.817105,11.44302368164062,33.22189331054688,26.83542633056641,352.0785217285156,338.3014221191406,10,191341.9491990417,-0.0447540283203125,1.041915893554688,0.14971923828125,191341.9564097083,0.405969613410589,-0.3405155054030575,1.72770045715855,191341.9046320833,0.5853819577696362,2.119398234417155,-1.158089523582955,0.5864209532737732,0.03601593524217606,2.195371627807617,-0.2866442203521729,-0.0165786687284708,-0.02714435383677483,XTrueNorthZVertical,0.4669171265011843,-0.6217488408620846,0.3388713822072063,-0.5297007767559474,0.3422319889068604,0.9160385131835938,0.2091664522886276,10.04712772369385,34.73632431030273,24.3309440612793,2,192.168.1.8,10.83.46.32,2,0
2015-03-01 17:33:10.903,147,1425259905.684141,37.77925986443586,-122.4387226084831,56.32411,-1,-1,10,65,-9999,1425259990.868697,14.49530029296875,32.45718383789062,26.25296783447266,347.8864135742188,334.1093139648438,10,191341.9983210417,0.5387115478515625,1.025909423828125,0.141998291015625,191341.9564097083,0.405969613410589,-0.3405155054030575,1.72770045715855,191341.9564097083,0.4397599314201105,1.972896452425153,-1.081237440879659,0.394342452287674,-0.3276515901088715,1.763318538665771,-0.4774850010871887,0.1593755185604095,-0.03430867940187454,XTrueNorthZVertical,0.4330607981482768,-0.635981370229713,0.3157699299370068,-0.555225489223826,0.4327309727668762,0.8825403451919556,0.1840279102325439,13.42730331420898,34.17722702026367,23.47715187072754,2,192.168.1.8,10.83.46.32,2,0
2015-03-01 17:33:10.973,148,1425259905.684141,37.77925986443586,-122.4387226084831,56.32411,-1,-1,10,65,-9999,1425259990.9219,17.70104598999023,31.33566284179688,25.85357284545898,342.3364868164062,328.5593872070312,10,191342.047253125,0.89276123046875,0.80157470703125,0.43463134765625,191342.0081874584,0.3727426840702154,1.313383165311108,2.149604029687192,191342.0081874584,0.3205615802464904,1.916246054248038,-0.9846298040629592,0.3611156344413757,1.326246857643127,2.185221672058105,-0.01284722611308098,0.2222915142774582,-0.07664284855127335,XTrueNorthZVertical,0.3833875792594729,-0.6683347855333396,0.3008618813205871,-0.561982791188706,0.520491898059845,0.8330673575401306,0.1873148381710052,16.34488677978516,33.2922477722168,22.89154243469238,2,192.168.1.8,10.83.46.32,2,0
