loggingTime,loggingSample,locationTimestamp_since1970,locationLatitude,locationLongitude,locationAltitude,locationSpeed,locationCourse,locationVerticalAccuracy,locationHorizontalAccuracy,locationFloor,locationHeadingTimestamp_since1970,locationHeadingX,locationHeadingY,locationHeadingZ,locationTrueHeading,locationMagneticHeading,locationHeadingAccuracy,accelerometerTimestamp_sinceReboot,accelerometerAccelerationX,accelerometerAccelerationY,accelerometerAccelerationZ,gyroTimestamp_sinceReboot,gyroRotationX,gyroRotationY,gyroRotationZ,motionTimestamp_sinceReboot,motionYaw,motionRoll,motionPitch,motionRotationRateX,motionRotationRateY,motionRotationRateZ,motionUserAccelerationX,motionUserAccelerationY,motionUserAccelerationZ,motionAttitudeReferenceFrame,motionQuaternionX,motionQuaternionY,motionQuaternionZ,motionQuaternionW,motionGravityX,motionGravityY,motionGravityZ,motionMagneticFieldX,motionMagneticFieldY,motionMagneticFieldZ,motionMagneticFieldCalibrationAccuracy,IP_en0,IP_pdp_ip0,deviceOrientation,state
2015-02-27 20:21:57.532,1,1425097314.362859,37.78780779820939,-122.3968290936715,12.38874,-1,-1,10,65,-9999,1425097317.500501,-13.94538116455078,-24.67832946777344,-10.60242462158203,117.913330078125,104.1400375366211,25,139344.7970390417,0.0688323974609375,-0.8479156494140625,-0.53277587890625,139344.759399,0.08679614835120848,0.05538469592594188,-0.103080845784825,139344.759399,-2.382650025650086,-0.03227907211158679,1.031386051966462,0.08042876422405243,0.06570573151111603,-0.06567143648862839,0.02000985108315945,-0.02060460112988949,-0.0112956939265132,XTrueNorthZVertical,-0.1696077906074915,0.4631975200179985,0.8109062482655255,-0.3148210480989821,-0.01657662354409695,-0.8580117225646973,-0.5133625268936157,-17.78449058532715,-4.010037899017334,-19.13546180725098,1,10.3.35.51,10.83.46.32,1,0
2015-02-27 20:21:57.567,2,1425097314.362859,37.78780779820939,-122.3968290936715,12.38874,-1,-1,10,65,-9999,1425097317.555642,-14.11591339111328,-24.91622924804688,-10.60242462158203,117.8178329467773,104.0445404052734,25,139344.8460807917,-0.011962890625,-0.860504150390625,-0.5031585693359375,139344.8111794167,0.05212951412553803,-0.2910305102399682,-0.01598775497207269,139344.8111794167,-2.387186011483344,-0.03175178492699791,1.033986879808204,0.04575297981500626,-0.2806949317455292,0.02139722183346748,0.05599943548440933,0.004074305295944214,-0.0005797210615128279,XTrueNorthZVertical,-0.169196749425639,0.464545956289526,0.810983510725262,-0.3128501890655773,-0.01623503305017948,-0.8593447208404541,-0.5111390352249146,-17.74288940429688,-4.078831672668457,-19.1595287322998,1,10.3.35.51,10.83.46.32,1,0
2015-02-27 20:21:57.597,3,1425097314.362859,37.78780779820939,-122.3968290936715,12.38874,-1,-1,10,65,-9999,1425097317.555642,-14.11591339111328,-24.91622924804688,-10.60242462158203,117.8178329467773,104.0445404052734,25,139344.8951015,-0.0220794677734375,-0.8583831787109375,-0.513031005859375,139344.8629599584,0.02368748631570979,-0.2603285239290987,-0.0264976538979614,139344.8629599584,-2.387579146828592,-0.04595376879797334,1.035546894763159,0.01731051132082939,-0.2499820739030838,0.01086939871311188,0.005684756208211184,0.005695020779967308,0.00568716786801815,XTrueNorthZVertical,-0.1635997353125138,0.4674147672349441,0.8118724745406573,-0.3092274697490486,-0.0234307274222374,-0.8601414561271667,-0.5095171332359314,-18.03339195251465,-4.170754909515381,-18.86626815795898,1,10.3.35.51,10.83.46.32,1,0
2015-02-27 20:21:57.662,4,1425097314.362859,37.78780779820939,-122.3968290936715,12.38874,-1,-1,10,65,-9999,1425097317.629956,-14.30348205566406,-25.03517150878906,-10.21966552734375,118.7210311889648,104.9477386474609,25,139344.9441312917,-0.0154571533203125,-0.870635986328125,-0.5319366455078125,139344.9147405417,-0.01763092536465158,-0.1294485374215905,-0.004040015373650205,139344.9147405417,-2.385776460790836,-0.05561137175141511,1.03546380556019,-0.02400973252952099,-0.1191011741757393,0.03332489356398582,0.001926022232510149,-0.00202253321185708,-0.003509462345391512,XTrueNorthZVertical,-0.1600862030654647,0.4687250671331173,0.8123947173992787,-0.3077076910944443,-0.02835424430668354,-0.8600990772247314,-0.5093384385108948,-18.2016429901123,-4.169009685516357,-18.70438575744629,1,10.3.35.51,10.83.46.32,1,0
2015-02-27 20:21:57.693,5,1425097314.362859,37.78780779820939,-122.3968290936715,12.38874,-1,-1,10,65,-9999,1425097317.681921,-14.33759307861328,-24.72927856445312,-9.853553771972656,119.6131820678711,105.8398895263672,25,139344.993146875,-0.0330047607421875,-0.860076904296875,-0.522247314453125,139344.96652075,-0.07603351543787126,-0.2155133817374633,0.03004045709609381,139344.96652075,-2.382071460171431,-0.06650186674280617,1.03252654438252,-0.08241681754589081,-0.2051621526479721,0.06739822030067444,0.01561926119029522,-0.00459273299202323,-0.01751947589218616,XTrueNorthZVertical,-0.1560358794414788,0.4689283571946243,0.8133457700099465,-0.3069652090064817,-0.03406713902950287,-0.8585969805717468,-0.5115180015563965,-18.27518653869629,-4.140571594238281,-18.63887596130371,1,10.3.35.51,10.83.46.32,1,0
2015-02-27 20:21:57.769,6,1425097314.362859,37.78780779820939,-122.3968290936715,12.38874,-1,-1,10,65,-9999,1425097317.733531,-14.40579986572266,-24.32144165039062,-9.321022033691406,120.568489074707,106.7951965332031,25,139345.0421895,-0.0514678955078125,-0.8606719970703125,-0.52557373046875,139345.0183015,-0.150941046366857,-0.2141346632411292,0.06072033916991564,139345.0183015,-2.375537135400093,-0.08289418238357996,1.025168283841407,-0.1573390364646912,-0.2037799954414368,0.09807106852531433,0.003906603436917067,-0.006099345628172159,-0.009773959405720234,XTrueNorthZVertical,-0.1496382464213853,0.4679977179719335,0.8152307068548693,-0.3065703944768576,-0.04296910390257835,-0.8548015356063843,-0.5171730518341064,-18.56356048583984,-3.912314414978027,-18.40170097351074,1,10.3.35.51,10.83.46.32,1,0
2015-02-27 20:21:57.799,7,1425097314.362859,37.78780779820939,-122.3968290936715,12.38874,-1,-1,10,65,-9999,1425097317.786267,-14.59336090087891,-24.27047729492188,-9.537368774414062,120.4082870483398,106.6349945068359,25,139345.0912128333,-0.0550079345703125,-0.86798095703125,-0.53668212890625,139345.0700817917,-0.2064165560859706,-0.1787313986579429,0.07460472951304374,139345.0700817917,-2.367338806809289,-0.09888364129157115,1.015086177750857,-0.2128205150365829,-0.1683772951364517,0.1119554191827774,0.002306598238646984,-0.01332798600196838,-0.002480923663824797,XTrueNorthZVertical,-0.1432716563072489,0.4658201514925374,0.8173469978656589,-0.3072925072796802,-0.05208076909184456,-0.8495259881019592,-0.5249696373939514,-18.73588943481445,-3.676664352416992,-18.27520561218262,1,10.3.35.51,10.83.46.32,1,0
2015-02-27 20:21:57.864,8,1425097314.362859,37.78780779820939,-122.3968290936715,12.38874,-1,-1,10,65,-9999,1425097317.837112,-15.15607452392578,-24.25347900390625,-9.753700256347656,120.2325820922852,106.4592895507812,25,139345.1402697917,-0.0719757080078125,-0.8524322509765625,-0.5250701904296875,139345.1218623334,-0.2248895729873052,-0.1701445683552004,0.07809080737995747,139345.1218623334,-2.358175682952995,-0.114698098897587,1.003592255585365,-0.2312861531972885,-0.1597922295331955,0.1154441013932228,-0.005817008670419455,-0.01885245554149151,-0.003607720602303743,XTrueNorthZVertical,-0.1368835638970695,0.4630226695016851,0.819508759454484,-0.308671786251244,-0.06148951128125191,-0.8434064388275146,-0.5337457656860352,-18.83892059326172,-3.500177383422852,-18.20380020141602,1,10.3.35.51,10.83.46.32,1,0
2015-02-27 20:21:57.894,9,1425097314.362859,37.78780779820939,-122.3968290936715,12.38874,-1,-1,10,65,-9999,1425097317.837112,-15.15607452392578,-24.25347900390625,-9.753700256347656,120.2325820922852,106.4592895507812,25,139345.1892984583,-0.07354736328125,-0.85595703125,-0.5340423583984375,139345.17364275,-0.2398818383439063,-0.1298402884179412,0.06609113614027844,139345.1218623334,-2.358175682952995,-0.114698098897587,1.003592255585365,-0.2312861531972885,-0.1597922295331955,0.1154441013932228,-0.005817008670419455,-0.01885245554149151,-0.003607720602303743,XTrueNorthZVertical,-0.1368835638970695,0.4630226695016851,0.819508759454484,-0.308671786251244,-0.06148951128125191,-0.8434064388275146,-0.5337457656860352,-18.83892059326172,-3.500177383422852,-18.20380020141602,1,10.3.35.51,10.83.46.32,1,0
2015-02-27 20:21:57.948,10,1425097314.362859,37.78780779820939,-122.3968290936715,12.38874,-1,-1,10,65,-9999,1425097317.942577,-15.7869873046875,-24.20249938964844,-10.60242462158203,119.492561340332,105.7192687988281,25,139345.23834425,-0.0847625732421875,-0.82525634765625,-0.5418243408203125,139345.2254232917,-0.228845698786618,-0.1274535634490122,0.06234167164155588,139345.2254232917,-2.343257379426211,-0.1407201973201914,0.9815288897516877,-0.2351815551519394,-0.1171085089445114,0.09970717877149582,0.001775824814103544,-0.01168481167405844,0.008312255144119263,XTrueNorthZVertical,-0.1255883445178163,0.4572726044619665,0.823503036461729,-0.3114033764363318,-0.077947698533535,-0.8313480019569397,-0.5502586364746094,-19.19612312316895,-2.78281307220459,-17.95269775390625,1,10.3.35.51,10.83.46.32,1,0
2015-02-27 20:21:57.989,11,1425097314.362859,37.78780779820939,-122.3968290936715,12.38874,-1,-1,10,65,-9999,1425097317.942577,-15.7869873046875,-24.20249938964844,-10.60242462158203,119.492561340332,105.7192687988281,25,139345.287364875,-0.0941162109375,-0.786224365234375,-0.5528411865234375,139345.2772035833,-0.2241337678699407,-0.09686449516836206,0.04076660470249695,139345.2254232917,-2.343257379426211,-0.1407201973201914,0.9815288897516877,-0.2351815551519394,-0.1171085089445114,0.09970717877149582,0.001775824814103544,-0.01168481167405844,0.008312255144119263,XTrueNorthZVertical,-0.1255883445178163,0.4572726044619665,0.823503036461729,-0.3114033764363318,-0.077947698533535,-0.8313480019569397,-0.5502586364746094,-19.19612312316895,-2.78281307220459,-17.95269775390625,1,10.3.35.51,10.83.46.32,1,0
2015-02-27 20:21:58.046,12,1425097314.362859,37.78780779820939,-122.3968290936715,12.38874,-1,-1,10,65,-9999,1425097317.993618,-15.87224578857422,-24.08355712890625,-10.51921081542969,119.5091400146484,105.7358474731445,25,139345.3364170417,-0.09515380859375,-0.79168701171875,-0.563446044921875,139345.3289842917,-0.1675157620431832,-0.1178054634518731,0.0314079903158495,139345.2772035833,-2.338084570464584,-0.1503848026636256,0.9693134309125034,-0.2307207733392715,-0.08649438619613647,0.07820658385753632,-0.004227304365485907,0.02960604429244995,0.009643875993788242,XTrueNorthZVertical,-0.1204918522440484,0.4535881095017961,0.8257661297337913,-0.312809559370636,-0.08477721363306046,-0.824497401714325,-0.5594790577888489,-19.26789093017578,-2.608832359313965,-17.9018669128418,1,10.3.35.51,10.83.46.32,1,0
2015-02-27 20:21:58.088,13,1425097314.362859,37.78780779820939,-122.3968290936715,12.38874,-1,-1,10,65,-9999,1425097318.045833,-15.51416015625,-23.65872192382812,-10.96852874755859,119.5300674438477,105.7567749023438,25,139345.3854349167,-0.1170196533203125,-0.8055419921875,-0.56005859375,139345.3807645833,-0.09887997548133402,-0.09216002110273708,0.05877117156808664,139345.3289842917,-2.334692465353745,-0.1576745050280894,0.9583324809906697,-0.174106553196907,-0.107436791062355,0.06884975731372833,-0.001130532124079764,0.02673016861081123,0.004307757131755352,XTrueNorthZVertical,-0.1161639146893508,0.4501433592042956,0.8278535817283953,-0.3139033757314108,-0.09026961773633957,-0.8182340860366821,-0.567753791809082,-19.40860366821289,-2.182426452636719,-17.80667304992676,1,10.3.35.51,10.83.46.32,1,0
2015-02-27 20:21:58.145,14,1425097314.362859,37.78780779820939,-122.3968290936715,12.38874,-1,-1,10,65,-9999,1425097318.097724,-15.838134765625,-23.26788330078125,-11.05173492431641,119.4683456420898,105.6950531005859,25,139345.43457675,-0.119171142578125,-0.8128662109375,-0.5761260986328125,139345.4325452083,-0.06896628485312799,0.04030667678224027,0.09573930960780358,139345.4325452083,-2.31856618564815,-0.1777683514314272,0.9455193980965136,-0.07555493712425232,0.05065901577472687,0.1332061439752579,-0.01714671961963177,0.0008034995989874005,0.003755677724257112,XTrueNorthZVertical,-0.1089844901052315,0.4472958557367102,0.8289350623993181,-0.3176719088463689,-0.1035045236349106,-0.8108010292053223,-0.5760976076126099,-19.55809783935547,-1.866655349731445,-17.67854690551758,1,10.3.35.51,10.83.46.32,1,0
2015-02-27 20:21:58.188,15,1425097314.362859,37.78780779820939,-122.3968290936715,12.38874,-1,-1,10,65,-9999,1425097318.148283,-16.19622039794922,-23.25088500976562,-11.06836700439453,118.7141342163086,104.9408416748047,25,139345.4834937083,-0.14300537109375,-0.813629150390625,-0.576629638671875,139345.4325452083,-0.06896628485312799,0.04030667678224027,0.09573930960780358,139345.4325452083,-2.31856618564815,-0.1777683514314272,0.9455193980965136,-0.07555493712425232,0.05065901577472687,0.1332061439752579,-0.01714671961963177,0.0008034995989874005,0.003755677724257112,XTrueNorthZVertical,-0.1089844901052315,0.4472958557367102,0.8289350623993181,-0.3176719088463689,-0.1035045236349106,-0.8108010292053223,-0.5760976076126099,-19.55809783935547,-1.866655349731445,-17.67854690551758,1,10.3.35.51,10.83.46.32,1,0
2015-02-27 20:21:58.243,16,1425097314.362859,37.78780779820939,-122.3968290936715,12.38874,-1,-1,10,65,-9999,1425097318.200495,-16.19622039794922,-23.28488159179688,-10.86867523193359,119.5499801635742,105.7766876220703,25,139345.5325314583,-0.227783203125,-0.82513427734375,-0.5742950439453125,139345.5361061667,-0.1845919509527713,0.2733881332826292,0.1328749604800865,139345.4843255834,-2.304481486289739,-0.1862501008575423,0.9407821449486099,-0.07222987711429596,0.1098384633660316,0.1427496075630188,-0.03390827775001526,-0.005609997548162937,0.002337421290576458,XTrueNorthZVertical,-0.1076796029753337,0.4460062478990973,0.8280446153698281,-0.3222198409205537,-0.1090970933437347,-0.8080191612243652,-0.5789670348167419,-19.54522705078125,-1.536684036254883,-17.7244815826416,1,10.3.35.51,10.83.46.32,1,0
2015-02-27 20:21:58.291,17,1425097314.362859,37.78780779820939,-122.3968290936715,12.38874,-1,-1,10,65,-9999,1425097318.253726,-16.43494415283203,-23.21690368652344,-11.33464050292969,119.4839401245117,105.7106475830078,25,139345.5815569167,-0.271514892578125,-0.7950286865234375,-0.5569915771484375,139345.5361061667,-0.1845919509527713,0.2733881332826292,0.1328749604800865,139345.5361061667,-2.291142782446699,-0.1891054373577172,0.9332633353973755,-0.1911789029836655,0.2836999893188477,0.1704045385122299,-0.115894503891468,-0.02156767621636391,0.0103087704628706,XTrueNorthZVertical,-0.1079490158401017,0.4427698076803193,0.8274432152731083,-0.3280847662909346,-0.111888699233532,-0.803566575050354,-0.5846037864685059,-19.47121047973633,-1.297516822814941,-17.82478332519531,1,10.3.35.51,10.83.46.32,1,0
2015-02-27 20:21:58.341,18,1425097314.362859,37.78780779820939,-122.3968290936715,12.38874,-1,-1,10,65,-9999,1425097318.305243,-16.29853057861328,-22.74110412597656,-12.29985809326172,116.0177001953125,102.2444076538086,25,139345.6306980833,-0.1522674560546875,-0.8070220947265625,-0.5789642333984375,139345.5878865,-0.3043108956478663,1.186677683812299,0.3033012912786173,139345.5878865,-2.272168429282482,-0.1696882453656668,0.9176431195917297,-0.3108910024166107,1.196966648101807,0.3408654034137726,-0.168890580534935,-0.0008571205544285476,0.04197399690747261,XTrueNorthZVertical,-0.1169413612491765,0.4322521605523503,0.8260671130215015,-0.3421927724238588,-0.1026243045926094,-0.7941715717315674,-0.598965585231781,-19.33521270751953,-1.059150695800781,-17.98783493041992,1,10.3.35.51,10.83.46.32,1,0
2015-02-27 20:21:58.391,19,1425097314.362859,37.78780779820939,-122.3968290936715,12.38874,-1,-1,10,65,-9999,1425097318.357456,-16.14507293701172,-21.97640991210938,-13.44812774658203,112.7333526611328,98.96006011962891,25,139345.679601125,-0.038726806640625,-0.8351593017578125,-0.55780029296875,139345.6396670417,-0.1902687451323841,1.619010727801909,0.3362182286681056,139345.6396670417,-2.243635664436249,-0.1153095206552725,0.9016601482569151,-0.1968487948179245,1.629299640655518,0.3737820088863373,-0.08089836686849594,-0.02266430109739304,0.03722509369254112,XTrueNorthZVertical,-0.1420798055251281,0.4143895083273519,0.8204293354041963,-0.367410330347659,-0.07136908918619156,-0.7843577861785889,-0.6161893010139465,-17.63948059082031,-0.1881284713745117,-19.68115425109863,1,10.3.35.51,10.83.46.32,1,0
2015-02-27 20:21:58.439,20,1425097314.362859,37.78780779820939,-122.3968290936715,12.38874,-1,-1,10,65,-9999,1425097318.410298,-16.14507293701172,-21.50059509277344,-14.61305236816406,109.7219772338867,95.94868469238281,25,139345.7286459167,0.090240478515625,-0.795654296875,-0.55303955078125,139345.6914475,0.07789932609758077,1.346777341167938,0.3169220286738275,139345.6914475,-2.21619563286436,-0.06284621739306158,0.8992595222174782,0.0713193342089653,1.35706615447998,0.3544853925704956,0.02783081494271755,-0.05827433988451958,0.0716451033949852,XTrueNorthZVertical,-0.1685885344816961,0.4013690947391956,0.811607616193082,-0.3895815885725682,-0.0390765406191349,-0.7828664183616638,-0.6209614872932434,-16.68312454223633,0.07997894287109375,-20.49881744384766,1,10.3.35.51,10.83.46.32,1,0
2015-02-27 20:21:58.496,21,1425097314.362859,37.78780779820939,-122.3968290936715,12.38874,-1,-1,10,65,-9999,1425097318.460974,-15.99160766601562,-21.27969360351562,-15.79460906982422,106.3611907958984,92.58789825439453,25,139345.777660625,0.113372802734375,-0.7253265380859375,-0.5832672119140625,139345.7432280833,-0.1145681248307728,1.096440465016599,0.3908633647593325,139345.7432280833,-2.185607293058592,-0.02628539279143634,0.8977245470572855,-0.1211480423808098,1.10672914981842,0.4284263253211975,0.1117973923683167,-0.004588584881275892,0.08290748298168182,XTrueNorthZVertical,-0.1890811713878679,0.3907180546772356,0.8025182130642863,-0.4093314195901931,-0.01638418436050415,-0.7819104194641113,-0.6231754422187805,-15.37490749359131,0.2855710983276367,-21.49570083618164,1,10.3.35.51,10.83.46.32,1,0
2015-02-27 20:21:58.537,22,1425097314.362859,37.78780779820939,-122.3968290936715,12.38874,-1,-1,10,65,-9999,1425097318.513734,-15.15606689453125,-20.95684814453125,-17.34228515625,102.598388671875,88.82509613037109,25,139345.826706375,0.129638671875,-0.7510986328125,-0.59423828125,139345.79500875,-0.2445341144521657,0.855934115397069,0.3433469782740298,139345.79500875,-2.152358725077068,-0.001379064933396195,0.8880100657953242,-0.2511139810085297,0.8662226796150208,0.3809096217155457,0.1292575746774673,0.04829391837120056,0.0465143509209156,XTrueNorthZVertical,-0.2033615064038335,0.3783726374298326,0.7949502925815944,-0.4284066505900472,-0.0008701305487193167,-0.7758176922798157,-0.6309564709663391,-13.5231409072876,0.9211311340332031,-22.6894416809082,1,10.3.35.51,10.83.46.32,1,0
2015-02-27 20:21:58.587,23,1425097314.362859,37.78780779820939,-122.3968290936715,12.38874,-1,-1,10,65,-9999,1425097318.564457,-14.86618804931641,-20.09017944335938,-18.32413482666016,99.56509399414062,85.79180145263672,25,139345.8757327917,0.1199951171875,-0.757080078125,-0.61334228515625,139345.8467892083,-0.2388714350263302,0.5356375953060021,0.3648778367389934,139345.8467892083,-2.121115261701783,0.008066732645923304,0.8741406660928959,-0.2454512268304825,0.5459260940551758,0.4024400413036346,0.1138120219111443,0.01325398497283459,0.03467119857668877,XTrueNorthZVertical,-0.2099143416390116,0.3675844313014586,0.789756882412278,-0.4439613752448204,0.005176012869924307,-0.7669923901557922,-0.6416352987289429,-12.95640563964844,1.261574745178223,-23.00161933898926,1,10.3.35.51,10.83.46.32,1,0
2015-02-27 20:21:58.635,24,1425097314.362859,37.78780779820939,-122.3968290936715,12.38874,-1,-1,10,65,-9999,1425097318.616296,-14.91734313964844,-19.52940368652344,-19.07300567626953,97.16768646240234,83.39439392089844,25,139345.9247827083,0.1119842529296875,-0.734527587890625,-0.62518310546875,139345.898569625,-0.177224315797067,0.2953456301542235,0.3537088054433101,139345.898569625,-2.093861716136757,0.008774594263076408,0.8648229874266639,-0.1838045418262482,0.3056575059890747,0.3912366032600403,0.1067493557929993,-0.002401523757725954,0.03957320749759674,XTrueNorthZVertical,-0.2130747911796501,0.3608659194417206,0.7852661745226784,-0.4557761925414024,0.005692662671208382,-0.7609804272651672,-0.648749828338623,-12.33747577667236,1.755708694458008,-23.30748176574707,1,10.3.35.51,10.83.46.32,1,0
2015-02-27 20:21:58.689,25,1425097314.362859,37.78780779820939,-122.3968290936715,12.38874,-1,-1,10,65,-9999,1425097318.667822,-15.44595336914062,-19.17254638671875,-19.35591125488281,96.33265686035156,82.55936431884766,25,139345.973813125,0.0785064697265625,-0.72222900390625,-0.6214141845703125,139345.9503500417,-0.1371860856527068,0.1792488508577453,0.3944871280546033,139345.9503500417,-2.067511991755982,0.004445400191124353,0.8571103974981793,-0.1437850445508957,0.1896043866872787,0.4319538772106171,0.1085096225142479,0.02502760291099548,0.03109822981059551,XTrueNorthZVertical,-0.2143335840715333,0.3560225433068028,0.7810497639811568,-0.4661226346887421,0.002910058712586761,-0.7559541463851929,-0.6546181440353394,-18.9526195526123,1.262975692749023,-27.88083648681641,1,10.3.35.51,10.83.46.32,1,0
2015-02-27 20:21:58.734,26,1425097314.362859,37.78780779820939,-122.3968290936715,12.38874,-1,-1,10,65,-9999,1425097318.719857,-15.87225341796875,-18.57777404785156,-19.50569152832031,95.03272247314453,81.25942993164062,25,139346.0228642084,0.099334716796875,-0.7243499755859375,-0.587982177734375,139346.0021307083,-0.05606779674554721,0.1542769219482903,0.240847500555169,139346.0021307083,-2.045061232171528,-0.002402156515577611,0.8523428527431325,-0.06268683075904846,0.1646867692470551,0.2782385051250458,0.05062289535999298,0.05043200775980949,0.05384917184710503,XTrueNorthZVertical,-0.2145274417372998,0.3533671360015955,0.7773530171301536,-0.4741644352775881,-0.001581148826517165,-0.752824604511261,-0.6582192778587341,-18.68467330932617,1.508761405944824,-28.04896545410156,1,10.3.35.51,10.83.46.32,1,0
2015-02-27 20:21:58.789,27,1425097314.362859,37.78780779820939,-122.3968290936715,12.38874,-1,-1,10,65,-9999,1425097318.770595,-16.55432891845703,-18.71372985839844,-19.90509796142578,94.62804412841797,80.85475158691406,25,139346.071892875,0.014251708984375,-0.7314605712890625,-0.6396942138671875,139346.0539111667,0.01698910354194249,-0.3421480231512761,0.2520250539663406,139346.0539111667,-2.0280052538927,-0.01675623175337228,0.8536743673617481,0.01038271840661764,-0.3316868841648102,0.2893448770046234,0.07213869690895081,-0.01418295223265886,0.04663705453276634,XTrueNorthZVertical,-0.2122999530779086,0.355479616095673,0.7745913192540139,-0.4780912481814585,-0.01101198513060808,-0.7537003755569458,-0.6571259498596191,-18.4569149017334,1.793396949768066,-28.18268585205078,1,10.3.35.51,10.83.46.32,1,0
2015-02-27 20:21:58.831,28,1425097314.362859,37.78780779820939,-122.3968290936715,12.38874,-1,-1,10,65,-9999,1425097318.823068,-16.91241455078125,-18.35690307617188,-19.72202301025391,93.63909149169922,79.86579895019531,25,139346.1210612083,-0.041351318359375,-0.77008056640625,-0.7084808349609375,139346.1056917917,0.08343071168167535,-0.7756435369567061,0.1160645550472883,139346.1056917917,-2.011894628173332,-0.05700446745289559,0.8558235475448226,0.07682414352893829,-0.765177845954895,0.1533775627613068,0.01959048211574554,0.01426636055111885,-0.004556178115308285,XTrueNorthZVertical,-0.2001380417889267,0.3642509930330587,0.7745273981305758,-0.4768367318445517,-0.03735171258449554,-0.7551110982894897,-0.6545319557189941,-19.12958908081055,2.044436454772949,-27.71311950683594,1,10.3.35.51,10.83.46.32,1,0
2015-02-27 20:21:58.891,29,1425097314.362859,37.78780779820939,-122.3968290936715,12.38874,-1,-1,10,65,-9999,1425097318.874152,-17.62858581542969,-18.45884704589844,-19.08963775634766,93.96437072753906,80.19107818603516,25,139346.169980875,-0.2322998046875,-0.976898193359375,-0.6325531005859375,139346.1574720833,0.02994911067070409,-1.495376403672179,-0.1714721541586049,139346.1056917917,-2.011894628173332,-0.05700446745289559,0.8558235475448226,0.07682414352893829,-0.765177845954895,0.1533775627613068,0.01959048211574554,0.01426636055111885,-0.004556178115308285,XTrueNorthZVertical,-0.2001380417889267,0.3642509930330587,0.7745273981305758,-0.4768367318445517,-0.03735171258449554,-0.7551110982894897,-0.6545319557189941,-19.12958908081055,2.044436454772949,-27.71311950683594,1,10.3.35.51,10.83.46.32,1,0
2015-02-27 20:21:58.929,30,1425097314.362859,37.78780779820939,-122.3968290936715,12.38874,-1,-1,10,65,-9999,1425097318.874152,-17.62858581542969,-18.45884704589844,-19.08963775634766,93.96437072753906,80.19107818603516,25,139346.219016375,-0.3388214111328125,-0.89208984375,-0.5780487060546875,139346.2092527083,-0.1700907725011808,-0.4889316087404104,0.1312989017469776,139346.2092527083,-2.015052168801782,-0.1717928675760245,0.8559526391162093,-0.1766972839832306,-0.478466123342514,0.1686111986637115,-0.2280003428459167,-0.1735304892063141,0.05977549776434898,XTrueNorthZVertical,-0.1547952005947051,0.3912969238235006,0.7854302583763421,-0.453899166659041,-0.1120570302009583,-0.7551957368850708,-0.6458503007888794,-21.56186676025391,1.935467720031738,-25.87426948547363,1,10.3.35.51,10.83.46.32,1,0
2015-02-27 20:21:58.990,31,1425097314.362859,37.78780779820939,-122.3968290936715,12.38874,-1,-1,10,65,-9999,1425097318.978033,-19.18030548095703,-18.30589294433594,-18.14105987548828,95.15478515625,81.38149261474609,25,139346.2680342917,-0.2914886474609375,-0.7518310546875,-0.521209716796875,139346.2610331667,-0.3344743907863217,1.549763479453778,0.8177236127088301,139346.2092527083,-2.015052168801782,-0.1717928675760245,0.8559526391162093,-0.1766972839832306,-0.478466123342514,0.1686111986637115,-0.2280003428459167,-0.1735304892063141,0.05977549776434898,XTrueNorthZVertical,-0.1547952005947051,0.3912969238235006,0.7854302583763421,-0.453899166659041,-0.1120570302009583,-0.7551957368850708,-0.6458503007888794,-21.56186676025391,1.935467720031738,-25.87426948547363,1,10.3.35.51,10.83.46.32,1,0
2015-02-27 20:21:59.027,32,1425097314.362859,37.78780779820939,-122.3968290936715,12.38874,-1,-1,10,65,-9999,1425097318.978033,-19.18030548095703,-18.30589294433594,-18.14105987548828,95.15478515625,81.38149261474609,25,139346.3170752917,-0.0231475830078125,-0.703460693359375,-0.5876007080078125,139346.3128137917,-0.1100900194578046,1.459932925356533,1.328443607591615,139346.2610331667,-1.97604707644185,-0.1688802232823899,0.8348292348487423,-0.3412595987319946,1.560237526893616,0.8551039695739746,-0.2477943301200867,-0.03149267286062241,0.1407274007797241,XTrueNorthZVertical,-0.1579399824102149,0.3797077289719784,0.7793494357126338,-0.4727488133854931,-0.1128318831324577,-0.7411819100379944,-0.6617540121078491,-21.93593597412109,2.799175262451172,-25.47777938842773,1,10.3.35.51,10.83.46.32,1,0
2015-02-27 20:21:59.090,33,1425097314.362859,37.78780779820939,-122.3968290936715,12.38874,-1,-1,10,65,-9999,1425097319.081629,-19.69187164306641,-16.53858947753906,-20.50418090820312,89.05154418945312,75.27825164794922,25,139346.36618075,-0.1349639892578125,-0.6385955810546875,-0.6552581787109375,139346.364594125,0.06206470288818764,-0.1197106888957158,1.9013321686451,139346.3128137917,-1.898151543500255,-0.1365566232338898,0.8165610464945464,-0.1168751642107964,1.470406889915466,1.36582362651825,0.03303362429141998,-0.0001627459569135681,0.09710405766963959,XTrueNorthZVertical,-0.1798058837539411,0.3584568144139191,0.7601013536935621,-0.5112968506344362,-0.09321428835391998,-0.7287954092025757,-0.6783571243286133,-20.50941467285156,3.605863571166992,-26.54240989685059,1,10.3.35.51,10.83.46.32,1,0
2015-02-27 20:21:59.125,34,1425097314.362859,37.78780779820939,-122.3968290936715,12.38874,-1,-1,10,65,-9999,1425097319.081629,-19.69187164306641,-16.53858947753906,-20.50418090820312,89.05154418945312,75.27825164794922,25,139346.4152429167,-0.2870025634765625,-0.663421630859375,-0.610595703125,139346.4163749167,0.4611433869781966,-0.09805199869842839,2.002818579885295,139346.364594125,-1.776446059260312,-0.1970705113245531,0.8009692160015444,0.05527962371706963,-0.1092367768287659,1.938711762428284,0.05363555252552032,0.04221924394369125,0.02920379675924778,XTrueNorthZVertical,-0.1744358033342777,0.3581933367772184,0.735279545968326,-0.5483006969464184,-0.1362771540880203,-0.7180309891700745,-0.6825393438339233,-18.35735130310059,4.906251907348633,-27.87604904174805,1,10.3.35.51,10.83.46.32,1,0
2015-02-27 20:21:59.191,35,1425097314.362859,37.78780779820939,-122.3968290936715,12.38874,-1,-1,10,65,-9999,1425097319.187437,-23.59674072265625,-13.19091796875,-20.92021942138672,75.81400299072266,62.04070663452148,25,139346.464134625,-0.3290863037109375,-0.6430816650390625,-0.616851806640625,139346.4163749167,0.4611433869781966,-0.09805199869842839,2.002818579885295,139346.4163749167,-1.632060208653907,-0.3115194695592843,0.7888853871808914,0.4543583691120148,-0.08757819980382919,2.040197849273682,-0.07102768123149872,0.0461466871201992,0.06012602895498276,XTrueNorthZVertical,-0.1557745684624472,0.3746644067146326,0.7051986753124803,-0.5814255545526199,-0.2159748822450638,-0.7095683217048645,-0.670721709728241,-17.46987152099609,7.20805835723877,-27.94611549377441,1,10.3.35.51,10.83.46.32,1,0
2015-02-27 20:21:59.223,36,1425097314.362859,37.78780779820939,-122.3968290936715,12.38874,-1,-1,10,65,-9999,1425097319.187437,-23.59674072265625,-13.19091796875,-20.92021942138672,75.81400299072266,62.04070663452148,25,139346.5131785834,-0.276641845703125,-0.69549560546875,-0.6409149169921875,139346.519935875,0.7374913574963399,1.253384276480495,1.519287861835565,139346.46815525,-1.490564744339339,-0.3898230639008698,0.7830131638680596,0.6302506923675537,0.8464750647544861,1.802239894866943,-0.05972809344530106,0.06233665719628334,0.03876327350735664,XTrueNorthZVertical,-0.1537019070382139,0.3854454356393648,0.6693074776217595,-0.6163075703777962,-0.269358217716217,-0.7054183483123779,-0.6556150913238525,-16.97219467163086,7.827333450317383,-28.08585548400879,1,10.3.35.51,10.83.46.32,1,0
2015-02-27 20:21:59.263,37,1425097314.362859,37.78780779820939,-122.3968290936715,12.38874,-1,-1,10,65,-9999,1425097319.238019,-24.73920440673828,-11.44058227539062,-21.16985321044922,71.35231018066406,57.57901382446289,25,139346.5622088333,-0.2286834716796875,-0.706634521484375,-0.6481781005859375,139346.519935875,0.7374913574963399,1.253384276480495,1.519287861835565,139346.519935875,-1.362594721134314,-0.4216213271462668,0.7814098756628218,0.730706512928009,1.263857841491699,1.556666374206543,0.01388657744973898,0.008785414509475231,0.00683616753667593,XTrueNorthZVertical,-0.1674149277404405,0.3848333401703957,0.6313490616541639,-0.6521302673539647,-0.290528416633606,-0.7042810320854187,-0.6477510929107666,-26.92010116577148,7.652101516723633,-30.12763404846191,1,10.3.35.51,10.83.46.32,1,0
2015-02-27 20:21:59.321,38,1425097314.362859,37.78780779820939,-122.3968290936715,12.38874,-1,-1,10,65,-9999,1425097319.289679,-24.96088409423828,-10.0301513671875,-22.08515167236328,66.14014434814453,52.36684799194336,25,139346.6112634167,-0.338470458984375,-0.662994384765625,-0.5606231689453125,139346.571716375,0.7598986622760486,0.577513406602517,1.252525140712835,139346.571716375,-1.250531842821954,-0.4528491382990328,0.786154395460201,0.753113865852356,0.5879868865013123,1.289903163909912,0.08046238124370575,0.001006794278509915,-0.01282576099038124,XTrueNorthZVertical,-0.1812602388068295,0.3866116345192497,0.5965937485350346,-0.6795233992135578,-0.3091458678245544,-0.7076413035392761,-0.6353523135185242,-23.29281806945801,8.805022239685059,-32.72364807128906,1,10.3.35.51,10.83.46.32,1,0
2015-02-27 20:21:59.363,39,1425097314.362859,37.78780779820939,-122.3968290936715,12.38874,-1,-1,10,65,-9999,1425097319.341431,-25.06318664550781,-9.18048095703125,-22.31812286376953,62.14490509033203,48.37161254882812,25,139346.6602859167,-0.2580108642578125,-0.6441650390625,-0.6261444091796875,139346.6234968333,0.6479028847421834,-0.03421576105312003,0.7531978826573003,139346.6234968333,-1.164762751011503,-0.504681820450624,0.7939335574820295,0.6411179304122925,-0.0237421989440918,0.7905753254890442,-0.0117779141291976,0.08762810379266739,-0.02899401448667049,XTrueNorthZVertical,-0.1860199543873886,0.3982135150343434,0.5717963794242059,-0.6927275470766723,-0.3389758765697479,-0.7131164073944092,-0.6136451363563538,-22.52872085571289,8.894216537475586,-33.23056793212891,1,10.3.35.51,10.83.46.32,1,0
2015-02-27 20:21:59.420,40,1425097314.362859,37.78780779820939,-122.3968290936715,12.38874,-1,-1,10,65,-9999,1425097319.392808,-25.57474517822266,-8.840606689453125,-21.95200347900391,60.13575744628906,46.36246490478516,25,139346.709337375,-0.2280120849609375,-0.6693878173828125,-0.5562286376953125,139346.675277375,0.3822560281161964,-1.035544889846956,0.1441068423774957,139346.675277375,-1.115931401593003,-0.5653765312753101,0.8035689587006413,0.3754700124263763,-1.025071263313293,0.1814838200807571,0.1008334830403328,0.07230080664157867,-0.0198478065431118,XTrueNorthZVertical,-0.1826571659257237,0.4166222727992694,0.5604942797539914,-0.69203206926731,-0.3718753457069397,-0.71983802318573,-0.5861244797706604,-22.21999740600586,8.767802238464355,-33.47115707397461,1,10.3.35.51,10.83.46.32,1,0
2015-02-27 20:21:59.463,41,1425097314.362859,37.78780779820939,-122.3968290936715,12.38874,-1,-1,10,65,-9999,1425097319.444533,-26.37617492675781,-9.0615234375,-20.20462799072266,60.06568145751953,46.29238510131836,25,139346.7583697917,-0.3244476318359375,-0.8337860107421875,-0.410675048828125,139346.727058125,0.1813689934015573,-2.16820780779805,-0.3149992263667903,139346.727058125,-1.117707664698174,-0.6458333948689149,0.8192579613306602,0.1745826303958893,-2.157734394073486,-0.2776225805282593,0.2293971180915833,0.01172154769301414,0.02918640710413456,XTrueNorthZVertical,-0.1658893556772439,0.4470500709165785,0.5683684410888892,-0.6705104413269365,-0.4109309315681458,-0.7306393980979919,-0.5452539324760437,-24.89398193359375,8.02847957611084,-31.72939300537109,1,10.3.35.51,10.83.46.32,1,0
2015-02-27 20:21:59.517,42,1425097314.362859,37.78780779820939,-122.3968290936715,12.38874,-1,-1,10,65,-9999,1425097319.495351,-27.87673187255859,-9.50335693359375,-17.30899047851562,61.64417266845703,47.87087631225586,25,139346.8075505834,-0.834625244140625,-0.7968597412109375,-0.3323822021484375,139346.7788385,0.07977046307947044,-2.826186762524548,-0.3385724630717357,139346.7788385,-1.1204645486603,-0.7783560924113327,0.8303247651458415,0.0729861781001091,-2.815714359283447,-0.3011947870254517,-0.2419075965881348,-0.01203259732574224,0.07477808743715286,XTrueNorthZVertical,-0.1316363557065983,0.4924208152224664,0.579525141538122,-0.6358806506766292,-0.4736685752868652,-0.7381505370140076,-0.4803872108459473,-27.1165943145752,7.674520492553711,-29.94516754150391,1,10.3.35.51,10.83.46.32,1,0
2015-02-27 20:21:59.563,43,1425097314.362859,37.78780779820939,-122.3968290936715,12.38874,-1,-1,10,65,-9999,1425097319.547797,-28.93394470214844,-9.809234619140625,-14.11380004882812,64.90235900878906,51.12906646728516,25,139346.856480875,-0.8647613525390625,-0.757720947265625,-0.3191986083984375,139346.830619125,0.4098112232830283,-0.885341272785942,0.5231303255625539,139346.830619125,-1.091771951745251,-0.8864348441325484,0.8343178725912078,0.4030270278453827,-0.874869167804718,0.560507595539093,-0.3434561192989349,-0.005224721971899271,0.09633074700832367,XTrueNorthZVertical,-0.1092681767281372,0.5251177669704475,0.5772924032063198,-0.6156665157002916,-0.5204354524612427,-0.7408385276794434,-0.42462357878685,-30.62837600708008,7.268251419067383,-26.45743942260742,1,10.3.35.51,10.83.46.32,1,0
2015-02-27 20:21:59.616,44,1425097314.362859,37.78780779820939,-122.3968290936715,12.38874,-1,-1,10,65,-9999,1425097319.599686,-30.21322631835938,-11.29885864257812,-11.24916076660156,72.93028259277344,59.15698623657227,25,139346.9055527083,-0.8178863525390625,-0.743316650390625,-0.3563995361328125,139346.8823997084,0.2537073728269437,0.199171160024301,1.159012233776338,139346.8823997084,-1.032918500970602,-0.9373298904013145,0.808754796304098,0.2469232231378555,0.20964315533638,1.196389198303223,-0.3254482746124268,-0.06134673207998276,0.07583678513765335,XTrueNorthZVertical,-0.1001794754585406,0.5344396113168421,0.5595651196877574,-0.6254800015739643,-0.5564486980438232,-0.7234280705451965,-0.4086767435073853,-34.02215576171875,11.77133274078369,-21.01196098327637,1,10.3.35.51,10.83.46.32,1,0
2015-02-27 20:21:59.705,45,1425097314.362859,37.78780779820939,-122.3968290936715,12.38874,-1,-1,10,65,-9999,1425097319.655234,-31.38980102539062,-9.072845458984375,-10.8331298828125,70.5535888671875,56.78029632568359,25,139346.9545811667,-0.7015380859375,-0.634765625,-0.3600921630859375,139346.9341802083,0.4463484618583704,0.09806957556162291,1.867010946412813,139346.9341802083,-0.9483165475503521,-0.9854677616945355,0.7532983856642069,0.4395643770694733,0.1085414737462997,1.904387593269348,-0.1292969733476639,0.01015927921980619,0.07052046060562134,XTrueNorthZVertical,-0.08745940109012681,0.5393085810578891,0.5288679130734737,-0.6494580964676456,-0.6080077290534973,-0.6840484142303467,-0.4029942154884338,-33.38230133056641,12.91944980621338,-21.36079025268555,1,10.3.35.51,10.83.46.32,1,0
2015-02-27 20:21:59.714,46,1425097314.362859,37.78780779820939,-122.3968290936715,12.38874,-1,-1,10,65,-9999,1425097319.655234,-31.38980102539062,-9.072845458984375,-10.8331298828125,70.5535888671875,56.78029632568359,25,139347.0036325833,-0.7763671875,-0.6153717041015625,-0.2756805419921875,139346.9859607083,0.7933900435126671,-0.3817913065059776,2.221000449035017,139346.9859607083,-0.8360582524629488,-1.068036162237681,0.6786812063742906,0.7866089344024658,-0.3713212907314301,2.258378505706787,-0.03856335952877998,-0.02981049567461014,0.07848444581031799,XTrueNorthZVertical,-0.06699935432067206,0.5549561453392555,0.4843488093716437,-0.6730088967605595,-0.6820787191390991,-0.627767026424408,-0.3750695288181305,-32.09027862548828,15.19442653656006,-21.83843421936035,1,10.3.35.51,10.83.46.32,1,0
2015-02-27 20:21:59.766,47,1425097314.362859,37.78780779820939,-122.3968290936715,12.38874,-1,-1,10,65,-9999,1425097319.7302,-33.14614105224609,-4.90966796875,-11.04947662353516,59.61634063720703,45.84304428100586,25,139347.0526697917,-0.7783966064453125,-0.6982879638671875,-0.2210540771484375,139347.0377415417,0.8619153088892779,-0.5662351857021405,1.964989974497373,139346.9859607083,-0.8360582524629488,-1.068036162237681,0.6786812063742906,0.7866089344024658,-0.3713212907314301,2.258378505706787,-0.03856335952877998,-0.02981049567461014,0.07848444581031799,XTrueNorthZVertical,-0.06699935432067206,0.5549561453392555,0.4843488093716437,-0.6730088967605595,-0.6820787191390991,-0.627767026424408,-0.3750695288181305,-32.09027862548828,15.19442653656006,-21.83843421936035,1,10.3.35.51,10.83.46.32,1,0
2015-02-27 20:21:59.812,48,1425097314.362859,37.78780779820939,-122.3968290936715,12.38874,-1,-1,10,65,-9999,1425097319.783055,-33.93051910400391,-1.95294189453125,-10.61680603027344,53.38246154785156,39.60916900634766,25,139347.1016952083,-0.7344207763671875,-0.6892852783203125,-0.2707366943359375,139347.0895219167,0.5269719354349932,-0.2886677537208499,1.287041838969134,139347.0895219167,-0.6579229460117495,-1.210736728331345,0.5375752635533098,0.5201926827430725,-0.2781980931758881,1.324418902397156,0.04186448454856873,-0.1654507219791412,-0.01061283610761166,XTrueNorthZVertical,-0.02941969779197373,0.5897601707260169,0.3991306395074331,-0.7014357675519703,-0.8038731217384338,-0.5120547413825989,-0.3026348352432251,-29.02703475952148,20.197509765625,-22.06956100463867,1,10.3.35.51,10.83.46.32,1,0
2015-02-27 20:21:59.872,49,1425097314.362859,37.78780779820939,-122.3968290936715,12.38874,-1,-1,10,65,-9999,1425097319.83312,-34.28860473632812,0.6129150390625,-9.768096923828125,49.16253662109375,35.38924026489258,25,139347.1507150833,-0.782562255859375,-0.5684051513671875,-0.3782958984375,139347.1413024167,0.2299647590766692,0.01259195826611265,0.6231059255163466,139347.0895219167,-0.6579229460117495,-1.210736728331345,0.5375752635533098,0.5201926827430725,-0.2781980931758881,1.324418902397156,0.04186448454856873,-0.1654507219791412,-0.01061283610761166,XTrueNorthZVertical,-0.02941969779197373,0.5897601707260169,0.3991306395074331,-0.7014357675519703,-0.8038731217384338,-0.5120547413825989,-0.3026348352432251,-29.02703475952148,20.197509765625,-22.06956100463867,1,10.3.35.51,10.83.46.32,1,0
2015-02-27 20:21:59.910,50,1425097314.362859,37.78780779820939,-122.3968290936715,12.38874,-1,-1,10,65,-9999,1425097319.887858,-34.54438018798828,2.3970947265625,-9.352066040039062,45.93157196044922,32.15827941894531,25,139347.1997565,-0.8474884033203125,-0.5397796630859375,-0.3935089111328125,139347.193083125,0.1255368864124821,0.417229192183335,0.6094084890817419,139347.1413024167,-0.6222087325247817,-1.231779439303459,0.4985232365372124,0.2231856286525726,0.02306254953145981,0.6604809761047363,0.02895223349332809,-0.07115685194730759,-0.09669461846351624,XTrueNorthZVertical,-0.02032558247753086,0.5945963634190703,0.3778105720846143,-0.709437233245231,-0.8282991647720337,-0.4781290292739868,-0.2920840680599213,-27.97987747192383,21.41999435424805,-22.26845550537109,1,10.3.35.51,10.83.46.32,1,0
2015-02-27 20:21:59.963,51,1425097314.362859,37.78780779820939,-122.3968290936715,12.38874,-1,-1,10,65,-9999,1425097319.887858,-34.54438018798828,2.3970947265625,-9.352066040039062,45.93157196044922,32.15827941894531,25,139347.248766125,-0.7962799072265625,-0.491912841796875,-0.3902435302734375,139347.2448637917,0.1682976661392304,0.4543485977729684,0.6145111057303339,139347.193083125,-0.6015725495679234,-1.22724238763439,0.4723766832498273,0.118743471801281,0.4277113080024719,0.6467700600624084,0.004467949736863375,-0.08363127708435059,-0.07026032358407974,XTrueNorthZVertical,-0.01685467361339558,0.5913896458885975,0.3641914496754073,-0.7192626611219695,-0.8384523391723633,-0.4550039768218994,-0.2999484241008759,-26.60376358032227,22.52115631103516,-22.86069107055664,1,10.3.35.51,10.83.46.32,1,0
2015-02-27 20:22:00.011,52,1425097314.362859,37.78780779820939,-122.3968290936715,12.38874,-1,-1,10,65,-9999,1425097319.961301,-34.71488952636719,4.402252197265625,-9.884597778320312,43.36091613769531,29.58762359619141,25,139347.2978079584,-0.7319183349609375,-0.485992431640625,-0.3978424072265625,139347.2966442083,0.01567323564733433,0.3079098915449994,0.6086963598062548,139347.2448637917,-0.5810845641954607,-1.214180195962531,0.4451503700637188,0.1615818589925766,0.4647373855113983,0.6519821882247925,0.05573708936572075,-0.07933986932039261,-0.06704232096672058,XTrueNorthZVertical,-0.0143044557887354,0.5850244569582468,0.3501297609578667,-0.7314033762464253,-0.8457608819007874,-0.4305936098098755,-0.3150835335254669,-25.49729919433594,23.10985946655273,-23.52436637878418,1,10.3.35.51,10.83.46.32,1,0
2015-02-27 20:22:00.047,53,1425097314.362859,37.78780779820939,-122.3968290936715,12.38874,-1,-1,10,65,-9999,1425097320.023381,-34.51026916503906,5.3878173828125,-10.98292541503906,40.53745651245117,26.76416206359863,25,139347.3468272917,-0.7396240234375,-0.4392242431640625,-0.3507232666015625,139347.2966442083,0.01567323564733433,0.3079098915449994,0.6086963598062548,139347.2966442083,-0.5635579112683208,-1.199673211212318,0.4166262428644875,0.008949847891926765,0.3183037936687469,0.6461619138717651,0.09902975708246231,-0.08210828900337219,-0.06435612589120865,XTrueNorthZVertical,-0.01039803854910297,0.5779895302676886,0.3367020139765436,-0.7432709589827883,-0.8522036075592041,-0.4046775996685028,-0.3316399753093719,-24.71376037597656,23.48772430419922,-23.98188209533691,1,10.3.35.51,10.83.46.32,1,0
2015-02-27 20:22:00.106,54,1425097314.362859,37.78780779820939,-122.3968290936715,12.38874,-1,-1,10,65,-9999,1425097320.023381,-34.51026916503906,5.3878173828125,-10.98292541503906,40.53745651245117,26.76416206359863,25,139347.3958655834,-0.7436065673828125,-0.3220062255859375,-0.3289337158203125,139347.400205375,-0.5523864817176194,0.003061037356937076,0.4987600047433478,139347.3484249167,-0.5589380136959067,-1.194561464591541,0.3855990770952743,-0.2827353179454803,0.01132684852927923,0.599373996257782,0.1221397146582603,-0.06310994923114777,-0.01028051506727934,XTrueNorthZVertical,-2.709905486393885e-05,0.5742635488104798,0.3274399245853812,-0.7503362263335958,-0.8617637157440186,-0.3761142790317535,-0.3404427468776703,-38.37036895751953,29.66524887084961,-21.49460601806641,1,10.3.35.51,10.83.46.32,1,0
2015-02-27 20:22:00.144,55,1425097314.362859,37.78780779820939,-122.3968290936715,12.38874,-1,-1,10,65,-9999,1425097320.091327,-34.37384796142578,7.189056396484375,-11.98140716552734,33.73550796508789,19.96221351623535,25,139347.4448899167,-0.790618896484375,-0.2518310546875,-0.3054962158203125,139347.400205375,-0.5523864817176194,0.003061037356937076,0.4987600047433478,139347.400205375,-0.5701944919669028,-1.189649462897758,0.3523489955581312,-0.5591212511062622,0.01346766017377377,0.5362087488174438,0.1276053935289383,0.02309721708297729,0.0201985128223896,XTrueNorthZVertical,0.01586049030848215,0.5702476044135151,0.3235868622447452,-0.7548891561535431,-0.8712119460105896,-0.3451034426689148,-0.349132239818573,-37.61156845092773,30.94106674194336,-21.03213119506836,1,10.3.35.51,10.83.46.32,1,0
2015-02-27 20:22:00.205,56,1425097314.362859,37.78780779820939,-122.3968290936715,12.38874,-1,-1,10,65,-9999,1425097320.195509,-33.99872589111328,9.90789794921875,-11.18262481689453,32.31694030761719,18.54364585876465,25,139347.4939360833,-0.8577728271484375,-0.18280029296875,-0.239044189453125,139347.4519859167,-0.8342027209020224,-0.3036744001473374,0.5082323361085417,139347.4519859167,-0.594973126146937,-1.188931201817256,0.3141431003660513,-0.8409374356269836,-0.2932678759098053,0.5456807613372803,0.09193879365921021,0.0571705661714077,0.04891865700483322,XTrueNorthZVertical,0.03824551367499279,0.5668596334245631,0.3236047560730009,-0.7566289576220474,-0.8825576901435852,-0.309001624584198,-0.3544148802757263,-37.10825347900391,31.89940071105957,-20.48746490478516,1,10.3.35.51,10.83.46.32,1,0
2015-02-27 20:22:00.243,57,1425097314.362859,37.78780779820939,-122.3968290936715,12.38874,-1,-1,10,65,-9999,1425097320.195509,-33.99872589111328,9.90789794921875,-11.18262481689453,32.31694030761719,18.54364585876465,25,139347.5429530833,-1.03167724609375,-0.1218414306640625,-0.249481201171875,139347.5037666667,-0.9420961650927296,-0.3100902215294473,0.7471141574631233,139347.5037666667,-0.6264213621649405,-1.195914721990765,0.2658459733348356,-0.9488308429718018,-0.2996838092803955,0.7845621109008789,0.004718558862805367,0.09368874877691269,0.1182986721396446,XTrueNorthZVertical,0.06771783394015655,0.5645924655581169,0.3233862569937893,-0.7563537218635165,-0.8978612422943115,-0.2627256214618683,-0.3532992899417877,-35.99542999267578,34.74083709716797,-17.65597534179688,1,10.3.35.51,10.83.46.32,1,0
2015-02-27 20:22:00.305,58,1425097314.362859,37.78780779820939,-122.3968290936715,12.38874,-1,-1,10,65,-9999,1425097320.246456,-34.27155303955078,11.30126953125,-9.818038940429688,32.88854217529297,19.1152458190918,25,139347.5920060417,-1.118194580078125,-0.0503997802734375,-0.2709808349609375,139347.5555472084,-0.8442108802785402,-0.2356788375115433,0.8955145481500446,139347.5555472084,-0.653643580735753,-1.203818170134569,0.2099855937872528,-0.8509448170661926,-0.2252731770277023,0.9329628944396973,-0.1376095116138458,0.1029160246253014,0.1012812927365303,XTrueNorthZVertical,0.0989647142441097,0.5610244599153007,0.3193562200095111,-0.7572774435042616,-0.9129123091697693,-0.208445817232132,-0.3509150743484497,-35.30499649047852,36.06823348999023,-16.33921813964844,1,10.3.35.51,10.83.46.32,1,0
2015-02-27 20:22:00.342,59,1425097314.362859,37.78780779820939,-122.3968290936715,12.38874,-1,-1,10,65,-9999,1425097320.297276,-35.61041259765625,11.96343994140625,-8.07635498046875,38.31131362915039,24.53801918029785,25,139347.6410195,-0.9710235595703125,-0.0569000244140625,-0.32177734375,139347.60732775,-0.691082047076183,0.05559242249096807,1.172894493590594,139347.60732775,-0.6706881109709072,-1.20142371735743,0.1461370316506602,-0.6978159546852112,0.06599798053503036,1.210342526435852,-0.1582424193620682,0.09738440066576004,0.07451312243938446,XTrueNorthZVertical,0.1286490124428744,0.5521397798483678,0.3097215786134849,-0.7633240595156339,-0.9226139187812805,-0.1456174403429031,-0.3571822047233582,-33.92970657348633,38.09738540649414,-14.54973125457764,1,10.3.35.51,10.83.46.32,1,0
2015-02-27 20:22:00.408,60,1425097314.362859,37.78780779820939,-122.3968290936715,12.38874,-1,-1,10,65,-9999,1425097320.350074,-34.79194641113281,14.37628173828125,-7.610389709472656,36.48200988769531,22.70871543884277,25,139347.6900513333,-1.106613159179688,0.1221160888671875,-0.3148193359375,139347.6591085,-0.5068863744936156,-0.5189230636724468,1.39134374411376,139347.6591085,-0.6735521827736084,-1.20779117559254,0.06684537502302927,-0.5136178731918335,-0.50851970911026,1.428793430328369,-0.1468894481658936,0.05773188546299934,-0.01765611581504345,XTrueNorthZVertical,0.1615791504103095,0.5447440819879936,0.2897577240883619,-0.7701860201345262,-0.9327461719512939,-0.06679560244083405,-0.3542921245098114,-30.05586814880371,41.90592575073242,-12.44460868835449,1,10.3.35.51,10.83.46.32,3,0
2015-02-27 20:22:00.440,61,1425097314.362859,37.78780779820939,-122.3968290936715,12.38874,-1,-1,10,65,-9999,1425097320.400904,-34.04167175292969,16.89105224609375,-7.177696228027344,33.62046813964844,19.84717559814453,25,139347.7390672917,-0.964630126953125,0.0587310791015625,-0.3500518798828125,139347.7108890417,-0.413061877709579,-0.4047283140265031,1.321015518679166,139347.7108890417,-0.6717883687878975,-1.233429102793459,-0.003990294256447779,-0.4197933077812195,-0.3943251073360443,1.35846483707428,-0.2083709239959717,0.0533675029873848,-0.07326512038707733,XTrueNorthZVertical,0.192170911006237,0.5454995160219026,0.2678031510248883,-0.7705725613281537,-0.9436218738555908,0.003990283701568842,-0.3310012519359589,-27.70805931091309,43.92229080200195,-10.83632373809814,1,10.3.35.51,10.83.46.32,3,0
2015-02-27 20:22:00.502,62,1425097314.362859,37.78780779820939,-122.3968290936715,12.38874,-1,-1,10,65,-9999,1425097320.455031,-33.29140472412109,19.0999755859375,-6.279052734375,30.9078369140625,17.13454246520996,25,139347.7880991667,-0.733734130859375,0.0006103515625,-0.3763885498046875,139347.7626695417,-0.4291244675082829,0.2016614819596341,1.220111807085481,139347.7626695417,-0.6694720291726587,-1.235479043468361,-0.07097781752522565,-0.4358558356761932,0.2120645940303802,1.257560729980469,0.1091188490390778,-0.071574367582798,-0.02342906780540943,XTrueNorthZVertical,0.2174756428642146,0.5372003567379648,0.2482273739729993,-0.7762108433149181,-0.9419283270835876,0.0709182396531105,-0.3282402455806732,-26.02402496337891,45.13405609130859,-9.999872207641602,1,10.3.35.51,10.83.46.32,3,0
2015-02-27 20:22:00.536,63,1425097314.362859,37.78780779820939,-122.3968290936715,12.38874,-1,-1,10,65,-9999,1425097320.506888,-32.81983947753906,20.64556884765625,-6.250495910644531,27.0528564453125,13.27956295013428,25,139347.8371128333,-0.7418975830078125,0.156494140625,-0.3672637939453125,139347.8144504583,-0.5281842063631973,0.2673917597722068,0.5532040721722737,139347.8144504583,-0.6770092062992497,-1.222928101301429,-0.1233321457226605,-0.5349155068397522,0.2777947783470154,0.5906526446342468,0.2048723697662354,-0.07442047446966171,-0.05605826526880264,XTrueNorthZVertical,0.2378691885064438,0.5237038099187429,0.2380201646886355,-0.7826231218314862,-0.9329607486724854,0.1230197176337242,-0.3383051455020905,-21.97102928161621,47.48621368408203,-8.755780220031738,1,10.3.35.51,10.83.46.32,3,0
2015-02-27 20:22:00.615,64,1425097314.362859,37.78780779820939,-122.3968290936715,12.38874,-1,-1,10,65,-9999,1425097320.558268,-31.69442749023438,22.00491333007812,-5.71795654296875,26.44697189331055,12.67367744445801,25,139347.8861545417,-0.647857666015625,0.1828765869140625,-0.4016876220703125,139347.866230875,-0.5358674261080759,0.4586788977054373,-0.05587658177927952,139347.866230875,-0.6994244777312562,-1.20643286066448,-0.143560993314093,-0.5425986051559448,0.4690818190574646,-0.01842835731804371,0.2025862187147141,0.02874558977782726,-0.008090080693364143,XTrueNorthZVertical,0.2493567169917669,0.5113480848842616,0.2432093016487721,-0.7856166879309465,-0.9247389435768127,0.1430683732032776,-0.352688729763031,-21.02812004089355,48.06005096435547,-7.898117065429688,1,10.3.35.51,10.83.46.32,3,0
2015-02-27 20:22:00.635,65,1425097314.362859,37.78780779820939,-122.3968290936715,12.38874,-1,-1,10,65,-9999,1425097320.558268,-31.69442749023438,22.00491333007812,-5.71795654296875,26.44697189331055,12.67367744445801,25,139347.9351769583,-0.7962493896484375,0.2176361083984375,-0.27947998046875,139347.9180114167,-0.4670870298990354,-0.5700746650457077,-0.332162234327915,139347.9180114167,-0.7255097964012542,-1.212674838984191,-0.1415824075872393,-0.4738181829452515,-0.5596718788146973,-0.2947144210338593,0.2536474466323853,0.03831823542714119,0.01882220059633255,XTrueNorthZVertical,0.2560505182406941,0.5108170063245645,0.2531809154629764,-0.7806430190499355,-0.9271856546401978,0.1411098688840866,-0.347008228302002,-21.00607681274414,48.14990234375,-7.393367767333984,1,10.3.35.51,10.83.46.32,3,0
2015-02-27 20:22:00.695,66,1425097314.362859,37.78780779820939,-122.3968290936715,12.38874,-1,-1,10,65,-9999,1425097320.687404,-31.04646301269531,23.4661865234375,-4.7860107421875,26.54575347900391,12.77245903015137,25,139347.9842180417,-0.810882568359375,0.3004608154296875,-0.211639404296875,139347.969792125,-0.6576404669519491,-0.3362187613003237,-0.3034741304333634,139347.969792125,-0.7586840636796129,-1.24788185502339,-0.1389336065674868,-0.6643715500831604,-0.3258160352706909,-0.266026645898819,0.06342916935682297,0.118425153195858,0.1057168766856194,XTrueNorthZVertical,0.2681549510359578,0.5205342641337871,0.2621421020778398,-0.7670844160870423,-0.9391768574714661,0.1384870707988739,-0.31427401304245,-22.17153739929199,47.96001815795898,-4.752862930297852,1,10.3.35.51,10.83.46.32,3,0
2015-02-27 20:22:00.733,67,1425097314.362859,37.78780779820939,-122.3968290936715,12.38874,-1,-1,10,65,-9999,1425097320.687404,-31.04646301269531,23.4661865234375,-4.7860107421875,26.54575347900391,12.77245903015137,25,139348.0332314583,-0.697967529296875,0.369659423828125,-0.2896728515625,139348.0215726667,-0.3778524912537504,-0.126910012270527,-0.5930444294476411,139347.969792125,-0.7586840636796129,-1.24788185502339,-0.1389336065674868,-0.6643715500831604,-0.3258160352706909,-0.266026645898819,0.06342916935682297,0.118425153195858,0.1057168766856194,XTrueNorthZVertical,0.2681549510359578,0.5205342641337871,0.2621421020778398,-0.7670844160870423,-0.9391768574714661,0.1384870707988739,-0.31427401304245,-22.17153739929199,47.96001815795898,-4.752862930297852,1,10.3.35.51,10.83.46.32,3,0
2015-02-27 20:22:00.805,68,1425097314.362859,37.78780779820939,-122.3968290936715,12.38874,-1,-1,10,65,-9999,1425097320.763453,-31.60916900634766,22.73556518554688,-3.071884155273438,29.8707103729248,16.09741592407227,25,139348.0822756667,-0.766143798828125,0.34759521484375,-0.2758636474609375,139348.0733532917,0.04854010560832923,-0.8093003004970185,-1.053635210499646,139348.0733532917,-0.8099992676689948,-1.284626965538282,-0.0911329639168732,0.04180914163589478,-0.7988978028297424,-1.016188502311707,0.1875900030136108,0.255428671836853,0.000300565967336297,XTrueNorthZVertical,0.2693139668786263,0.5356453646770687,0.2900881361317002,-0.7459241816749824,-0.9553512334823608,0.09100686758756638,-0.2811080515384674,-23.77739715576172,47.34817504882812,-2.667527198791504,1,10.3.35.51,10.83.46.32,3,0
2015-02-27 20:22:00.831,69,1425097314.362859,37.78780779820939,-122.3968290936715,12.38874,-1,-1,10,65,-9999,1425097320.814702,-32.51880645751953,20.42391967773438,-2.493293762207031,31.75775527954102,17.98446083068848,25,139348.1312968333,-0.8246612548828125,0.23040771484375,-0.1708221435546875,139348.1251340417,0.01726234386978462,-0.9115084283926245,-1.009409425857245,139348.0733532917,-0.8099992676689948,-1.284626965538282,-0.0911329639168732,0.04180914163589478,-0.7988978028297424,-1.016188502311707,0.1875900030136108,0.255428671836853,0.000300565967336297,XTrueNorthZVertical,0.2693139668786263,0.5356453646770687,0.2900881361317002,-0.7459241816749824,-0.9553512334823608,0.09100686758756638,-0.2811080515384674,-23.77739715576172,47.34817504882812,-2.667527198791504,1,10.3.35.51,10.83.46.32,3,0
2015-02-27 20:22:00.903,70,1425097314.362859,37.78780779820939,-122.3968290936715,12.38874,-1,-1,10,65,-9999,1425097320.866892,-33.43959808349609,18.6907958984375,-1.261772155761719,33.50275421142578,19.72946166992188,25,139348.1803345,-0.9935150146484375,0.0782928466796875,-0.1541595458984375,139348.1769145833,0.4269619807031386,-1.064622614208986,-1.364680175279887,139348.1251340417,-0.8204264932960362,-1.329318011893343,-0.04210807484138373,0.01053144969046116,-0.901106059551239,-0.971963107585907,0.1258102357387543,0.2392154037952423,0.03766290098428726,XTrueNorthZVertical,0.2611208442065991,0.5588852650063967,0.3019328990726164,-0.7268422598645152,-0.9701247811317444,0.04209563136100769,-0.2389263361692429,-27.20095825195312,45.53030395507812,-1.195773601531982,1,10.3.35.51,10.83.46.32,3,0
2015-02-27 20:22:00.929,71,1425097314.362859,37.78780779820939,-122.3968290936715,12.38874,-1,-1,10,65,-9999,1425097320.921455,-34.46271514892578,17.36550903320312,-0.0302581787109375,35.83255004882812,22.05925369262695,25,139348.2293548333,-1.149017333984375,-0.0379486083984375,-0.080047607421875,139348.2286951667,0.2699798197195458,-0.8778106521715249,-1.134257885127942,139348.1769145833,-0.8237385134434577,-1.375905716389695,0.01360339501754203,0.4202311635017395,-1.05422031879425,-1.327234148979187,-0.004846513271331787,0.1129834651947021,0.01355706807225943,XTrueNorthZVertical,0.2493668197040734,0.583948234993984,0.3132189361953515,-0.7061972295857062,-0.9809780716896057,-0.01360297575592995,-0.1936412900686264,-29.28552436828613,44.23396301269531,-0.2121539115905762,1,10.3.35.51,10.83.46.32,3,0
2015-02-27 20:22:01.008,72,1425097320.929005,37.78772528232048,-122.3969329114224,12.47795,-1,-1,10,65,-9999,1425097320.921455,-34.46271514892578,17.36550903320312,-0.0302581787109375,35.83255004882812,22.05925369262695,25,139348.2783945417,-1.268768310546875,-0.39453125,-0.1280364990234375,139348.280475875,0.07084621026661492,-0.264206885424581,-1.286390163450392,139348.2286951667,-0.8154929573556295,-1.427670485130459,0.07957529482641462,0.2632490396499634,-0.8674084544181824,-1.09681224822998,-0.122503250837326,0.06510230153799057,0.04990115761756897,XTrueNorthZVertical,0.2318242292550529,0.6125066278780503,0.3233997073304327,-0.6830122750157116,-0.9866428375244141,-0.07949133962392807,-0.142186313867569,-31.01202774047852,43.04119873046875,0.1995720863342285,1,10.3.35.51,10.83.46.32,3,0
2015-02-27 20:22:01.027,73,1425097320.929005,37.78772528232048,-122.3969329114224,12.47795,-1,-1,10,65,-9999,1425097320.974609,-35.34940338134766,15.63241577148438,1.334396362304688,37.85823822021484,24.0849437713623,25,139348.3274218334,-1.082122802734375,-0.4219207763671875,-0.1109771728515625,139348.280475875,0.07084621026661492,-0.264206885424581,-1.286390163450392,139348.280475875,-0.8168406075043396,-1.4519596984562,0.136602681826007,0.06417913734912872,-0.2538795173168182,-1.248851537704468,-0.2850710451602936,-0.2583530247211456,-0.01058381609618664,XTrueNorthZVertical,0.216205930739222,0.628115159898651,0.3379046011770437,-0.6667434310961372,-0.9836972951889038,-0.1361782401800156,-0.1174526810646057,-34.61279678344727,40.18230819702148,1.291008710861206,1,10.3.35.51,10.83.46.32,3,0
2015-02-27 20:22:01.089,74,1425097320.929005,37.78772528232048,-122.3969329114224,12.47795,-1,-1,10,65,-9999,1425097321.048919,-36.06558227539062,12.40408325195312,1.733802795410156,43.07888031005859,29.30558776855469,25,139348.376465625,-1.167205810546875,-0.4007110595703125,-0.153045654296875,139348.3840370833,-0.4969599741625633,0.2922576948702767,-0.3636637015980262,139348.3322565,-0.8293237033365385,-1.438830902833761,0.1938939912957903,-0.2821827232837677,0.3753073513507843,-0.9962310791015625,-0.1093933209776878,-0.2292394042015076,0.01813987642526627,XTrueNorthZVertical,0.197591361122784,0.6296023582143697,0.3599973871457066,-0.6595152665227711,-0.972729504108429,-0.1926813721656799,-0.1291170418262482,-36.08344268798828,38.8662109375,1.316434383392334,1,10.3.35.51,10.83.46.32,3,0
2015-02-27 20:22:01.127,75,1425097320.929005,37.78772528232048,-122.3969329114224,12.47795,-1,-1,10,65,-9999,1425097321.100209,-36.59419250488281,10.82394409179688,1.550743103027344,46.07329559326172,32.30000305175781,25,139348.425508625,-1.13623046875,-0.425384521484375,-0.137664794921875,139348.3840370833,-0.4969599741625633,0.2922576948702767,-0.3636637015980262,139348.3840370833,-0.8565153230662376,-1.419555203190477,0.2228327789881402,-0.5036269426345825,0.3025848567485809,-0.3261257708072662,-0.2030634135007858,-0.1797178089618683,-0.006105598993599415,XTrueNorthZVertical,0.1922306017132059,0.6241613317319817,0.3789570882761738,-0.6556382645701586,-0.964142382144928,-0.2209932506084442,-0.1469400525093079,-37.88262557983398,37.11941528320312,1.177197217941284,1,10.3.35.51,10.83.46.32,3,0
2015-02-27 20:22:01.196,76,1425097320.929005,37.78772528232048,-122.3969329114224,12.47795,-1,-1,10,65,-9999,1425097321.154121,-36.38956451416016,9.872406005859375,1.351036071777344,48.31393432617188,34.54064178466797,25,139348.4745409167,-0.9020233154296875,-0.2885284423828125,-0.1717071533203125,139348.435818,-0.1923939476822674,0.7133506011630987,-0.180350334284602,139348.435818,-0.8763758239939733,-1.385812432380015,0.2284463091762825,-0.1990608125925064,0.7236776351928711,-0.1428128182888031,-0.1534227132797241,-0.1757877320051193,0.02453476563096046,XTrueNorthZVertical,0.1898594228740999,0.6118638428949951,0.3902515672721182,-0.661271300249092,-0.9574018716812134,-0.2264644652605057,-0.1791520714759827,-38.89234161376953,36.05960464477539,1.192080497741699,1,10.3.35.51,10.83.46.32,3,0
2015-02-27 20:22:01.224,77,1425097320.929005,37.78772528232048,-122.3969329114224,12.47795,-1,-1,10,65,-9999,1425097321.204501,-36.38956451416016,10.0423583984375,0.5189285278320312,49.82465362548828,36.05135726928711,25,139348.5236611667,-0.753753662109375,-0.2829742431640625,-0.1681060791015625,139348.4875984167,0.01293497341451486,0.6942352298068369,0.0007986820109147636,139348.4875984167,-0.8795763769671856,-1.347498094743919,0.232339853680081,0.006269859615713358,0.7045624852180481,0.03833260387182236,0.088831827044487,-0.0507049486041069,0.03709118068218231,XTrueNorthZVertical,0.1818804706220021,0.5993087874798154,0.3959104935946056,-0.6715678176515424,-0.9489697813987732,-0.230255126953125,-0.2154969424009323,-39.06717300415039,35.88666915893555,0.4829201698303223,1,10.3.35.51,10.83.46.32,3,0
2015-02-27 20:22:01.289,78,1425097320.929005,37.78772528232048,-122.3969329114224,12.47795,-1,-1,10,65,-9999,1425097321.255257,-36.23609924316406,10.02536010742188,-0.1301193237304688,50.01789855957031,36.24460601806641,25,139348.5725977917,-0.680084228515625,-0.186676025390625,-0.200408935546875,139348.539379125,-0.07766656581830785,0.4489008354471024,0.008378038473280275,139348.539379125,-0.8804589361805001,-1.321948099586608,0.2275808703841525,-0.08433161675930023,0.459227979183197,0.04591162130236626,0.203025609254837,-0.04642751812934875,0.09803056716918945,XTrueNorthZVertical,0.1788281090320225,0.589959197214901,0.3972804102624228,-0.6798065236897102,-0.9442060589790344,-0.2256214320659637,-0.2399373054504395,-38.21053314208984,35.18477630615234,-9.098209381103516,1,10.3.35.51,10.83.46.32,3,0
2015-02-27 20:22:01.322,79,1425097320.929005,37.78772528232048,-122.3969329114224,12.47795,-1,-1,10,65,-9999,1425097321.308101,-36.44071197509766,9.5836181640625,-0.8623733520507812,50.78926849365234,37.01597213745117,25,139348.6216081667,-0.517181396484375,-0.1493377685546875,-0.1485748291015625,139348.5911599167,0.06054936422793255,0.2886845316357173,-0.5199214827651174,139348.5911599167,-0.8860412669133075,-1.299060733128817,0.2372143836966947,0.05388437584042549,0.2990115880966187,-0.4823882877826691,0.3367210328578949,0.05466756224632263,0.05854066088795662,XTrueNorthZVertical,0.172307312908119,0.5829806680288833,0.4036390201435551,-0.6837537956226044,-0.9363303780555725,-0.2349959313869476,-0.26088747382164,-37.97846603393555,35.1230354309082,-10.23713302612305,1,10.3.35.51,10.83.46.32,3,0
2015-02-27 20:22:01.394,80,1425097320.929005,37.78772528232048,-122.3969329114224,12.47795,-1,-1,10,65,-9999,1425097321.35908,-36.66238403320312,8.988922119140625,-1.245132446289062,51.74394226074219,37.97064590454102,25,139348.6706352917,-0.8566131591796875,-0.27349853515625,-0.120269775390625,139348.6429405417,-0.1469577563244255,-0.5118566320360305,-0.4345096455485322,139348.6429405417,-0.8953501438292552,-1.299153987739825,0.2614404361727791,-0.1536226719617844,-0.5015296936035156,-0.3969768285751343,0.2874535322189331,0.06033693253993988,0.08698555082082748,XTrueNorthZVertical,0.1660155278310415,0.5855260209621937,0.4128430570959261,-0.6776125105771277,-0.9305962324142456,-0.2584722936153412,-0.2591962516307831,-38.44075012207031,34.51839065551758,-10.56314277648926,1,10.3.35.51,10.83.46.32,3,0
2015-02-27 20:22:01.419,81,1425097320.929005,37.78772528232048,-122.3969329114224,12.47795,-1,-1,10,65,-9999,1425097321.410391,-36.84994506835938,8.258270263671875,-0.96221923828125,51.89501953125,38.12172317504883,25,139348.719642125,-1.148162841796875,-0.221649169921875,-0.053436279296875,139348.6947209583,-0.3719442683754096,-0.679854426236518,-0.4946949556554509,139348.6947209583,-0.9110525024488569,-1.332321471519132,0.2766880862498047,-0.3786091208457947,-0.669527530670166,-0.4571625292301178,-0.08604127913713455,0.0214622225612402,0.1973291337490082,XTrueNorthZVertical,0.1719061471599811,0.5973525750489543,0.4191026363550185,-0.6617938794209673,-0.934741199016571,-0.2731712162494659,-0.2272363603115082,-39.29404449462891,33.79695129394531,-9.722890853881836,1,10.3.35.51,10.83.46.32,3,0
2015-02-27 20:22:01.493,82,1425097320.929005,37.78772528232048,-122.3969329114224,12.47795,-1,-1,10,65,-9999,1425097321.462627,-36.90109252929688,7.425689697265625,-0.08019256591796875,53.59539794921875,39.82210540771484,25,139348.7686804583,-1.167251586914062,-0.2996978759765625,-0.1711273193359375,139348.7465018333,-0.5399593731229827,0.3232622162809792,-0.07324518577655829,139348.7465018333,-0.9420715502626231,-1.330721571381571,0.284400809544649,-0.5466241836547852,0.3335889577865601,-0.03571309894323349,-0.2349798977375031,0.01839060895144939,0.143186554312706,XTrueNorthZVertical,0.1779783739741478,0.5951569565137304,0.4313688116046801,-0.6542421760123569,-0.9323021769523621,-0.2805823683738708,-0.2282237857580185,-40.52999877929688,32.94781875610352,-7.249219417572021,1,10.3.35.51,10.83.46.32,3,0
2015-02-27 20:22:01.517,83,1425097320.929005,37.78772528232048,-122.3969329114224,12.47795,-1,-1,10,65,-9999,1425097321.514832,-36.88404846191406,6.864990234375,0.5355606079101562,57.20297241210938,43.42967987060547,25,139348.81770175,-1.177078247070312,-0.3225860595703125,-0.3603057861328125,139348.7982824167,-0.2321943575412836,0.03789039072521137,0.2636729216260202,139348.7982824167,-0.9565672907006041,-1.321930328845242,0.2736746144862726,-0.2388108968734741,0.04814216122031212,0.3012498319149017,-0.06162784993648529,-0.04906482249498367,0.02739130705595016,XTrueNorthZVertical,0.18430135859641,0.5894605143760823,0.4342728834287364,-0.6557258229757913,-0.9331231117248535,-0.2702711224555969,-0.2371386289596558,-40.45886993408203,33.04425048828125,-7.207499027252197,1,10.3.35.51,10.83.46.32,3,0
2015-02-27 20:22:01.589,84,1425097320.929005,37.78772528232048,-122.3969329114224,12.47795,-1,-1,10,65,-9999,1425097321.56669,-37.03751373291016,7.28973388671875,1.084754943847656,57.8958740234375,44.12257766723633,25,139348.8667395,-1.35986328125,-0.299468994140625,-0.459686279296875,139348.8500630833,-0.0966240117219279,-0.4248663392413553,0.4133345854052031,139348.8500630833,-0.9559713254485724,-1.344518763592409,0.2538318443917227,-0.1032404825091362,-0.4146146774291992,0.4509111344814301,-0.1754309982061386,-0.02546595595777035,0.05265770107507706,XTrueNorthZVertical,0.196222904822245,0.5940666779166808,0.4270013461224474,-0.6528791505397937,-0.9432823657989502,-0.2511148452758789,-0.2171627134084702,-40.07575988769531,33.62374496459961,-6.645886898040771,1,10.3.35.51,10.83.46.32,3,0
2015-02-27 20:22:01.616,85,1425097320.929005,37.78772528232048,-122.3969329114224,12.47795,-1,-1,10,65,-9999,1425097321.56669,-37.03751373291016,7.28973388671875,1.084754943847656,57.8958740234375,44.12257766723633,25,139348.915751875,-0.833404541015625,-0.3779296875,-0.3347015380859375,139348.9018436667,-0.1026920242656734,0.3452114573531943,0.2226557134649468,139348.8500630833,-0.9559713254485724,-1.344518763592409,0.2538318443917227,-0.1032404825091362,-0.4146146774291992,0.4509111344814301,-0.1754309982061386,-0.02546595595777035,0.05265770107507706,XTrueNorthZVertical,0.196222904822245,0.5940666779166808,0.4270013461224474,-0.6528791505397937,-0.9432823657989502,-0.2511148452758789,-0.2171627134084702,-40.07575988769531,33.62374496459961,-6.645886898040771,1,10.3.35.51,10.83.46.32,3,0
2015-02-27 20:22:01.692,86,1425097320.929005,37.78772528232048,-122.3969329114224,12.47795,-1,-1,10,65,-9999,1425097321.670404,-36.32134246826172,9.158782958984375,1.3177490234375,56.43803405761719,42.66474151611328,25,139348.964790875,-0.7805938720703125,-0.25933837890625,-0.3635711669921875,139348.9536244583,-0.3676113052818507,0.8532174247690791,-0.116290124791618,139348.9536244583,-0.9642956081072823,-1.316357649155677,0.2261739408662455,-0.3742274343967438,0.8634726405143738,-0.07872146368026733,0.1433362662792206,-0.1597826480865479,-0.09832094609737396,XTrueNorthZVertical,0.2027164382009079,0.5798794569328025,0.4256367241141026,-0.6644390274386786,-0.9431561827659607,-0.2242505550384521,-0.2452917248010635,-39.06825256347656,34.96724319458008,-5.635080337524414,1,10.3.35.51,10.83.46.32,3,0
2015-02-27 20:22:01.714,87,1425097320.929005,37.78772528232048,-122.3969329114224,12.47795,-1,-1,10,65,-9999,1425097321.670404,-36.32134246826172,9.158782958984375,1.3177490234375,56.43803405761719,42.66474151611328,25,139349.01381775,-0.6480255126953125,-0.329437255859375,-0.3965301513671875,139349.005405,-0.5186900370770648,0.5709484481993626,-0.9749257507984634,139348.9536244583,-0.9642956081072823,-1.316357649155677,0.2261739408662455,-0.3742274343967438,0.8634726405143738,-0.07872146368026733,0.1433362662792206,-0.1597826480865479,-0.09832094609737396,XTrueNorthZVertical,0.2027164382009079,0.5798794569328025,0.4256367241141026,-0.6644390274386786,-0.9431561827659607,-0.2242505550384521,-0.2452917248010635,-39.06825256347656,34.96724319458008,-5.635080337524414,1,10.3.35.51,10.83.46.32,3,0
2015-02-27 20:22:01.790,88,1425097320.929005,37.78772528232048,-122.3969329114224,12.47795,-1,-1,10,65,-9999,1425097321.774343,-36.20198059082031,7.17083740234375,-0.096832275390625,60.74321746826172,46.96992111206055,25,139349.06284725,-0.70721435546875,-0.3289031982421875,-0.3270416259765625,139349.0571856667,-0.7647125922624758,0.3573762445804582,-1.75683996685787,139349.005405,-0.995281513447646,-1.271901914813286,0.2492155947034446,-0.5253061056137085,0.5812035202980042,-0.937357485294342,0.2796083986759186,-0.04710308462381363,-0.1024354174733162,XTrueNorthZVertical,0.1934614305144314,0.565587590872302,0.4459221249651389,-0.6662107710093982,-0.9261385798454285,-0.2466438561677933,-0.2853667140007019,-38.81067657470703,35.08333206176758,-6.609212875366211,1,10.3.35.51,10.83.46.32,3,0
2015-02-27 20:22:01.812,89,1425097320.929005,37.78772528232048,-122.3969329114224,12.47795,-1,-1,10,65,-9999,1425097321.774343,-36.20198059082031,7.17083740234375,-0.096832275390625,60.74321746826172,46.96992111206055,25,139349.1118612083,-0.5084228515625,-0.223907470703125,-0.4107666015625,139349.1089664167,-1.005992590178674,0.1883840260289351,-2.368638376701849,139349.0571856667,-1.049194902692526,-1.235375614215628,0.3039311410809772,-0.7713285684585571,0.3676312565803528,-1.719272136688232,0.1976700723171234,-0.05442525446414948,-0.0378335528075695,XTrueNorthZVertical,0.1799199289256108,0.5573050057089733,0.4794921180766335,-0.6535497222685469,-0.9009934663772583,-0.2992734909057617,-0.3140799105167389,-41.11361312866211,32.29072570800781,-6.91161060333252,1,10.3.35.51,10.83.46.32,3,0
2015-02-27 20:22:01.893,90,1425097320.929005,37.78772528232048,-122.3969329114224,12.47795,-1,-1,10,65,-9999,1425097321.877434,-36.66238403320312,-0.662078857421875,0.6187744140625,77.56735229492188,63.79405975341797,25,139349.1608973333,-0.5782623291015625,-0.2953033447265625,-0.3623046875,139349.1607468333,-1.191098264905721,-1.280566629094715,-2.484123960528154,139349.1089664167,-1.134337101266634,-1.18712898986194,0.3851492471197029,-1.012608528137207,0.1986389458179474,-2.3310706615448,0.2926397323608398,0.155482605099678,-0.04350975528359413,XTrueNorthZVertical,0.1611277413618769,0.5482581871478002,0.5274044296157014,-0.6287251862288894,-0.8593664169311523,-0.3756974637508392,-0.3469016253948212,-42.73698425292969,30.16718673706055,-6.65443229675293,1,10.3.35.51,10.83.46.32,3,0
2015-02-27 20:22:01.910,91,1425097320.929005,37.78772528232048,-122.3969329114224,12.47795,-1,-1,10,65,-9999,1425097321.877434,-36.66238403320312,-0.662078857421875,0.6187744140625,77.56735229492188,63.79405975341797,25,139349.2099222083,-0.946136474609375,-0.5316162109375,-0.3064117431640625,139349.1607468333,-1.191098264905721,-1.280566629094715,-2.484123960528154,139349.1607468333,-1.241108484808333,-1.171437545713675,0.4774264334902029,-1.19771409034729,-1.270311713218689,-2.446556806564331,0.2834541201591492,0.1948464661836624,-0.04603883624076843,XTrueNorthZVertical,0.1520268131096017,0.5515553431864925,0.5771608701933446,-0.582717652387173,-0.8182899355888367,-0.4594949185848236,-0.3453491032123566,-45.54633712768555,25.9243278503418,-5.852450370788574,1,10.3.35.51,10.83.46.32,3,0
2015-02-27 20:22:01.999,92,1425097320.929005,37.78772528232048,-122.3969329114224,12.47795,-1,-1,10,65,-9999,1425097321.980859,-34.41154479980469,-9.769287109375,2.882102966308594,97.7098388671875,83.93654632568359,25,139349.258972875,-1.092132568359375,-0.563140869140625,-0.3224334716796875,139349.26430825,-1.289632295761454,-0.2004185846788941,-2.145475597365351,139349.212527875,-1.370016013097335,-1.185537820614307,0.5562029392694764,-1.599181532859802,-1.482966780662537,-2.342610836029053,-0.1591206192970276,-0.003650913713499904,0.01274129562079906,XTrueNorthZVertical,0.1635421136807104,0.560069154499355,0.623351998573915,-0.5205850421332874,-0.7870158553123474,-0.5279653072357178,-0.3191530406475067,-49.68338012695312,17.66294479370117,0.6106052398681641,1,10.3.35.51,10.83.46.32,3,0
2015-02-27 20:22:02.008,93,1425097320.929005,37.78772528232048,-122.3969329114224,12.47795,-1,-1,10,65,-9999,1425097321.980859,-34.41154479980469,-9.769287109375,2.882102966308594,97.7098388671875,83.93654632568359,25,139349.3079985417,-0.9926605224609375,-0.5670166015625,-0.4181976318359375,139349.26430825,-1.289632295761454,-0.2004185846788941,-2.145475597365351,139349.26430825,-1.506067886688808,-1.151896220636877,0.6360118060009844,-1.296204447746277,-0.1902145147323608,-2.107834815979004,-0.3572185635566711,0.03085091710090637,0.004789894446730614,XTrueNorthZVertical,0.1624454362139379,0.5567762542007331,0.6690243479909913,-0.4647774583545122,-0.7349140048027039,-0.5939918160438538,-0.3272233605384827,-50.73870086669922,13.9592227935791,3.393322944641113,1,10.3.35.51,10.83.46.32,3,0
2015-02-27 20:22:02.093,94,1425097320.929005,37.78772528232048,-122.3969329114224,12.47795,-1,-1,10,65,-9999,1425097322.032985,-33.14971923828125,-13.4053955078125,2.682395935058594,105.7620239257812,91.98873138427734,25,139349.3570355417,-0.753021240234375,-0.6869964599609375,-0.4578857421875,139349.316089,-0.7035349883333936,0.6688129603570495,-1.010091195096306,139349.316089,-1.603958328778344,-1.069689669086277,0.6820950508135034,-0.7101069688796997,0.6790168881416321,-0.9724506139755249,-0.311846137046814,0.06340409815311432,-0.04528815299272537,XTrueNorthZVertical,0.1451658901219028,0.5408069204282578,0.7012813755350498,-0.4412019407000328,-0.6808143854141235,-0.6304206848144531,-0.3729094862937927,-36.77659606933594,14.3764009475708,-6.186195850372314,1,10.3.35.51,10.83.46.32,3,0
2015-02-27 20:22:02.106,95,1425097320.929005,37.78772528232048,-122.3969329114224,12.47795,-1,-1,10,65,-9999,1425097322.093546,-32.26303100585938,-15.27438354492188,1.650581359863281,109.9133148193359,96.14002227783203,25,139349.4060525,-0.6517486572265625,-0.687835693359375,-0.5418853759765625,139349.3678696667,-0.1724796279989819,0.06554598706513921,-0.2239694508306829,139349.3678696667,-1.641100092042804,-1.025814187968565,0.6906634555375788,-0.1790515631437302,0.07574982196092606,-0.1863293051719666,-0.05856829881668091,-0.05039023607969284,-0.05233773216605186,XTrueNorthZVertical,0.1366715974294643,0.5305867821294551,0.7130178515046742,-0.4374975034317725,-0.6591593623161316,-0.6370487213134766,-0.3995970785617828,-37.39942932128906,12.23934841156006,-6.996331691741943,1,10.3.35.51,10.83.46.32,3,0
2015-02-27 20:22:02.193,96,1425097322.171871,37.78767721384084,-122.3969166757302,12.4839,-1,-1,10,65,-9999,1425097322.172282,-31.51274108886719,-16.05596923828125,2.183135986328125,112.9050521850586,99.13175964355469,25,139349.4550994167,-0.419647216796875,-0.8305511474609375,-0.402374267578125,139349.4196502917,0.1925462804966199,-0.5848339038069268,-0.2926076342375131,139349.4196502917,-1.649975654932211,-1.030552214254851,0.6982075388926556,0.1859776824712753,-0.5746159553527832,-0.2549991011619568,0.02149849198758602,-0.1024240702390671,-0.1710619032382965,XTrueNorthZVertical,0.138159291752346,0.5328403617256079,0.7149866042143297,-0.431030504489487,-0.6569049954414368,-0.6428456902503967,-0.393986314535141,-37.47101211547852,12.00059413909912,-7.026846408843994,1,10.3.35.51,10.83.46.32,3,0
2015-02-27 20:22:02.209,97,1425097322.171871,37.78767721384084,-122.3969166757302,12.4839,-1,-1,10,65,-9999,1425097322.172282,-31.51274108886719,-16.05596923828125,2.183135986328125,112.9050521850586,99.13175964355469,25,139349.504132375,-0.542236328125,-0.8927154541015625,-0.4467926025390625,139349.4714309583,0.03495319035896298,-0.9383512279678602,-0.4607654844195144,139349.4714309583,-1.656619305570507,-1.056491724935335,0.7261098095129166,0.02842455729842186,-0.9281441569328308,-0.4232182204723358,0.219998374581337,-0.1879477202892303,-0.1026580631732941,XTrueNorthZVertical,0.13976636784826,0.5445567133225097,0.7159005583377153,-0.4140165696604735,-0.6510286331176758,-0.6639657020568848,-0.3678466975688934,-37.71909713745117,11.60739231109619,-6.325003147125244,1,10.3.35.51,10.83.46.32,3,0
2015-02-27 20:22:02.267,98,1425097322.171871,37.78767721384084,-122.3969166757302,12.4839,-1,-1,10,65,-9999,1425097322.241357,-29.55178070068359,-17.53421020507812,4.429824829101562,117.7246780395508,103.9513854980469,25,139349.5531704584,-0.6184539794921875,-0.860992431640625,-0.480072021484375,139349.52321175,-0.04816300199797401,-1.655378056699704,-0.9843972832153302,139349.52321175,-1.674778678334757,-1.110150206792013,0.7549056276686172,-0.05469156801700592,-1.645171165466309,-0.9468504190444946,0.02769306860864162,-0.149771511554718,-0.09666033089160919,XTrueNorthZVertical,0.1542820941669065,0.5606375780682313,0.7169350656504714,-0.3845603127024464,-0.6524184346199036,-0.685219943523407,-0.3237650692462921,-38.55400085449219,9.875057220458984,-3.679675579071045,1,10.3.35.51,10.83.46.32,3,0
2015-02-27 20:22:02.304,99,1425097322.171871,37.78767721384084,-122.3969166757302,12.4839,-1,-1,10,65,-9999,1425097322.292116,-27.79544830322266,-18.50271606445312,5.644699096679688,121.8255615234375,108.0522689819336,25,139349.6021905833,-0.5029449462890625,-0.88421630859375,-0.4153900146484375,139349.5749924167,-0.1956890768990224,-0.8029417370783453,-0.7035192756829621,139349.5749924167,-1.708135795767301,-1.150666192538075,0.7919732934986049,-0.2022175788879395,-0.7927349209785461,-0.6659728288650513,0.1135686635971069,-0.1695763617753983,-0.1599300354719162,XTrueNorthZVertical,0.1658995856264153,0.5737782864876002,0.7215000678626311,-0.3502762317176871,-0.6413549184799194,-0.7117407917976379,-0.2865116000175476,-38.95584106445312,8.75327205657959,-1.813937187194824,1,10.3.35.51,10.83.46.32,3,0
2015-02-27 20:22:02.367,100,1425097322.171871,37.78767721384084,-122.3969166757302,12.4839,-1,-1,10,65,-9999,1425097322.344798,-26.53361511230469,-19.65811157226562,6.177253723144531,125.8912658691406,112.1179733276367,25,139349.6512238334,-0.3470611572265625,-0.8652801513671875,-0.4100189208984375,139349.6267731667,-0.561683310766977,-0.009651828422665175,-0.7852727285101055,139349.6267731667,-1.756048242684317,-1.132759481877943,0.8136536501413757,-0.5682103037834167,0.0005556816468015313,-0.7477309703826904,0.1453302651643753,-0.1629384756088257,-0.1134654656052589,XTrueNorthZVertical,0.1659294358378069,0.5716641919132786,0.7319317369553681,-0.3315771213940576,-0.6219995617866516,-0.7268015146255493,-0.2913349568843842,-39.26520538330078,7.463065147399902,-0.1179141998291016,1,10.3.35.51,10.83.46.32,3,0
2015-02-27 20:22:02.401,101,1425097322.171871,37.78767721384084,-122.3969166757302,12.4839,-1,-1,10,65,-9999,1425097322.344798,-26.53361511230469,-19.65811157226562,6.177253723144531,125.8912658691406,112.1179733276367,25,139349.700243125,-0.1762542724609375,-0.8552093505859375,-0.3739166259765625,139349.678553875,-0.7126829466778157,-0.03402001871299921,-0.9275017760029863,139349.678553875,-1.82679723366051,-1.075050153447217,0.8365425318911863,-0.7192099094390869,-0.02381259948015213,-0.8899604082107544,0.3456726372241974,-0.1067901477217674,-0.08109912276268005,XTrueNorthZVertical,0.1571616900461543,0.5620825012505313,0.7484190402087356,-0.31501172392564,-0.5893707871437073,-0.7423309683799744,-0.3187269270420074,-39.62857055664062,5.195745468139648,0.2195487022399902,1,10.3.35.51,10.83.46.32,3,0
2015-02-27 20:22:02.466,102,1425097322.171871,37.78767721384084,-122.3969166757302,12.4839,-1,-1,10,65,-9999,1425097322.447659,-24.3680419921875,-22.73348999023438,5.794471740722656,136.8195495605469,123.046257019043,25,139349.7492892917,-0.239471435546875,-0.863677978515625,-0.26593017578125,139349.7303345833,-0.962075199590504,-1.221955513508142,-0.9215293709423746,139349.7303345833,-1.915970105285328,-1.040464946301835,0.8536798500797591,-0.9686020612716675,-1.211748242378235,-0.8839883804321289,0.3649277091026306,-0.1111184358596802,0.03082628920674324,XTrueNorthZVertical,0.1635307006280065,0.5541136647849844,0.7644901909347339,-0.285955390582215,-0.5669388175010681,-0.7537039518356323,-0.3324315249919891,-39.75004577636719,4.136706352233887,0.5378298759460449,1,10.3.35.51,10.83.46.32,3,0
2015-02-27 20:22:02.502,103,1425097322.171871,37.78767721384084,-122.3969166757302,12.4839,-1,-1,10,65,-9999,1425097322.49909,-22.57760620117188,-24.55154418945312,5.811126708984375,143.1269836425781,129.3536834716797,25,139349.7983528333,-0.3028717041015625,-0.844512939453125,-0.182220458984375,139349.7821150833,-1.11232648723503,-2.168563872435793,-1.060049700301211,139349.7821150833,-2.023058038257115,-1.048770478256567,0.868859199775557,-1.118853330612183,-2.158356666564941,-1.022509098052979,0.2889308333396912,-0.08363617956638336,0.1209955513477325,XTrueNorthZVertical,0.1916715797182267,0.5497976671214727,0.7773978004110351,-0.2379856543154984,-0.5596980452537537,-0.7635928392410278,-0.32196906208992,-39.80643081665039,2.473308563232422,2.607388019561768,1,10.3.35.51,10.83.46.32,3,0
2015-02-27 20:22:02.601,104,1425097322.171871,37.78767721384084,-122.3969166757302,12.4839,-1,-1,10,65,-9999,1425097322.558033,-19.81053924560547,-26.4122314453125,7.015487670898438,151.6909637451172,137.9176635742188,25,139349.8473477083,-0.392059326171875,-0.8889007568359375,-0.11029052734375,139349.8338960833,-1.181893314913971,-2.452070686280178,-1.181205154088295,139349.8338960833,-2.144690451563286,-1.073280270407148,0.8874960202994662,-1.188420057296753,-2.441863536834717,-1.143664836883545,0.195274144411087,-0.1144755929708481,0.1698869466781616,XTrueNorthZVertical,0.2291584455806489,0.5448219531567391,0.7866828837347417,-0.1782847935302208,-0.5548170208930969,-0.7754932641983032,-0.3013108968734741,-38.91690826416016,-1.066434860229492,9.044593811035156,1,10.3.35.51,10.83.46.32,3,0
2015-02-27 20:22:02.605,105,1425097322.171871,37.78767721384084,-122.3969166757302,12.4839,-1,-1,10,65,-9999,1425097322.558033,-19.81053924560547,-26.4122314453125,7.015487670898438,151.6909637451172,137.9176635742188,25,139349.8963675833,-0.37689208984375,-0.8802337646484375,-0.04791259765625,139349.8856765833,-1.159699595653687,-2.279317817953355,-1.315266020201794,139349.8338960833,-2.144690451563286,-1.073280270407148,0.8874960202994662,-1.188420057296753,-2.441863536834717,-1.143664836883545,0.195274144411087,-0.1144755929708481,0.1698869466781616,XTrueNorthZVertical,0.2291584455806489,0.5448219531567391,0.7866828837347417,-0.1782847935302208,-0.5548170208930969,-0.7754932641983032,-0.3013108968734741,-38.91690826416016,-1.066434860229492,9.044593811035156,1,10.3.35.51,10.83.46.32,3,0
2015-02-27 20:22:02.667,106,1425097322.171871,37.78767721384084,-122.3969166757302,12.4839,-1,-1,10,65,-9999,1425097322.629708,-14.60979461669922,-29.04579162597656,8.363494873046875,166.145263671875,152.3719635009766,25,139349.9454100833,-0.306884765625,-0.9739837646484375,-0.038360595703125,139349.937457375,-1.261300789136864,-2.105918866746078,-1.032006880338786,139349.937457375,-2.40974291765564,-1.090365356129217,0.9374246451443813,-1.267827391624451,-2.095711946487427,-0.9944673776626587,0.2131880819797516,-0.1435331851243973,0.2329949140548706,XTrueNorthZVertical,0.2938106012194383,0.526219126046922,0.7961353660676949,-0.05419614264437637,-0.524864137172699,-0.8060365319252014,-0.2735375165939331,-36.41691207885742,-5.654240608215332,15.46951103210449,1,10.3.35.51,10.83.46.32,3,0
2015-02-27 20:22:02.699,107,1425097322.171871,37.78767721384084,-122.3969166757302,12.4839,-1,-1,10,65,-9999,1425097322.679976,-11.16901397705078,-31.15846252441406,9.235725402832031,177.3269500732422,163.5536499023438,25,139349.9944287083,-0.4004974365234375,-1.0069580078125,-0.056182861328125,139349.9892380833,-1.447143893169754,-2.843414218984052,-1.038743080000032,139349.937457375,-2.40974291765564,-1.090365356129217,0.9374246451443813,-1.267827391624451,-2.095711946487427,-0.9944673776626587,0.2131880819797516,-0.1435331851243973,0.2329949140548706,XTrueNorthZVertical,0.2938106012194383,0.526219126046922,0.7961353660676949,-0.05419614264437637,-0.524864137172699,-0.8060365319252014,-0.2735375165939331,-36.41691207885742,-5.654240608215332,15.46951103210449,1,10.3.35.51,10.83.46.32,3,0
2015-02-27 20:22:02.766,108,1425097322.171871,37.78767721384084,-122.3969166757302,12.4839,-1,-1,10,65,-9999,1425097322.7342,-7.758758544921875,-32.92550659179688,8.470184326171875,187.9074249267578,174.1341247558594,25,139350.0434525833,-0.698699951171875,-1.17047119140625,-0.178070068359375,139350.0410186667,-1.548573312762621,-3.556447637661323,-1.341041691128235,139349.9892380833,-2.550582878995254,-1.098666510094171,0.9489154221135331,-1.453667879104614,-2.833211183547974,-1.00120210647583,0.1557809561491013,-0.1772671192884445,0.2157774716615677,XTrueNorthZVertical,0.3308423512190221,0.5080085568357832,0.7952471405081892,0.007253366310106537,-0.518833339214325,-0.8127841353416443,-0.2649412751197815,-32.77994537353516,-10.07416725158691,20.52934837341309,1,10.3.35.51,10.83.46.32,1,0
2015-02-27 20:22:02.804,109,1425097322.171871,37.78767721384084,-122.3969166757302,12.4839,-1,-1,10,65,-9999,1425097322.788045,-4.365562438964844,-33.58816528320312,7.288581848144531,197.5492706298828,183.7759704589844,25,139350.0924645417,-0.844757080078125,-1.00262451171875,-0.2109527587890625,139350.092799375,-1.467429990141215,-2.408293111649238,-1.735911515431482,139350.0410186667,-2.713327759814764,-1.129883130630881,0.9649777920524661,-1.555097103118896,-3.546244621276855,-1.303501129150391,-0.1338280588388443,-0.3439335823059082,0.07753369212150574,XTrueNorthZVertical,0.3801424022347442,0.4837190549074497,0.7838978235280293,0.08373657025724378,-0.5149756669998169,-0.8220362663269043,-0.2430152595043182,-30.50600051879883,-12.00511932373047,22.86326217651367,1,10.3.35.51,10.83.46.32,1,0
2015-02-27 20:22:02.896,110,1425097322.171871,37.78767721384084,-122.3969166757302,12.4839,-1,-1,10,65,-9999,1425097322.840335,-0.5290374755859375,-34.21681213378906,5.641006469726562,209.5669403076172,195.7936401367188,25,139350.1415028333,-0.6328277587890625,-0.859222412109375,-0.364654541015625,139350.1445804167,-1.231591096648158,-0.9564812297207926,-1.168719988581894,139350.092799375,-2.896879140910998,-1.131293659314951,1.006492294388995,-1.47395384311676,-2.398090124130249,-1.698371291160583,-0.3607574701309204,-0.1576634794473648,0.01661084964871407,XTrueNorthZVertical,0.4163102769203981,0.4614151589445715,0.765592935807739,0.1662806123866824,-0.4839996099472046,-0.8449610471725464,-0.2275636047124863,-25.89888572692871,-15.3308162689209,26.29983520507812,1,10.3.35.51,10.83.46.32,1,0
2015-02-27 20:22:02.899,111,1425097322.171871,37.78767721384084,-122.3969166757302,12.4839,-1,-1,10,65,-9999,1425097322.840335,-0.5290374755859375,-34.21681213378906,5.641006469726562,209.5669403076172,195.7936401367188,25,139350.1905250833,-0.5323638916015625,-0.7708587646484375,-0.3530120849609375,139350.1445804167,-1.231591096648158,-0.9564812297207926,-1.168719988581894,139350.1445804167,-3.076833916953208,-1.051562096404235,1.037721589258381,-1.238114833831787,-0.9462785124778748,-1.131180167198181,-0.1916228532791138,0.002026200061663985,-0.1124858781695366,XTrueNorthZVertical,0.4217185349331834,0.4427969585876237,0.7587573853144568,0.2244360532042808,-0.4412049055099487,-0.8612486124038696,-0.2521686553955078,-19.19291305541992,-20.95093536376953,28.1097526550293,1,10.3.35.51,10.83.46.32,1,0
2015-02-27 20:22:02.969,112,1425097322.171871,37.78767721384084,-122.3969166757302,12.4839,-1,-1,10,65,-9999,1425097322.913545,4.535194396972656,-34.64158630371094,2.728614807128906,221.3708190917969,207.5975189208984,25,139350.2396700833,-0.4058074951171875,-0.7643890380859375,-0.38446044921875,139350.248141625,-1.055605417074087,-1.531121351823223,-0.3129608428684437,139350.196360875,3.066285546456905,-0.9788919882218016,1.05087326153009,-0.9997392296791077,-1.140076041221619,-0.8784041404724121,-0.1200685948133469,0.09699863940477371,-0.07581885159015656,XTrueNorthZVertical,0.4230949097557751,0.4270762009504146,0.754117570422662,0.2643922973312973,-0.4122952818870544,-0.8678573966026306,-0.2771932184696198,-17.72355651855469,-22.52639389038086,27.85507011413574,1,10.3.35.51,10.83.46.32,1,0
2015-02-27 20:22:03.000,113,1425097322.171871,37.78767721384084,-122.3969166757302,12.4839,-1,-1,10,65,-9999,1425097322.966587,6.564289093017578,-34.38671875,0.41534423828125,226.9771881103516,213.2038879394531,25,139350.2885717083,-0.453338623046875,-0.8109283447265625,-0.3562164306640625,139350.248141625,-1.055605417074087,-1.531121351823223,-0.3129608428684437,139350.248141625,2.948317006292591,-0.9454544589464686,1.042691688043738,-1.062130331993103,-1.520915269851685,-0.2754263579845428,0.002733633620664477,0.09937465190887451,-0.08949195593595505,XTrueNorthZVertical,0.4357701545877931,0.4032618598078143,0.7465666065584953,0.3002041434663966,-0.4085411429405212,-0.863763689994812,-0.2949684858322144,-15.43336200714111,-24.45088958740234,27.59407424926758,1,10.3.35.51,10.83.46.32,1,0
2015-02-27 20:22:03.048,114,1425097322.171871,37.78767721384084,-122.3969166757302,12.4839,-1,-1,10,65,-9999,1425097323.025467,7.382743835449219,-34.18283081054688,-1.548439025878906,231.3582916259766,217.5849914550781,25,139350.3376035833,-0.4973602294921875,-0.7388916015625,-0.353424072265625,139350.2999224167,-1.00418963012069,-1.310035838136987,-0.376125164970725,139350.2999224167,2.852388425936224,-0.9354870662952054,1.023001437314678,-1.010684251785278,-1.299868822097778,-0.3385209441184998,-0.04894901812076569,0.04634775966405869,-0.04575254395604134,XTrueNorthZVertical,0.4520212428128009,0.3756950329981417,0.7384209839877935,0.3305517654177356,-0.4191906154155731,-0.8536750078201294,-0.3090600669384003,-11.79496574401855,-26.95386695861816,27.05245971679688,1,10.3.35.51,10.83.46.32,1,0
2015-02-27 20:22:03.095,115,1425097322.171871,37.78767721384084,-122.3969166757302,12.4839,-1,-1,10,65,-9999,1425097323.025467,7.382743835449219,-34.18283081054688,-1.548439025878906,231.3582916259766,217.5849914550781,25,139350.3866105,-0.5108642578125,-0.7711029052734375,-0.3047637939453125,139350.351703,-1.048640718191312,-0.6804267395547761,-0.473894868593605,139350.351703,2.751873533083436,-0.8976235209398273,1.007949254193555,-1.055136561393738,-0.6702570915222168,-0.4362939596176147,-0.07774323970079422,0.1127529069781303,-0.01575333811342716,XTrueNorthZVertical,0.4570033160532217,0.3532809280503658,0.733444219473786,0.3583296148806399,-0.4171908497810364,-0.8457393646240234,-0.3326811194419861,-10.53008842468262,-27.89120101928711,26.62077903747559,1,10.3.35.51,10.83.46.32,1,0
2015-02-27 20:22:03.147,116,1425097322.171871,37.78767721384084,-122.3969166757302,12.4839,-1,-1,10,65,-9999,1425097323.095499,8.252357482910156,-33.07843017578125,-4.394248962402344,237.3575286865234,223.584228515625,25,139350.4356990833,-0.4644622802734375,-0.627532958984375,-0.38427734375,139350.4034837083,-1.058041410523182,-0.5212088548360617,-0.1867733462016551,139350.4034837083,2.657047117705948,-0.84353099666144,0.983684226254989,-1.064539670944214,-0.5110357403755188,-0.1491745561361313,-0.1229383945465088,0.07863767445087433,0.04008691012859344,XTrueNorthZVertical,0.4536772025231798,0.3317120656420617,0.7343517363693269,0.3806200332317788,-0.4138047695159912,-0.8325439095497131,-0.3682881891727448,-9.11118221282959,-29.30773544311523,25.60294342041016,1,10.3.35.51,10.83.46.32,1,0
2015-02-27 20:22:03.194,117,1425097322.171871,37.78767721384084,-122.3969166757302,12.4839,-1,-1,10,65,-9999,1425097323.147764,8.917350769042969,-32.41580200195312,-5.975265502929688,239.70458984375,225.9312896728516,25,139350.4846980833,-0.433319091796875,-0.7091217041015625,-0.3763427734375,139350.4552645833,-0.8677191358528876,-1.523677283944234,-0.2718967630721849,139350.4552645833,2.581239830475073,-0.8349266884224054,0.9585663534947425,-0.8742172718048096,-1.513504266738892,-0.2342983335256577,-0.02116857841610909,0.2295776009559631,-0.0003249921137467027,XTrueNorthZVertical,0.4622982607515209,0.3056204733642173,0.727792944687208,0.4039725919144271,-0.4259902238845825,-0.8183684945106506,-0.3857528865337372,-7.252667427062988,-31.37584495544434,23.67325210571289,1,10.3.35.51,10.83.46.32,1,0
2015-02-27 20:22:03.245,118,1425097322.171871,37.78767721384084,-122.3969166757302,12.4839,-1,-1,10,65,-9999,1425097323.199188,9.292476654052734,-31.60025024414062,-7.606201171875,242.6371154785156,228.8638153076172,25,139350.533939125,-0.5909881591796875,-0.7729034423828125,-0.313873291015625,139350.50704525,-1.039148413117942,-2.017475286944546,-0.3728817010791175,139350.50704525,2.510805854067903,-0.8734929798455613,0.9377110292696665,-1.045646548271179,-2.007302284240723,-0.3352839648723602,-0.01044048089534044,0.01024650596082211,0.02049927413463593,XTrueNorthZVertical,0.4857413908231873,0.2722044750482261,0.7091873832462164,0.4324502993836932,-0.4535335302352905,-0.8062059879302979,-0.3799200356006622,5.656998634338379,-35.42905044555664,-6.494088649749756,1,10.3.35.51,10.83.46.32,1,0
2015-02-27 20:22:03.297,119,1425097322.171871,37.78767721384084,-122.3969166757302,12.4839,-1,-1,10,65,-9999,1425097323.25058,9.445938110351562,-31.00553894042969,-9.486770629882812,246.4389495849609,232.6656494140625,25,139350.5827709583,-0.6525726318359375,-0.72613525390625,-0.3909912109375,139350.5588260833,-1.045114692908047,-0.706273250566213,-0.9967823138647437,139350.5588260833,2.401217878053616,-0.8516902282808364,0.9313193884624136,-1.05161464214325,-0.6960983872413635,-0.959184467792511,-0.217737004160881,0.07000140100717545,0.07749080657958984,XTrueNorthZVertical,0.4920434892842681,0.2476719727067606,0.6914968223499044,0.4673156580474003,-0.4490110278129578,-0.8024080395698547,-0.3931035995483398,5.510347366333008,-35.01214218139648,-8.554435729980469,1,10.3.35.51,10.83.46.32,1,0
2015-02-27 20:22:03.342,120,1425097322.171871,37.78767721384084,-122.3969166757302,12.4839,-1,-1,10,65,-9999,1425097323.30236,9.272594451904297,-29.78031921386719,-9.155128479003906,251.9885559082031,238.2152557373047,15,139350.6318152084,-0.429901123046875,-0.693115234375,-0.4460601806640625,139350.6106069583,-0.5470798669295275,0.6538867413954824,-0.369033433303953,139350.6106069583,2.312032227081525,-0.7790993312035023,0.9200532859956108,-0.5535817742347717,0.6640650629997253,-0.3314390182495117,-0.1651315689086914,0.1540933698415756,0.01680879108607769,XTrueNorthZVertical,0.4769474219256847,0.2387500538592643,0.6906748404311662,0.4883521416803764,-0.4256429672241211,-0.7956339120864868,-0.4310391247272491,6.999232292175293,-33.88442993164062,-11.4999418258667,1,10.3.35.51,10.83.46.32,1,0
2015-02-27 20:22:03.395,121,1425097322.171871,37.78767721384084,-122.3969166757302,12.4839,-1,-1,10,65,-9999,1425097323.35413,10.17615509033203,-28.87973022460938,-10.53648376464844,254.6439514160156,240.8706512451172,15,139350.68083825,-0.4771728515625,-0.66375732421875,-0.36175537109375,139350.6623874583,-0.130404878569038,-0.5647675176253978,-0.001410410113305965,139350.6623874583,2.282384351923999,-0.7521005349794428,0.9074545163775772,-0.1368951499462128,-0.5545811653137207,0.03613392263650894,0.02348056063055992,0.1051691249012947,-0.001651920261792839,XTrueNorthZVertical,0.4699033789558356,0.2331569696682784,0.6929976636014498,0.49455319347034,-0.4206668436527252,-0.7879388928413391,-0.4496572911739349,7.471248626708984,-33.66049957275391,-11.8551025390625,1,10.3.35.51,10.83.46.32,1,0
2015-02-27 20:22:03.440,122,1425097322.171871,37.78767721384084,-122.3969166757302,12.4839,-1,-1,10,65,-9999,1425097323.40682,10.46597290039062,-28.217041015625,-11.31868743896484,255.9604339599609,242.1871337890625,15,139350.7298774583,-0.5414581298828125,-0.603424072265625,-0.404205322265625,139350.714168125,-0.1666789968286803,-1.040961759504177,0.1721392760116697,139350.714168125,2.291749484500436,-0.8019242959386292,0.8938701330961344,-0.1731703728437424,-1.030773401260376,0.2096810787916183,-0.1682632118463516,0.1906498968601227,0.0106095252558589,XTrueNorthZVertical,0.4847108880737083,0.2174386899589696,0.6868762227141494,0.4959604891011502,-0.4501907825469971,-0.7795018553733826,-0.4355515539646149,7.141451835632324,-33.49667739868164,-12.50458335876465,1,10.3.35.51,10.83.46.32,1,0
2015-02-27 20:22:03.496,123,1425097322.171871,37.78767721384084,-122.3969166757302,12.4839,-1,-1,10,65,-9999,1425097323.457706,10.72169876098633,-27.792236328125,-11.70147705078125,256.8291931152344,243.055908203125,15,139350.7789021667,-0.5628509521484375,-0.7349395751953125,-0.4110870361328125,139350.7659490833,-0.3730939550179968,-0.2805768040130801,-0.3763355546968413,139350.714168125,2.291749484500436,-0.8019242959386292,0.8938701330961344,-0.1731703728437424,-1.030773401260376,0.2096810787916183,-0.1682632118463516,0.1906498968601227,0.0106095252558589,XTrueNorthZVertical,0.4847108880737083,0.2174386899589696,0.6868762227141494,0.4959604891011502,-0.4501907825469971,-0.7795018553733826,-0.4355515539646149,7.141451835632324,-33.49667739868164,-12.50458335876465,1,10.3.35.51,10.83.46.32,1,0
2015-02-27 20:22:03.542,124,1425097322.171871,37.78767721384084,-122.3969166757302,12.4839,-1,-1,10,65,-9999,1425097323.510207,10.17615509033203,-27.5203857421875,-12.33389282226562,258.1866149902344,244.4133148193359,15,139350.8279454167,-0.561614990234375,-0.6592254638671875,-0.4218292236328125,139350.8177299167,-0.05286374763807287,0.9731800487039165,-0.3681953365089051,139350.8177299167,2.243362177780047,-0.7803517006235055,0.8852812024389102,-0.05938436090946198,0.9834128618240356,-0.3306871056556702,-0.1727641522884369,0.07423342019319534,0.0455448105931282,XTrueNorthZVertical,0.4816000311921875,0.2076295949777945,0.6821009678245343,0.509597499920928,-0.4453846514225006,-0.7740930318832397,-0.4499027132987976,6.378459930419922,-33.12125396728516,-13.84522151947021,1,10.3.35.51,10.83.46.32,1,0
2015-02-27 20:22:03.594,125,1425097322.171871,37.78767721384084,-122.3969166757302,12.4839,-1,-1,10,65,-9999,1425097323.561124,10.63645935058594,-26.89164733886719,-12.25067901611328,258.6299133300781,244.8566284179688,15,139350.8769635,-0.4464263916015625,-0.6675872802734375,-0.4376678466796875,139350.8695104167,0.1428772609022061,0.3259024741856837,-0.07453761785357375,139350.8177299167,2.243362177780047,-0.7803517006235055,0.8852812024389102,-0.05938436090946198,0.9834128618240356,-0.3306871056556702,-0.1727641522884369,0.07423342019319534,0.0455448105931282,XTrueNorthZVertical,0.4816000311921875,0.2076295949777945,0.6821009678245343,0.509597499920928,-0.4453846514225006,-0.7740930318832397,-0.4499027132987976,6.378459930419922,-33.12125396728516,-13.84522151947021,1,10.3.35.51,10.83.46.32,1,0
2015-02-27 20:22:03.641,126,1425097322.171871,37.78767721384084,-122.3969166757302,12.4839,-1,-1,10,65,-9999,1425097323.613657,11.18201065063477,-27.09556579589844,-11.85125732421875,257.5895385742188,243.8162384033203,15,139350.9261140417,-0.6449127197265625,-0.6855926513671875,-0.366455078125,139350.9212915,0.2911791146287946,-0.231739223310989,-0.1426809859298672,139350.8695104167,2.238739880529914,-0.7379256922086559,0.8937654241572887,0.1363560408353806,0.3361363112926483,-0.0370309092104435,-0.009653449058532715,0.1270619630813599,0.02363180741667747,XTrueNorthZVertical,0.4684926962372434,0.2208132783764555,0.6888594906262667,0.5071771611842413,-0.4214683771133423,-0.7794362306594849,-0.4635121822357178,6.998373985290527,-33.02779769897461,-13.76880264282227,1,10.3.35.51,10.83.46.32,1,0
2015-02-27 20:22:03.695,127,1425097322.171871,37.78767721384084,-122.3969166757302,12.4839,-1,-1,10,65,-9999,1425097323.664755,11.77869033813477,-27.04457092285156,-11.56832885742188,257.6597595214844,243.886474609375,15,139350.9750255,-0.6221923828125,-0.6706695556640625,-0.2840423583984375,139350.9730720417,0.4936893460278369,0.7696511581879187,-0.3615914959538356,139350.9212915,2.259546423572367,-0.7655761936321511,0.8931193768807344,0.2846255004405975,-0.2214542329311371,-0.1052170023322105,-0.1715319752693176,0.09819942712783813,0.06970615684986115,XTrueNorthZVertical,0.4756532133368261,0.2184747220844859,0.6877508843664626,0.5030124436764881,-0.4344708323478699,-0.7790313363075256,-0.4520456194877625,6.969533920288086,-33.20736694335938,-13.3449821472168,1,10.3.35.51,10.83.46.32,1,0
2015-02-27 20:22:03.735,128,1425097322.171871,37.78767721384084,-122.3969166757302,12.4839,-1,-1,10,65,-9999,1425097323.717117,12.46061706542969,-26.84066772460938,-10.76947784423828,257.0889892578125,243.3157043457031,15,139351.0240744167,-0.4952545166015625,-0.7912750244140625,-0.23931884765625,139351.024852875,0.5805214470537615,1.646149404574253,-0.199169562127647,139350.9730720417,2.294647222280779,-0.7928575048233293,0.9045421338240071,0.4870672821998596,0.7800189852714539,-0.3241630494594574,-0.2017568647861481,0.1137179359793663,0.1435452699661255,XTrueNorthZVertical,0.4822785284639397,0.2247917542941791,0.6870701918015006,0.4947834078762509,-0.4402719438076019,-0.7861422300338745,-0.433752179145813,6.260834693908691,-33.47586822509766,-13.02153778076172,1,10.3.35.51,10.83.46.32,1,0
2015-02-27 20:22:03.800,129,1425097322.171871,37.78767721384084,-122.3969166757302,12.4839,-1,-1,10,65,-9999,1425097323.76978,13.80743408203125,-27.367431640625,-9.621124267578125,255.7109527587891,241.9376525878906,15,139351.0730995833,-0.4423980712890625,-0.891571044921875,-0.2321929931640625,139351.024852875,0.5805214470537615,1.646149404574253,-0.199169562127647,139351.024852875,2.309146284040317,-0.7382252166264688,0.9340592699683327,0.5738970637321472,1.656519412994385,-0.1617416441440582,-0.09511964023113251,0.01276507508009672,0.200466975569725,XTrueNorthZVertical,0.4644206168490151,0.2538120875390266,0.6959945036280067,0.4852675002223527,-0.4001348912715912,-0.8040400743484497,-0.4397858381271362,7.059086799621582,-33.65523147583008,-12.11969947814941,1,10.3.35.51,10.83.46.32,1,0
2015-02-27 20:22:03.832,130,1425097322.171871,37.78767721384084,-122.3969166757302,12.4839,-1,-1,10,65,-9999,1425097323.82457,14.76214218139648,-27.707275390625,-7.424278259277344,252.6907958984375,238.9174957275391,15,139351.1222503333,-0.538177490234375,-0.8843841552734375,-0.16815185546875,139351.1284143333,1.511116218346766,2.366220492748166,0.4402919009073122,139351.0766336667,2.358202387117573,-0.6949699134182634,0.9574551732730786,0.9289907217025757,1.683916807174683,0.3751411437988281,-0.07380371540784836,-0.0738416388630867,0.209911972284317,XTrueNorthZVertical,0.4447056557281905,0.2849287642980917,0.7114431837847952,0.4635742187318673,-0.3685943484306335,-0.8177294135093689,-0.4421049654483795,8.565177917480469,-34.11688232421875,-9.595223426818848,1,10.3.35.51,10.83.46.32,1,0
2015-02-27 20:22:03.897,131,1425097322.171871,37.78767721384084,-122.3969166757302,12.4839,-1,-1,10,65,-9999,1425097323.82457,14.76214218139648,-27.707275390625,-7.424278259277344,252.6907958984375,238.9174957275391,15,139351.1711707083,-0.33782958984375,-0.9647979736328125,-0.2005615234375,139351.1284143333,1.511116218346766,2.366220492748166,0.4402919009073122,139351.1284143333,2.464532863119558,-0.6841108577635164,0.990759090485421,1.504491806030273,2.376590251922607,0.4777191281318665,-0.1918153464794159,-0.0479419119656086,0.2565805613994598,XTrueNorthZVertical,0.4270768945702645,0.3244057947743752,0.7288260033472701,0.4256510827821945,-0.3463621437549591,-0.836442232131958,-0.4247324168682098,8.583431243896484,-34.50303649902344,-8.07820987701416,1,10.3.35.51,10.83.46.32,1,0
2015-02-27 20:22:03.929,132,1425097322.171871,37.78767721384084,-122.3969166757302,12.4839,-1,-1,10,65,-9999,1425097323.897884,14.37002944946289,-28.50593566894531,-2.614509582519531,244.3392486572266,230.5659484863281,15,139351.2202192083,-0.073822021484375,-1.272659301757812,-0.255462646484375,139351.1801950833,1.937533316290874,3.979377059841863,0.9688188561028027,139351.1801950833,2.620755796237338,-0.6526523904932202,1.040199561465775,1.930907964706421,3.989745616912842,1.00624942779541,-0.03050869144499302,-0.1022927388548851,0.2014814615249634,XTrueNorthZVertical,0.3900057696514553,0.383241443408416,0.7532392250957788,0.3655846638710455,-0.3073208928108215,-0.8625052571296692,-0.4020429849624634,8.457964897155762,-35.12610244750977,-4.900211334228516,1,10.3.35.51,10.83.46.32,1,0
2015-02-27 20:22:03.998,133,1425097322.171871,37.78767721384084,-122.3969166757302,12.4839,-1,-1,10,65,-9999,1425097323.950306,13.00616073608398,-29.52549743652344,1.912315368652344,234.9652252197266,221.1919250488281,15,139351.2692362083,0.033538818359375,-1.184677124023438,-0.4253082275390625,139351.2319761667,1.719243056484785,3.595925006080112,1.670004403722528,139351.2319761667,2.856142012149028,-0.6566534014602873,1.072500884421985,1.712617874145508,3.606293201446533,1.707435369491577,0.2629677653312683,-0.4205669462680817,0.1020494103431702,XTrueNorthZVertical,0.3431689364891787,0.4392786680847987,0.7820037066183301,0.2788180708230877,-0.2917611002922058,-0.8783984780311584,-0.3785386681556702,5.867201805114746,-35.90743637084961,2.371590614318848,1,10.3.35.51,10.83.46.32,1,0
2015-02-27 20:22:04.029,134,1425097322.171871,37.78767721384084,-122.3969166757302,12.4839,-1,-1,10,65,-9999,1425097324.003993,10.36367797851562,-30.35812377929688,6.056365966796875,222.9818267822266,209.2085266113281,15,139351.3185121667,-0.082733154296875,-1.052474975585938,-0.4066619873046875,139351.2837567083,1.023532968066263,1.483175930086309,1.62428538465692,139351.2837567083,3.083275005357923,-0.7342312276419605,1.068557702079588,1.016943216323853,1.493493676185608,1.661792993545532,0.3475477397441864,-0.2822605967521667,-0.07999026775360107,XTrueNorthZVertical,0.3226291880867861,0.466081359846496,0.7976187409726873,0.2061137987497007,-0.3225385844707489,-0.8765071034431458,-0.3573571443557739,3.657101631164551,-35.98749160766602,4.573659896850586,1,10.3.35.51,10.83.46.32,1,0
2015-02-27 20:22:04.067,135,1425097322.171871,37.78767721384084,-122.3969166757302,12.4839,-1,-1,10,65,-9999,1425097324.055391,7.687099456787109,-30.7489013671875,8.103431701660156,215.8102569580078,202.0369567871094,15,139351.3673180833,-0.1467437744140625,-0.91571044921875,-0.4133148193359375,139351.3355375417,0.3560989925216562,0.5097591263614841,1.000532843627902,139351.3355375417,-3.053463859316166,-0.8195195229708171,1.044237478463219,0.3495093286037445,0.5200768113136292,1.038040161132812,0.2765215337276459,-0.1644196063280106,-0.06864766031503677,XTrueNorthZVertical,0.3248242934628341,0.4721990494602378,0.8029910489631851,0.1634704631975052,-0.3672808110713959,-0.8645415902137756,-0.3430344760417938,0.5263528823852539,-35.87162399291992,6.507077217102051,1,10.3.35.51,10.83.46.32,1,0
2015-02-27 20:22:04.128,136,1425097322.171871,37.78767721384084,-122.3969166757302,12.4839,-1,-1,10,65,-9999,1425097324.106134,5.999317169189453,-30.62997436523438,8.719207763671875,211.4253387451172,197.6520385742188,15,139351.4163724583,-0.2081451416015625,-0.88134765625,-0.325469970703125,139351.3873184167,-0.2022758732231154,-0.2443658026712727,0.1631021051685949,139351.3873184167,-3.013547953733565,-0.8470021472461516,1.023449642704278,-0.2088654637336731,-0.2340482175350189,0.2006089985370636,0.2170245796442032,-0.04230134189128876,-0.04175710678100586,XTrueNorthZVertical,0.3290164290116904,0.4684309830023162,0.8061201021276524,0.149969882100931,-0.3899524509906769,-0.853908360004425,-0.3446412086486816,-2.252341270446777,-35.65223693847656,7.296388626098633,1,10.3.35.51,10.83.46.32,1,0
2015-02-27 20:22:04.198,137,1425097322.171871,37.78767721384084,-122.3969166757302,12.4839,-1,-1,10,65,-9999,1425097324.156855,5.300331115722656,-30.9188232421875,8.735847473144531,211.3346557617188,197.5613555908203,15,139351.46541075,-0.3073272705078125,-0.91937255859375,-0.2387237548828125,139351.4390992917,-0.5978072267411388,-1.093296070717542,-0.4337008435254751,139351.4390992917,-3.054995621807584,-0.8481483631634635,1.013674309466303,-0.6043967604637146,-1.08297860622406,-0.3961943089962006,0.1416760385036469,-0.03340654447674751,0.06644921749830246,XTrueNorthZVertical,0.3402608015957664,0.457573521808305,0.8047389110171795,0.165058550581361,-0.3965893685817719,-0.8487803339958191,-0.3496981263160706,-2.276041984558105,-35.70703125,7.015694618225098,1,10.3.35.51,10.83.46.32,1,0
2015-02-27 20:22:04.224,138,1425097322.171871,37.78767721384084,-122.3969166757302,12.4839,-1,-1,10,65,-9999,1425097324.21006,6.306186676025391,-30.96978759765625,7.321212768554688,214.6940155029297,200.9207153320312,15,139351.5145839583,-0.4460601806640625,-0.8866424560546875,-0.1496429443359375,139351.4908798333,-0.5277916564185197,-1.528556994009586,-0.770229863092793,139351.4908798333,-3.13560015548216,-0.8487553940001156,1.019536415887181,-0.5343764424324036,-1.518245697021484,-0.7327196002006531,0.04241379350423813,-0.06530998647212982,0.1426258534193039,XTrueNorthZVertical,0.358068408463278,0.4457640591005207,0.796029361595237,0.1985413179689975,-0.3930607736110687,-0.851865291595459,-0.3461628258228302,-1.439494132995605,-35.90264511108398,6.190337181091309,1,10.3.35.51,10.83.46.32,1,0
2015-02-27 20:22:04.291,139,1425097322.171871,37.78767721384084,-122.3969166757302,12.4839,-1,-1,10,65,-9999,1425097324.261918,7.516609191894531,-30.88484191894531,6.239425659179688,218.8604125976562,205.0871124267578,15,139351.5635086667,-0.50927734375,-0.82354736328125,-0.12225341796875,139351.5426609167,-0.4235312965868985,-0.8793427687466475,-0.4956824557876522,139351.4908798333,-3.13560015548216,-0.8487553940001156,1.019536415887181,-0.5343764424324036,-1.518245697021484,-0.7327196002006531,0.04241379350423813,-0.06530998647212982,0.1426258534193039,XTrueNorthZVertical,0.358068408463278,0.4457640591005207,0.796029361595237,0.1985413179689975,-0.3930607736110687,-0.851865291595459,-0.3461628258228302,-1.439494132995605,-35.90264511108398,6.190337181091309,1,10.3.35.51,10.83.46.32,1,0
2015-02-27 20:22:04.323,140,1425097322.171871,37.78767721384084,-122.3969166757302,12.4839,-1,-1,10,65,-9999,1425097324.313704,8.914569854736328,-31.08872985839844,5.640289306640625,222.3538360595703,208.5805358886719,15,139351.612676,-0.492919921875,-0.8636322021484375,-0.11712646484375,139351.5944415417,-0.5296119270235887,0.4058287321889238,-0.4019450443712613,139351.5944415417,3.015185708385147,-0.8097342869573888,1.024190104257007,-0.5361965894699097,0.4161396920681,-0.3644355833530426,-0.1346189379692078,-0.01522860117256641,0.2565663456916809,XTrueNorthZVertical,0.3711291999108743,0.4278032170483665,0.7874547147928578,0.2432335864860473,-0.3763826489448547,-0.8542934656143188,-0.3584950566291809,1.522495269775391,-36.16679382324219,4.363187789916992,1,10.3.35.51,10.83.46.32,1,0
2015-02-27 20:22:04.397,141,1425097322.171871,37.78767721384084,-122.3969166757302,12.4839,-1,-1,10,65,-9999,1425097324.364305,9.596504211425781,-31.05474853515625,5.540435791015625,222.9983367919922,209.2250366210938,15,139351.6615865,-0.2978057861328125,-0.8125,-0.1521148681640625,139351.6462224583,-0.1183514114753394,1.807453609690935,-0.6802624225155182,139351.6462224583,2.957345917281371,-0.6970391314172326,1.028965631195855,-0.1249359771609306,1.817764520645142,-0.6427533626556396,-0.05756893381476402,0.04000881686806679,0.2553089261054993,XTrueNorthZVertical,0.3385839861569686,0.433189705804163,0.7992804553621486,0.2426072912490899,-0.3310571610927582,-0.8567660450935364,-0.3954151272773743,2.08854866027832,-36.22919464111328,3.532095909118652,1,10.3.35.51,10.83.46.32,1,0
2015-02-27 20:22:04.421,142,1425097322.171871,37.78767721384084,-122.3969166757302,12.4839,-1,-1,10,65,-9999,1425097324.364305,9.596504211425781,-31.05474853515625,5.540435791015625,222.9983367919922,209.2250366210938,15,139351.7106290417,-0.18017578125,-0.920074462890625,-0.25518798828125,139351.6980033334,0.2221790076298226,1.955673704372058,-0.6589281053390024,139351.6980033334,2.909165874434569,-0.5552598148402468,1.051328752948655,0.2155945003032684,1.965984463691711,-0.6214193105697632,0.04930666089057922,-0.00520740682259202,0.1819849908351898,XTrueNorthZVertical,0.2914303567482581,0.4518289493467731,0.8103104695293217,0.2330576573655724,-0.2616937458515167,-0.8680835962295532,-0.4218378961086273,3.28617000579834,-36.13339233398438,3.601583480834961,1,10.3.35.51,10.83.46.32,1,0
2015-02-27 20:22:04.494,143,1425097322.171871,37.78767721384084,-122.3969166757302,12.4839,-1,-1,10,65,-9999,1425097324.469708,10.41482543945312,-29.79733276367188,6.572296142578125,220.7638244628906,206.9905242919922,15,139351.7596509584,-0.143341064453125,-0.8749237060546875,-0.340362548828125,139351.7497840417,0.1688121888618337,2.241659654875198,-0.7076410501020778,139351.6980033334,2.909165874434569,-0.5552598148402468,1.051328752948655,0.2155945003032684,1.965984463691711,-0.6214193105697632,0.04930666089057922,-0.00520740682259202,0.1819849908351898,XTrueNorthZVertical,0.2914303567482581,0.4518289493467731,0.8103104695293217,0.2330576573655724,-0.2616937458515167,-0.8680835962295532,-0.4218378961086273,3.28617000579834,-36.13339233398438,3.601583480834961,1,10.3.35.51,10.83.46.32,1,0
2015-02-27 20:22:04.519,144,1425097322.171871,37.78767721384084,-122.3969166757302,12.4839,-1,-1,10,65,-9999,1425097324.469708,10.41482543945312,-29.79733276367188,6.572296142578125,220.7638244628906,206.9905242919922,15,139351.808811375,0.1115264892578125,-0.8028411865234375,-0.31842041015625,139351.8015646667,0.16152764433214,2.779041887011311,-1.208031442064772,139351.8015646667,2.77334978435275,-0.203738425867744,1.096793967330988,0.1549432724714279,2.789352416992188,-1.170523405075073,0.1654441654682159,0.08219238370656967,0.09558506309986115,XTrueNorthZVertical,0.1802641115684703,0.4939632904871573,0.8248820497393874,0.2075444596636147,-0.09235457330942154,-0.8897485136985779,-0.4470102488994598,4.336267471313477,-35.88844299316406,4.754895210266113,1,10.3.35.51,10.83.46.32,1,0
2015-02-27 20:22:04.561,145,1425097322.171871,37.78767721384084,-122.3969166757302,12.4839,-1,-1,10,65,-9999,1425097324.522435,10.61940383911133,-29.52546691894531,8.003570556640625,218.9076995849609,205.1343994140625,15,139351.8577293333,0.2075653076171875,-0.810791015625,-0.35662841796875,139351.8015646667,0.16152764433214,2.779041887011311,-1.208031442064772,139351.8015646667,2.77334978435275,-0.203738425867744,1.096793967330988,0.1549432724714279,2.789352416992188,-1.170523405075073,0.1654441654682159,0.08219238370656967,0.09558506309986115,XTrueNorthZVertical,0.1802641115684703,0.4939632904871573,0.8248820497393874,0.2075444596636147,-0.09235457330942154,-0.8897485136985779,-0.4470102488994598,4.336267471313477,-35.88844299316406,4.754895210266113,1,10.3.35.51,10.83.46.32,1,0
2015-02-27 20:22:04.617,146,1425097322.171871,37.78767721384084,-122.3969166757302,12.4839,-1,-1,10,65,-9999,1425097324.597912,11.50592041015625,-28.60791015625,10.03398132324219,217.1959075927734,203.422607421875,15,139351.9068875833,0.245330810546875,-0.8951263427734375,-0.3473052978515625,139351.9051264584,0.7301096075868583,0.9762309660487112,-1.310325590063588,139351.8533455833,2.641022318870463,0.04228491462250403,1.114391200074264,0.4030620455741882,2.179561138153076,-1.21306586265564,0.1700750142335892,0.1031632721424103,0.09249071776866913,XTrueNorthZVertical,0.1135619734440985,0.516661050423201,0.8248813470691566,0.199338359098881,0.01863042451441288,-0.8976426124572754,-0.4403300881385803,6.257004737854004,-35.35926818847656,6.321762084960938,1,10.3.35.51,10.83.46.32,1,0
2015-02-27 20:22:04.693,147,1425097322.171871,37.78767721384084,-122.3969166757302,12.4839,-1,-1,10,65,-9999,1425097324.650114,12.40948867797852,-27.36747741699219,11.64833068847656,218.1114501953125,204.3381500244141,15,139351.955807375,0.330810546875,-0.962249755859375,-0.3377685546875,139351.95690725,0.8526903851893525,0.8213721434022386,-1.238136347659246,139351.9051264584,2.487658241923813,0.2539977990617421,1.134136398802714,0.72352534532547,0.9865413308143616,-1.272818326950073,0.1344544440507889,0.01757370121777058,0.05430465564131737,XTrueNorthZVertical,0.06995871988977048,0.5389180811756644,0.8142106076703728,0.2042893698608698,0.1062682047486305,-0.9061692953109741,-0.4093461632728577,7.145373344421387,-35.0223388671875,7.195266723632812,1,10.3.35.51,10.83.46.32,1,0
