loggingTime,loggingSample,locationTimestamp_since1970,locationLatitude,locationLongitude,locationAltitude,locationSpeed,locationCourse,locationVerticalAccuracy,locationHorizontalAccuracy,locationFloor,locationHeadingTimestamp_since1970,locationHeadingX,locationHeadingY,locationHeadingZ,locationTrueHeading,locationMagneticHeading,locationHeadingAccuracy,accelerometerTimestamp_sinceReboot,accelerometerAccelerationX,accelerometerAccelerationY,accelerometerAccelerationZ,gyroTimestamp_sinceReboot,gyroRotationX,gyroRotationY,gyroRotationZ,motionTimestamp_sinceReboot,motionYaw,motionRoll,motionPitch,motionRotationRateX,motionRotationRateY,motionRotationRateZ,motionUserAccelerationX,motionUserAccelerationY,motionUserAccelerationZ,motionAttitudeReferenceFrame,motionQuaternionX,motionQuaternionY,motionQuaternionZ,motionQuaternionW,motionGravityX,motionGravityY,motionGravityZ,motionMagneticFieldX,motionMagneticFieldY,motionMagneticFieldZ,motionMagneticFieldCalibrationAccuracy,IP_en0,IP_pdp_ip0,deviceOrientation,state
2015-02-28 13:34:05.719,1,1425159245.155825,37.7746231947446,-122.5134343375662,2.597473,0.36,167.34375,3,5,-9999,1425159245.690297,-2.845382690429688,-34.03507995605469,-31.71092224121094,179.5223541259766,165.7345123291016,10,156384.914952875,0.1255340576171875,-0.38153076171875,-0.973541259765625,156384.893343,-0.3552169535686219,0.4318294402274764,-0.1435941838676554,156384.893343,2.028948777198571,0.06962519988954306,0.3670446780128385,-0.3664495348930359,0.4459374845027924,-0.1083710268139839,-0.00107707642018795,0.01382679119706154,0.04541882500052452,XTrueNorthZVertical,0.06724984859053794,0.1729514703545507,0.8377907296143601,0.5134900203248796,0.0649351105093956,-0.3588585257530212,-0.9311304688453674,-2.160548448562622,-34.68045806884766,-33.24520874023438,2,0.0.0.0,10.83.46.32,5,0
2015-02-28 13:34:05.739,2,1425159245.155825,37.7746231947446,-122.5134343375662,2.597473,0.36,167.34375,3,5,-9999,1425159245.690297,-2.845382690429688,-34.03507995605469,-31.71092224121094,179.5223541259766,165.7345123291016,10,156384.9639862917,0.058349609375,-0.3278961181640625,-0.9499969482421875,156384.9451191667,-0.06562162084009747,-0.5196706129904319,-0.05404006589156088,156384.893343,2.028948777198571,0.06962519988954306,0.3670446780128385,-0.3664495348930359,0.4459374845027924,-0.1083710268139839,-0.00107707642018795,0.01382679119706154,0.04541882500052452,XTrueNorthZVertical,0.06724984859053794,0.1729514703545507,0.8377907296143601,0.5134900203248796,0.0649351105093956,-0.3588585257530212,-0.9311304688453674,-2.160548448562622,-34.68045806884766,-33.24520874023438,2,0.0.0.0,10.83.46.32,5,0
2015-02-28 13:34:05.799,3,1425159245.155825,37.7746231947446,-122.5134343375662,2.597473,0.36,167.34375,3,5,-9999,1425159245.793576,-3.697746276855469,-33.49137878417969,-32.01053619384766,179.9324798583984,166.1446380615234,10,156385.0130424583,-0.0158538818359375,-0.3152008056640625,-0.8736419677734375,156384.996896375,0.04031173678831141,-0.3797420040471616,-0.1495032056943232,156384.996896375,2.022963562169809,0.03745640038906652,0.3544979746811214,0.02907695434987545,-0.3656301498413086,-0.1142827197909355,-0.04030716791749001,0.05479171872138977,0.08698912709951401,XTrueNorthZVertical,0.07791640970131217,0.1592089637267193,0.8359446876783131,0.5194016547383994,0.03511917963624001,-0.3471195995807648,-0.9371630549430847,-1.986369371414185,-33.92218017578125,-34.02919769287109,2,0.0.0.0,10.83.46.32,5,0
2015-02-28 13:34:05.831,4,1425159245.155825,37.7746231947446,-122.5134343375662,2.597473,0.36,167.34375,3,5,-9999,1425159245.793576,-3.697746276855469,-33.49137878417969,-32.01053619384766,179.9324798583984,166.1446380615234,10,156385.0620761667,0.01080322265625,-0.2968902587890625,-0.8675689697265625,156385.0486735417,-0.01274935108653634,-0.1413597917130789,-0.1762205703822162,156385.0486735417,2.016520047708112,0.02955569457266653,0.3518037181891113,-0.023984644562006,-0.1272503137588501,-0.1409998387098312,0.009489996358752251,0.01793145574629307,0.05508770421147346,XTrueNorthZVertical,0.08101378754646818,0.1557735906758227,0.8341403328514958,0.5228587960625615,0.02774144895374775,-0.3445916175842285,-0.9383426904678345,-2.641279220581055,-33.86603927612305,-34.04058074951172,2,0.0.0.0,10.83.46.32,5,0
2015-02-28 13:34:05.895,5,1425159245.155825,37.7746231947446,-122.5134343375662,2.597473,0.36,167.34375,3,5,-9999,1425159245.846492,-4.157997131347656,-33.81422424316406,-31.92732238769531,179.6240234375,165.836181640625,10,156385.1111458333,-0.0561676025390625,-0.3499603271484375,-0.845062255859375,156385.1004499167,0.2556584046415357,-0.6450663518651399,-0.1162813363600208,156385.0486735417,2.016520047708112,0.02955569457266653,0.3518037181891113,-0.023984644562006,-0.1272503137588501,-0.1409998387098312,0.009489996358752251,0.01793145574629307,0.05508770421147346,XTrueNorthZVertical,0.08101378754646818,0.1557735906758227,0.8341403328514958,0.5228587960625615,0.02774144895374775,-0.3445916175842285,-0.9383426904678345,-2.641279220581055,-33.86603927612305,-34.04058074951172,2,0.0.0.0,10.83.46.32,5,0
2015-02-28 13:34:05.928,6,1425159245.155825,37.7746231947446,-122.5134343375662,2.597473,0.36,167.34375,3,5,-9999,1425159245.898946,-4.584182739257812,-33.96713256835938,-31.61107635498047,179.7985534667969,166.0107116699219,10,156385.1601788334,0.0037078857421875,-0.32073974609375,-0.9173736572265625,156385.152226875,0.2837036214489422,-0.6198456837098716,-0.1952536500607945,156385.1004499167,2.007673142292409,0.01949526875329175,0.3550906001496292,0.244421124458313,-0.630958616733551,-0.08106089383363724,-0.02001740038394928,0.07095717638731003,-0.04098724573850632,XTrueNorthZVertical,0.08675645655885723,0.1541262617376157,0.8311625994249031,0.5271500799958545,0.01827789843082428,-0.3476753234863281,-0.9374368190765381,-2.666853904724121,-33.81637191772461,-34.08793258666992,2,0.0.0.0,10.83.46.32,5,0
2015-02-28 13:34:05.982,7,1425159245.155825,37.7746231947446,-122.5134343375662,2.597473,0.36,167.34375,3,5,-9999,1425159245.95028,-4.567131042480469,-33.84820556640625,-30.99523162841797,181.8358764648438,168.0480346679688,10,156385.2092387083,-0.0349273681640625,-0.396759033203125,-0.8785247802734375,156385.2040041667,0.329439684745527,-0.4769961196830023,-0.2894595115129304,156385.2040041667,1.991257707288159,-0.03126280240096535,0.3857104414037134,0.3182006776332855,-0.4628868699073792,-0.2542407214641571,-0.02867119573056698,-0.0001100367517210543,0.05802139639854431,XTrueNorthZVertical,0.1171192805655193,0.1524590094555517,0.8218148614989544,0.5363391826161505,-0.02896125055849552,-0.3762174844741821,-0.9260786771774292,-3.971530437469482,-34.64247512817383,-33.1175537109375,2,0.0.0.0,10.83.46.32,5,0
2015-02-28 13:34:06.028,8,1425159245.155825,37.7746231947446,-122.5134343375662,2.597473,0.36,167.34375,3,5,-9999,1425159246.002684,-5.129692077636719,-34.03512573242188,-30.0465087890625,182.3185272216797,168.5306854248047,10,156385.2582725833,-0.0060882568359375,-0.42913818359375,-0.9334716796875,156385.2040041667,0.329439684745527,-0.4769961196830023,-0.2894595115129304,156385.2040041667,1.991257707288159,-0.03126280240096535,0.3857104414037134,0.3182006776332855,-0.4628868699073792,-0.2542407214641571,-0.02867119573056698,-0.0001100367517210543,0.05802139639854431,XTrueNorthZVertical,0.1171192805655193,0.1524590094555517,0.8218148614989544,0.5363391826161505,-0.02896125055849552,-0.3762174844741821,-0.9260786771774292,-3.971530437469482,-34.64247512817383,-33.1175537109375,2,0.0.0.0,10.83.46.32,5,0
2015-02-28 13:34:06.081,9,1425159245.155825,37.7746231947446,-122.5134343375662,2.597473,0.36,167.34375,3,5,-9999,1425159246.053772,-5.02740478515625,-34.5108642578125,-28.88141632080078,183.8054656982422,170.0176239013672,10,156385.307464,-0.054290771484375,-0.418060302734375,-0.87823486328125,156385.3075575417,0.2504703005219523,-0.8074818941047124,-0.1892335744166704,156385.25578025,1.977418460421487,-0.0475623265497903,0.4000053450687788,0.3650273382663727,-0.4844852387905121,-0.2158602625131607,0.02886809408664703,-0.05074702203273773,-0.00883095059543848,XTrueNorthZVertical,0.1286596924138941,0.1530948253497809,0.8158371861755437,0.5426033583442994,-0.04379118978977203,-0.3894232511520386,-0.9200173020362854,-4.375919342041016,-35.32745361328125,-32.33371734619141,2,0.0.0.0,10.83.46.32,5,0
2015-02-28 13:34:06.137,10,1425159245.155825,37.7746231947446,-122.5134343375662,2.597473,0.36,167.34375,3,5,-9999,1425159246.104879,-5.044456481933594,-34.62983703613281,-28.3321533203125,186.2753295898438,172.4874877929688,10,156385.356363125,-0.1864471435546875,-0.384613037109375,-0.8653106689453125,156385.3593345833,0.1465127421062733,-0.2719265904763937,-0.127951840888966,156385.3075575417,1.96781474711079,-0.07922120971157243,0.4150894932308955,0.2392334491014481,-0.793371319770813,-0.1540156900882721,0.0181271880865097,-0.01478847768157721,0.03397535532712936,XTrueNorthZVertical,0.1462860910672774,0.1499842317644201,0.8096404241608136,0.5482586562757124,-0.0724179595708847,-0.4032718241214752,-0.91221022605896,-4.619659423828125,-35.68975830078125,-31.89900207519531,2,0.0.0.0,10.83.46.32,5,0
2015-02-28 13:34:06.179,11,1425159246.138826,37.77461833324076,-122.5134344213852,2.076721,0.36,167.34375,3,5,-9999,1425159246.157344,-5.743377685546875,-35.22453308105469,-27.18370056152344,186.7780303955078,172.9901885986328,10,156385.4055322917,-0.1439666748046875,-0.3730926513671875,-0.82940673828125,156385.3593345833,0.1465127421062733,-0.2719265904763937,-0.127951840888966,156385.3593345833,1.963237441596408,-0.1073376997607408,0.4270545556979777,0.1352765709161758,-0.2578177750110626,-0.0927337110042572,-0.08893696963787079,0.02957865223288536,0.03964072465896606,XTrueNorthZVertical,0.1611690664699749,0.1467952181125101,0.805030021149852,0.5517267637465355,-0.09751017391681671,-0.4141916930675507,-0.9049513936042786,-5.710372924804688,-36.23255920410156,-31.10047912597656,2,0.0.0.0,10.83.46.32,5,0
2015-02-28 13:34:06.225,12,1425159246.138826,37.77461833324076,-122.5134344213852,2.076721,0.36,167.34375,3,5,-9999,1425159246.208553,-5.760421752929688,-35.71728515625,-27.16705322265625,186.8202972412109,173.0324554443359,10,156385.45445825,-0.2193450927734375,-0.332550048828125,-0.6968841552734375,156385.4111109583,0.1090564466387448,0.6349985376802044,-0.06148493271887739,156385.4111109583,1.960518788027765,-0.09776182357669531,0.4323655659501977,0.09781772643327713,0.6491013169288635,-0.02626546286046505,-0.05534250661730766,0.04592720046639442,0.07423485815525055,XTrueNorthZVertical,0.1589356884241805,0.1513890668896144,0.8045023936542478,0.5519028508807217,-0.08862417191267014,-0.4190198481082916,-0.9036415815353394,-5.906591415405273,-36.52819061279297,-30.71562385559082,2,0.0.0.0,10.83.46.32,5,0
2015-02-28 13:34:06.277,13,1425159246.138826,37.77461833324076,-122.5134344213852,2.076721,0.36,167.34375,3,5,-9999,1425159246.260454,-4.055717468261719,-35.68330383300781,-27.03390502929688,185.0084381103516,171.2205963134766,10,156385.503620125,0.158203125,-0.2631683349609375,-0.5818939208984375,156385.5146653334,-0.03825870590396933,4.034306088905293,0.005865345984790514,156385.462888,1.96570555948077,-0.03727349161288916,0.4358880181498188,0.0417511984705925,2.008072853088379,0.1206292062997818,-0.1855646669864655,0.08966550230979919,0.2089816927909851,XTrueNorthZVertical,0.1350469419410949,0.1697922349256894,0.8100233373055938,0.5447891099185672,-0.03378042951226234,-0.4222155511379242,-0.9058658480644226,-5.266323089599609,-36.62633895874023,-30.7151985168457,2,0.0.0.0,10.83.46.32,5,0
2015-02-28 13:34:06.327,14,1425159246.138826,37.77461833324076,-122.5134344213852,2.076721,0.36,167.34375,3,5,-9999,1425159246.312208,-0.6974639892578125,-35.76824951171875,-28.01592254638672,182.7340240478516,168.9461822509766,10,156385.5525451667,0.1371002197265625,-0.39453125,-0.7124481201171875,156385.5146653334,-0.03825870590396933,4.034306088905293,0.005865345984790514,156385.5146653334,1.969182500419278,0.123922711425868,0.4368619516294081,-0.04941640421748161,4.048329830169678,0.04115263745188713,0.1347526758909225,0.04651130363345146,0.1900900304317474,XTrueNorthZVertical,0.06929022595171072,0.2136144774832791,0.8191141965939475,0.5278444026127556,0.1119971945881844,-0.4230982065200806,-0.899135410785675,-1.869661331176758,-36.70391464233398,-31.01569557189941,2,0.0.0.0,10.83.46.32,5,0
2015-02-28 13:34:06.375,15,1425159246.138826,37.77461833324076,-122.5134344213852,2.076721,0.36,167.34375,3,5,-9999,1425159246.364852,3.819999694824219,-36.94064331054688,-27.69967651367188,180.9171295166016,167.1292877197266,10,156385.601713,0.483978271484375,-0.6822357177734375,-0.6351776123046875,156385.566441375,0.7873862131511924,4.022013203629596,0.4193621179003795,156385.566441375,1.977313269861461,0.3124908096825254,0.4585784929978782,0.7762286067008972,4.036036968231201,0.454649031162262,-0.1567857265472412,0.02769588679075241,0.184128612279892,XTrueNorthZVertical,-0.003135649728655854,0.2708535643267244,0.8229641353312664,0.4993581952716987,0.2756669521331787,-0.442673921585083,-0.8532570004463196,3.329306602478027,-36.76567077636719,-30.81959533691406,2,0.0.0.0,10.83.46.32,5,0
2015-02-28 13:34:06.425,16,1425159246.138826,37.77461833324076,-122.5134344213852,2.076721,0.36,167.34375,3,5,-9999,1425159246.415676,9.309135437011719,-38.33393859863281,-26.86746215820312,172.7536010742188,158.9657592773438,10,156385.650633625,0.774169921875,-0.6405487060546875,-0.6371307373046875,156385.61821875,0.06972155733827445,5.056478447970633,0.06182235522899043,156385.61821875,1.983509891010397,0.5489404665116852,0.475828099530644,0.05856410786509514,5.070501804351807,0.09710893779993057,0.08776931464672089,-0.1980379521846771,0.1103023439645767,XTrueNorthZVertical,-0.09632486954875694,0.3340138042584126,0.8179190880225206,0.4584372632693647,0.4638206362724304,-0.4580747187137604,-0.7583125829696655,8.087481498718262,-37.67403411865234,-28.77335357666016,2,0.0.0.0,10.83.46.32,5,0
2015-02-28 13:34:06.473,17,1425159246.138826,37.77461833324076,-122.5134344213852,2.076721,0.36,167.34375,3,5,-9999,1425159246.467343,14.35504913330078,-38.9796142578125,-24.70369720458984,169.9917755126953,156.2039337158203,10,156385.6997597083,0.739837646484375,-0.5161590576171875,-0.5645751953125,156385.66999575,-0.033441580124234,3.878287459604091,0.2960266004449568,156385.66999575,1.997707314312225,0.772345540576824,0.4826380008014174,-0.04459891840815544,3.892310619354248,0.3313128054141998,0.1903177797794342,-0.1412902623414993,-0.04466459527611732,XTrueNorthZVertical,-0.1876982096485243,0.3841096412464161,0.8050786117864926,0.4111905340283022,0.6181081533432007,-0.4641174674034119,-0.6344583034515381,15.7428035736084,-37.90329742431641,-25.06293487548828,2,0.0.0.0,10.83.46.32,5,0
2015-02-28 13:34:06.527,18,1425159246.138826,37.77461833324076,-122.5134344213852,2.076721,0.36,167.34375,3,5,-9999,1425159246.51895,17.76445388793945,-39.65924072265625,-22.00730895996094,162.7837982177734,148.9959564208984,10,156385.7487208333,1.187820434570312,-0.685546875,-0.4587249755859375,156385.7217719583,0.1300767771227402,3.285854225626622,0.6654198268121795,156385.7217719583,2.020366928471999,0.942851620008866,0.5061855512317487,0.1189195662736893,3.299877166748047,0.7007056474685669,0.1195881590247154,-0.08862640708684921,0.05923803895711899,XTrueNorthZVertical,-0.2537691889645232,0.4227231789063142,0.7909757322034384,0.3623034151745212,0.7077586650848389,-0.4848446547985077,-0.5138126015663147,20.1480598449707,-38.33178329467773,-20.91354751586914,2,0.0.0.0,10.83.46.32,5,0
2015-02-28 13:34:06.571,19,1425159246.138826,37.77461833324076,-122.5134344213852,2.076721,0.36,167.34375,3,5,-9999,1425159246.51895,17.76445388793945,-39.65924072265625,-22.00730895996094,162.7837982177734,148.9959564208984,10,156385.7978198333,0.7836761474609375,-0.5738067626953125,-0.47137451171875,156385.7735491667,0.2261897282314819,1.451106410555683,0.8522344520107309,156385.7735491667,2.044041626278531,1.053440962295676,0.537459922034942,0.215032622218132,1.465129494667053,0.8875199556350708,0.3622629940509796,-0.09166675060987473,-0.1589635610580444,XTrueNorthZVertical,-0.2937654319541379,0.4486372531949651,0.7806797979096485,0.3208825330311468,0.746593177318573,-0.5119556784629822,-0.4248529672622681,21.2519359588623,-38.82359313964844,-18.80771636962891,2,0.0.0.0,10.83.46.32,5,0
2015-02-28 13:34:06.625,20,1425159246.138826,37.77461833324076,-122.5134344213852,2.076721,0.36,167.34375,3,5,-9999,1425159246.571423,19.17935562133789,-40.08404541015625,-19.39414978027344,157.7293395996094,143.9414978027344,10,156385.846794125,0.7617950439453125,-0.5789794921875,-0.404205322265625,156385.8253265833,0.1205336056725503,-1.03502024711221,-0.05726621923608287,156385.8253265833,2.038650716036539,1.061475790321815,0.571956340338205,0.1093766093254089,-1.020997405052185,-0.02198104932904243,0.02837648615241051,-0.03493959084153175,-0.08330408483743668,XTrueNorthZVertical,-0.2861535310044828,0.4616547749999662,0.7795606282258634,0.3118915086496469,0.7341204881668091,-0.541278064250946,-0.4099820554256439,21.37744140625,-39.66463470458984,-16.80381393432617,2,0.0.0.0,10.83.46.32,5,0
2015-02-28 13:34:06.669,21,1425159246.138826,37.77461833324076,-122.5134344213852,2.076721,0.36,167.34375,3,5,-9999,1425159246.622427,19.11116409301758,-40.86564636230469,-18.39547729492188,157.5283660888672,143.7405242919922,10,156385.8960561667,0.3467254638671875,-0.5942535400390625,-0.2224273681640625,156385.8771027917,-0.09016691134292178,-0.4476249149688454,0.7050215648538758,156385.8771027917,2.039850772176759,0.9972872985783272,0.5790741587883401,-0.1013237908482552,-0.4336021840572357,0.7403063178062439,-0.1921005994081497,-0.2634196877479553,0.3387843370437622,XTrueNorthZVertical,-0.2592815546154344,0.4535529923196365,0.7886356972781874,0.3242168354772971,0.7030563950538635,-0.5472492575645447,-0.4541255235671997,19.7666015625,-40.34989929199219,-17.14098739624023,2,0.0.0.0,10.83.46.32,5,0
2015-02-28 13:34:06.725,22,1425159246.138826,37.77461833324076,-122.5134344213852,2.076721,0.36,167.34375,3,5,-9999,1425159246.674722,18.25881195068359,-41.20550537109375,-18.12917327880859,160.5596923828125,146.7718505859375,10,156385.944881125,0.8837127685546875,-0.6268157958984375,-0.370697021484375,156385.9288798333,-0.3043551041219616,0.7531555383959679,-0.1065384278280749,156385.8771027917,2.039850772176759,0.9972872985783272,0.5790741587883401,-0.1013237908482552,-0.4336021840572357,0.7403063178062439,-0.1921005994081497,-0.2634196877479553,0.3387843370437622,XTrueNorthZVertical,-0.2592815546154344,0.4535529923196365,0.7886356972781874,0.3242168354772971,0.7030563950538635,-0.5472492575645447,-0.4541255235671997,19.7666015625,-40.34989929199219,-17.14098739624023,2,0.0.0.0,10.83.46.32,5,0
2015-02-28 13:34:06.767,23,1425159246.138826,37.77461833324076,-122.5134344213852,2.076721,0.36,167.34375,3,5,-9999,1425159246.726246,17.79854202270508,-40.91664123535156,-18.57857513427734,157.9790954589844,144.1912536621094,10,156385.9939311667,0.6130523681640625,-0.41900634765625,-0.364044189453125,156385.9806572083,-0.08665846292285138,0.1142959497673667,0.02295698122870105,156385.9806572083,2.066918249392451,1.034727956951343,0.580936398553991,-0.0978151261806488,0.1283184140920639,0.0582410953938961,0.1684456467628479,0.04340534657239914,0.0519845113158226,XTrueNorthZVertical,-0.2796827732664579,0.4563911923985169,0.7878713332947576,0.3045380909601337,0.7186850905418396,-0.5488069653511047,-0.4269692599773407,19.47029113769531,-40.49987411499023,-17.12642288208008,2,0.0.0.0,10.83.46.32,5,0
2015-02-28 13:34:06.824,24,1425159246.138826,37.77461833324076,-122.5134344213852,2.076721,0.36,167.34375,3,5,-9999,1425159246.778382,18.39519119262695,-40.6278076171875,-18.52864074707031,157.5696105957031,143.7817687988281,10,156386.042953125,0.786865234375,-0.6228485107421875,-0.3579254150390625,156386.0324332917,-0.1714250162073105,0.2829728500458244,-0.3358797408935566,156385.9806572083,2.066918249392451,1.034727956951343,0.580936398553991,-0.0978151261806488,0.1283184140920639,0.0582410953938961,0.1684456467628479,0.04340534657239914,0.0519845113158226,XTrueNorthZVertical,-0.2796827732664579,0.4563911923985169,0.7878713332947576,0.3045380909601337,0.7186850905418396,-0.5488069653511047,-0.4269692599773407,19.47029113769531,-40.49987411499023,-17.12642288208008,2,0.0.0.0,10.83.46.32,5,0
2015-02-28 13:34:06.866,25,1425159246.138826,37.77461833324076,-122.5134344213852,2.076721,0.36,167.34375,3,5,-9999,1425159246.835763,18.90660095214844,-40.52586364746094,-18.66179656982422,158.0007781982422,144.2129364013672,10,156386.0920167917,0.593048095703125,-0.5528106689453125,-0.3135833740234375,156386.084210625,0.1673328028762947,0.3500874389930203,-0.006692257503260118,156386.084210625,2.064490661181348,1.055213649752469,0.5677642865107516,0.1561763733625412,0.364109605550766,0.02859111502766609,-0.1137401536107063,-0.01819026842713356,0.1105867624282837,XTrueNorthZVertical,-0.2907853890422952,0.4556322358142438,0.7843533829299745,0.3043566242535189,0.7335063815116882,-0.5377484560012817,-0.4156862497329712,20.27689552307129,-40.02120590209961,-17.31464385986328,2,0.0.0.0,10.83.46.32,5,0
2015-02-28 13:34:06.925,26,1425159246.138826,37.77461833324076,-122.5134344213852,2.076721,0.36,167.34375,3,5,-9999,1425159246.907407,19.46915817260742,-40.13502502441406,-17.67977142333984,157.7443084716797,143.9564666748047,10,156386.1410550833,0.759796142578125,-0.4257049560546875,-0.1339111328125,156386.1359876667,-0.04611529743581209,0.2832990872793591,-0.2700594482361392,156386.084210625,2.064490661181348,1.055213649752469,0.5677642865107516,0.1561763733625412,0.364109605550766,0.02859111502766609,-0.1137401536107063,-0.01819026842713356,0.1105867624282837,XTrueNorthZVertical,-0.2907853890422952,0.4556322358142438,0.7843533829299745,0.3043566242535189,0.7335063815116882,-0.5377484560012817,-0.4156862497329712,20.27689552307129,-40.02120590209961,-17.31464385986328,2,0.0.0.0,10.83.46.32,5,0
2015-02-28 13:34:06.963,27,1425159246.138826,37.77461833324076,-122.5134344213852,2.076721,0.36,167.34375,3,5,-9999,1425159246.907407,19.46915817260742,-40.13502502441406,-17.67977142333984,157.7443084716797,143.9564666748047,10,156386.190112125,0.888336181640625,-0.573944091796875,-0.08868408203125,156386.1877639167,-0.4054428401469713,2.818610335539381,-0.0863295625282266,156386.1359876667,2.057837754306338,1.066802911018836,0.5627129796988842,-0.05727161839604378,0.2973211109638214,-0.2347764223814011,-0.1097385212779045,0.04797867685556412,0.1612566709518433,XTrueNorthZVertical,-0.2951863756245082,0.4567634478686777,0.7815308300813891,0.3056824803670272,0.7406436800956726,-0.5334828495979309,-0.4084643125534058,20.58570289611816,-40.10923004150391,-16.73694038391113,2,0.0.0.0,10.83.46.32,5,0
2015-02-28 13:34:07.004,28,1425159246.138826,37.77461833324076,-122.5134344213852,2.076721,0.36,167.34375,3,5,-9999,1425159246.959262,20.52607345581055,-39.21749877929688,-16.38150024414062,159.1938323974609,145.4059906005859,10,156386.2391457917,0.8558349609375,-0.4389495849609375,-0.29156494140625,156386.1877639167,-0.4054428401469713,2.818610335539381,-0.0863295625282266,156386.1877639167,2.064925839815007,1.155665454949797,0.5464574551590607,-0.4165990650653839,2.832632303237915,-0.05104686319828033,0.1208605542778969,-0.03790756314992905,0.2717916369438171,XTrueNorthZVertical,-0.3356719560589716,0.4637200825310327,0.7680648728870468,0.2869920466567304,0.7818036079406738,-0.5196638703346252,-0.3445760607719421,22.09060287475586,-39.67740631103516,-15.8226146697998,2,0.0.0.0,10.83.46.32,5,0
2015-02-28 13:34:07.062,29,1425159246.138826,37.77461833324076,-122.5134344213852,2.076721,0.36,167.34375,3,5,-9999,1425159247.010895,22.24782180786133,-38.5548095703125,-15.06660461425781,153.1257019042969,139.3378601074219,10,156386.2883084167,0.9144134521484375,-0.353363037109375,-0.12908935546875,156386.2913185417,0.01661173361547826,0.7697710004369723,0.7536056126201913,156386.2395412083,2.085211603037203,1.310600006518888,0.5422910007785678,-0.3428628742694855,2.83103609085083,0.01124238036572933,0.02813754975795746,0.07715006917715073,-0.07120560109615326,XTrueNorthZVertical,-0.4000964715322637,0.4793152842738177,0.7420511745887357,0.2440077598247189,0.8276973962783813,-0.5160996317863464,-0.2203593403100967,23.45029449462891,-39.47193145751953,-14.30722236633301,2,0.0.0.0,10.83.46.32,5,0
2015-02-28 13:34:07.130,30,1425159246.138826,37.77461833324076,-122.5134344213852,2.076721,0.36,167.34375,3,5,-9999,1425159247.114314,23.91843032836914,-39.33644104003906,-11.27169036865234,145.9006652832031,132.1128234863281,10,156386.3372312917,0.7932586669921875,-0.6578369140625,0.0205230712890625,156386.2913185417,0.01661173361547826,0.7697710004369723,0.7536056126201913,156386.2913185417,2.102465045603878,1.378620622237937,0.5615611040605544,0.005455251783132553,0.7837963104248047,0.7888858318328857,0.08357037603855133,0.1791451722383499,0.03257356584072113,XTrueNorthZVertical,-0.4242845924517696,0.4890308002690379,0.7311221754959396,0.2151554933730558,0.8308430910110474,-0.5325081944465637,-0.1616629213094711,25.20849227905273,-39.31512832641602,-11.46730327606201,2,0.0.0.0,10.83.46.32,5,0
2015-02-28 13:34:07.160,31,1425159247.136961,37.77461322027983,-122.5134364330419,2.263123,0.39,167.34375,3,5,-9999,1425159247.114314,23.91843032836914,-39.33644104003906,-11.27169036865234,145.9006652832031,132.1128234863281,10,156386.3864023333,0.905609130859375,-0.58062744140625,-0.1469879150390625,156386.394872125,0.5596398672625592,-0.4622810893958785,0.7433681550738177,156386.3430947083,2.097448178457133,1.432586013505362,0.6081373711692447,0.3437415361404419,1.520981073379517,1.043667554855347,-0.01962883025407791,-0.08649715036153793,0.1335933804512024,XTrueNorthZVertical,-0.4304053033090396,0.5081497003095035,0.7218128236507267,0.1884713914800814,0.8128874897956848,-0.5713397860527039,-0.1130703166127205,24.02262496948242,-40.58376693725586,-9.40838623046875,2,0.0.0.0,10.83.46.32,5,0
2015-02-28 13:34:07.199,32,1425159247.136961,37.77461322027983,-122.5134364330419,2.263123,0.39,167.34375,3,5,-9999,1425159247.166906,22.69104766845703,-40.08406066894531,-9.906852722167969,142.0771331787109,128.2892913818359,10,156386.435336125,0.872039794921875,-0.5004119873046875,-0.0068206787109375,156386.394872125,0.5596398672625592,-0.4622810893958785,0.7433681550738177,156386.394872125,2.071431893002679,1.468403397459855,0.6447570370382364,0.5484836101531982,-0.4482560455799103,0.7786477208137512,0.1105493605136871,0.02037682756781578,-0.06529371440410614,XTrueNorthZVertical,-0.426726822389262,0.5263621552789899,0.7139443444966651,0.1764387552073084,0.7950597405433655,-0.6010042428970337,-0.08169420063495636,23.18734741210938,-41.36114120483398,-8.015571594238281,2,0.0.0.0,10.83.46.32,5,0
2015-02-28 13:34:07.258,33,1425159247.136961,37.77461322027983,-122.5134364330419,2.263123,0.39,167.34375,3,5,-9999,1425159247.218629,21.58299255371094,-40.84866333007812,-8.72509765625,141.8726043701172,128.0847625732422,10,156386.4844296667,0.70623779296875,-0.5428924560546875,-0.09161376953125,156386.4466491667,0.4063656254646838,-0.1556263456726334,0.1989123007663453,156386.4466491667,2.043167870388329,1.468348726237054,0.6689665205135908,0.3952094912528992,-0.1416014581918716,0.2341914921998978,0.1833493113517761,0.1180698797106743,0.05662050843238831,XTrueNorthZVertical,-0.4125550105446532,0.5382243361328465,0.7129260065713507,0.1784642744566599,0.7803500294685364,-0.6201756000518799,-0.08022585511207581,21.98072814941406,-42.18877410888672,-7.042829513549805,2,0.0.0.0,10.83.46.32,5,0
2015-02-28 13:34:07.326,34,1425159247.136961,37.77461322027983,-122.5134364330419,2.263123,0.39,167.34375,3,5,-9999,1425159247.269936,20.66245269775391,-41.05253601074219,-8.159194946289062,141.9158325195312,128.1279907226562,10,156386.5334215417,0.970306396484375,-0.6135406494140625,-0.30487060546875,156386.4984255834,0.4490355913982604,-0.9226889112809952,0.01881709731417287,156386.4984255834,2.013776337229884,1.461031541089606,0.6862061672254401,0.4379545152187347,-0.9087386727333069,0.054161187261343,-0.03642504289746284,0.06498785316944122,-0.01547002326697111,XTrueNorthZVertical,-0.3971478815906419,0.5476300837607238,0.7127979942467991,0.1851862082885395,0.7689995169639587,-0.6336066126823425,-0.08474970608949661,20.67514801025391,-43.00004577636719,-6.015057563781738,2,0.0.0.0,10.83.46.32,5,0
2015-02-28 13:34:07.356,35,1425159247.136961,37.77461322027983,-122.5134364330419,2.263123,0.39,167.34375,3,5,-9999,1425159247.32165,19.77600479125977,-41.08651733398438,-8.325637817382812,144.3522491455078,130.5644073486328,10,156386.582593625,0.4565887451171875,-0.724029541015625,-0.1905059814453125,156386.5502027083,-0.1176507337925395,-3.29231372285061,-0.490360927297456,156386.5502027083,2.000921477110897,1.363822815948257,0.6767702433739982,-0.1287317126989365,-3.278363704681396,-0.4550171494483948,0.1480956822633743,0.06896636635065079,-0.2000683695077896,XTrueNorthZVertical,-0.3612824908355723,0.5379326305689162,0.7293938997182514,0.2192898690612726,0.7629608511924744,-0.6262784004211426,-0.1602068990468979,20.4440860748291,-43.09797286987305,-6.103347301483154,2,0.0.0.0,10.83.46.32,5,0
2015-02-28 13:34:07.395,36,1425159247.136961,37.77461322027983,-122.5134364330419,2.263123,0.39,167.34375,3,5,-9999,1425159247.373911,19.11117172241211,-41.78318786621094,-10.23973846435547,149.3733978271484,135.5855560302734,10,156386.6315180833,0.61273193359375,-0.755401611328125,-0.468780517578125,156386.601979875,-1.023536696491789,-0.9365567900253647,-0.1469929100508146,156386.601979875,2.038622849916526,1.230343439760907,0.6672044413653092,-1.03461754322052,-0.9226068258285522,-0.1116494908928871,-0.2663149833679199,-0.0359622947871685,0.02628476545214653,XTrueNorthZVertical,-0.3243282430608464,0.5134757381792892,0.7562626018492279,0.2433532307835533,0.7404665946960449,-0.6187923550605774,-0.2623077034950256,20.07936477661133,-42.87788391113281,-8.423331260681152,2,0.0.0.0,10.83.46.32,5,0
2015-02-28 13:34:07.454,37,1425159247.136961,37.77461322027983,-122.5134364330419,2.263123,0.39,167.34375,3,5,-9999,1425159247.425478,18.29291534423828,-41.71522521972656,-13.36888122558594,151.1509246826172,137.3630828857422,10,156386.6805882917,0.722320556640625,-0.7506256103515625,-0.2757720947265625,156386.65375625,-2.159021233617821,0.4216431153740323,0.3393983093257693,156386.65375625,2.132269090790502,1.176545297689885,0.6257964444774763,-2.170101881027222,0.4355928897857666,0.3747413158416748,-0.1601539701223373,-0.182277649641037,-0.01112326234579086,XTrueNorthZVertical,-0.3383471711754226,0.4794355613595539,0.7754282897324041,0.2331818230016564,0.7483192682266235,-0.5857429504394531,-0.3113254606723785,19.60574340820312,-42.10686874389648,-12.46085357666016,2,0.0.0.0,10.83.46.32,5,0
2015-02-28 13:34:07.524,38,1425159247.136961,37.77461322027983,-122.5134364330419,2.263123,0.39,167.34375,3,5,-9999,1425159247.477391,18.12244415283203,-41.20545959472656,-17.19709014892578,147.05029296875,133.262451171875,10,156386.729614,0.8663787841796875,-0.5985565185546875,-0.2525177001953125,156386.7055334167,-2.762577159888005,1.767614317680004,0.9291164505719014,156386.7055334167,2.289985702203378,1.150090722558095,0.6048940761226997,-2.77365779876709,1.781563878059387,0.9644591212272644,0.06164897605776787,-0.1142016351222992,0.1351173669099808,XTrueNorthZVertical,-0.3695837101408951,0.4420845360740568,0.7964607212958308,0.1833562773123951,0.7508357763290405,-0.5686749219894409,-0.3359382748603821,19.68812942504883,-40.87251663208008,-15.95184707641602,2,0.0.0.0,10.83.46.32,5,0
2015-02-28 13:34:07.552,39,1425159247.136961,37.77461322027983,-122.5134364330419,2.263123,0.39,167.34375,3,5,-9999,1425159247.535102,17.83264541625977,-39.18345642089844,-20.97534942626953,138.9897613525391,125.2019195556641,10,156386.7787774584,0.6611175537109375,-0.58734130859375,-0.223663330078125,156386.7573107083,-3.180636725699227,1.896681490433495,1.433017421483538,156386.7573107083,2.485779927664548,1.140219352308134,0.599086055413611,-3.191717147827148,1.910630941390991,1.468359708786011,0.06727717816829681,-0.02368226461112499,0.05315669998526573,XTrueNorthZVertical,-0.4082099824418639,0.4012622811619946,0.812791461147118,0.1082741588380037,0.750471830368042,-0.5638879537582397,-0.3447063863277435,19.46895980834961,-38.91736602783203,-20.47058296203613,2,0.0.0.0,10.83.46.32,5,0
2015-02-28 13:34:07.594,40,1425159247.136961,37.77461322027983,-122.5134364330419,2.263123,0.39,167.34375,3,5,-9999,1425159247.535102,17.83264541625977,-39.18345642089844,-20.97534942626953,138.9897613525391,125.2019195556641,10,156386.8277064583,0.8599395751953125,-0.8134613037109375,-0.10791015625,156386.8090871667,-3.283179879259965,1.990451658731294,1.381905767526628,156386.7573107083,2.485779927664548,1.140219352308134,0.599086055413611,-3.191717147827148,1.910630941390991,1.468359708786011,0.06727717816829681,-0.02368226461112499,0.05315669998526573,XTrueNorthZVertical,-0.4082099824418639,0.4012622811619946,0.812791461147118,0.1082741588380037,0.750471830368042,-0.5638879537582397,-0.3447063863277435,19.46895980834961,-38.91736602783203,-20.47058296203613,2,0.0.0.0,10.83.46.32,5,0
2015-02-28 13:34:07.650,41,1425159247.136961,37.77461322027983,-122.5134364330419,2.263123,0.39,167.34375,3,5,-9999,1425159247.606951,17.52579498291016,-34.96955871582031,-26.86744689941406,121.5961532592773,107.8083190917969,10,156386.876794625,0.7490692138671875,-0.66448974609375,-0.0606842041015625,156386.8608642917,-2.721600431775501,2.187714663834553,1.868871697066451,156386.8608642917,2.913781997744614,1.102509093834082,0.6095470305033847,-2.732680320739746,2.201665163040161,1.904212713241577,-0.04914330318570137,-0.1229231879115105,0.3271340429782867,XTrueNorthZVertical,-0.4673271070374724,0.3107559198665499,0.8252074001957971,-0.06378824964077145,0.7316384315490723,-0.5724961161613464,-0.3700722754001617,18.81253051757812,-34.47368621826172,-27.75428009033203,2,0.0.0.0,10.83.46.32,5,0
2015-02-28 13:34:07.727,42,1425159247.136961,37.77461322027983,-122.5134364330419,2.263123,0.39,167.34375,3,5,-9999,1425159247.710283,17.66217803955078,-30.31385803222656,-31.86074829101562,98.16469573974609,84.37686157226562,10,156386.925823875,0.8047332763671875,-0.79595947265625,0.0312957763671875,156386.9126417083,-2.11083080106062,2.320364853518637,1.806936157491132,156386.9126417083,3.103202965456849,1.10779763593146,0.6471856691208252,-2.121910810470581,2.334315538406372,1.842276930809021,-0.05401619151234627,-0.05133804678916931,0.3380976915359497,XTrueNorthZVertical,-0.4934244007523174,0.2799536011351791,0.8094012894827423,-0.1517496470229626,0.7137909531593323,-0.6029435396194458,-0.3563166856765747,18.94386291503906,-31.83390426635742,-30.66559982299805,2,0.0.0.0,10.83.46.32,5,0
2015-02-28 13:34:07.750,43,1425159247.136961,37.77461322027983,-122.5134364330419,2.263123,0.39,167.34375,3,5,-9999,1425159247.710283,17.66217803955078,-30.31385803222656,-31.86074829101562,98.16469573974609,84.37686157226562,10,156386.9748858333,0.9071044921875,-0.602996826171875,-0.1934814453125,156386.9644180417,-1.602632287097922,1.40618873666208,2.259671944907949,156386.9126417083,3.103202965456849,1.10779763593146,0.6471856691208252,-2.121910810470581,2.334315538406372,1.842276930809021,-0.05401619151234627,-0.05133804678916931,0.3380976915359497,XTrueNorthZVertical,-0.4934244007523174,0.2799536011351791,0.8094012894827423,-0.1517496470229626,0.7137909531593323,-0.6029435396194458,-0.3563166856765747,18.94386291503906,-31.83390426635742,-30.66559982299805,2,0.0.0.0,10.83.46.32,5,0
2015-02-28 13:34:07.800,44,1425159247.136961,37.77461322027983,-122.5134364330419,2.263123,0.39,167.34375,3,5,-9999,1425159247.765107,17.62808227539062,-28.88658142089844,-32.89270782470703,85.83018493652344,72.04235076904297,10,156387.0239163333,0.9222412109375,-0.6752471923828125,0.004669189453125,156387.016195125,-0.314351811905792,1.50669377304058,1.161272991225706,156386.9644180417,-3.019033310598186,1.101613242354319,0.6899856038219839,-1.613712191581726,1.420139193534851,2.295012235641479,0.2793733477592468,-0.172174483537674,0.3083085417747498,XTrueNorthZVertical,-0.5092599406383048,0.2574680164356697,0.7895501116069952,-0.2257769152712293,0.6879118084907532,-0.6365261077880859,-0.3487290740013123,19.50013542175293,-30.45889472961426,-31.6961612701416,2,0.0.0.0,10.83.46.32,5,0
2015-02-28 13:34:07.846,45,1425159247.136961,37.77461322027983,-122.5134364330419,2.263123,0.39,167.34375,3,5,-9999,1425159247.840938,17.28713989257812,-28.03700256347656,-33.62506866455078,72.34587097167969,58.55803298950195,10,156387.072970875,0.9158782958984375,-0.8662261962890625,-0.4224700927734375,156387.067972375,-0.849008831298427,-1.31659839969516,0.2732864005289882,156387.067972375,-2.851697890247515,1.069729167863285,0.7714571469106832,-0.8600884675979614,-1.302648305892944,0.3086260557174683,0.3855905830860138,-0.1951228678226471,0.02085240185260773,XTrueNorthZVertical,-0.5140735076835626,0.2520789665359297,0.7610648202660415,-0.3049016620416692,0.6287679076194763,-0.6971806287765503,-0.3443692326545715,18.70186233520508,-30.53567314147949,-32.10076904296875,2,0.0.0.0,10.83.46.32,5,0
2015-02-28 13:34:07.894,46,1425159247.136961,37.77461322027983,-122.5134364330419,2.263123,0.39,167.34375,3,5,-9999,1425159247.891966,15.90633392333984,-27.78211975097656,-34.20761871337891,71.72775268554688,57.93991470336914,10,156387.1219974167,0.47589111328125,-0.71087646484375,-0.1727294921875,156387.067972375,-0.849008831298427,-1.31659839969516,0.2732864005289882,156387.067972375,-2.851697890247515,1.069729167863285,0.7714571469106832,-0.8600884675979614,-1.302648305892944,0.3086260557174683,0.3855905830860138,-0.1951228678226471,0.02085240185260773,XTrueNorthZVertical,-0.5140735076835626,0.2520789665359297,0.7610648202660415,-0.3049016620416692,0.6287679076194763,-0.6971806287765503,-0.3443692326545715,18.70186233520508,-30.53567314147949,-32.10076904296875,2,0.0.0.0,10.83.46.32,5,0
2015-02-28 13:34:07.945,47,1425159247.136961,37.77461322027983,-122.5134364330419,2.263123,0.39,167.34375,3,5,-9999,1425159247.891966,15.90633392333984,-27.78211975097656,-34.20761871337891,71.72775268554688,57.93991470336914,10,156387.1710508333,0.574859619140625,-0.7454071044921875,-0.137542724609375,156387.1715259583,0.1491442115793805,-1.747926633005484,-0.5958806960085755,156387.1197487084,-2.819965138638495,0.9580277204115497,0.7808382999791782,-0.09223113209009171,-1.985254883766174,-0.09263435006141663,-0.1698470264673233,-0.02734130062162876,0.1713491231203079,XTrueNorthZVertical,-0.4748014146921766,0.2651372189559956,0.7819933694754442,-0.304552627079932,0.5810866355895996,-0.7038751244544983,-0.4085317552089691,16.56228446960449,-29.75,-33.95989990234375,2,0.0.0.0,10.83.46.32,5,0
2015-02-28 13:34:08.024,48,1425159247.136961,37.77461322027983,-122.5134364330419,2.263123,0.39,167.34375,3,5,-9999,1425159247.999904,10.19558715820312,-27.39128112792969,-35.85540008544922,77.95813751220703,64.17030334472656,10,156387.2200803334,0.4206695556640625,-0.8330841064453125,-0.246368408203125,156387.2233034583,0.9917441457145318,-1.338317543649193,-0.3606450085024214,156387.1715259583,-2.83586245195673,0.8759115105989919,0.7586904519620753,0.1380647867918015,-1.733976721763611,-0.5605417490005493,0.01740063354372978,-0.05743545666337013,0.3271448612213135,XTrueNorthZVertical,-0.4404114071082482,0.271466382868942,0.8075143851221777,-0.283309678825124,0.5574589967727661,-0.6879716515541077,-0.4646875858306885,13.46766471862793,-29.63815689086914,-35.39559173583984,2,0.0.0.0,10.83.46.32,5,0
2015-02-28 13:34:08.043,49,1425159247.136961,37.77461322027983,-122.5134364330419,2.263123,0.39,167.34375,3,5,-9999,1425159247.999904,10.19558715820312,-27.39128112792969,-35.85540008544922,77.95813751220703,64.17030334472656,10,156387.2692295417,0.28265380859375,-0.6867218017578125,-0.340301513671875,156387.2233034583,0.9917441457145318,-1.338317543649193,-0.3606450085024214,156387.2233034583,-2.887376579357755,0.8347707704814131,0.7640999721397613,0.980664849281311,-1.324367761611938,-0.3253064155578613,-0.1144394427537918,-0.1411966532468796,0.2383481860160828,XTrueNorthZVertical,-0.4163148719922549,0.2903853133842355,0.8222422522563319,-0.2574413264561541,0.5351089835166931,-0.6918874382972717,-0.4847165942192078,10.61854457855225,-29.55507850646973,-36.41964340209961,2,0.0.0.0,10.83.46.32,5,0
2015-02-28 13:34:08.082,50,1425159247.136961,37.77461322027983,-122.5134364330419,2.263123,0.39,167.34375,3,5,-9999,1425159248.073969,7.962432861328125,-29.03947448730469,-35.30613708496094,81.52276611328125,67.73493194580078,10,156387.3181454584,0.7157135009765625,-0.7248382568359375,-0.3905487060546875,156387.27507975,0.8640527619801756,-0.3204986540178039,-0.1280130935940378,156387.27507975,-2.93783634600431,0.8282050718975726,0.7909862062315112,0.8529735207557678,-0.3065490424633026,-0.09267482161521912,-0.2353659570217133,0.02432526089251041,0.1351642161607742,XTrueNorthZVertical,-0.405253353343573,0.3131083765567653,0.8246630630604126,-0.2401327911632469,0.5180197954177856,-0.7110470533370972,-0.475465714931488,8.890106201171875,-30.90157318115234,-35.75898742675781,2,0.0.0.0,10.83.46.32,5,0
2015-02-28 13:34:08.140,51,1425159247.136961,37.77461322027983,-122.5134364330419,2.263123,0.39,167.34375,3,5,-9999,1425159248.12549,8.456794738769531,-30.3138427734375,-34.65699768066406,83.12783050537109,69.33999633789062,10,156387.3671990834,0.80517578125,-0.847869873046875,-0.46746826171875,156387.3786342083,-0.04456906610691208,0.5871854750494668,-0.7217589996728058,156387.326856875,-2.987936327449003,0.894281021129981,0.799219933703642,0.3702962100505829,1.057366967201233,-0.4919804930686951,0.1720138639211655,-0.008025861345231533,0.04599539935588837,XTrueNorthZVertical,-0.4240727868499346,0.3192024718657934,0.8152838875767351,-0.2314828220411183,0.5436996221542358,-0.7168123722076416,-0.4365441203117371,8.378329277038574,-32.21636581420898,-34.70671081542969,2,0.0.0.0,10.83.46.32,5,0
2015-02-28 13:34:08.181,52,1425159248.168465,37.77461053807081,-122.5134360139468,2.992157,0.38,167.34375,3,5,-9999,1425159248.12549,8.456794738769531,-30.3138427734375,-34.65699768066406,83.12783050537109,69.33999633789062,10,156387.4162273333,0.696685791015625,-0.7174072265625,-0.5003204345703125,156387.3786342083,-0.04456906610691208,0.5871854750494668,-0.7217589996728058,156387.3786342083,-3.027272270413867,0.9701091752679482,0.7788774081775993,-0.05564805492758751,0.601134717464447,-0.6864215135574341,0.2054089903831482,-0.1627229452133179,-0.1109530404210091,XTrueNorthZVertical,-0.4498281298127439,0.3106833087608559,0.8069592389759365,-0.2234891110372277,0.5871172547340393,-0.7024809122085571,-0.4022610783576965,11.23129653930664,-32.85172653198242,-33.2756462097168,2,0.0.0.0,10.83.46.32,5,0
2015-02-28 13:34:08.239,53,1425159248.168465,37.77461053807081,-122.5134360139468,2.992157,0.38,167.34375,3,5,-9999,1425159248.231328,11.69572448730469,-30.38179016113281,-34.25753021240234,85.36860656738281,71.58077239990234,10,156387.4653798333,0.5902862548828125,-0.6706085205078125,-0.3457183837890625,156387.4304105833,-0.4420413314273853,-0.4720668748213746,-0.5707606953425121,156387.4304105833,-3.035561542673418,0.9748298946922647,0.7454624492170077,-0.453120231628418,-0.4581177234649658,-0.5354235172271729,0.07402494549751282,-0.03668465837836266,-0.08294124901294708,XTrueNorthZVertical,-0.4526222705878643,0.2981868740655051,0.8126850810285609,-0.2139174799093968,0.6081039905548096,-0.6783117055892944,-0.4124353229999542,13.12002086639404,-32.45195007324219,-32.97547912597656,2,0.0.0.0,10.83.46.32,5,0
2015-02-28 13:34:08.278,54,1425159248.168465,37.77461053807081,-122.5134360139468,2.992157,0.38,167.34375,3,5,-9999,1425159248.231328,11.69572448730469,-30.38179016113281,-34.25753021240234,85.36860656738281,71.58077239990234,10,156387.5143086667,0.488372802734375,-0.443359375,-0.3628082275390625,156387.482188,-0.7510614948308386,-0.1190875092006373,-0.2659752243883937,156387.482188,-3.015185893330755,0.9419493449125649,0.7120167066556321,-0.7620707154273987,-0.1052088290452957,-0.2305763214826584,-0.02485587261617184,0.01662782952189445,0.09276489913463593,XTrueNorthZVertical,-0.4440706140689581,0.2831065307298863,0.8235922090519421,-0.2105894489325272,0.6122276782989502,-0.6533618569374084,-0.4453039765357971,13.42746925354004,-31.52077484130859,-33.74596786499023,2,0.0.0.0,10.83.46.32,5,0
2015-02-28 13:34:08.336,55,1425159248.168465,37.77461053807081,-122.5134360139468,2.992157,0.38,167.34375,3,5,-9999,1425159248.281982,12.01961898803711,-28.97148132324219,-34.74022674560547,87.01702880859375,73.22919464111328,10,156387.5633599584,0.67584228515625,-0.581146240234375,-0.4104766845703125,156387.533965125,-0.4895934042712951,0.08914052905880523,-0.3976919761104047,156387.533965125,-2.990613351322923,0.9296606307878111,0.6830885513508709,-0.5006024837493896,0.1030190512537956,-0.3622934520244598,-0.04327730089426041,0.1385005563497543,0.1074770987033844,XTrueNorthZVertical,-0.4437558672462446,0.2666967436519684,0.8285424610797268,-0.2132393683918982,0.6216006875038147,-0.631191611289978,-0.4639071524143219,13.5520658493042,-29.84600067138672,-35.18812561035156,2,0.0.0.0,10.83.46.32,5,0
2015-02-28 13:34:08.376,56,1425159248.168465,37.77461053807081,-122.5134360139468,2.992157,0.38,167.34375,3,5,-9999,1425159248.334985,12.37760543823242,-27.1873779296875,-35.4559326171875,86.14102935791016,72.35319519042969,10,156387.6124969167,0.6099090576171875,-0.4636993408203125,-0.388824462890625,156387.5857416667,0.2072293528506628,-0.1858723988048814,-0.3968927614672719,156387.5857416667,-2.998997904241961,0.934500238206633,0.6643046459413892,0.1962203681468964,-0.1719940006732941,-0.3614945709705353,0.005499532911926508,0.1198534741997719,0.07320360839366913,XTrueNorthZVertical,-0.4454705597437918,0.2600529085069462,0.8314044344996405,-0.2066281498422235,0.633263885974884,-0.6165118217468262,-0.4678569436073303,14.15797328948975,-28.89387130737305,-35.73992919921875,2,0.0.0.0,10.83.46.32,5,0
2015-02-28 13:34:08.434,57,1425159248.168465,37.77461053807081,-122.5134360139468,2.992157,0.38,167.34375,3,5,-9999,1425159248.386184,13.11062622070312,-26.59269714355469,-35.53916168212891,87.55047607421875,73.76264190673828,10,156387.6614379167,0.7140350341796875,-0.5376434326171875,-0.3738861083984375,156387.6375188333,0.8983012799147035,-0.5783674823641054,-0.9435617026406002,156387.6375188333,-3.053638136906273,0.9487817974343766,0.655471830748479,0.8872923851013184,-0.5644891858100891,-0.908163845539093,0.005392045713961124,0.08675199002027512,0.05649453774094582,XTrueNorthZVertical,-0.4446538569499432,0.2670630384130377,0.8349437201858824,-0.1839275019390832,0.6442813873291016,-0.6095333695411682,-0.4619205594062805,14.46338939666748,-28.84732627868652,-35.65513229370117,2,0.0.0.0,10.83.46.32,5,0
2015-02-28 13:34:08.474,58,1425159248.168465,37.77461053807081,-122.5134360139468,2.992157,0.38,167.34375,3,5,-9999,1425159248.436715,13.63908386230469,-26.91554260253906,-35.08976745605469,90.23026275634766,76.44242858886719,10,156387.7105757083,0.5130615234375,-0.563934326171875,-0.480255126953125,156387.68929625,1.345029508544519,-1.138921879144998,-1.067211739420761,156387.68929625,3.135357357417039,0.9637578984269641,0.6472221152645492,1.334020733833313,-1.125043749809265,-1.031814217567444,0.04790569096803665,0.06275047361850739,0.03905768692493439,XTrueNorthZVertical,-0.4385084468807767,0.2831495838040295,0.8405852651653163,-0.1447519534480482,0.6552345752716064,-0.6029726266860962,-0.4550732970237732,14.78806686401367,-29.87808609008789,-34.6591911315918,2,0.0.0.0,10.83.46.32,5,0
2015-02-28 13:34:08.533,59,1425159248.168465,37.77461053807081,-122.5134360139468,2.992157,0.38,167.34375,3,5,-9999,1425159248.488288,13.60499572753906,-28.24089050292969,-34.39070129394531,94.67430877685547,80.886474609375,10,156387.7595270833,0.4076690673828125,-0.7242889404296875,-0.3753662109375,156387.7410725417,1.701537296293502,-1.411962203589263,-1.23954729040477,156387.7410725417,3.012542814173918,0.9722403551684695,0.645108642114391,1.690528631210327,-1.398084163665771,-1.204150199890137,-0.25765660405159,-0.06968948245048523,0.001180399674922228,XTrueNorthZVertical,-0.4241112400820188,0.308255793040795,0.8463597398816933,-0.09371912096542973,0.6601224541664124,-0.6012852787971497,-0.4502160549163818,14.54329109191895,-31.25015449523926,-33.53456115722656,2,0.0.0.0,10.83.46.32,5,0
2015-02-28 13:34:08.573,60,1425159248.168465,37.77461053807081,-122.5134360139468,2.992157,0.38,167.34375,3,5,-9999,1425159248.541483,12.99129867553711,-30.07595825195312,-33.39204406738281,100.450065612793,86.6622314453125,10,156387.8086782917,0.4158477783203125,-0.72467041015625,-0.373260498046875,156387.7928499584,1.674237764591318,-0.8914670759253422,-0.4844625581151484,156387.7410725417,3.012542814173918,0.9722403551684695,0.645108642114391,1.690528631210327,-1.398084163665771,-1.204150199890137,-0.25765660405159,-0.06968948245048523,0.001180399674922228,XTrueNorthZVertical,-0.4241112400820188,0.308255793040795,0.8463597398816933,-0.09371912096542973,0.6601224541664124,-0.6012852787971497,-0.4502160549163818,14.54329109191895,-31.25015449523926,-33.53456115722656,2,0.0.0.0,10.83.46.32,5,0
2015-02-28 13:34:08.632,61,1425159248.168465,37.77461053807081,-122.5134360139468,2.992157,0.38,167.34375,3,5,-9999,1425159248.618192,12.73559951782227,-33.32135009765625,-30.84545135498047,108.8798065185547,95.09197235107422,10,156387.85772375,0.2393646240234375,-0.89971923828125,-0.3748626708984375,156387.844627125,1.051834380970535,0.5446870166900913,0.3170743614881801,156387.844627125,2.824087338001756,1.021956930595924,0.690133246445741,1.040825963020325,0.5585647225379944,0.3524707853794098,-0.4223207831382751,-0.2178369909524918,-0.09516946226358414,XTrueNorthZVertical,-0.4077732116735059,0.3640942022096823,0.8366775208421915,-0.03357389924318527,0.6579012274742126,-0.6366399526596069,-0.402312844991684,13.68882751464844,-35.45188140869141,-29.46907806396484,2,0.0.0.0,10.83.46.32,5,0
2015-02-28 13:34:08.671,62,1425159248.168465,37.77461053807081,-122.5134360139468,2.992157,0.38,167.34375,3,5,-9999,1425159248.618192,12.73559951782227,-33.32135009765625,-30.84545135498047,108.8798065185547,95.09197235107422,10,156387.9067405417,0.8188629150390625,-1.001327514648438,-0.4384765625,156387.8964036667,0.0432017992032654,2.239648169303861,0.7409156500259638,156387.844627125,2.824087338001756,1.021956930595924,0.690133246445741,1.040825963020325,0.5585647225379944,0.3524707853794098,-0.4223207831382751,-0.2178369909524918,-0.09516946226358414,XTrueNorthZVertical,-0.4077732116735059,0.3640942022096823,0.8366775208421915,-0.03357389924318527,0.6579012274742126,-0.6366399526596069,-0.402312844991684,13.68882751464844,-35.45188140869141,-29.46907806396484,2,0.0.0.0,10.83.46.32,5,0
2015-02-28 13:34:08.729,63,1425159248.168465,37.77461053807081,-122.5134360139468,2.992157,0.38,167.34375,3,5,-9999,1425159248.670759,13.21291351318359,-35.49624633789062,-28.44866943359375,108.6572189331055,94.869384765625,10,156387.9556865,0.7949371337890625,-0.9046173095703125,-0.29345703125,156387.948180875,-0.201288106774805,0.2551518714022026,0.7706578330799687,156387.948180875,2.84402536177341,1.152579171446425,0.7592552174971324,-0.2122963070869446,0.269029289484024,0.8060535192489624,0.195670872926712,-0.2238042652606964,-0.04489017650485039,XTrueNorthZVertical,-0.454468236592424,0.3823152383772084,0.8001215751333728,-0.08425678769986061,0.6628343462944031,-0.6883814334869385,-0.2945873737335205,15.18097305297852,-37.64002990722656,-25.79559135437012,2,0.0.0.0,10.83.46.32,5,0
2015-02-28 13:34:08.768,64,1425159248.168465,37.77461053807081,-122.5134360139468,2.992157,0.38,167.34375,3,5,-9999,1425159248.748456,13.62203979492188,-36.07394409179688,-27.050537109375,102.3996200561523,88.61178588867188,10,156388.0047097917,0.8237762451171875,-0.9157562255859375,-0.048065185546875,156387.9999583334,-0.1887366285572616,-0.2294116205182598,0.3633068380119556,156387.948180875,2.84402536177341,1.152579171446425,0.7592552174971324,-0.2122963070869446,0.269029289484024,0.8060535192489624,0.195670872926712,-0.2238042652606964,-0.04489017650485039,XTrueNorthZVertical,-0.454468236592424,0.3823152383772084,0.8001215751333728,-0.08425678769986061,0.6628343462944031,-0.6883814334869385,-0.2945873737335205,15.18097305297852,-37.64002990722656,-25.79559135437012,2,0.0.0.0,10.83.46.32,5,0
2015-02-28 13:34:08.826,65,1425159248.168465,37.77461053807081,-122.5134360139468,2.992157,0.38,167.34375,3,5,-9999,1425159248.800265,13.19586181640625,-35.92103576660156,-27.36678314208984,100.4629592895508,86.67512512207031,10,156388.0537777917,0.4060821533203125,-0.929168701171875,-0.14862060546875,156388.051734625,0.242323424431291,-0.2907729825625575,-0.2940041959131506,156387.9999583334,2.872575391877188,1.124877590330201,0.7808814940532465,-0.1997447311878204,-0.2155343443155289,0.3987021446228027,0.2452711910009384,-0.2478153854608536,0.2527361512184143,XTrueNorthZVertical,-0.4454880028450041,0.3851886577813889,0.8024421814439961,-0.09621197176755027,0.6408371925354004,-0.7039058208465576,-0.3063402771949768,14.40102195739746,-37.94464111328125,-25.79653549194336,2,0.0.0.0,10.83.46.32,5,0
2015-02-28 13:34:08.866,66,1425159248.168465,37.77461053807081,-122.5134360139468,2.992157,0.38,167.34375,3,5,-9999,1425159248.852188,12.51398086547852,-36.498779296875,-27.30020904541016,99.52184295654297,85.7340087890625,10,156388.102915875,0.3687896728515625,-0.728424072265625,-0.1269989013671875,156388.051734625,0.242323424431291,-0.2907729825625575,-0.2940041959131506,156388.051734625,2.87296944761864,1.111820605545901,0.7827325015501213,0.2313154339790344,-0.2768958210945129,-0.2586091756820679,-0.1937496215105057,-0.2150992453098297,0.1663374304771423,XTrueNorthZVertical,-0.440034068239713,0.3864171905686198,0.8050785757452016,-0.09434151436031746,0.6356136202812195,-0.7052193880081177,-0.3141035437583923,13.52088737487793,-37.96764373779297,-26.23527908325195,2,0.0.0.0,10.83.46.32,5,0
2015-02-28 13:34:08.925,67,1425159248.168465,37.77461053807081,-122.5134360139468,2.992157,0.38,167.34375,3,5,-9999,1425159248.902764,12.9231071472168,-36.9405517578125,-26.93403625488281,96.54829406738281,82.76045989990234,10,156388.1518675833,0.357147216796875,-0.5077972412109375,-0.0297088623046875,156388.1552892917,0.2162401583989459,0.1242298069494713,-0.6285845805108575,156388.1035121667,2.83568497664431,1.133958868172257,0.7768854162752181,0.5043811798095703,0.05111145228147507,-0.3065230250358582,-0.2773466110229492,-0.02736226096749306,0.1746968477964401,XTrueNorthZVertical,-0.4425944797801178,0.3914872276510474,0.8025629220008101,-0.08210173029871917,0.6461362838745117,-0.7010617852210999,-0.3016957640647888,13.5139741897583,-38.07484436035156,-26.08304595947266,2,0.0.0.0,10.83.46.32,5,0
2015-02-28 13:34:08.965,68,1425159248.168465,37.77461053807081,-122.5134360139468,2.992157,0.38,167.34375,3,5,-9999,1425159248.954935,13.9459228515625,-37.55226135253906,-25.76891326904297,98.52758026123047,84.73974609375,10,156388.2010007917,0.526885986328125,-0.5633392333984375,0.085845947265625,156388.1552892917,0.2162401583989459,0.1242298069494713,-0.6285845805108575,156388.1552892917,2.802232564264076,1.159328385670071,0.7622358023129308,0.2052323967218399,0.1381066590547562,-0.5931903123855591,-0.3057768046855927,0.1827430725097656,0.259576290845871,XTrueNorthZVertical,-0.4485892718512667,0.3925876737001552,0.7998682338298199,-0.06966672794723319,0.6629239916801453,-0.6905403137207031,-0.2892851531505585,14.33195304870605,-38.4610595703125,-25.0596981048584,2,0.0.0.0,10.83.46.32,5,0
2015-02-28 13:34:09.026,69,1425159248.168465,37.77461053807081,-122.5134360139468,2.992157,0.38,167.34375,3,5,-9999,1425159249.006217,15.39492416381836,-37.46730041503906,-25.28622436523438,100.4666366577148,86.67880249023438,10,156388.2499525,0.6553192138671875,-0.7931976318359375,0.07757568359375,156388.2070658334,0.2801379150654351,0.9218667934524877,-0.6035766989266865,156388.2070658334,2.767647616013154,1.203639699582516,0.73852339582368,0.2691302597522736,0.935743510723114,-0.5681827664375305,-0.1632935553789139,0.109857514500618,0.351285994052887,XTrueNorthZVertical,-0.4634766475242111,0.3904732733076497,0.7933286238985443,-0.05787724397056363,0.6901795268058777,-0.6731967329978943,-0.265440046787262,15.49338340759277,-38.33847427368164,-24.55123138427734,2,0.0.0.0,10.83.46.32,5,0
2015-02-28 13:34:09.062,70,1425159248.168465,37.77461053807081,-122.5134360139468,2.992157,0.38,167.34375,3,5,-9999,1425159249.05837,17.98606872558594,-37.50128173828125,-23.75493621826172,99.02223205566406,85.23439788818359,10,156388.2989827083,1.023757934570312,-0.7932281494140625,-0.1041412353515625,156388.2588430417,0.2542471955799027,2.156588968594252,-0.4267553194025485,156388.2588430417,2.739400043701294,1.3099948295799,0.7222684362512484,0.2432396411895752,2.170465707778931,-0.3913617134094238,-0.0696161687374115,-0.1321092396974564,0.2710464000701904,XTrueNorthZVertical,-0.5024100258721312,0.3883925966863404,0.7699368827262156,-0.06271055887569651,0.7249354124069214,-0.6610884070396423,-0.1934707164764404,17.36363220214844,-38.23671722412109,-23.4329662322998,2,0.0.0.0,10.83.46.32,5,0
2015-02-28 13:34:09.124,71,1425159248.168465,37.77461053807081,-122.5134360139468,2.992157,0.38,167.34375,3,5,-9999,1425159249.110131,20.95225143432617,-37.46730041503906,-21.25828552246094,96.69115447998047,82.9033203125,10,156388.3480340417,1.062423706054688,-0.67535400390625,-0.2585906982421875,156388.3106205417,0.5239630960354217,1.850031962883013,-0.2653757468270169,156388.3106205417,2.714489537562045,1.43591594808652,0.7123127101202719,0.5129556655883789,1.863908410072327,-0.2299825251102448,0.339743435382843,-0.1420836597681046,-0.006272195372730494,XTrueNorthZVertical,-0.5469041959571597,0.38730886323722,0.7384631649794826,-0.07456446677264895,0.749978244304657,-0.6535859107971191,-0.1017752885818481,20.43367385864258,-39.23750305175781,-25.78319931030273,2,0.0.0.0,10.83.46.32,5,0
2015-02-28 13:34:09.161,72,1425159248.168465,37.77461053807081,-122.5134360139468,2.992157,0.38,167.34375,3,5,-9999,1425159249.110131,20.95225143432617,-37.46730041503906,-21.25828552246094,96.69115447998047,82.9033203125,10,156388.3971639583,0.852752685546875,-0.6024169921875,-0.039825439453125,156388.3623969583,0.8870582127407161,-0.6630687882018576,-0.0863798962728291,156388.3623969583,2.667760050284091,1.494397768246363,0.7132827829584055,0.8760508894920349,-0.6491924524307251,-0.05098703131079674,0.2494820654392242,-0.0004043293884024024,-0.2027192264795303,XTrueNorthZVertical,-0.5589217479220636,0.3984314098377112,0.7239183289914811,-0.06929072909790585,0.7540121674537659,-0.6543197631835938,-0.05771778151392937,22.71797561645508,-39.60856246948242,-23.17207717895508,2,0.0.0.0,10.83.46.32,5,0
2015-02-28 13:34:09.227,73,1425159248.168465,37.77461053807081,-122.5134360139468,2.992157,0.38,167.34375,3,5,-9999,1425159249.214291,22.67399597167969,-37.85810852050781,-18.31224822998047,100.140625,86.35279083251953,10,156388.4461097917,0.7574310302734375,-0.4787750244140625,0.02789306640625,156388.4141743333,0.7931319832030383,-1.618896211875036,-0.5990703640461634,156388.4141743333,2.607272887054056,1.463832145970773,0.6990243252156163,0.7821246981620789,-1.605020046234131,-0.5636778473854065,0.09762325882911682,0.07349433749914169,0.1067920699715614,XTrueNorthZVertical,-0.5383668456670065,0.4114610570399391,0.7345399443127734,-0.03622249396964022,0.7610956430435181,-0.6434711217880249,-0.08172187954187393,22.4893913269043,-40.39007186889648,-22.01725006103516,2,0.0.0.0,10.83.46.32,5,0
2015-02-28 13:34:09.259,74,1425159248.168465,37.77461053807081,-122.5134360139468,2.992157,0.38,167.34375,3,5,-9999,1425159249.214291,22.67399597167969,-37.85810852050781,-18.31224822998047,100.140625,86.35279083251953,10,156388.4952456667,0.7343292236328125,-0.53759765625,0.0008544921875,156388.4659515417,0.6481446997691626,-0.8405580885273874,-0.9328243697576187,156388.4659515417,2.559816615991661,1.436516599103665,0.666352679475755,0.6372023820877075,-0.8267486095428467,-0.8973730206489563,-0.06295596808195114,0.1020707711577415,0.1099833622574806,XTrueNorthZVertical,-0.5251345303685607,0.414264149725282,0.7433804997489571,-0.002105396454536983,0.7790051698684692,-0.6181229948997498,-0.1052378788590431,21.85722541809082,-40.7283935546875,-22.03064918518066,2,0.0.0.0,10.83.46.32,5,0
2015-02-28 13:34:09.327,75,1425159248.168465,37.77461053807081,-122.5134360139468,2.992157,0.38,167.34375,3,5,-9999,1425159249.317749,23.64567184448242,-37.33134460449219,-17.92943572998047,111.434211730957,97.64637756347656,10,156388.5441837917,0.806121826171875,-0.5273895263671875,-0.0877685546875,156388.5177279583,0.7026255188211316,-0.2958508318130116,-0.7680844205186251,156388.5177279583,2.511293362430805,1.441888262042728,0.628854696063036,0.691683292388916,-0.2820414900779724,-0.7326334118843079,0.03885895013809204,0.01435113698244095,0.07608189433813095,XTrueNorthZVertical,-0.5248067998643472,0.4154491201083857,0.7424507943655574,0.02732636451349418,0.801991879940033,-0.5882189273834229,-0.1039597019553185,22.61838912963867,-40.50283813476562,-21.67530250549316,2,0.0.0.0,10.83.46.32,5,0
2015-02-28 13:34:09.357,76,1425159248.168465,37.77461053807081,-122.5134360139468,2.992157,0.38,167.34375,3,5,-9999,1425159249.317749,23.64567184448242,-37.33134460449219,-17.92943572998047,111.434211730957,97.64637756347656,10,156388.59335575,0.66925048828125,-0.6779937744140625,-0.05224609375,156388.569505375,0.8470327657695882,-0.7985360696870272,-0.6272162483427749,156388.569505375,2.46109763657438,1.444314715067575,0.6041019017728734,0.836090624332428,-0.7847267985343933,-0.5917655825614929,-0.07652435451745987,0.02574105560779572,-0.02086092717945576,XTrueNorthZVertical,-0.5204077956806628,0.4210301731020754,0.7409613405258706,0.05371845318691953,0.8164383172988892,-0.568023145198822,-0.1038186401128769,23.6640739440918,-40.37200546264648,-20.78467178344727,2,0.0.0.0,10.83.46.32,5,0
2015-02-28 13:34:09.436,77,1425159249.417822,37.77460940651388,-122.5134389476129,3.184418,0.38,167.34375,3,5,-9999,1425159249.369424,24.36165237426758,-37.09349060058594,-17.09721374511719,116.2253189086914,102.4374847412109,10,156388.6422756667,0.7958526611328125,-0.570465087890625,0.0223541259765625,156388.6212828333,0.6767190866851677,-0.474231492155391,-0.7378474221340835,156388.6212828333,2.407266544070491,1.438353031521309,0.5736990088503657,0.6657770276069641,-0.4604223966598511,-0.7023971080780029,-0.1128169521689415,-0.1164523959159851,0.07208047062158585,XTrueNorthZVertical,-0.5133238253065885,0.4254898423629515,0.7404187305411439,0.08507178566753705,0.8325434923171997,-0.5427425503730774,-0.1109140887856483,24.31417846679688,-40.46710586547852,-19.82735443115234,2,0.0.0.0,10.83.46.32,5,0
2015-02-28 13:34:09.455,78,1425159249.417822,37.77460940651388,-122.5134389476129,3.184418,0.38,167.34375,3,5,-9999,1425159249.423635,25.28218841552734,-36.75364685058594,-16.73104858398438,119.674201965332,105.8863677978516,10,156388.691429375,0.925384521484375,-0.4167022705078125,0.0493621826171875,156388.6730592917,0.4042460155530897,0.1018059905710041,-0.6931862106534546,156388.6212828333,2.407266544070491,1.438353031521309,0.5736990088503657,0.6657770276069641,-0.4604223966598511,-0.7023971080780029,-0.1128169521689415,-0.1164523959159851,0.07208047062158585,XTrueNorthZVertical,-0.5133238253065885,0.4254898423629515,0.7404187305411439,0.08507178566753705,0.8325434923171997,-0.5427425503730774,-0.1109140887856483,24.31417846679688,-40.46710586547852,-19.82735443115234,2,0.0.0.0,10.83.46.32,5,0
2015-02-28 13:34:09.528,79,1425159249.417822,37.77460940651388,-122.5134389476129,3.184418,0.38,167.34375,3,5,-9999,1425159249.474013,26.50957489013672,-36.24391174316406,-15.96540069580078,122.5592041015625,108.771369934082,10,156388.7403819583,0.79791259765625,-0.527587890625,-0.009033203125,156388.7248365417,0.2118504699741683,0.2121293029402996,-0.902348485823297,156388.7248365417,2.353878153814792,1.472887543518384,0.5086690956796263,0.2009086608886719,0.2259380966424942,-0.8668988943099976,-0.0654996857047081,0.02157643251121044,0.01120336540043354,XTrueNorthZVertical,-0.5287478806133122,0.42158926608908,0.7269806342298124,0.1191108213156199,0.8692106008529663,-0.4870152771472931,-0.08537633717060089,26.39970016479492,-39.86962127685547,-18.31281280517578,2,0.0.0.0,10.83.46.32,5,0
2015-02-28 13:34:09.552,80,1425159249.417822,37.77460940651388,-122.5134389476129,3.184418,0.38,167.34375,3,5,-9999,1425159249.524727,27.7880973815918,-35.54725646972656,-15.04997253417969,125.9702835083008,112.1824493408203,10,156388.7894157917,1.017135620117188,-0.480072021484375,0.0123748779296875,156388.7766139167,-0.1636163615750892,0.3432995740066264,-1.026084010074449,156388.7766139167,2.345371688464077,1.488488477593526,0.4586193194538007,-0.1745580583810806,0.3571082353591919,-0.9906346797943115,0.1665515601634979,-0.0901874303817749,0.1389352977275848,XTrueNorthZVertical,-0.5432713535603252,0.4098739046731928,0.7200177436291488,0.1357723401953903,0.8936291337013245,-0.4427105188369751,-0.07371924072504044,28.72087287902832,-38.6282958984375,-17.46013832092285,2,0.0.0.0,10.83.46.32,5,0
2015-02-28 13:34:09.624,81,1425159249.417822,37.77460940651388,-122.5134389476129,3.184418,0.38,167.34375,3,5,-9999,1425159249.576549,29.66326904296875,-34.32386779785156,-14.95010375976562,124.2326507568359,110.4448165893555,10,156388.8384663333,1.096466064453125,-0.4443817138671875,-0.009765625,156388.8283904167,-0.1400950565114003,0.06677610117264682,-1.492527353938013,156388.7766139167,2.345371688464077,1.488488477593526,0.4586193194538007,-0.1745580583810806,0.3571082353591919,-0.9906346797943115,0.1665515601634979,-0.0901874303817749,0.1389352977275848,XTrueNorthZVertical,-0.5432713535603252,0.4098739046731928,0.7200177436291488,0.1357723401953903,0.8936291337013245,-0.4427105188369751,-0.07371924072504044,28.72087287902832,-38.6282958984375,-17.46013832092285,2,0.0.0.0,10.83.46.32,5,0
2015-02-28 13:34:09.651,82,1425159249.417822,37.77460940651388,-122.5134389476129,3.184418,0.38,167.34375,3,5,-9999,1425159249.629159,31.93052673339844,-32.57374572753906,-14.80030059814453,128.0174865722656,114.2296524047852,10,156388.88748825,0.9249114990234375,-0.1908721923828125,0.0279693603515625,156388.8801679167,-0.1811673921070384,-0.6422596463923055,-1.46109885728177,156388.8283904167,2.351777739539151,1.498211300719773,0.3956234343043902,-0.1510366499423981,0.08058464527130127,-1.457078456878662,0.07161656022071838,-0.1058579161763191,0.04580134525895119,XTrueNorthZVertical,-0.5609453471357271,0.3897185684942627,0.7142408028143206,0.1527085175325105,0.920326828956604,-0.3853835463523865,-0.06691951304674149,30.74817657470703,-37.12339401245117,-17.27116012573242,2,0.0.0.0,10.83.46.32,5,0
2015-02-28 13:34:09.727,83,1425159249.417822,37.77460940651388,-122.5134389476129,3.184418,0.38,167.34375,3,5,-9999,1425159249.680487,33.92502975463867,-30.04197692871094,-15.14984130859375,133.4234619140625,119.6356201171875,10,156388.9365326667,0.931884765625,-0.239166259765625,0.0523223876953125,156388.9319451667,-0.1796565808206364,-0.09258213213551464,-1.5092280371339,156388.9319451667,2.356264499931132,1.4565242066037,0.2501298692855577,-0.1905979514122009,-0.0787738636136055,-1.473779797554016,-0.05670807138085365,-0.06571789085865021,0.1763016283512115,XTrueNorthZVertical,-0.5744923317274772,0.3387048204832033,0.7159144421788183,0.2066498915601443,0.9625613689422607,-0.2475297898054123,-0.1104752123355865,35.37434387207031,-31.86395263671875,-18.84764671325684,2,0.0.0.0,10.83.46.32,5,0
2015-02-28 13:34:09.749,84,1425159249.417822,37.77460940651388,-122.5134389476129,3.184418,0.38,167.34375,3,5,-9999,1425159249.733126,35.44221496582031,-27.30633544921875,-15.93212890625,136.6620788574219,122.8742446899414,10,156388.9855566667,0.900543212890625,-0.146759033203125,-0.030975341796875,156388.9319451667,-0.1796565808206364,-0.09258213213551464,-1.5092280371339,156388.9319451667,2.356264499931132,1.4565242066037,0.2501298692855577,-0.1905979514122009,-0.0787738636136055,-1.473779797554016,-0.05670807138085365,-0.06571789085865021,0.1763016283512115,XTrueNorthZVertical,-0.5744923317274772,0.3387048204832033,0.7159144421788183,0.2066498915601443,0.9625613689422607,-0.2475297898054123,-0.1104752123355865,35.37434387207031,-31.86395263671875,-18.84764671325684,2,0.0.0.0,10.83.46.32,5,0
2015-02-28 13:34:09.826,85,1425159249.417822,37.77460940651388,-122.5134389476129,3.184418,0.38,167.34375,3,5,-9999,1425159249.785301,36.60140991210938,-24.51969909667969,-16.99736022949219,138.3651733398438,124.5773315429688,10,156389.0346037083,0.9819793701171875,0.042144775390625,0.0243988037109375,156389.0354990833,0.142267929644796,-0.2553060684293182,-0.8843071673346642,156388.983721625,2.361859198498769,1.449847350449691,0.1770389425110386,-0.09543537348508835,-0.5763728618621826,-1.477290987968445,-0.007116066291928291,0.1035752892494202,0.05954906344413757,XTrueNorthZVertical,-0.5857686744195322,0.312235244678533,0.7119467313148077,0.2291639689256182,0.9771783351898193,-0.1761155724525452,-0.1187684237957001,37.29291152954102,-29.23798751831055,-19.39764785766602,2,0.0.0.0,10.83.46.32,5,0
2015-02-28 13:34:09.849,86,1425159249.417822,37.77460940651388,-122.5134389476129,3.184418,0.38,167.34375,3,5,-9999,1425159249.835543,37.96517181396484,-22.27682495117188,-17.46340179443359,145.218994140625,131.43115234375,10,156389.0837359584,0.94085693359375,-0.0529327392578125,-0.0449981689453125,156389.0872765833,0.251734503091413,0.3203607022733378,-0.8709021459877503,156389.0354990833,2.349797274261327,1.42249136859799,0.1134619543512819,0.1313267797231674,-0.2414980828762054,-0.8488597273826599,-0.0006843190058134496,0.1553634405136108,0.1712106317281723,XTrueNorthZVertical,-0.5847526862972494,0.2909611389784866,0.7121025355484674,0.2575188365386042,0.9826636910438538,-0.1132186651229858,-0.1468118280172348,38.77741622924805,-26.57210540771484,-20.30085754394531,2,0.0.0.0,10.83.46.32,5,0
2015-02-28 13:34:09.929,87,1425159249.417822,37.77460940651388,-122.5134389476129,3.184418,0.38,167.34375,3,5,-9999,1425159249.88673,38.85161209106445,-20.81556701660156,-17.36353302001953,146.9066467285156,133.1188049316406,10,156389.1326814167,0.9588470458984375,-0.0122528076171875,-0.1029815673828125,156389.0872765833,0.251734503091413,0.3203607022733378,-0.8709021459877503,156389.0872765833,2.333407484171804,1.433069896738119,0.07409356495800859,0.2407934665679932,0.3341685235500336,-0.835455060005188,-0.04695612564682961,0.02109305001795292,0.09191658347845078,XTrueNorthZVertical,-0.5924826339931208,0.2837374682226899,0.7024404323380814,0.273924948469651,0.9878130555152893,-0.07402578741312027,-0.1369147598743439,39.97615432739258,-24.32672882080078,-20.78477478027344,2,0.0.0.0,10.83.46.32,4,0
2015-02-28 13:34:09.945,88,1425159249.417822,37.77460940651388,-122.5134389476129,3.184418,0.38,167.34375,3,5,-9999,1425159249.939839,39.66986846923828,-19.55819702148438,-16.93077087402344,149.113037109375,135.3251953125,10,156389.1817045833,1.012908935546875,0.1285552978515625,-0.0242767333984375,156389.1390529583,0.2656721566563426,0.2835574139050968,-0.5372855593885431,156389.1390529583,2.31560148800864,1.453532417367666,0.04685865055334237,0.2547312080860138,0.297365128993988,-0.5018388032913208,-0.03319534286856651,0.03458869829773903,0.0138853657990694,XTrueNorthZVertical,-0.601396808966578,0.2826453816908918,0.6905535353398976,0.2856034699324506,0.9920423626899719,-0.04684150591492653,-0.1168669313192368,41.13224029541016,-23.11182022094727,-19.89654159545898,2,0.0.0.0,10.83.46.32,4,0
2015-02-28 13:34:10.029,89,1425159249.417822,37.77460940651388,-122.5134389476129,3.184418,0.38,167.34375,3,5,-9999,1425159249.990733,40.41993713378906,-18.36878967285156,-16.29829406738281,151.7843322753906,137.9964904785156,10,156389.2307476667,0.9664764404296875,0.077301025390625,-0.03179931640625,156389.24260775,-0.329171770739865,0.7704628896881749,-0.3491265704717197,156389.1908305,2.315956872647436,1.462933126341784,0.0258389214633085,-0.208660289645195,0.1741130948066711,-0.3462178707122803,0.01905234530568123,0.154391348361969,0.08334150165319443,XTrueNorthZVertical,-0.6079406641260447,0.2767652983201152,0.6850838756605299,0.2906359624891059,0.9938566088676453,-0.0258360467851162,-0.1076182350516319,41.93558502197266,-22.38188743591309,-19.03543090820312,2,0.0.0.0,10.83.46.32,4,0
2015-02-28 13:34:10.044,90,1425159249.417822,37.77460940651388,-122.5134389476129,3.184418,0.38,167.34375,3,5,-9999,1425159249.990733,40.41993713378906,-18.36878967285156,-16.29829406738281,151.7843322753906,137.9964904785156,10,156389.2798757083,1.14056396484375,0.0578155517578125,-0.03582763671875,156389.24260775,-0.329171770739865,0.7704628896881749,-0.3491265704717197,156389.24260775,2.328268185587528,1.483760489495277,0.01212967423109274,-0.3401124775409698,0.7842702865600586,-0.3136805593967438,0.01128948852419853,0.1375261098146439,0.01891118101775646,XTrueNorthZVertical,-0.618791429101598,0.2713620566420384,0.6786864585892542,0.2878272976061193,0.9961415529251099,-0.01212937664240599,-0.08691960573196411,42.60067367553711,-21.33892822265625,-18.75427436828613,2,0.0.0.0,10.83.46.32,4,0
2015-02-28 13:34:10.129,91,1425159249.417822,37.77460940651388,-122.5134389476129,3.184418,0.38,167.34375,3,5,-9999,1425159250.094298,41.11886978149414,-16.14288330078125,-15.14984130859375,151.7328796386719,137.9450378417969,10,156389.3288120833,0.9042510986328125,0.040313720703125,0.000732421875,156389.2943844583,-0.5826466496036448,0.07196899898219232,-0.09862804044221252,156389.2943844583,2.353656737254519,1.508701884204683,0.001744355713537331,-0.5935872793197632,0.08577628433704376,-0.06318237632513046,0.06390990316867828,0.0937701091170311,-0.04020994901657104,XTrueNorthZVertical,-0.6321100773915865,0.2634570589627688,0.6731206222108836,0.2791700502048594,0.9980713129043579,-0.001744354842230678,-0.06205445528030396,43.41342544555664,-20.56608772277832,-17.7257080078125,2,0.0.0.0,10.83.46.32,4,0
2015-02-28 13:34:10.142,92,1425159249.417822,37.77460940651388,-122.5134389476129,3.184418,0.38,167.34375,3,5,-9999,1425159250.094298,41.11886978149414,-16.14288330078125,-15.14984130859375,151.7328796386719,137.9450378417969,10,156389.3779254167,0.9912567138671875,0.161956787109375,0.073944091796875,156389.3461617084,-0.5490540682456032,0.2055787256070317,-0.05924920898375587,156389.3461617084,2.37925577932865,1.507637971567879,-0.002660146616336985,-0.5599945783615112,0.2193858921527863,-0.02380386926233768,-0.06724708527326584,0.04114783927798271,0.100347600877285,XTrueNorthZVertical,-0.6356672776869545,0.2537105337012264,0.6764154977992166,0.2720665586550362,0.9980027079582214,0.002660143421962857,-0.063116155564785,43.64597702026367,-19.9065113067627,-17.90668869018555,2,0.0.0.0,10.83.46.32,4,0
2015-02-28 13:34:10.227,93,1425159249.417822,37.77460940651388,-122.5134389476129,3.184418,0.38,167.34375,3,5,-9999,1425159250.200219,42.24396514892578,-14.95352172851562,-14.41748046875,150.8661041259766,137.0782623291016,10,156389.4268795,1.097930908203125,0.174346923828125,0.14263916015625,156389.3979392917,-0.2196218403511285,0.5380922308827281,-0.2725106217034481,156389.3979392917,2.400684175678807,1.535460465676183,-0.01481126585888158,-0.2305625081062317,0.5519039034843445,-0.2370704412460327,0.09481950104236603,0.1651361733675003,0.150269091129303,XTrueNorthZVertical,-0.6493021499599178,0.2464637914504863,0.6688005162150397,0.2652701413767427,0.9992662072181702,0.01481072418391705,-0.03532463684678078,44.00359344482422,-19.05141448974609,-17.9615478515625,2,0.0.0.0,10.83.46.32,4,0
2015-02-28 13:34:10.238,94,1425159249.417822,37.77460940651388,-122.5134389476129,3.184418,0.38,167.34375,3,5,-9999,1425159250.200219,42.24396514892578,-14.95352172851562,-14.41748046875,150.8661041259766,137.0782623291016,10,156389.475901,0.94140625,0.0767059326171875,0.05230712890625,156389.4497156667,0.08404776610624672,0.2503392729963205,-0.6388702412729615,156389.4497156667,2.402202343882926,1.555620579696586,-0.03425296809926153,0.07310720533132553,0.2641507387161255,-0.6034303903579712,0.007400205824524164,0.09690301865339279,0.0974111407995224,XTrueNorthZVertical,-0.6586237499294878,0.242139678623376,0.6598771513774074,0.2685988421220147,0.9992983937263489,0.03424626961350441,-0.0151662640273571,44.64008331298828,-18.35716247558594,-17.0929069519043,2,0.0.0.0,10.83.46.32,4,0
2015-02-28 13:34:10.335,95,1425159249.417822,37.77460940651388,-122.5134389476129,3.184418,0.38,167.34375,3,5,-9999,1425159250.301946,42.77242279052734,-12.62567138671875,-13.06928253173828,155.3583679199219,141.5705261230469,10,156389.5249355,0.9192657470703125,0.053466796875,0.107818603515625,156389.5014932083,0.2777413364004728,-0.09503410455115059,-0.6671956226270443,156389.5014932083,2.392475891674786,1.552993906202971,-0.06830841593286825,0.2668612897396088,-0.08128595352172852,-0.6316993832588196,-0.05627145618200302,0.02383148483932018,0.1277758330106735,XTrueNorthZVertical,-0.6607308391260982,0.2335696364951719,0.6547718847304218,0.2831145049905915,0.9975098371505737,0.06825530529022217,-0.01775996573269367,45.28226470947266,-17.2822093963623,-16.51458740234375,2,0.0.0.0,10.83.46.32,4,0
2015-02-28 13:34:10.338,96,1425159249.417822,37.77460940651388,-122.5134389476129,3.184418,0.38,167.34375,3,5,-9999,1425159250.301946,42.77242279052734,-12.62567138671875,-13.06928253173828,155.3583679199219,141.5705261230469,10,156389.5739613333,0.92034912109375,0.176177978515625,0.044525146484375,156389.5532705,0.329476170052461,0.2844165496727564,-0.6279390302626223,156389.5532705,2.37599928723891,1.559722774430395,-0.1002686861903656,0.3185977637767792,0.2981679439544678,-0.59244304895401,-0.003415508195757866,0.0007750975782983005,0.1468209326267242,XTrueNorthZVertical,-0.6647764395675916,0.2292671607569599,0.6455597300857571,0.2979287668556765,0.9949163794517517,0.1001007556915283,-0.01101770903915167,45.92063522338867,-15.71267318725586,-16.31861305236816,2,0.0.0.0,10.83.46.32,4,0
2015-02-28 13:34:10.429,97,1425159249.417822,37.77460940651388,-122.5134389476129,3.184418,0.38,167.34375,3,5,-9999,1425159250.405444,43.71000671386719,-10.02593994140625,-12.45344543457031,159.8705291748047,146.0826873779297,10,156389.6230072083,1.01922607421875,0.1735076904296875,0.1154632568359375,156389.60504725,0.2519659317901409,0.2901061270256017,-0.7955229692297116,156389.60504725,2.359579480856821,1.580358822489851,-0.1377608407906804,0.2410877197980881,0.303869217634201,-0.7600380182266235,-0.05549844726920128,0.01233268808573484,0.07745756208896637,XTrueNorthZVertical,-0.6737582649427996,0.2253567809418664,0.6304261112290921,0.3127732418536052,0.9904807209968567,0.1373255103826523,0.009471756406128407,46.66672897338867,-14.49680042266846,-15.29539012908936,2,0.0.0.0,10.83.46.32,4,0
2015-02-28 13:34:10.435,98,1425159250.418603,37.77460613757165,-122.5134441443929,3.127625,0.4,167.34375,3,5,-9999,1425159250.405444,43.71000671386719,-10.02593994140625,-12.45344543457031,159.8705291748047,146.0826873779297,10,156389.6720484583,0.8447418212890625,0.0800323486328125,0.167816162109375,156389.6568245,0.2969909310756745,0.170231387406737,-0.6702569263000905,156389.60504725,2.359579480856821,1.580358822489851,-0.1377608407906804,0.2410877197980881,0.303869217634201,-0.7600380182266235,-0.05549844726920128,0.01233268808573484,0.07745756208896637,XTrueNorthZVertical,-0.6737582649427996,0.2253567809418664,0.6304261112290921,0.3127732418536052,0.9904807209968567,0.1373255103826523,0.009471756406128407,46.66672897338867,-14.49680042266846,-15.29539012908936,2,0.0.0.0,10.83.46.32,4,0
2015-02-28 13:34:10.525,99,1425159250.418603,37.77460613757165,-122.5134441443929,3.127625,0.4,167.34375,3,5,-9999,1425159250.508876,44.49417114257812,-7.341278076171875,-10.52268981933594,164.7228240966797,150.9349822998047,10,156389.721100125,0.9011688232421875,0.2531585693359375,0.1031341552734375,156389.7086020417,-0.1355714110837917,0.8197867636053144,-0.5892448975204251,156389.7086020417,2.34724988277154,1.619717746246009,-0.202347525524011,-0.1464416682720184,0.833574116230011,-0.5537652373313904,-0.06862025707960129,-0.04839688166975975,0.1577079892158508,XTrueNorthZVertical,-0.6913446643274631,0.2144636331060011,0.6043764715494195,0.3328318594315408,0.9784255623817444,0.2009695172309875,0.04790418967604637,48.1236457824707,-11.44359111785889,-13.23060321807861,2,0.0.0.0,10.83.46.32,4,0
2015-02-28 13:34:10.536,100,1425159250.418603,37.77460613757165,-122.5134441443929,3.127625,0.4,167.34375,3,5,-9999,1425159250.508876,44.49417114257812,-7.341278076171875,-10.52268981933594,164.7228240966797,150.9349822998047,10,156389.7701349167,0.9734039306640625,0.1528472900390625,0.172821044921875,156389.7603786667,-0.2227952631060669,0.76549263214576,-1.180974790654003,156389.7086020417,2.34724988277154,1.619717746246009,-0.202347525524011,-0.1464416682720184,0.833574116230011,-0.5537652373313904,-0.06862025707960129,-0.04839688166975975,0.1577079892158508,XTrueNorthZVertical,-0.6913446643274631,0.2144636331060011,0.6043764715494195,0.3328318594315408,0.9784255623817444,0.2009695172309875,0.04790418967604637,48.1236457824707,-11.44359111785889,-13.23060321807861,2,0.0.0.0,10.83.46.32,4,0
2015-02-28 13:34:10.627,101,1425159250.418603,37.77460613757165,-122.5134441443929,3.127625,0.4,167.34375,3,5,-9999,1425159250.612496,45.00558471679688,-2.005950927734375,-7.060661315917969,170.8564300537109,157.0685882568359,10,156389.8191827917,0.890960693359375,0.2277069091796875,0.2087249755859375,156389.8121560834,-0.2322673281551517,0.6771092397848644,-1.493091411456892,156389.8121560834,2.381955114455663,1.711945592681928,-0.3071863264146465,-0.2431365847587585,0.6908975839614868,-1.457611680030823,-0.03190452232956886,-0.09499567747116089,0.03689447790384293,XTrueNorthZVertical,-0.7303096272332303,0.1835636245678185,0.5587659761951846,0.3474663851178838,0.9437087178230286,0.3023778796195984,0.1340955048799515,49.6793098449707,-7.552070617675781,-9.839832305908203,2,0.0.0.0,10.83.46.32,4,0
2015-02-28 13:34:10.634,102,1425159250.418603,37.77460613757165,-122.5134441443929,3.127625,0.4,167.34375,3,5,-9999,1425159250.612496,45.00558471679688,-2.005950927734375,-7.060661315917969,170.8564300537109,157.0685882568359,10,156389.868210375,0.8264007568359375,0.2774658203125,0.2491607666015625,156389.863933375,-0.1247206275383729,0.7571859663896939,-1.558912503062636,156389.8121560834,2.381955114455663,1.711945592681928,-0.3071863264146465,-0.2431365847587585,0.6908975839614868,-1.457611680030823,-0.03190452232956886,-0.09499567747116089,0.03689447790384293,XTrueNorthZVertical,-0.7303096272332303,0.1835636245678185,0.5587659761951846,0.3474663851178838,0.9437087178230286,0.3023778796195984,0.1340955048799515,49.6793098449707,-7.552070617675781,-9.839832305908203,2,0.0.0.0,10.83.46.32,4,0
2015-02-28 13:34:10.727,103,1425159250.418603,37.77460613757165,-122.5134441443929,3.127625,0.4,167.34375,3,5,-9999,1425159250.716186,44.95444488525391,5.963104248046875,-3.115959167480469,179.4718170166016,165.6839752197266,10,156389.9172634167,0.842742919921875,0.484100341796875,0.2598876953125,156389.915710125,-0.2568898503295883,1.277492275932328,-1.592604952961556,156389.863933375,2.404686144946198,1.748438894591344,-0.3793577324259152,-0.135589525103569,0.7709748148918152,-1.523433089256287,-0.07592096924781799,-0.07427291572093964,0.07694271206855774,XTrueNorthZVertical,-0.7462991938174954,0.158463219551708,0.5357120699670227,0.3618557174932766,0.9142845869064331,0.3703239560127258,0.1641461551189423,50.484130859375,-3.250236511230469,-7.916995048522949,2,0.0.0.0,10.83.46.32,4,0
2015-02-28 13:34:10.734,104,1425159250.418603,37.77460613757165,-122.5134441443929,3.127625,0.4,167.34375,3,5,-9999,1425159250.716186,44.95444488525391,5.963104248046875,-3.115959167480469,179.4718170166016,165.6839752197266,10,156389.9662882084,0.8246307373046875,0.5836029052734375,0.3689422607421875,156389.915710125,-0.2568898503295883,1.277492275932328,-1.592604952961556,156389.915710125,2.432388329165295,1.815985351650689,-0.4535957910776491,-0.2677584588527679,1.291281461715698,-1.557125806808472,-0.01623454503715038,-0.01081711240112782,0.05985244363546371,XTrueNorthZVertical,-0.7683388281182869,0.1369381289005502,0.5007250700289535,0.3744033375088905,0.8719931840896606,0.4382005333900452,0.2181932181119919,50.83324813842773,0.2758865356445312,-6.147721290588379,2,0.0.0.0,10.83.46.32,4,0
2015-02-28 13:34:10.798,105,1425159250.418603,37.77460613757165,-122.5134441443929,3.127625,0.4,167.34375,3,5,-9999,1425159250.769561,43.89752960205078,9.871124267578125,-0.1865615844726562,184.1459808349609,170.3581390380859,10,156390.0153335,0.794921875,0.7961883544921875,0.5035247802734375,156390.0192650417,-0.03834232916219782,1.681431229011731,-1.661908660324797,156389.9674874583,2.46384119012028,1.884929934632586,-0.5260019097560092,-0.0349557176232338,0.9938491582870483,-1.416706681251526,0.002129827858880162,0.08152317255735397,0.1017188429832458,XTrueNorthZVertical,-0.7875636244477945,0.1155648940701457,0.4653867659500178,0.3870445860854475,0.8225008845329285,0.5020797252655029,0.2672234177589417,50.94672393798828,3.938915252685547,-3.287266731262207,2,0.0.0.0,10.83.46.32,4,0
2015-02-28 13:34:10.836,106,1425159250.418603,37.77460613757165,-122.5134441443929,3.127625,0.4,167.34375,3,5,-9999,1425159250.822861,42.44853210449219,13.8302001953125,2.692916870117188,188.1638793945312,174.3760375976562,10,156390.0643675833,0.689605712890625,0.831756591796875,0.4927825927734375,156390.0192650417,-0.03834232916219782,1.681431229011731,-1.661908660324797,156390.0192650417,2.498786719139976,1.97769986995803,-0.5919332117814413,-0.04921098053455353,1.695220351219177,-1.626431226730347,0.03281600028276443,0.2382219880819321,0.1750916391611099,XTrueNorthZVertical,-0.8087968400853131,0.1003207092237175,0.4218603268448388,0.3972623216937282,0.7621058821678162,0.5579663515090942,0.3284331560134888,50.51192474365234,8.391201972961426,0.1516618728637695,2,0.0.0.0,10.83.46.32,4,0
2015-02-28 13:34:10.895,107,1425159250.418603,37.77460613757165,-122.5134441443929,3.127625,0.4,167.34375,3,5,-9999,1425159250.822861,42.44853210449219,13.8302001953125,2.692916870117188,188.1638793945312,174.3760375976562,10,156390.1134146667,0.5851898193359375,0.770599365234375,0.499664306640625,156390.0710415,0.1062233758711185,1.09250750871877,-2.132915330716211,156390.0710415,2.550859008365304,2.07084803478583,-0.6783683413700838,0.095354825258255,1.106296539306641,-2.097438097000122,0.006341192871332169,0.2042331397533417,0.1194676086306572,XTrueNorthZVertical,-0.8253633445260353,0.07370781208506026,0.3769623971173761,0.4138138711355812,0.6832644939422607,0.6275234818458557,0.3733149766921997,49.62487030029297,12.05233001708984,3.742108345031738,2,0.0.0.0,10.83.46.32,4,0
2015-02-28 13:34:10.929,108,1425159250.418603,37.77460613757165,-122.5134441443929,3.127625,0.4,167.34375,3,5,-9999,1425159250.902492,39.02207946777344,20.134033203125,6.005134582519531,200.9830932617188,187.1952514648438,10,156390.16243475,0.3953094482421875,0.9210662841796875,0.5542449951171875,156390.1228189167,-0.06354728466703476,-0.2725284648827517,-2.237596736316173,156390.1228189167,2.6213274233262,2.145169198928021,-0.7725844089676498,-0.07441571354866028,-0.2587392330169678,-2.202120304107666,-0.01600770093500614,0.07261107861995697,0.1105961129069328,XTrueNorthZVertical,-0.8326385492987215,0.03531493476174687,0.3426259574044157,0.4336743199123797,0.6011975407600403,0.6979882717132568,0.3890681862831116,48.05537796020508,16.58952713012695,6.112124443054199,2,0.0.0.0,10.83.46.32,4,0
2015-02-28 13:34:10.996,109,1425159250.418603,37.77460613757165,-122.5134441443929,3.127625,0.4,167.34375,3,5,-9999,1425159250.975954,35.08422470092773,27.11761474609375,6.088356018066406,209.0917510986328,195.3039093017578,10,156390.2115941667,0.1012725830078125,0.70904541015625,0.493133544921875,156390.1745964584,-0.4233747027148019,-0.8650365336868509,-2.120466650516744,156390.1745964584,2.720813629479388,2.184515870777169,-0.8535223452995102,-0.4342430233955383,-0.8512474894523621,-2.084990501403809,-0.2505577802658081,0.1707770079374313,0.131764143705368,XTrueNorthZVertical,-0.8300431332120154,-0.01764715757375134,0.3332050726405716,0.4468684540645071,0.5373772382736206,0.7536004185676575,0.3785660564899445,45.51943969726562,22.65615081787109,6.047250747680664,2,0.0.0.0,10.83.46.32,4,0
2015-02-28 13:34:11.034,110,1425159250.418603,37.77460613757165,-122.5134441443929,3.127625,0.4,167.34375,3,5,-9999,1425159250.975954,35.08422470092773,27.11761474609375,6.088356018066406,209.0917510986328,195.3039093017578,10,156390.2605056667,0.0943756103515625,0.8821868896484375,0.4130706787109375,156390.226373,0.01822800608104735,-0.3665063597455768,-2.005407172464852,156390.226373,2.834611055579744,2.229201618254548,-0.9313925190085681,0.007359807379543781,-0.3527174293994904,-1.969931364059448,-0.3725738227367401,-0.07659105956554413,0.200797513127327,XTrueNorthZVertical,-0.8229486045953037,-0.07285735898984617,0.3273621532674143,0.4585645874662074,0.4719848334789276,0.8024516701698303,0.3651052117347717,43.3953742980957,26.76504898071289,4.729001045227051,2,0.0.0.0,10.83.46.32,4,0
2015-02-28 13:34:11.083,111,1425159250.418603,37.77460613757165,-122.5134441443929,3.127625,0.4,167.34375,3,5,-9999,1425159251.079247,29.11777114868164,34.01611328125,5.256134033203125,217.5873565673828,203.7995147705078,10,156390.3095750417,0.3759613037109375,0.8620147705078125,0.475494384765625,156390.2781506667,0.1763686421388246,0.7014864848229047,-1.806358517850694,156390.2781506667,2.941032632567369,2.338374686944638,-1.002555253035696,0.1655005365610123,0.7152752876281738,-1.770883083343506,-0.157727375626564,0.03973477333784103,-0.01797597296535969,XTrueNorthZVertical,-0.8219421395478067,-0.1060921800077757,0.2968043508268661,0.4744078485241135,0.3872500658035278,0.8428488373756409,0.3736888766288757,40.89358901977539,30.57535171508789,3.840874671936035,2,0.0.0.0,10.83.46.32,4,0
2015-02-28 13:34:11.127,112,1425159250.418603,37.77460613757165,-122.5134441443929,3.127625,0.4,167.34375,3,5,-9999,1425159251.079247,29.11777114868164,34.01611328125,5.256134033203125,217.5873565673828,203.7995147705078,10,156390.3586076667,0.1865386962890625,0.8882598876953125,0.4515838623046875,156390.3299279583,0.07510833327517773,0.2632180537118347,-1.073419035289518,156390.3299279583,3.016747212006914,2.442165258013696,-1.055644837272584,0.06424035131931305,0.2770067155361176,-1.037943959236145,-0.05032318085432053,-0.03434163331985474,-0.005335743073374033,XTrueNorthZVertical,-0.8207987144707288,-0.1215997711545409,0.2659053824903154,0.4907110701576902,0.3171688914299011,0.8702180981636047,0.3769940733909607,37.36503219604492,34.61533737182617,5.246206283569336,2,0.0.0.0,10.83.46.32,4,0
2015-02-28 13:34:11.183,113,1425159250.418603,37.77460613757165,-122.5134441443929,3.127625,0.4,167.34375,3,5,-9999,1425159251.135399,26.37320327758789,36.75177001953125,5.439224243164062,222.3464050292969,208.5585632324219,10,156390.4077765833,-0.0239105224609375,1.050155639648438,0.4432220458984375,156390.38170475,-0.2270254281815488,-0.8965313430542369,-0.6680736668384435,156390.38170475,3.093537465895773,2.479617686916553,-1.074713217806087,-0.2378932982683182,-0.8827428221702576,-0.6325989961624146,-0.2286419570446014,0.04200933128595352,0.1311599761247635,XTrueNorthZVertical,-0.8161983582298507,-0.1467779960671372,0.2674655612391975,0.490651296012429,0.2925762832164764,0.8794536590576172,0.3754470944404602,26.96643447875977,35.10574340820312,1.896511077880859,2,0.0.0.0,10.83.46.32,2,0
2015-02-28 13:34:11.238,114,1425159250.418603,37.77460613757165,-122.5134441443929,3.127625,0.4,167.34375,3,5,-9999,1425159251.209267,23.76501083374023,38.97763061523438,5.45587158203125,222.2334899902344,208.4456481933594,10,156390.4567137917,-0.034515380859375,0.7675018310546875,0.534454345703125,156390.433482125,-0.1324834757998448,-0.09570681904250461,-0.7092543930904478,156390.433482125,-3.127359043947855,2.512287419047263,-1.08469334827766,-0.1433512419462204,-0.08191841840744019,-0.6737800240516663,-0.3405589461326599,0.08954891562461853,0.1017882451415062,XTrueNorthZVertical,-0.8132916357729769,-0.1655326486366031,0.2685611202391021,0.4889076016460047,0.2749766707420349,0.8841602206230164,0.3776886761188507,25.93744277954102,35.89930725097656,1.298938751220703,2,0.0.0.0,10.83.46.32,2,0
2015-02-28 13:34:11.279,115,1425159251.225395,37.77460039596797,-122.5134502631822,2.825226,0.39,167.34375,3,5,-9999,1425159251.260638,22.55466842651367,39.70828247070312,5.6722412109375,224.4756011962891,210.6877593994141,10,156390.5057905,0.048095703125,0.9131011962890625,0.3957977294921875,156390.485259625,-0.1776956953100111,0.2722797256369383,-0.6585259680144004,156390.485259625,-3.054510665037093,2.590202368864166,-1.099543729305395,-0.1885074228048325,0.2860060930252075,-0.6229970455169678,-0.2174841612577438,-0.1396575272083282,0.07554670423269272,XTrueNorthZVertical,-0.8134762230070561,-0.1778077289299934,0.2537670619359307,0.4921820651401279,0.2378393858671188,0.8910003304481506,0.3867183029651642,24.5053653717041,36.88552856445312,1.463977813720703,2,0.0.0.0,10.83.46.32,2,0
2015-02-28 13:34:11.332,116,1425159251.225395,37.77460039596797,-122.5134502631822,2.825226,0.39,167.34375,3,5,-9999,1425159251.31128,21.24205017089844,40.43893432617188,5.822052001953125,226.0130920410156,212.2252502441406,10,156390.554813875,0.009429931640625,0.8470458984375,0.4605865478515625,156390.53703625,-0.3094678407826957,-0.2318010086482789,-0.2749314351343302,156390.485259625,-3.054510665037093,2.590202368864166,-1.099543729305395,-0.1885074228048325,0.2860060930252075,-0.6229970455169678,-0.2174841612577438,-0.1396575272083282,0.07554670423269272,XTrueNorthZVertical,-0.8134762230070561,-0.1778077289299934,0.2537670619359307,0.4921820651401279,0.2378393858671188,0.8910003304481506,0.3867183029651642,24.5053653717041,36.88552856445312,1.463977813720703,2,0.0.0.0,10.83.46.32,2,0
2015-02-28 13:34:11.377,117,1425159251.225395,37.77460039596797,-122.5134502631822,2.825226,0.39,167.34375,3,5,-9999,1425159251.364923,20.47493362426758,40.38796997070312,6.404594421386719,226.1806945800781,212.3928527832031,10,156390.6039778334,0.1158447265625,0.9202117919921875,0.5123291015625,156390.5888137083,-0.1238561654485331,0.3558814122605967,-0.1408689711241773,156390.5888137083,-2.926959157864943,2.715904584099639,-1.092458890360035,-0.1346801817417145,0.3696512877941132,-0.1054171472787857,-0.2178066372871399,-0.001714070443995297,0.06980480998754501,XTrueNorthZVertical,-0.8186485294632592,-0.1985614387790815,0.2338496503770487,0.4854918558435548,0.1900814175605774,0.8877614140510559,0.4192241132259369,22.94853401184082,37.82759475708008,2.374075889587402,2,0.0.0.0,10.83.46.32,2,0
2015-02-28 13:34:11.430,118,1425159251.225395,37.77460039596797,-122.5134502631822,2.825226,0.39,167.34375,3,5,-9999,1425159251.415966,20.1680908203125,40.35397338867188,7.070365905761719,231.9977264404297,218.2098846435547,10,156390.6528990833,0.0742340087890625,0.7767791748046875,0.4402008056640625,156390.64059125,-0.4362920992661222,0.2495784078728848,0.01038366509021895,156390.64059125,-2.873514313905554,2.793125221184858,-1.079693426431194,-0.4471221268177032,0.2633830904960632,0.04579554498195648,-0.002171852393075824,-0.07709524780511856,0.002027520444244146,XTrueNorthZVertical,-0.8253148835225248,-0.2012028180684574,0.2150173034157176,0.4818094946175388,0.161031112074852,0.8818132877349854,0.4432544708251953,21.24596977233887,38.6544075012207,4.200482368469238,2,0.0.0.0,10.83.46.32,2,0
2015-02-28 13:34:11.476,119,1425159251.225395,37.77460039596797,-122.5134502631822,2.825226,0.39,167.34375,3,5,-9999,1425159251.467875,19.74191284179688,40.13311767578125,8.218833923339844,231.8847351074219,218.0968933105469,10,156390.7020789583,0.056732177734375,0.851806640625,0.498565673828125,156390.6923680417,-0.6168882433193386,-0.145664525299083,-0.0331355829149839,156390.64059125,-2.873514313905554,2.793125221184858,-1.079693426431194,-0.4471221268177032,0.2633830904960632,0.04579554498195648,-0.002171852393075824,-0.07709524780511856,0.002027520444244146,XTrueNorthZVertical,-0.8253148835225248,-0.2012028180684574,0.2150173034157176,0.4818094946175388,0.161031112074852,0.8818132877349854,0.4432544708251953,21.24596977233887,38.6544075012207,4.200482368469238,2,0.0.0.0,10.83.46.32,2,0
2015-02-28 13:34:11.526,120,1425159251.225395,37.77460039596797,-122.5134502631822,2.825226,0.39,167.34375,3,5,-9999,1425159251.519895,19.69077301025391,40.15011596679688,9.5670166015625,231.5201263427734,217.7322845458984,10,156390.75100625,0.098114013671875,0.8485565185546875,0.5679779052734375,156390.7441454167,-0.5611056711265389,0.142975797862539,-0.3132979990624477,156390.6923680417,-2.848432964278628,2.81176611423854,-1.048505301233776,-0.6277195811271667,-0.1318501085042953,0.002266941126435995,-0.08089935779571533,-0.0003760478284675628,0.06647460907697678,XTrueNorthZVertical,-0.8327932872979298,-0.2060196798307608,0.2127134294083836,0.4677224496830631,0.1615725755691528,0.8666785359382629,0.4719775319099426,21.21505355834961,38.5389404296875,5.279211044311523,2,0.0.0.0,10.83.46.32,2,0
2015-02-28 13:34:11.573,121,1425159251.225395,37.77460039596797,-122.5134502631822,2.825226,0.39,167.34375,3,5,-9999,1425159251.519895,19.69077301025391,40.15011596679688,9.5670166015625,231.5201263427734,217.7322845458984,10,156390.8000654583,0.0565032958984375,0.7717132568359375,0.5565185546875,156390.7959230417,-0.789218734297276,-0.1242654933080783,-0.4578200282538867,156390.7959230417,-2.746334915787875,2.912870274162836,-0.9926741996287756,-0.800055205821991,-0.1104237139225006,-0.4224507808685303,-0.06471014022827148,-0.05080816522240639,-0.002161226468160748,XTrueNorthZVertical,-0.8459148038870031,-0.2248080625544534,0.191279552071833,0.4441865299272232,0.123898983001709,0.8374903202056885,0.5322210192680359,20.09208679199219,38.62577438354492,8.219260215759277,2,0.0.0.0,10.83.46.32,2,0
2015-02-28 13:34:11.627,122,1425159251.225395,37.77460039596797,-122.5134502631822,2.825226,0.39,167.34375,3,5,-9999,1425159251.57209,19.34983062744141,40.04815673828125,10.83198547363281,233.9884185791016,220.2005767822266,10,156390.8490964583,0.0424346923828125,0.7729339599609375,0.554840087890625,156390.7959230417,-0.789218734297276,-0.1242654933080783,-0.4578200282538867,156390.7959230417,-2.746334915787875,2.912870274162836,-0.9926741996287756,-0.800055205821991,-0.1104237139225006,-0.4224507808685303,-0.06471014022827148,-0.05080816522240639,-0.002161226468160748,XTrueNorthZVertical,-0.8459148038870031,-0.2248080625544534,0.191279552071833,0.4441865299272232,0.123898983001709,0.8374903202056885,0.5322210192680359,20.09208679199219,38.62577438354492,8.219260215759277,2,0.0.0.0,10.83.46.32,2,0
2015-02-28 13:34:11.671,123,1425159251.225395,37.77460039596797,-122.5134502631822,2.825226,0.39,167.34375,3,5,-9999,1425159251.623606,18.82137680053711,39.96319580078125,12.14689636230469,234.7069396972656,220.9190979003906,10,156390.8982302917,-0.004119873046875,0.7033843994140625,0.668487548828125,156390.8994773334,-0.7771069439757046,-0.267163260550678,-0.1582176014132805,156390.847699625,-2.700168502188092,2.9433158205159,-0.9565004438910318,-0.8425933718681335,-0.1713205873966217,-0.300963431596756,-0.05900122225284576,-0.06165580824017525,0.01034882664680481,XTrueNorthZVertical,-0.8520393054510136,-0.2378536003738407,0.1859996664169254,0.4276200085155173,0.1135361343622208,0.8171795010566711,0.5650906562805176,19.38180923461914,38.68608856201172,9.535755157470703,2,0.0.0.0,10.83.46.32,2,0
2015-02-28 13:34:11.727,124,1425159251.225395,37.77460039596797,-122.5134502631822,2.825226,0.39,167.34375,3,5,-9999,1425159251.675075,18.29291534423828,39.40249633789062,13.66153717041016,233.5513000488281,219.7634582519531,10,156390.9471732083,0.0319671630859375,0.805511474609375,0.7283172607421875,156390.9512546667,-0.9517527872053569,-0.398574281379548,0.1291974013307961,156390.8994773334,-2.667037761761083,2.95409334004986,-0.9178249206575937,-0.7879437804222107,-0.2533182501792908,-0.1228518113493919,-0.1173686683177948,-0.09089763462543488,0.07158642262220383,XTrueNorthZVertical,-0.8578413502158264,-0.25011753686183,0.1852421301515242,0.4089435776060639,0.1132487952709198,0.7942820191383362,0.5969011187553406,18.91921234130859,38.57843780517578,10.81508159637451,2,0.0.0.0,10.83.46.32,2,0
2015-02-28 13:34:11.769,125,1425159251.225395,37.77460039596797,-122.5134502631822,2.825226,0.39,167.34375,3,5,-9999,1425159251.726989,18.2758674621582,39.18161010742188,14.77671051025391,230.0175628662109,216.2297210693359,10,156390.996218875,0.074462890625,0.7074737548828125,0.7810516357421875,156390.9512546667,-0.9517527872053569,-0.398574281379548,0.1291974013307961,156390.9512546667,-2.658661775613137,2.94643226384558,-0.8726073992921046,-0.9625896811485291,-0.384728729724884,0.1645625531673431,-0.09269323945045471,0.03950381651520729,0.09768880158662796,XTrueNorthZVertical,-0.8659947601625057,-0.2556703041250256,0.186308942581386,0.3872658127283754,0.1246604025363922,0.766007661819458,0.6306284666061401,18.81655502319336,38.1443977355957,12.4153470993042,2,0.0.0.0,10.83.46.32,2,0
2015-02-28 13:34:11.825,126,1425159251.225395,37.77460039596797,-122.5134502631822,2.825226,0.39,167.34375,3,5,-9999,1425159251.77908,18.48043060302734,38.06015014648438,15.77536773681641,227.5542602539062,213.7664184570312,10,156391.045246125,0.1299285888671875,0.6634521484375,0.82550048828125,156391.0030313334,-0.6673618038790653,-0.1321790764872488,-0.09332222460244766,156391.0030313334,-2.649731331640981,2.940700646701439,-0.8349969197146669,-0.6781986355781555,-0.1183334439992905,-0.05795768275856972,-0.05946672335267067,-0.03382068872451782,0.1233696416020393,XTrueNorthZVertical,-0.8722338572542372,-0.2608622162692946,0.1871249473095771,0.3689760389390028,0.1339296102523804,0.7412944436073303,0.6576820015907288,19.23645210266113,37.49541854858398,13.68397045135498,2,0.0.0.0,10.83.46.32,2,0
2015-02-28 13:34:11.870,127,1425159251.225395,37.77460039596797,-122.5134502631822,2.825226,0.39,167.34375,3,5,-9999,1425159251.834711,18.71908950805664,37.44845581054688,16.87389373779297,226.6891479492188,212.9013061523438,10,156391.09430025,0.0613861083984375,0.5758209228515625,0.5778961181640625,156391.1065865833,-0.9534324429048699,-0.3864699479090288,-0.4937186407998278,156391.0548089167,-2.620347640102784,2.962894316491361,-0.8040921139744981,-0.5522807240486145,0.1438285559415817,-0.3877297341823578,0.006612605880945921,-0.05674893036484718,0.1427825540304184,XTrueNorthZVertical,-0.8766406710417506,-0.2699261026672458,0.1797715888454093,0.355419849829183,0.1233159825205803,0.7202010750770569,0.6827179193496704,19.22896957397461,37.08535766601562,14.76893711090088,2,0.0.0.0,10.83.46.32,2,0
2015-02-28 13:34:11.933,128,1425159251.225395,37.77460039596797,-122.5134502631822,2.825226,0.39,167.34375,3,5,-9999,1425159251.884994,18.58271408081055,36.56491088867188,18.00569915771484,71.05718994140625,57.26935577392578,10,156391.1433336667,0.0488433837890625,0.5551910400390625,0.832305908203125,156391.1065865833,-0.9534324429048699,-0.3864699479090288,-0.4937186407998278,156391.1065865833,-2.581428091826198,2.990058963502604,-0.7667901121364565,-0.9642713665962219,-0.3726107180118561,-0.4583550095558167,-0.06729621440172195,-0.1128641068935394,-0.1339932084083557,XTrueNorthZVertical,-0.8808774992155112,-0.2828418185113324,0.1705731111246901,0.3390578293927676,0.108708567917347,0.6938272714614868,0.7118893265724182,18.34358024597168,36.86325836181641,16.36495399475098,2,0.0.0.0,10.83.46.32,2,0
2015-02-28 13:34:11.966,129,1425159251.225395,37.77460039596797,-122.5134502631822,2.825226,0.39,167.34375,3,5,-9999,1425159251.960582,18.44633865356445,35.71530151367188,20.03632354736328,64.90066528320312,51.11282730102539,10,156391.1924078334,0.0015716552734375,0.4500885009765625,0.837554931640625,156391.1583631667,-1.3094123921258,-0.5732355709435227,-0.05290183084166101,156391.1583631667,-2.556327999906987,2.984703058071286,-0.7121711738720011,-1.32025134563446,-0.559376060962677,-0.01753857173025608,-0.1071770638227463,-0.07227149605751038,0.04716683924198151,XTrueNorthZVertical,-0.8867828867410692,-0.2957029333617195,0.1705810003857461,0.3115735388734253,0.1182702034711838,0.653478741645813,0.7476482391357422,17.90053176879883,36.45303726196289,17.71850967407227,2,0.0.0.0,10.83.46.32,2,0
2015-02-28 13:34:12.028,130,1425159251.225395,37.77460039596797,-122.5134502631822,2.825226,0.39,167.34375,3,5,-9999,1425159252.012325,18.13949203491211,34.7637939453125,21.56759643554688,63.38259887695312,49.59476470947266,10,156391.2414086667,-0.0352783203125,0.68829345703125,0.9713592529296875,156391.210140875,-1.031455605993139,-0.04168379738192023,-0.1010696265295972,156391.210140875,-2.540850519365369,2.978434561983338,-0.6538395527471805,-1.042294859886169,-0.02782272174954414,-0.06570857763290405,-0.1165282353758812,-0.1416705548763275,0.06058302521705627,XTrueNorthZVertical,-0.8938830625697985,-0.3042687056695585,0.1684148685714222,0.2828959492098491,0.1289336234331131,0.6082385182380676,0.7832127213478088,18.18647766113281,35.46587371826172,19.35516738891602,2,0.0.0.0,10.83.46.32,2,0
2015-02-28 13:34:12.070,131,1425159251.225395,37.77460039596797,-122.5134502631822,2.825226,0.39,167.34375,3,5,-9999,1425159252.012325,18.13949203491211,34.7637939453125,21.56759643554688,63.38259887695312,49.59476470947266,10,156391.2904530833,-0.0848388671875,0.484710693359375,0.91851806640625,156391.26191825,-1.02261018274855,0.4678676024145377,-0.6130186702554534,156391.26191825,-2.505982689996605,3.006885216085205,-0.604663802387672,-1.033449292182922,0.4817285239696503,-0.5776580572128296,-0.1192466020584106,-0.08070781081914902,0.1182618513703346,XTrueNorthZVertical,-0.8985215592670772,-0.3166688820026186,0.1538625868081782,0.2621186599966314,0.1104880571365356,0.5684854984283447,0.8152403235435486,18.03717994689941,34.27451324462891,21.5201416015625,2,0.0.0.0,10.83.46.32,2,0
2015-02-28 13:34:12.135,132,1425159251.225395,37.77460039596797,-122.5134502631822,2.825226,0.39,167.34375,3,5,-9999,1425159252.067511,17.16781234741211,33.65933227539062,23.64814758300781,62.0651969909668,48.27736282348633,10,156391.3394784583,-0.1056060791015625,0.48193359375,0.979583740234375,156391.313695125,-0.9754980641167215,0.5833545178213878,-0.7407862203969859,156391.313695125,-2.460658069475387,3.063202131709159,-0.5597338109748388,-0.9863379001617432,0.5972180962562561,-0.705428421497345,-0.1452630460262299,0.03518620133399963,0.173058494925499,XTrueNorthZVertical,-0.9016140892220362,-0.3308914876745725,0.1276680744855441,0.2475960037889171,0.06635984778404236,0.5309606194496155,0.8447942733764648,16.68802833557129,33.67255401611328,23.47056198120117,2,0.0.0.0,10.83.46.32,2,0
2015-02-28 13:34:12.161,133,1425159251.225395,37.77460039596797,-122.5134502631822,2.825226,0.39,167.34375,3,5,-9999,1425159252.142462,15.27559280395508,32.45297241210938,26.39446258544922,59.35000991821289,45.56217575073242,10,156391.3885219583,-0.09423828125,0.4738006591796875,1.007522583007812,156391.3654725417,-0.7153082908804159,0.6335495117310923,-0.5272350557506931,156391.3654725417,-2.423476363566395,3.115306838890641,-0.5147860640439471,-0.7261481881141663,0.6474133133888245,-0.4918780624866486,-0.1461827605962753,-0.06099794432520866,0.07828199118375778,XTrueNorthZVertical,-0.9041321562580406,-0.342919532195615,0.1013419557507677,0.2338399181016742,0.02287649177014828,0.4923486411571503,0.8700975179672241,14.98095893859863,33.09164047241211,25.37149429321289,2,0.0.0.0,10.83.46.32,2,0
2015-02-28 13:34:12.229,134,1425159251.225395,37.77460039596797,-122.5134502631822,2.825226,0.39,167.34375,3,5,-9999,1425159252.193398,13.74136734008789,31.9432373046875,27.72601318359375,57.36443328857422,43.57659912109375,10,156391.4375501667,-0.13214111328125,0.4459075927734375,1.030990600585938,156391.4172502084,-0.2462590438902101,0.46909105861932,-0.3404438663697344,156391.4172502084,-2.403843020947685,-3.130001524551535,-0.4935094384980868,-0.2570987939834595,0.4829547107219696,-0.3050872385501862,-0.1242221295833588,-0.0003613222797866911,0.143522635102272,XTrueNorthZVertical,-0.9049765891734398,-0.3483184687171354,0.08282783913845929,0.2298504454998347,-0.01020779926329851,0.4737194776535034,0.8806167840957642,13.00058937072754,32.31793212890625,27.38128280639648,2,0.0.0.0,10.83.46.32,2,0
2015-02-28 13:34:12.260,135,1425159251.225395,37.77460039596797,-122.5134502631822,2.825226,0.39,167.34375,3,5,-9999,1425159252.246022,12.15600204467773,31.38250732421875,28.54158782958984,56.24667739868164,42.45884323120117,10,156391.4865855417,-0.146942138671875,0.382171630859375,0.9886322021484375,156391.469026875,-0.07275037044602158,0.4215549647419507,-0.2624934075792241,156391.469026875,-2.38566963377579,-3.09724675220716,-0.4823929179707006,-0.08353891223669052,0.4353614747524261,-0.2270855456590652,-0.08793991804122925,-0.08616903424263,0.1238487735390663,XTrueNorthZVertical,-0.9042473270411142,-0.353334207870358,0.06811596149032058,0.2298955974179094,-0.03927260637283325,0.4639003574848175,0.8850165605545044,11.9390230178833,32.14002990722656,28.06558036804199,2,0.0.0.0,10.83.46.32,2,0
2015-02-28 13:34:12.339,136,1425159252.288127,37.77459595355929,-122.5134546217718,3.230499,0.39,167.34375,3,5,-9999,1425159252.303367,10.80928421020508,31.2635498046875,28.85783386230469,54.74414825439453,40.95631408691406,10,156391.5356064583,-0.20556640625,0.4019622802734375,0.9186248779296875,156391.5208043334,-0.140153113423164,0.2031451290029173,-0.2067065743286802,156391.469026875,-2.38566963377579,-3.09724675220716,-0.4823929179707006,-0.08353891223669052,0.4353614747524261,-0.2270855456590652,-0.08793991804122925,-0.08616903424263,0.1238487735390663,XTrueNorthZVertical,-0.9042473270411142,-0.353334207870358,0.06811596149032058,0.2298955974179094,-0.03927260637283325,0.4639003574848175,0.8850165605545044,11.9390230178833,32.14002990722656,28.06558036804199,2,0.0.0.0,10.83.46.32,2,0
2015-02-28 13:34:12.358,137,1425159252.288127,37.77459595355929,-122.5134546217718,3.230499,0.39,167.34375,3,5,-9999,1425159252.303367,10.80928421020508,31.2635498046875,28.85783386230469,54.74414825439453,40.95631408691406,10,156391.584757875,-0.096893310546875,0.40228271484375,0.9254150390625,156391.5725819583,-0.06650845348309385,0.6056339908687727,-0.2585886807889499,156391.5725819583,-2.355080894925395,-3.030621024349585,-0.4574653166218223,-0.07731247693300247,0.6194877624511719,-0.2232381999492645,-0.0667656809091568,-0.04058294370770454,0.1175445914268494,XTrueNorthZVertical,-0.9030431251200046,-0.3610281758402819,0.03686391148160954,0.229810537807718,-0.0993567556142807,0.4416754841804504,0.8916564583778381,9.377437591552734,31.73812866210938,29.4610481262207,2,0.0.0.0,10.83.46.32,6,0
2015-02-28 13:34:12.436,138,1425159252.288127,37.77459595355929,-122.5134546217718,3.230499,0.39,167.34375,3,5,-9999,1425159252.375347,9.104591369628906,31.33154296875,29.52360153198242,53.05752563476562,39.26969146728516,10,156391.6336799584,-0.1632080078125,0.3796844482421875,0.95074462890625,156391.6243586667,-0.1016840177930785,0.1281134947671338,-0.3125240844496707,156391.5725819583,-2.355080894925395,-3.030621024349585,-0.4574653166218223,-0.07731247693300247,0.6194877624511719,-0.2232381999492645,-0.0667656809091568,-0.04058294370770454,0.1175445914268494,XTrueNorthZVertical,-0.9030431251200046,-0.3610281758402819,0.03686391148160954,0.229810537807718,-0.0993567556142807,0.4416754841804504,0.8916564583778381,9.377437591552734,31.73812866210938,29.4610481262207,2,0.0.0.0,10.83.46.32,6,0
2015-02-28 13:34:12.457,139,1425159252.288127,37.77459595355929,-122.5134546217718,3.230499,0.39,167.34375,3,5,-9999,1425159252.426781,7.843112945556641,31.36550903320312,30.02293395996094,49.63836669921875,35.85053253173828,10,156391.6827289167,-0.197906494140625,0.4253997802734375,0.9150390625,156391.6761362917,-0.1608653161690373,0.1661056182459862,-0.3072606128712381,156391.6761362917,-2.328984022953558,-2.990008875603791,-0.4317021547898452,-0.1716791093349457,0.1799820214509964,-0.2719154357910156,-0.05349323153495789,-0.005316202063113451,0.03242716565728188,XTrueNorthZVertical,-0.9011049069107714,-0.3700405799750328,0.0164633502232527,0.2254083735063092,-0.1371500790119171,0.4184173941612244,0.897840142250061,7.599586486816406,31.5502986907959,30.16660118103027,2,0.0.0.0,10.83.46.32,6,0
2015-02-28 13:34:12.526,140,1425159252.288127,37.77459595355929,-122.5134546217718,3.230499,0.39,167.34375,3,5,-9999,1425159252.479378,6.632778167724609,31.31454467773438,30.07286834716797,47.68140411376953,33.89356994628906,10,156391.7317469583,-0.2223358154296875,0.3503265380859375,0.94171142578125,156391.7279138333,-0.02417830690461139,0.1110069458211188,-0.2681955017891927,156391.6761362917,-2.328984022953558,-2.990008875603791,-0.4317021547898452,-0.1716791093349457,0.1799820214509964,-0.2719154357910156,-0.05349323153495789,-0.005316202063113451,0.03242716565728188,XTrueNorthZVertical,-0.9011049069107714,-0.3700405799750328,0.0164633502232527,0.2254083735063092,-0.1371500790119171,0.4184173941612244,0.897840142250061,7.599586486816406,31.5502986907959,30.16660118103027,2,0.0.0.0,10.83.46.32,6,0
2015-02-28 13:34:12.554,141,1425159252.288127,37.77459595355929,-122.5134546217718,3.230499,0.39,167.34375,3,5,-9999,1425159252.534811,5.967948913574219,31.16162109375,30.05622482299805,46.79993057250977,33.0120964050293,10,156391.7808101667,-0.212677001953125,0.3663482666015625,0.9484405517578125,156391.7796907917,-0.07759679099774777,0.01389397772305239,-0.2277287690254387,156391.7279138333,-2.310248209692893,-2.9662677905634,-0.4189599803522999,-0.035000279545784,0.1249060407280922,-0.2328795939683914,-0.0737510472536087,-0.07555755227804184,0.03922752663493156,XTrueNorthZVertical,-0.898761475194728,-0.3768050267276385,0.005305392826902895,0.224093052502288,-0.1593422144651413,0.4068106114864349,0.8995084166526794,6.487642288208008,31.2321834564209,30.75158309936523,2,0.0.0.0,10.83.46.32,6,0
2015-02-28 13:34:12.597,142,1425159252.288127,37.77459595355929,-122.5134546217718,3.230499,0.39,167.34375,3,5,-9999,1425159252.534811,5.967948913574219,31.16162109375,30.05622482299805,46.79993057250977,33.0120964050293,10,156391.8298442083,-0.239501953125,0.364471435546875,0.934295654296875,156391.7796907917,-0.07759679099774777,0.01389397772305239,-0.2277287690254387,156391.7796907917,-2.299338212109379,-2.96133136249407,-0.4141490134919197,-0.08841865509748459,0.02779293619096279,-0.1924132108688354,-0.06879580765962601,-0.02928786352276802,0.05158354341983795,XTrueNorthZVertical,-0.8970715191804008,-0.3815437774423068,0.003315450357054601,0.2228813675335258,-0.1641295999288559,0.4024110436439514,0.9006259441375732,5.763822555541992,31.05941581726074,31.06911087036133,2,0.0.0.0,10.83.46.32,6,0
2015-02-28 13:34:12.652,143,1425159252.288127,37.77459595355929,-122.5134546217718,3.230499,0.39,167.34375,3,5,-9999,1425159252.608575,5.422439575195312,30.78778076171875,30.18939208984375,46.27445220947266,32.48661804199219,10,156391.878921375,-0.2203216552734375,0.3531494140625,0.9410552978515625,156391.8832459583,-0.04301777477194093,0.00417530395702623,-0.0110374711378334,156391.8314682083,-2.290829126370248,-2.955597346163105,-0.4040106161177924,-0.08627630770206451,-0.1150935292243958,-0.1215449571609497,-0.06946513056755066,-0.02863778732717037,0.03066251613199711,XTrueNorthZVertical,-0.8961922676502545,-0.3855593190652823,-0.0004301063016589732,0.2195069628249652,-0.1700368225574493,0.3931092321872711,0.9036331176757812,5.405699253082275,30.97021675109863,31.22215270996094,2,0.0.0.0,10.83.46.32,6,0
2015-02-28 13:34:12.696,144,1425159252.288127,37.77459595355929,-122.5134546217718,3.230499,0.39,167.34375,3,5,-9999,1425159252.660678,5.337203979492188,30.63482666015625,30.83851623535156,46.35858917236328,32.57075500488281,10,156391.9279121667,-0.243072509765625,0.3583526611328125,0.933990478515625,156391.8832459583,-0.04301777477194093,0.00417530395702623,-0.0110374711378334,156391.8832459583,-2.287710720656542,-2.953682392765885,-0.3977808073063163,-0.05384663864970207,0.01809314638376236,0.02425426431000233,-0.04810057580471039,-0.03422395884990692,0.03536108881235123,XTrueNorthZVertical,-0.8960329737438407,-0.387262204057606,-0.002256763140981376,0.2171355869649226,-0.1722210794687271,0.3873733878135681,0.9056941866874695,5.226779937744141,30.76945495605469,31.45027542114258,2,0.0.0.0,10.83.46.32,6,0
2015-02-28 13:34:12.753,145,1425159252.288127,37.77459595355929,-122.5134546217718,3.230499,0.39,167.34375,3,5,-9999,1425159252.712345,5.712238311767578,30.43096923828125,30.97167587280273,47.29974365234375,33.51190948486328,10,156391.9769747083,-0.23382568359375,0.3141632080078125,0.9097137451171875,156391.935022625,-0.03810450887685374,0.003073021581842433,-0.02080381548737199,156391.935022625,-2.287730146481193,-2.949520610400828,-0.3937912886932745,-0.04893653467297554,0.01699905842542648,0.01447748858481646,-0.06679001450538635,-0.02533961087465286,0.02751104906201363,XTrueNorthZVertical,-0.8963077686442602,-0.3871331793335528,-0.004963786951847604,0.2161844281635479,-0.1762824952602386,0.3836922645568848,0.9064794182777405,4.925583839416504,30.5734920501709,31.68909454345703,2,0.0.0.0,10.83.46.32,6,0
2015-02-28 13:34:12.799,146,1425159252.288127,37.77459595355929,-122.5134546217718,3.230499,0.39,167.34375,3,5,-9999,1425159252.766929,6.036136627197266,30.51596069335938,31.28791809082031,48.03859329223633,34.25075912475586,10,156392.0259869584,-0.2110748291015625,0.3279571533203125,0.9474639892578125,156391.986800375,-0.09509509094011341,0.08463073206886505,-0.01297518714697506,156391.986800375,-2.286995677424132,-2.940512002356631,-0.3837270563981175,-0.1059352979063988,0.09857518225908279,0.02228588983416557,-0.04354124888777733,-0.05769816413521767,-0.0009691904997453094,XTrueNorthZVertical,-0.89680920960371,-0.3873363942563073,-0.01104549401868356,0.2134989862988485,-0.1852032542228699,0.3743790686130524,0.9085924625396729,4.747434616088867,30.41364669799805,31.86958503723145,2,0.0.0.0,10.83.46.32,6,0
2015-02-28 13:34:12.851,147,1425159252.288127,37.77459595355929,-122.5134546217718,3.230499,0.39,167.34375,3,5,-9999,1425159252.842512,5.320163726806641,30.75381469726562,30.95502853393555,46.27609252929688,32.48825836181641,10,156392.0750445,-0.223602294921875,0.353912353515625,0.9582061767578125,156392.0385777917,-0.1879637792089206,0.2015602818382111,-0.07814380428565004,156392.0385777917,-2.287331050583203,-2.934153741082312,-0.3717674029294776,-0.1988079100847244,0.2155112326145172,-0.0428868792951107,-0.02758215181529522,-0.04511691257357597,0.0246120635420084,XTrueNorthZVertical,-0.8975988412135023,-0.3875213864443877,-0.01645838716695059,0.2094580569625355,-0.1918850094079971,0.3632626533508301,0.9117130041122437,4.494199275970459,30.11286354064941,32.19031524658203,2,0.0.0.0,10.83.46.32,6,0
