loggingTime,loggingSample,locationTimestamp_since1970,locationLatitude,locationLongitude,locationAltitude,locationSpeed,locationCourse,locationVerticalAccuracy,locationHorizontalAccuracy,locationFloor,locationHeadingTimestamp_since1970,locationHeadingX,locationHeadingY,locationHeadingZ,locationTrueHeading,locationMagneticHeading,locationHeadingAccuracy,accelerometerTimestamp_sinceReboot,accelerometerAccelerationX,accelerometerAccelerationY,accelerometerAccelerationZ,gyroTimestamp_sinceReboot,gyroRotationX,gyroRotationY,gyroRotationZ,motionTimestamp_sinceReboot,motionYaw,motionRoll,motionPitch,motionRotationRateX,motionRotationRateY,motionRotationRateZ,motionUserAccelerationX,motionUserAccelerationY,motionUserAccelerationZ,motionAttitudeReferenceFrame,motionQuaternionX,motionQuaternionY,motionQuaternionZ,motionQuaternionW,motionGravityX,motionGravityY,motionGravityZ,motionMagneticFieldX,motionMagneticFieldY,motionMagneticFieldZ,motionMagneticFieldCalibrationAccuracy,IP_en0,IP_pdp_ip0,deviceOrientation,state
2015-03-01 11:11:55.814,399,1425237114.68655,37.74681037673336,-122.4444591648847,174.5527,-1,-1,10,65,-9999,1425237115.78452,-5.021102905273438,-33.6773681640625,19.09738922119141,185.9260101318359,172.1543884277344,10,180566.2358255,-0.193817138671875,-0.9122467041015625,-0.0586395263671875,180566.237293875,-0.1594189533810152,-0.6260854701439272,0.1396351285911436,180566.1855222083,2.677050179411521,-1.420240937786052,1.400217848899961,0.002769613638520241,-0.1967338919639587,0.01303575560450554,-0.1104428470134735,0.03642057254910469,-0.001608463935554028,XTrueNorthZVertical,0.5976468579206704,0.3606770290236605,0.4676532542395586,0.5422459370988292,-0.167831689119339,-0.9854867458343506,-0.02546062879264355,-4.692536354064941,-33.52083206176758,19.64317512512207,2,0.0.0.0,10.83.46.32,1,0
2015-03-01 11:11:55.830,400,1425237114.68655,37.74681037673336,-122.4444591648847,174.5527,-1,-1,10,65,-9999,1425237115.78452,-5.021102905273438,-33.6773681640625,19.09738922119141,185.9260101318359,172.1543884277344,10,180566.2849842917,-0.37896728515625,-0.989288330078125,-0.043548583984375,180566.2890657917,0.001598429286265559,0.3540387711023709,0.1427371786288679,180566.237293875,2.659011594893264,-1.415581530225368,1.395643620704085,-0.1800535023212433,-0.6096009612083435,0.1693480759859085,-0.02165400981903076,0.07245323807001114,-0.03170057758688927,XTrueNorthZVertical,0.6004070430284972,0.3550238143848234,0.4654999634992337,0.5447744179313668,-0.1721631288528442,-0.9846999645233154,-0.02693894691765308,-4.529554843902588,-33.54021835327148,19.64834213256836,2,0.0.0.0,10.83.46.32,1,0
2015-03-01 11:11:55.915,401,1425237114.68655,37.74681037673336,-122.4444591648847,174.5527,-1,-1,10,65,-9999,1425237115.837236,-5.089309692382812,-33.60940551757812,19.66320037841797,186.1159210205078,172.3442993164062,10,180566.333962375,0.18603515625,-0.9966888427734375,-0.32159423828125,180566.2890657917,0.001598429286265559,0.3540387711023709,0.1427371786288679,180566.2890657917,2.645156968595869,-1.417153574014906,1.381208506282519,-0.01903591491281986,0.3705230951309204,0.1724498271942139,-0.1927336007356644,-0.007206334732472897,-0.01470782980322838,XTrueNorthZVertical,0.6050928115477939,0.3456042713953961,0.4655265361915275,0.5456237986532324,-0.1862336844205856,-0.9820820093154907,-0.02884075418114662,-4.360499858856201,-33.61355209350586,19.56107139587402,2,0.0.0.0,10.83.46.32,1,0
2015-03-01 11:11:55.929,402,1425237114.68655,37.74681037673336,-122.4444591648847,174.5527,-1,-1,10,65,-9999,1425237115.913672,-5.242774963378906,-33.55841064453125,19.74640655517578,185.6451873779297,171.8735656738281,10,180566.383003125,-0.3178863525390625,-0.91650390625,0.0492401123046875,180566.34083475,0.04324494241292469,-0.2322398975959239,0.1048648973990691,180566.34083475,2.683266336195199,-1.427686281488051,1.383069102288009,0.02261078357696533,-0.2157557457685471,0.1345772743225098,0.3707533776760101,-0.01425791066139936,-0.2949772477149963,XTrueNorthZVertical,0.6006406223097119,0.3548553892536972,0.4721370452653257,0.5388831177407197,-0.1847182214260101,-0.9824309349060059,-0.02661699056625366,-4.898342609405518,-33.56103515625,19.52392387390137,2,0.0.0.0,10.83.46.32,1,0
2015-03-01 11:11:56.012,403,1425237114.68655,37.74681037673336,-122.4444591648847,174.5527,-1,-1,10,65,-9999,1425237115.970163,-5.328033447265625,-33.439453125,19.69647979736328,185.6786193847656,171.9069976806641,10,180566.4320864583,-0.32513427734375,-1.07379150390625,0.0473785400390625,180566.444378375,0.4769013111481955,1.102089828636984,-0.3785161509973982,180566.3926065,2.697087415434866,-1.490731328491432,1.36991683466976,0.1918016076087952,-0.7695823311805725,0.1213434636592865,-0.1189947873353958,0.06338756531476974,0.06519848108291626,XTrueNorthZVertical,0.614815037890069,0.3376733412665203,0.4605138029598626,0.5439725449086593,-0.1988915652036667,-0.9798914790153503,-0.01595836691558361,-4.857669353485107,-33.44409942626953,19.73361968994141,2,0.0.0.0,10.83.46.32,1,0
2015-03-01 11:11:56.026,404,1425237114.68655,37.74681037673336,-122.4444591648847,174.5527,-1,-1,10,65,-9999,1425237115.970163,-5.328033447265625,-33.439453125,19.69647979736328,185.6786193847656,171.9069976806641,10,180566.4811391667,-0.0096588134765625,-0.9409332275390625,0.242401123046875,180566.444378375,0.4769013111481955,1.102089828636984,-0.3785161509973982,180566.444378375,2.797141116093234,-1.562922806613025,1.37598200802108,0.4562675654888153,1.118573546409607,-0.348804384469986,-0.03621946647763252,-0.1261551380157471,0.2056257277727127,XTrueNorthZVertical,0.6133026653350413,0.3508528968154578,0.4636445481448023,0.5345986597566068,-0.1935779005289078,-0.9810836315155029,-0.001524170977063477,-4.630660057067871,-33.21084594726562,20.1771411895752,2,0.0.0.0,10.83.46.32,1,0
2015-03-01 11:11:56.118,405,1425237114.68655,37.74681037673336,-122.4444591648847,174.5527,-1,-1,10,65,-9999,1425237116.094481,-5.481513977050781,-31.92706298828125,20.2789306640625,183.5970153808594,169.8253936767578,10,180566.5302300834,0.079345703125,-1.082199096679688,-0.2337799072265625,180566.4961475834,0.6068294838821092,1.14764852540497,-0.3407565214817097,180566.4961475834,2.899038151922661,-1.605194344276074,1.394006249052209,0.5861959457397461,1.164132237434387,-0.3110450208187103,0.1979523152112961,0.05179610848426819,0.157495304942131,XTrueNorthZVertical,0.6013432526353677,0.3760458575008553,0.4730192562003819,0.5227126336514381,-0.1757660359144211,-0.9844132661819458,0.006048388779163361,-5.131951808929443,-32.90874862670898,20.54744720458984,2,0.0.0.0,10.83.46.32,1,0
2015-03-01 11:11:56.125,406,1425237114.68655,37.74681037673336,-122.4444591648847,174.5527,-1,-1,10,65,-9999,1425237116.094481,-5.481513977050781,-31.92706298828125,20.2789306640625,183.5970153808594,169.8253936767578,10,180566.5792875834,-0.0088958740234375,-0.97686767578125,0.0366668701171875,180566.5479192084,0.3408132468129283,-0.3218880251584983,-0.2175565589257721,180566.5479192084,3.043602836764173,-1.7243078288241,1.402998453453246,0.3201799094676971,-0.3054045438766479,-0.1878453642129898,0.2126696705818176,-0.08870631456375122,-0.2924900352954865,XTrueNorthZVertical,0.5998433620075437,0.3910967991564231,0.4725386879671445,0.5137492887276819,-0.1650469899177551,-0.9859549403190613,0.0255375299602747,-5.79489803314209,-32.4180793762207,21.14255714416504,2,0.0.0.0,10.83.46.32,1,0
2015-03-01 11:11:56.212,407,1425237114.68655,37.74681037673336,-122.4444591648847,174.5527,-1,-1,10,65,-9999,1425237116.199909,-5.038169860839844,-31.75714111328125,21.71012115478516,184.0146331787109,170.2430114746094,10,180566.6283655,-0.3933258056640625,-0.8743438720703125,0.212799072265625,180566.5996909583,0.1175519305160976,-0.3532808354561343,-0.1013814826932454,180566.5996909583,3.075596246270158,-1.776084494760736,1.406508123232732,0.09691882133483887,-0.3367975354194641,-0.07167062163352966,0.04745977371931076,0.05628294497728348,0.08786109834909439,XTrueNorthZVertical,0.604903587576716,0.3882800310449055,0.464422634370155,0.5173410794264195,-0.1601154208183289,-0.9865350127220154,0.03333946689963341,-5.303136825561523,-32.2263069152832,21.56066703796387,2,0.0.0.0,10.83.46.32,1,0
2015-03-01 11:11:56.222,408,1425237114.68655,37.74681037673336,-122.4444591648847,174.5527,-1,-1,10,65,-9999,1425237116.199909,-5.038169860839844,-31.75714111328125,21.71012115478516,184.0146331787109,170.2430114746094,10,180566.6774142083,0.1703033447265625,-1.053573608398438,0.0317535400390625,180566.6514600833,0.3449739033839592,-0.3743451080981161,0.03696440961419082,180566.6514600833,-3.13782837662426,-1.875536579734641,1.399526581196613,0.3243409991264343,-0.3578619360923767,0.06667497754096985,-0.2045460939407349,-0.09921031445264816,0.2619421780109406,XTrueNorthZVertical,0.6160509368899216,0.3821649853775818,0.4535384796537718,0.5183955276915204,-0.1625803709030151,-0.9853691458702087,0.05113766714930534,-4.824251651763916,-32.12960815429688,21.81593894958496,2,0.0.0.0,10.83.46.32,1,0
2015-03-01 11:11:56.309,409,1425237114.68655,37.74681037673336,-122.4444591648847,174.5527,-1,-1,10,65,-9999,1425237116.254728,-4.458412170410156,-31.51924133300781,22.27593231201172,185.6060638427734,171.8344421386719,10,180566.726493625,-0.719207763671875,-0.840057373046875,0.1884613037109375,180566.7032320417,-0.03195234044266169,-0.7971352469536455,0.003055711034756918,180566.7032320417,-3.082900342839527,-1.937218804910232,1.396069349351318,-0.05258505418896675,-0.7806522250175476,0.03276601061224937,0.09165025502443314,0.007524892222136259,0.07559587806463242,XTrueNorthZVertical,0.6203935201458642,0.3824305803687372,0.4493123016589498,0.5166982634832569,-0.1622984409332275,-0.9847740530967712,0.06228253617882729,-4.590542316436768,-31.71139717102051,22.4685230255127,2,0.0.0.0,10.83.46.32,1,0
2015-03-01 11:11:56.322,410,1425237114.68655,37.74681037673336,-122.4444591648847,174.5527,-1,-1,10,65,-9999,1425237116.254728,-4.458412170410156,-31.51924133300781,22.27593231201172,185.6060638427734,171.8344421386719,10,180566.7755451667,0.2111968994140625,-1.11151123046875,0.0334930419921875,180566.7550037084,0.09560295575999152,0.6579448662645451,0.2633336349031441,180566.7550037084,3.139901369275637,-1.894255045657826,1.384539513131953,0.07497044652700424,0.6744276881217957,0.2930436134338379,-0.3051043152809143,0.01410687621682882,0.2584013044834137,XTrueNorthZVertical,0.6251927818960068,0.3722414675883584,0.449137437994387,0.5185033708795515,-0.1755780577659607,-0.9827042818069458,0.0588594488799572,-4.07084846496582,-31.75645065307617,22.50502777099609,2,0.0.0.0,10.83.46.32,1,0
2015-03-01 11:11:56.410,411,1425237114.68655,37.74681037673336,-122.4444591648847,174.5527,-1,-1,10,65,-9999,1425237116.379696,-4.765350341796875,-31.07745361328125,22.54219818115234,185.1458740234375,171.3742523193359,10,180566.8246318334,-0.3534393310546875,-0.928619384765625,0.170379638671875,180566.8067727917,-0.2151975308321799,-0.3515367312582414,0.04840295281219015,180566.8067727917,3.137657274293792,-1.87188372310862,1.379546601394982,-0.2358298152685165,-0.3350540697574615,0.07811262458562851,0.1272893995046616,-0.0715925395488739,-0.0438288077712059,XTrueNorthZVertical,0.6218324425692722,0.3761783876000498,0.4564716667265388,0.5132716240896987,-0.1815343946218491,-0.981767475605011,0.0563715323805809,-4.93875789642334,-31.67931175231934,22.4399242401123,2,0.0.0.0,10.83.46.32,1,0
2015-03-01 11:11:56.420,412,1425237114.68655,37.74681037673336,-122.4444591648847,174.5527,-1,-1,10,65,-9999,1425237116.379696,-4.765350341796875,-31.07745361328125,22.54219818115234,185.1458740234375,171.3742523193359,10,180566.873693375,-0.2877349853515625,-0.9886474609375,0.1343231201171875,180566.858544625,-0.1237331274061715,0.1709765398797412,0.2173064880994136,180566.8067727917,3.137657274293792,-1.87188372310862,1.379546601394982,-0.2358298152685165,-0.3350540697574615,0.07811262458562851,0.1272893995046616,-0.0715925395488739,-0.0438288077712059,XTrueNorthZVertical,0.6218324425692722,0.3761783876000498,0.4564716667265388,0.5132716240896987,-0.1815343946218491,-0.981767475605011,0.0563715323805809,-4.93875789642334,-31.67931175231934,22.4399242401123,2,0.0.0.0,10.83.46.32,1,0
2015-03-01 11:11:56.510,413,1425237114.68655,37.74681037673336,-122.4444591648847,174.5527,-1,-1,10,65,-9999,1425237116.486626,-5.413330078125,-31.17942810058594,21.84324645996094,184.1417846679688,170.3701629638672,10,180566.9227954583,-0.076446533203125,-1.055908203125,0.07147216796875,180566.910316625,-0.1862444424091654,0.5372245729995803,0.07728892957573461,180566.910316625,3.009120807724215,-1.735121161430578,1.365491055960674,-0.206861138343811,0.55357825756073,0.1069947779178619,0.03562247380614281,-0.07742820680141449,0.08966674655675888,XTrueNorthZVertical,0.6174850691881892,0.3679497192894857,0.4687769654520751,0.5133938630474765,-0.2011193037033081,-0.9789987802505493,0.03334961459040642,-5.535423755645752,-31.99724006652832,21.84161567687988,2,0.0.0.0,10.83.46.32,1,0
2015-03-01 11:11:56.517,414,1425237114.68655,37.74681037673336,-122.4444591648847,174.5527,-1,-1,10,65,-9999,1425237116.486626,-5.413330078125,-31.17942810058594,21.84324645996094,184.1417846679688,170.3701629638672,10,180566.9718474167,-0.1646728515625,-0.9395294189453125,-0.018829345703125,180566.9620855833,-0.1596357346937477,-0.004600078150893868,-0.005713545802655998,180566.910316625,3.009120807724215,-1.735121161430578,1.365491055960674,-0.206861138343811,0.55357825756073,0.1069947779178619,0.03562247380614281,-0.07742820680141449,0.08966674655675888,XTrueNorthZVertical,0.6174850691881892,0.3679497192894857,0.4687769654520751,0.5133938630474765,-0.2011193037033081,-0.9789987802505493,0.03334961459040642,-5.535423755645752,-31.99724006652832,21.84161567687988,2,0.0.0.0,10.83.46.32,1,0
2015-03-01 11:11:56.613,415,1425237114.68655,37.74681037673336,-122.4444591648847,174.5527,-1,-1,10,65,-9999,1425237116.561341,-6.197715759277344,-31.55329895019531,21.11101531982422,182.4122161865234,168.6405944824219,10,180567.02093125,-0.24432373046875,-0.9849090576171875,0.1147003173828125,180567.0138575,-0.4200481481971839,-0.1765481391962959,0.2082631919858315,180567.0138575,2.886675574041777,-1.60965795327997,1.358758835776727,-0.4406644105911255,-0.1601948291063309,0.2379684150218964,-0.06840892136096954,0.01460671331733465,0.05983198434114456,XTrueNorthZVertical,0.6115054185100273,0.3607621691826234,0.4773745939415982,0.5177114891785195,-0.210292860865593,-0.9776041507720947,0.008176439441740513,-6.302901744842529,-32.38677597045898,21.04496002197266,2,0.0.0.0,10.83.46.32,1,0
2015-03-01 11:11:56.616,416,1425237114.68655,37.74681037673336,-122.4444591648847,174.5527,-1,-1,10,65,-9999,1425237116.612561,-6.947990417480469,-32.09710693359375,20.97788238525391,181.3604888916016,167.5888671875,10,180567.0699844584,-0.0654296875,-1.063308715820312,-0.045867919921875,180567.0656292083,-0.2610174837031022,0.3115690748827682,0.05743266680421282,180567.0138575,2.886675574041777,-1.60965795327997,1.358758835776727,-0.4406644105911255,-0.1601948291063309,0.2379684150218964,-0.06840892136096954,0.01460671331733465,0.05983198434114456,XTrueNorthZVertical,0.6115054185100273,0.3607621691826234,0.4773745939415982,0.5177114891785195,-0.210292860865593,-0.9776041507720947,0.008176439441740513,-6.302901744842529,-32.38677597045898,21.04496002197266,2,0.0.0.0,10.83.46.32,1,0
2015-03-01 11:11:56.713,417,1425237114.68655,37.74681037673336,-122.4444591648847,174.5527,-1,-1,10,65,-9999,1425237116.669658,-6.982093811035156,-32.40298461914062,20.64504241943359,181.2467193603516,167.47509765625,10,180567.1190814583,-0.088165283203125,-1.066986083984375,-0.172637939453125,180567.1173985,-0.3365892070079537,-0.5821742048262647,0.06300559770131263,180567.0656292083,2.804272139527269,-1.5174140787519,1.350716111383713,-0.2816335558891296,0.3279222249984741,0.08713763207197189,0.10128203779459,-0.08488056063652039,0.02046778984367847,XTrueNorthZVertical,0.6055005780167795,0.3571343511416504,0.4861803954810305,0.5190882746264914,-0.2179965078830719,-0.975879967212677,-0.01164821069687605,-6.550854682922363,-32.70336151123047,20.47186088562012,2,0.0.0.0,10.83.46.32,1,0
2015-03-01 11:11:56.716,418,1425237114.68655,37.74681037673336,-122.4444591648847,174.5527,-1,-1,10,65,-9999,1425237116.669658,-6.982093811035156,-32.40298461914062,20.64504241943359,181.2467193603516,167.47509765625,10,180567.1681442917,-0.0295867919921875,-1.065567016601562,-0.10223388671875,180567.1173985,-0.3365892070079537,-0.5821742048262647,0.06300559770131263,180567.1173985,2.737654772865068,-1.46139582388214,1.344721961224331,-0.3572050929069519,-0.5658211708068848,0.09271026402711868,0.1184582114219666,-0.06046507507562637,-0.1385665833950043,XTrueNorthZVertical,0.6045650486835523,0.3496631425517858,0.4873989527702109,0.5240982331952526,-0.2228130698204041,-0.9745538234710693,-0.02447357773780823,-6.927510261535645,-32.93970489501953,19.96260452270508,2,0.0.0.0,10.83.46.32,1,0
2015-03-01 11:11:56.778,419,1425237114.68655,37.74681037673336,-122.4444591648847,174.5527,-1,-1,10,65,-9999,1425237116.742397,-5.600898742675781,-33.20169067382812,19.33034515380859,184.8197174072266,171.048095703125,10,180567.2172362084,-0.366302490234375,-0.9869384765625,-0.1784515380859375,180567.2209421667,-0.8666711819639414,-1.653699199948518,0.141158723050778,180567.1691701667,2.62498181212652,-1.403152725843049,1.339877311695955,-0.6836152076721191,-1.620766878128052,0.004945998080074787,0.196076437830925,-0.09211054444313049,-0.06404445320367813,XTrueNorthZVertical,0.6102898737988447,0.329319835108312,0.4764956057736355,0.5404133254926834,-0.2256632298231125,-0.9734564423561096,-0.03818943351507187,-6.387970924377441,-33.36589813232422,19.42758178710938,2,0.0.0.0,10.83.46.32,1,0
2015-03-01 11:11:56.811,420,1425237114.68655,37.74681037673336,-122.4444591648847,174.5527,-1,-1,10,65,-9999,1425237116.79394,-4.526626586914062,-34.20428466796875,18.18206787109375,189.1203155517578,175.3486938476562,10,180567.2663163333,-0.724090576171875,-0.79681396484375,0.013641357421875,180567.2209421667,-0.8666711819639414,-1.653699199948518,0.141158723050778,180567.2209421667,2.450400513328059,-1.32151934088001,1.326541922588335,-0.8872866630554199,-1.637346506118774,0.1708627641201019,-0.1319447159767151,-0.01662057265639305,-0.1187906339764595,XTrueNorthZVertical,0.6196779860026863,0.2935451243174686,0.4573440048991654,0.5662745123919223,-0.2343577742576599,-0.9703179001808167,-0.0596609078347683,-5.020544052124023,-33.9856071472168,18.74281311035156,2,0.0.0.0,10.83.46.32,1,0
2015-03-01 11:11:56.878,421,1425237114.68655,37.74681037673336,-122.4444591648847,174.5527,-1,-1,10,65,-9999,1425237116.846059,-3.384147644042969,-35.00296020507812,17.83259582519531,192.7285614013672,178.9569396972656,10,180567.31541375,-0.1300506591796875,-0.818695068359375,-0.5357513427734375,180567.2727110834,-0.3839953386241272,-0.2493083633383508,0.1916868784128513,180567.2727110834,2.344689668820858,-1.267191534181418,1.309791804436369,-0.4046105742454529,-0.2329558432102203,0.2213906645774841,-0.4778416752815247,0.1693172752857208,0.09078877419233322,XTrueNorthZVertical,0.623223355251757,0.270220170706155,0.4491900690410578,0.5803463614394333,-0.2462489008903503,-0.9661312699317932,-0.07714741677045822,-3.966002941131592,-34.6550407409668,17.74314880371094,2,0.0.0.0,10.83.46.32,1,0
2015-03-01 11:11:56.912,422,1425237114.68655,37.74681037673336,-122.4444591648847,174.5527,-1,-1,10,65,-9999,1425237116.897462,-3.281829833984375,-35.138916015625,17.00051116943359,193.2824554443359,179.5108337402344,10,180567.364445625,-0.41839599609375,-0.823883056640625,-0.095550537109375,180567.324483125,-0.03190147406584118,0.3639089787344225,-0.3186019506894495,180567.324483125,2.30685418218098,-1.207880853960249,1.307163579738875,-0.05251651257276535,0.3802613317966461,-0.2888984680175781,0.1135652512311935,0.1467546224594116,-0.4432418346405029,XTrueNorthZVertical,0.6150234744405101,0.2747569385440577,0.4574081028087471,0.5805449910581809,-0.243615910410881,-0.9654496908187866,-0.09250950068235397,-4.131017208099365,-35.00352096557617,17.00614356994629,2,0.0.0.0,10.83.46.32,1,0
2015-03-01 11:11:56.979,423,1425237114.68655,37.74681037673336,-122.4444591648847,174.5527,-1,-1,10,65,-9999,1425237116.949632,-3.588768005371094,-35.03697204589844,17.06709289550781,192.6746673583984,178.9030456542969,10,180567.4135342917,-0.4911346435546875,-0.992523193359375,0.0373077392578125,180567.376254875,0.2937405429652328,-0.8151600538435199,0.2035326189415238,180567.376254875,2.334636334846856,-1.263403128134312,1.30550654106855,0.2731257379055023,-0.7988078594207764,0.233235776424408,-0.3906347751617432,0.1667987853288651,-0.03735222667455673,XTrueNorthZVertical,0.6238962278009261,0.2666226369814351,0.4488110517396349,0.5815792420384553,-0.2498986572027206,-0.9650165438652039,-0.07933173328638077,-3.972297191619873,-35.01003265380859,17.03052711486816,2,0.0.0.0,10.83.46.32,1,0
2015-03-01 11:11:57.016,424,1425237114.68655,37.74681037673336,-122.4444591648847,174.5527,-1,-1,10,65,-9999,1425237117.003164,-3.742240905761719,-34.8160400390625,17.48313140869141,192.3067626953125,178.5351409912109,10,180567.4625823333,-0.31671142578125,-1.0003662109375,-0.105804443359375,180567.4280239583,0.4600195329981832,0.8838048951530753,-0.04637815143540291,180567.4280239583,2.404605855006982,-1.322974407443837,1.307278112379574,0.4394049346446991,0.9001569151878357,-0.01667529530823231,-0.1354797780513763,0.0286661796271801,0.1025135740637779,XTrueNorthZVertical,0.6277714557481959,0.2719489126004984,0.4498274891122493,0.5741096819171294,-0.2525207102298737,-0.9654795527458191,-0.06389357894659042,-3.770604133605957,-34.79929351806641,17.50177574157715,2,0.0.0.0,10.83.46.32,1,0
2015-03-01 11:11:57.078,425,1425237114.68655,37.74681037673336,-122.4444591648847,174.5527,-1,-1,10,65,-9999,1425237117.053431,-4.339057922363281,-34.62913513183594,18.19871520996094,190.281494140625,176.5098724365234,10,180567.511677625,-0.389495849609375,-0.9425201416015625,0.039276123046875,180567.479795875,0.5847494816003713,1.160824781214246,-0.1624610822942128,180567.479795875,2.521623493500024,-1.378554680463876,1.319145121066387,0.5641350150108337,1.177176594734192,-0.1327584981918335,-0.009337550029158592,-0.06669943779706955,-0.01393370609730482,XTrueNorthZVertical,0.6228822874253873,0.2970360580993984,0.4618971717560053,0.5571697653975062,-0.2444161176681519,-0.9685025811195374,-0.0475744716823101,-4.615645885467529,-34.28104019165039,18.30372428894043,2,0.0.0.0,10.83.46.32,1,0
2015-03-01 11:11:57.110,426,1425237114.68655,37.74681037673336,-122.4444591648847,174.5527,-1,-1,10,65,-9999,1425237117.053431,-4.339057922363281,-34.62913513183594,18.19871520996094,190.281494140625,176.5098724365234,10,180567.5607273333,-0.31829833984375,-0.959381103515625,0.0733642578125,180567.5315676667,0.5938582914767693,1.259345496264528,-0.347222676608422,180567.5315676667,2.610985813612272,-1.407316422116195,1.328969981398264,0.5732440948486328,1.275697231292725,-0.317520409822464,-0.2466272562742233,-0.0600120797753334,0.0005842276732437313,XTrueNorthZVertical,0.6148128437166513,0.320183535993483,0.4746357631872973,0.5424098739257861,-0.2362828999757767,-0.9709022045135498,-0.03897533938288689,-5.432551383972168,-33.86952209472656,18.83781242370605,2,0.0.0.0,10.83.46.32,1,0
2015-03-01 11:11:57.177,427,1425237114.68655,37.74681037673336,-122.4444591648847,174.5527,-1,-1,10,65,-9999,1425237117.156932,-6.027183532714844,-33.86445617675781,19.71309661865234,184.2946319580078,170.5230102539062,10,180567.6099169583,-0.3536834716796875,-0.8892822265625,0.153045654296875,180567.583337,0.5886286420441807,1.313524579164991,-0.3216709775296568,180567.583337,2.715580784322861,-1.444077989037118,1.35291594388893,0.5680146813392639,1.329876065254211,-0.2919690012931824,-0.05217454582452774,0.1296628713607788,0.2203266322612762,XTrueNorthZVertical,0.6030496797824164,0.3502455957545881,0.4845111475933122,0.5281173759454152,-0.2144270092248917,-0.9763578176498413,-0.02731821313500404,-6.074928283691406,-33.48123550415039,19.32931709289551,2,0.0.0.0,10.83.46.32,1,0
2015-03-01 11:11:57.218,428,1425237114.68655,37.74681037673336,-122.4444591648847,174.5527,-1,-1,10,65,-9999,1425237117.156932,-6.027183532714844,-33.86445617675781,19.71309661865234,184.2946319580078,170.5230102539062,10,180567.6588674167,0.1275482177734375,-1.171875,0.0388031005859375,180567.6351086667,0.6095195428991983,1.713053603795332,-0.3097762348369269,180567.6351086667,2.861357355013448,-1.507821592465955,1.36891338657977,0.5889057517051697,1.729404926300049,-0.2800745368003845,-0.03305309265851974,-0.02009561844170094,0.06304926425218582,XTrueNorthZVertical,0.589496118285426,0.3823412650667892,0.4988389147742215,0.5074141594489061,-0.2001164704561234,-0.9796907305717468,-0.0126189673319459,-7.065975189208984,-32.92152786254883,19.94405746459961,2,0.0.0.0,10.83.46.32,1,0
2015-03-01 11:11:57.263,429,1425237114.68655,37.74681037673336,-122.4444591648847,174.5527,-1,-1,10,65,-9999,1425237117.212901,-7.40838623046875,-32.89585876464844,20.02928924560547,179.6493377685547,165.8777160644531,10,180567.70795275,-0.146240234375,-0.87884521484375,-0.0592193603515625,180567.6868807084,0.1590088265731431,0.8906287128141853,-0.1634384624142718,180567.6868807084,2.924445343911677,-1.504781509124076,1.382737425355202,0.1383952349424362,0.9069799184799194,-0.1337370574474335,0.4092467129230499,-0.03633829578757286,0.1184880286455154,XTrueNorthZVertical,0.5738024138734931,0.4056901199114388,0.5118901260015892,0.4940999128618547,-0.1865446716547012,-0.9823690056800842,-0.01233263313770294,-8.113765716552734,-32.56893157958984,20.12341499328613,2,0.0.0.0,10.83.46.32,1,0
2015-03-01 11:11:57.303,430,1425237114.68655,37.74681037673336,-122.4444591648847,174.5527,-1,-1,10,65,-9999,1425237117.285924,-8.874847412109375,-31.74031066894531,20.69496154785156,174.8884429931641,161.1168212890625,10,180567.7570066667,0.1162567138671875,-1.022354125976562,0.06219482421875,180567.73864975,0.3852286485249429,0.4711334368593018,0.03756601770443972,180567.6868807084,2.924445343911677,-1.504781509124076,1.382737425355202,0.1383952349424362,0.9069799184799194,-0.1337370574474335,0.4092467129230499,-0.03633829578757286,0.1184880286455154,XTrueNorthZVertical,0.5738024138734931,0.4056901199114388,0.5118901260015892,0.4940999128618547,-0.1865446716547012,-0.9823690056800842,-0.01233263313770294,-8.113765716552734,-32.56893157958984,20.12341499328613,2,0.0.0.0,10.83.46.32,1,0
2015-03-01 11:11:57.361,431,1425237114.68655,37.74681037673336,-122.4444591648847,174.5527,-1,-1,10,65,-9999,1425237117.338191,-9.659233093261719,-31.33247375488281,20.69496154785156,172.5138397216797,158.7422180175781,10,180567.8062000417,0.142578125,-1.159500122070312,0.182769775390625,180567.7904217917,0.01369690380238653,-7.297061386817113e-05,0.3094486660228472,180567.7904217917,3.038001170791628,-1.568645679230272,1.372075301281548,-0.006916259415447712,0.01627789065241814,0.3391494452953339,0.3512080907821655,-0.1636468023061752,-0.002627187641337514,XTrueNorthZVertical,0.5690265088813887,0.4195194239448092,0.5238198618838997,0.4752104228318513,-0.1974147707223892,-0.9803198575973511,-0.0004245702584739774,-9.49992561340332,-32.07446670532227,20.31010437011719,2,0.0.0.0,10.83.46.32,1,0
2015-03-01 11:11:57.401,432,1425237114.68655,37.74681037673336,-122.4444591648847,174.5527,-1,-1,10,65,-9999,1425237117.38985,-10.3924560546875,-30.90762329101562,20.57846069335938,170.8797912597656,157.1081695556641,10,180567.8551515,-0.0778350830078125,-1.137466430664062,0.166534423828125,180567.8421935,-0.04666896862643957,-0.3818328518189829,0.1895345116198493,180567.8421935,3.019891665381431,-1.565488090167845,1.356300941731354,-0.06728194653987885,-0.3654821217060089,0.2192350178956985,0.1056579798460007,-0.1332981586456299,0.1172797754406929,XTrueNorthZVertical,0.5752169716757639,0.4105611994767299,0.5241805014177596,0.4751838038723949,-0.2128509730100632,-0.9770839214324951,-0.001129873911850154,-9.949180603027344,-31.96594429016113,20.26604652404785,2,0.0.0.0,10.83.46.32,1,0
2015-03-01 11:11:57.459,433,1425237114.68655,37.74681037673336,-122.4444591648847,174.5527,-1,-1,10,65,-9999,1425237117.44188,-10.69939422607422,-30.9755859375,20.54518127441406,170.4771118164062,156.7054901123047,10,180567.9043439583,-0.0277557373046875,-1.136825561523438,0.051910400390625,180567.8939628333,-0.1390268625981695,-0.3474181526324339,0.1313407133760918,180567.8421935,3.019891665381431,-1.565488090167845,1.356300941731354,-0.06728194653987885,-0.3654821217060089,0.2192350178956985,0.1056579798460007,-0.1332981586456299,0.1172797754406929,XTrueNorthZVertical,0.5752169716757639,0.4105611994767299,0.5241805014177596,0.4751838038723949,-0.2128509730100632,-0.9770839214324951,-0.001129873911850154,-9.949180603027344,-31.96594429016113,20.26604652404785,2,0.0.0.0,10.83.46.32,1,0
2015-03-01 11:11:57.504,434,1425237114.68655,37.74681037673336,-122.4444591648847,174.5527,-1,-1,10,65,-9999,1425237117.493048,-10.71644592285156,-31.26448059082031,20.82807922363281,170.9728240966797,157.2012023925781,10,180567.9532810417,-0.0850372314453125,-1.041610717773438,0.1851043701171875,180567.9457345417,-0.2703750328253136,-0.5698395079214537,0.01242391280132865,180567.8939628333,2.976697271414819,-1.537591091569148,1.344529205107717,-0.1596396416425705,-0.3310676217079163,0.1610409170389175,0.1617783308029175,-0.1295085400342941,0.07269451022148132,XTrueNorthZVertical,0.5790031089276991,0.4012872251703955,0.5247897689315807,0.4778279708646846,-0.2242172956466675,-0.9745106101036072,-0.007447925396263599,-10.03143692016602,-31.95833206176758,20.23748207092285,2,0.0.0.0,10.83.46.32,1,0
2015-03-01 11:11:57.558,435,1425237114.68655,37.74681037673336,-122.4444591648847,174.5527,-1,-1,10,65,-9999,1425237117.546015,-10.08553314208984,-31.58735656738281,20.87800598144531,172.5900726318359,158.8184509277344,10,180568.002473125,-0.302459716796875,-0.9523468017578125,-0.0633544921875,180567.9975065417,-0.1067293764782336,-0.4185892685520385,0.01442767520550427,180567.9975065417,2.876976049203343,-1.48698895134477,1.336208482415893,-0.127323791384697,-0.4023536145687103,0.04413549229502678,-0.1249719709157944,0.0340573713183403,0.01323195174336433,XTrueNorthZVertical,0.5868520221768474,0.3819370830466392,0.5174748458157624,0.4918825684627816,-0.2316259294748306,-0.9726102352142334,-0.01945753768086433,-9.527754783630371,-32.33062362670898,19.88650321960449,2,0.0.0.0,10.83.46.32,1,0
2015-03-01 11:11:57.605,436,1425237114.68655,37.74681037673336,-122.4444591648847,174.5527,-1,-1,10,65,-9999,1425237117.597862,-9.403457641601562,-31.55337524414062,20.74486541748047,174.2451629638672,160.4735412597656,10,180568.0514265833,-0.127899169921875,-1.084503173828125,0.1087646484375,180567.9975065417,-0.1067293764782336,-0.4185892685520385,0.01442767520550427,180567.9975065417,2.876976049203343,-1.48698895134477,1.336208482415893,-0.127323791384697,-0.4023536145687103,0.04413549229502678,-0.1249719709157944,0.0340573713183403,0.01323195174336433,XTrueNorthZVertical,0.5868520221768474,0.3819370830466392,0.5174748458157624,0.4918825684627816,-0.2316259294748306,-0.9726102352142334,-0.01945753768086433,-9.527754783630371,-32.33062362670898,19.88650321960449,2,0.0.0.0,10.83.46.32,1,0
2015-03-01 11:11:57.655,437,1425237114.68655,37.74681037673336,-122.4444591648847,174.5527,-1,-1,10,65,-9999,1425237117.649298,-8.891899108886719,-32.13113403320312,20.61174011230469,175.8121185302734,162.0404968261719,10,180568.10062125,-0.2091522216796875,-0.92852783203125,0.031005859375,180568.101047625,-0.05628804016769676,-0.4690508448868599,-0.3537977550237187,180568.049275625,2.833577775440072,-1.467373618147129,1.334928947403142,-0.3336802423000336,-0.4169833064079285,-0.1483921408653259,0.1527559906244278,-0.1447991877794266,0.1414349526166916,XTrueNorthZVertical,0.5902079402334497,0.3736199888166079,0.5128339078193169,0.4990631050094317,-0.2324373871088028,-0.9723120331764221,-0.02412538230419159,-9.245061874389648,-32.45362091064453,19.81948089599609,2,0.0.0.0,10.83.46.32,1,0
2015-03-01 11:11:57.704,438,1425237114.68655,37.74681037673336,-122.4444591648847,174.5527,-1,-1,10,65,-9999,1425237117.700926,-8.209831237792969,-32.3690185546875,20.24562072753906,177.3556823730469,163.5840606689453,10,180568.1495683333,-0.1672821044921875,-0.9590606689453125,0.0125274658203125,180568.152819375,0.0921845221847658,0.3358632292947981,-0.5321781490499892,180568.101047625,2.777498394998683,-1.42795779385232,1.346020866011628,-0.07688204944133759,-0.4528155326843262,-0.3240905404090881,0.01146495621651411,0.04631634801626205,0.06273457407951355,XTrueNorthZVertical,0.5888836305590358,0.3706099201940392,0.5073007684507603,0.5084389792211695,-0.2206171751022339,-0.9748441576957703,-0.03172871470451355,-8.563251495361328,-32.84255981445312,19.48222541809082,2,0.0.0.0,10.83.46.32,1,0
2015-03-01 11:11:57.754,439,1425237114.68655,37.74681037673336,-122.4444591648847,174.5527,-1,-1,10,65,-9999,1425237117.700926,-8.209831237792969,-32.3690185546875,20.24562072753906,177.3556823730469,163.5840606689453,10,180568.198721,-0.3220977783203125,-0.928924560546875,-0.19696044921875,180568.152819375,0.0921845221847658,0.3358632292947981,-0.5321781490499892,180568.152819375,2.762417220003469,-1.417860638918858,1.366781921879062,0.07159072160720825,0.3520984053611755,-0.5024712085723877,0.03295481950044632,0.02020047418773174,0.04339184612035751,XTrueNorthZVertical,0.5861046227966864,0.3755651490774712,0.5005864332119258,0.5146312479511453,-0.2002369165420532,-0.9792611598968506,-0.03086438030004501,-7.755009651184082,-33.0272331237793,19.50850868225098,2,0.0.0.0,10.83.46.32,1,0
2015-03-01 11:11:57.805,440,1425237114.68655,37.74681037673336,-122.4444591648847,174.5527,-1,-1,10,65,-9999,1425237117.754194,-7.289024353027344,-32.81086730957031,19.91279602050781,178.9265289306641,165.1549072265625,10,180568.247710125,-0.3117218017578125,-0.9379730224609375,-0.0129547119140625,180568.2045886667,-0.01072668023862116,-0.4626131855838113,-0.09105187977315511,180568.2045886667,2.76284056569898,-1.422364582887215,1.381983921116817,-0.03132029250264168,-0.4463781714439392,-0.06134521588683128,-0.1364695280790329,0.05330327153205872,-0.1692031770944595,XTrueNorthZVertical,0.5848980636671667,0.3794938977319694,0.4950647154437521,0.5184491033592531,-0.1856282502412796,-0.9822278022766113,-0.02775727398693562,-7.220662117004395,-33.13339233398438,19.53358268737793,2,0.0.0.0,10.83.46.32,1,0
2015-03-01 11:11:57.851,441,1425237114.68655,37.74681037673336,-122.4444591648847,174.5527,-1,-1,10,65,-9999,1425237117.804672,-6.86273193359375,-33.03179931640625,19.89614868164062,180.1085510253906,166.3369293212891,10,180568.296804125,-0.152862548828125,-1.02105712890625,-0.1157684326171875,180568.3081325,-0.08017393198461745,0.2615868675441611,0.05470026352579152,180568.2563604584,2.758528594922223,-1.424487771373098,1.378545836039985,-0.07204993814229965,0.4137808978557587,0.209359735250473,-0.1226952373981476,0.04360369965434074,0.01490053441375494,XTrueNorthZVertical,0.5867500736662389,0.3765590627985066,0.4943018639160893,0.5192236504194254,-0.1890265643596649,-0.9815767407417297,-0.02785524725914001,-6.671872138977051,-33.17109298706055,19.66431045532227,2,0.0.0.0,10.83.46.32,1,0
2015-03-01 11:11:57.903,442,1425237114.68655,37.74681037673336,-122.4444591648847,174.5527,-1,-1,10,65,-9999,1425237117.856804,-6.777481079101562,-33.082763671875,20.21234130859375,180.5978088378906,166.8261871337891,10,180568.3458470417,-0.4405517578125,-0.92474365234375,-0.06646728515625,180568.3081325,-0.08017393198461745,0.2615868675441611,0.05470026352579152,180568.3081325,2.742629719988218,-1.383461157836729,1.370374598232807,-0.1007671132683754,0.2778215706348419,0.0844063013792038,0.01211211737245321,-0.02197041921317577,-0.05275115370750427,XTrueNorthZVertical,0.5806853254660513,0.3798234911078153,0.5045077580795735,0.513819519848555,-0.1955990493297577,-0.9799827337265015,-0.03707733750343323,-7.30346155166626,-33.17423629760742,19.4332103729248,2,0.0.0.0,10.83.46.32,1,0
2015-03-01 11:11:57.950,443,1425237114.68655,37.74681037673336,-122.4444591648847,174.5527,-1,-1,10,65,-9999,1425237117.908896,-7.340187072753906,-32.86187744140625,19.39689636230469,179.2928466796875,165.5212249755859,10,180568.3950700834,-0.1123199462890625,-1.005355834960938,-0.1529541015625,180568.3599017083,0.008645952478942247,0.6144810120100159,0.2229976633489129,180568.3599017083,2.740788619621139,-1.372004217139332,1.357286557671643,-0.01194702181965113,0.630715548992157,0.2527033984661102,-0.2073517292737961,0.02277969568967819,-0.0118655925616622,XTrueNorthZVertical,0.5799157053201189,0.3778559277513182,0.5111230049146682,0.5095840018898543,-0.2077178508043289,-0.9772932529449463,-0.04184534400701523,-7.737698554992676,-33.21691513061523,19.19075202941895,2,0.0.0.0,10.83.46.32,1,0
2015-03-01 11:11:58.006,444,1425237114.68655,37.74681037673336,-122.4444591648847,174.5527,-1,-1,10,65,-9999,1425237117.960336,-8.209831237792969,-32.98081970214844,19.01414489746094,177.721923828125,163.9503021240234,10,180568.4439935834,-0.1415557861328125,-1.022384643554688,-0.186279296875,180568.411673625,-0.04117273676873403,0.508746059882818,0.03615827075222383,180568.411673625,2.739200066650279,-1.335304844864536,1.352839808073946,-0.06176552549004555,0.5249804258346558,0.06586374342441559,0.01463348511606455,-0.0238722637295723,-0.1056758835911751,XTrueNorthZVertical,0.5713206621519289,0.3851839548278647,0.5225650510308619,0.5021470879447367,-0.2102664262056351,-0.9763413667678833,-0.05045204237103462,-8.737560272216797,-33.13124465942383,18.90756034851074,2,0.0.0.0,10.83.46.32,1,0
2015-03-01 11:11:58.048,445,1425237114.68655,37.74681037673336,-122.4444591648847,174.5527,-1,-1,10,65,-9999,1425237118.012163,-9.232933044433594,-33.25271606445312,18.78117370605469,175.2447967529297,161.4731750488281,10,180568.4931825833,-0.2114410400390625,-0.9468841552734375,-0.0918426513671875,180568.4634454167,0.02244565429940584,0.1378382938036672,-0.07079694178644845,180568.4634454167,2.74913970561903,-1.325450604277518,1.354244647860384,0.001853070920333266,0.1540725082159042,-0.04109176993370056,0.08414547890424728,-0.05658946931362152,-0.1028714403510094,XTrueNorthZVertical,0.5666241114526441,0.390951313586577,0.5274474554782353,0.497888819902381,-0.2084283083677292,-0.9766441583633423,-0.05218837410211563,-9.25755786895752,-33.11828994750977,18.68145942687988,2,0.0.0.0,10.83.46.32,1,0
2015-03-01 11:11:58.106,446,1425237114.68655,37.74681037673336,-122.4444591648847,174.5527,-1,-1,10,65,-9999,1425237118.064072,-9.591026306152344,-33.3037109375,18.79781341552734,174.3201293945312,160.5485076904297,10,180568.5421294583,-0.2678375244140625,-1.004257202148438,-0.02276611328125,180568.51521475,0.05261687260502253,0.03949388001754808,0.08086289175862095,180568.51521475,2.75614879550207,-1.325982485821457,1.353669059365392,0.03202451393008232,0.05572791770100594,0.1105677410960197,0.005174489226192236,0.004245556890964508,-0.03155700489878654,XTrueNorthZVertical,0.5654662859012968,0.3926079534082881,0.5292046515534222,0.4960334865234293,-0.2090013921260834,-0.9765203595161438,-0.05221374705433846,-9.383440971374512,-33.10703277587891,18.63855743408203,2,0.0.0.0,10.83.46.32,1,0
2015-03-01 11:11:58.146,447,1425237114.68655,37.74681037673336,-122.4444591648847,174.5527,-1,-1,10,65,-9999,1425237118.115917,-9.505760192871094,-32.94688415527344,18.51490020751953,174.2174072265625,160.4457855224609,10,180568.5912208333,-0.1357879638671875,-0.9830474853515625,-0.1159210205078125,180568.5669866667,0.07293466119345506,0.311425530500013,-0.1180818995730233,180568.5669866667,2.770369158904758,-1.335975484306773,1.352545974686616,0.0523424856364727,0.3276594281196594,-0.08837731927633286,-0.08200807124376297,-0.03995757177472115,0.06107417866587639,XTrueNorthZVertical,0.5654657922509647,0.3937760211384069,0.5302214923788923,0.4940181783484423,-0.2105792015790939,-0.976277768611908,-0.05037776753306389,-9.578653335571289,-33.02102661132812,18.69175148010254,2,0.0.0.0,10.83.46.32,1,0
2015-03-01 11:11:58.206,448,1425237114.68655,37.74681037673336,-122.4444591648847,174.5527,-1,-1,10,65,-9999,1425237118.169885,-9.8468017578125,-33.15081787109375,18.81444549560547,173.6331787109375,159.8615570068359,10,180568.640268375,-0.1187286376953125,-1.044754028320312,-0.000946044921875,180568.6187585834,-0.01646126501388878,0.2738890738836731,-0.07049200984163438,180568.6187585834,2.7558926206604,-1.299831538148464,1.355391787776033,-0.03705323114991188,0.2901228070259094,-0.040787722915411,0.1371262967586517,-0.0004964676918461919,-0.07242818176746368,XTrueNorthZVertical,0.5583314959505441,0.3995756436556931,0.5359904402141225,0.4912427120829946,-0.2059434354305267,-0.9768900275230408,-0.05721049010753632,-9.767911911010742,-33.04341506958008,18.55373001098633,2,0.0.0.0,10.83.46.32,1,0
2015-03-01 11:11:58.244,449,1425237114.68655,37.74681037673336,-122.4444591648847,174.5527,-1,-1,10,65,-9999,1425237118.169885,-9.8468017578125,-33.15081787109375,18.81444549560547,173.6331787109375,159.8615570068359,10,180568.6894614584,-0.3537750244140625,-0.9688873291015625,0.004364013671875,180568.6705276667,0.1675868684442883,0.07746949189764199,-0.3215146499736692,180568.6705276667,2.764299867316327,-1.303705070214306,1.362349996617334,0.1469951272010803,0.09370303899049759,-0.2918106913566589,-0.0434856042265892,-0.02915371209383011,0.1404629051685333,XTrueNorthZVertical,0.5567887206243453,0.4033334097921989,0.534956639104832,0.4910496756514389,-0.1996021717786789,-0.9783536195755005,-0.05461696162819862,-9.942655563354492,-33.08559417724609,18.38497734069824,2,0.0.0.0,10.83.46.32,1,0
2015-03-01 11:11:58.306,450,1425237114.68655,37.74681037673336,-122.4444591648847,174.5527,-1,-1,10,65,-9999,1425237118.297256,-9.795661926269531,-33.06585693359375,18.93095397949219,172.9174957275391,159.1458740234375,10,180568.7384126667,-0.242279052734375,-0.95025634765625,0.0228118896484375,180568.7222997917,-0.03974421716001553,0.4362407002570837,-0.3681189037856198,180568.6705276667,2.764299867316327,-1.303705070214306,1.362349996617334,0.1469951272010803,0.09370303899049759,-0.2918106913566589,-0.0434856042265892,-0.02915371209383011,0.1404629051685333,XTrueNorthZVertical,0.5567887206243453,0.4033334097921989,0.534956639104832,0.4910496756514389,-0.1996021717786789,-0.9783536195755005,-0.05461696162819862,-9.942655563354492,-33.08559417724609,18.38497734069824,2,0.0.0.0,10.83.46.32,1,0
2015-03-01 11:11:58.343,451,1425237114.68655,37.74681037673336,-122.4444591648847,174.5527,-1,-1,10,65,-9999,1425237118.297256,-9.795661926269531,-33.06585693359375,18.93095397949219,172.9174957275391,159.1458740234375,10,180568.787502375,-0.0309600830078125,-1.009384155273438,-0.061859130859375,180568.7740716667,0.189489237881318,0.3121778735079604,-0.3091306845886917,180568.7740716667,2.752793179359625,-1.255974462674147,1.396739526626877,0.16889788210392,0.3284111022949219,-0.2794272899627686,0.1005498692393303,-0.01678814738988876,0.03313174843788147,XTrueNorthZVertical,0.5420086416315893,0.4235734663133887,0.5351199390554432,0.4903658944156458,-0.1646672934293747,-0.984890341758728,-0.05362430214881897,-9.393065452575684,-33.26181030273438,18.35599517822266,2,0.0.0.0,10.83.46.32,1,0
2015-03-01 11:11:58.408,452,1425237114.68655,37.74681037673336,-122.4444591648847,174.5527,-1,-1,10,65,-9999,1425237118.401069,-9.249992370605469,-33.20181274414062,18.83110046386719,173.0791931152344,159.3075714111328,10,180568.8365245833,-0.1048126220703125,-0.9809112548828125,-0.0248870849609375,180568.82584075,0.08195824991497054,0.04016020292228591,-0.1344909666295466,180568.7740716667,2.752793179359625,-1.255974462674147,1.396739526626877,0.16889788210392,0.3284111022949219,-0.2794272899627686,0.1005498692393303,-0.01678814738988876,0.03313174843788147,XTrueNorthZVertical,0.5420086416315893,0.4235734663133887,0.5351199390554432,0.4903658944156458,-0.1646672934293747,-0.984890341758728,-0.05362430214881897,-9.393065452575684,-33.26181030273438,18.35599517822266,2,0.0.0.0,10.83.46.32,1,0
2015-03-01 11:11:58.441,453,1425237114.68655,37.74681037673336,-122.4444591648847,174.5527,-1,-1,10,65,-9999,1425237118.401069,-9.249992370605469,-33.20181274414062,18.83110046386719,173.0791931152344,159.3075714111328,10,180568.885611375,0.0485687255859375,-1.07342529296875,0.0250091552734375,180568.8776126667,0.1126181582806168,-0.1391823912058301,0.004534298071968911,180568.8776126667,2.794022528089014,-1.291456591617608,1.408046294086322,0.09202723950147629,-0.1229494884610176,0.03423706814646721,0.1739854961633682,-0.06897019594907761,0.09139803797006607,XTrueNorthZVertical,0.5411835561097852,0.4298634054318439,0.5322516219658843,0.4889232360303694,-0.1557512432336807,-0.9867854118347168,-0.04467562213540077,-9.163480758666992,-33.19511032104492,18.59127807617188,2,0.0.0.0,10.83.46.32,1,0
2015-03-01 11:11:58.509,454,1425237114.68655,37.74681037673336,-122.4444591648847,174.5527,-1,-1,10,65,-9999,1425237118.50458,-9.386405944824219,-32.96392822265625,19.29707336425781,172.6246948242188,158.8530731201172,10,180568.9346569167,-0.0883026123046875,-0.9954681396484375,-0.0545806884765625,180568.92938475,0.008460063834854715,-0.3812922301176968,-0.03197870573745348,180568.8776126667,2.794022528089014,-1.291456591617608,1.408046294086322,0.09202723950147629,-0.1229494884610176,0.03423706814646721,0.1739854961633682,-0.06897019594907761,0.09139803797006607,XTrueNorthZVertical,0.5411835561097852,0.4298634054318439,0.5322516219658843,0.4889232360303694,-0.1557512432336807,-0.9867854118347168,-0.04467562213540077,-9.163480758666992,-33.19511032104492,18.59127807617188,2,0.0.0.0,10.83.46.32,1,0
2015-03-01 11:11:58.539,455,1425237114.68655,37.74681037673336,-122.4444591648847,174.5527,-1,-1,10,65,-9999,1425237118.50458,-9.386405944824219,-32.96392822265625,19.29707336425781,172.6246948242188,158.8530731201172,10,180568.9837416667,-0.129791259765625,-0.9929046630859375,0.035400390625,180568.9811540417,0.01594913913626654,-0.3955270924602793,0.02218786030588616,180568.92938475,2.801821436079469,-1.308363047682702,1.409706691570946,-0.01211019046604633,-0.3651618659496307,-0.002257573418319225,0.1165868490934372,-0.01792126707732677,-0.009185473434627056,XTrueNorthZVertical,0.5437616326650037,0.4283897396997569,0.5290889430422555,0.4907854079541391,-0.1549016684293747,-0.9870530962944031,-0.04161103442311287,-9.07799243927002,-33.13222503662109,18.7447566986084,2,0.0.0.0,10.83.46.32,1,0
2015-03-01 11:11:58.604,456,1425237114.68655,37.74681037673336,-122.4444591648847,174.5527,-1,-1,10,65,-9999,1425237118.556877,-8.789596557617188,-32.87896728515625,19.31371307373047,173.8680877685547,160.0964660644531,10,180569.0327852917,-0.04254150390625,-1.013717651367188,-0.05767822265625,180568.9811540417,0.01594913913626654,-0.3955270924602793,0.02218786030588616,180568.9811540417,2.804370213775331,-1.332564922580453,1.40837429034296,-0.004620929248631001,-0.3793968856334686,0.05190872400999069,0.01984255947172642,-0.01548082195222378,0.08968956023454666,XTrueNorthZVertical,0.5497813021320586,0.4226821577200852,0.5234889611847626,0.4950146759820226,-0.1571411490440369,-0.9868385195732117,-0.03816062584519386,-8.774883270263672,-33.13419342041016,18.88510131835938,2,0.0.0.0,10.83.46.32,1,0
2015-03-01 11:11:58.637,457,1425237114.68655,37.74681037673336,-122.4444591648847,174.5527,-1,-1,10,65,-9999,1425237118.608431,-8.295089721679688,-32.72602844238281,19.1639404296875,174.9325714111328,161.1609497070312,10,180569.0818765,-0.188751220703125,-0.9710845947265625,0.04296875,180569.08469775,-0.0006074670446470742,-0.6974496652425626,0.04329500984141817,180569.0329257917,2.805540007828046,-1.34619867704782,1.406650506391131,-0.01788324490189552,-0.2214415073394775,0.03204308077692986,0.1167634353041649,-0.02715935558080673,-0.02128469385206699,XTrueNorthZVertical,0.5533485862056379,0.4190567717828214,0.5205186044006476,0.4972494898828975,-0.1593049317598343,-0.9865583181381226,-0.03639352694153786,-8.452372550964355,-33.11075592041016,19.07238006591797,2,0.0.0.0,10.83.46.32,1,0
2015-03-01 11:11:58.678,458,1425237114.68655,37.74681037673336,-122.4444591648847,174.5527,-1,-1,10,65,-9999,1425237118.66034,-7.715324401855469,-32.760009765625,19.66319274902344,176.6386108398438,162.8669891357422,10,180569.1309310417,-0.1236419677734375,-1.023895263671875,-0.02593994140625,180569.08469775,-0.0006074670446470742,-0.6974496652425626,0.04329500984141817,180569.08469775,2.803187346977029,-1.368437920076195,1.404062410186304,-0.02117710374295712,-0.6813198328018188,0.0730152502655983,-0.02617570385336876,0.01504747848957777,0.07632380723953247,XTrueNorthZVertical,0.5599804410778946,0.4120004590350588,0.5144867082475503,0.5019769546010304,-0.1625755131244659,-0.9861320853233337,-0.03335505351424217,-8.25117015838623,-33.11280059814453,19.15675163269043,2,0.0.0.0,10.83.46.32,1,0
2015-03-01 11:11:58.735,459,1425237114.68655,37.74681037673336,-122.4444591648847,174.5527,-1,-1,10,65,-9999,1425237118.711723,-7.544815063476562,-32.99790954589844,19.79632568359375,177.4649810791016,163.693359375,10,180569.1800243334,-0.1060638427734375,-0.98883056640625,0.04156494140625,180569.1882391667,-0.06812232910368188,-0.4914344475328669,0.1580897696809567,180569.1364670834,2.791187333008091,-1.379173715508166,1.398626997374429,-0.097610704600811,-0.227298378944397,0.1411990970373154,0.04454177618026733,-0.0386798270046711,0.006688207853585482,XTrueNorthZVertical,0.5659980671940301,0.4041436789323092,0.5100006421567852,0.506175195224109,-0.1681837439537048,-0.985215425491333,-0.03262814879417419,-7.819931030273438,-33.10924911499023,19.34287071228027,2,0.0.0.0,10.83.46.32,1,0
2015-03-01 11:11:58.777,460,1425237114.68655,37.74681037673336,-122.4444591648847,174.5527,-1,-1,10,65,-9999,1425237118.764091,-7.527763366699219,-33.15083312988281,19.84625244140625,177.9705352783203,164.1989135742188,10,180569.2290765833,-0.2015228271484375,-0.992919921875,-0.005889892578125,180569.1882391667,-0.06812232910368188,-0.4914344475328669,0.1580897696809567,180569.1882391667,2.770398124196118,-1.374494081924353,1.388416311912074,-0.08869156986474991,-0.475304901599884,0.1878094524145126,0.07182299345731735,-0.005415752530097961,0.07694008946418762,XTrueNorthZVertical,0.570470141825689,0.3960760588367383,0.5089918539576171,0.5085418115114435,-0.1778868436813354,-0.9834148287773132,-0.03537514433264732,-7.768507957458496,-33.15603256225586,19.28335952758789,2,0.0.0.0,10.83.46.32,1,0
2015-03-01 11:11:58.834,461,1425237114.68655,37.74681037673336,-122.4444591648847,174.5527,-1,-1,10,65,-9999,1425237118.816109,-7.340202331542969,-33.23579406738281,19.86289215087891,178.5715484619141,164.7999267578125,10,180569.278261,-0.2618560791015625,-0.9517822265625,0.00958251953125,180569.2400109167,-0.08272044661895121,-0.3279504450639547,0.01698936985805149,180569.2400109167,2.755393359910348,-1.377921776611798,1.385407083809247,-0.1032894626259804,-0.3118210732936859,0.04670871794223785,-0.09750117361545563,-0.009765428490936756,0.01639612764120102,XTrueNorthZVertical,0.5747191505654395,0.3899124967118027,0.505048538384456,0.5124373379310396,-0.1809106916189194,-0.9828645586967468,-0.03533228486776352,-7.593949317932129,-33.17177200317383,19.32577896118164,2,0.0.0.0,10.83.46.32,1,0
2015-03-01 11:11:58.877,462,1425237114.68655,37.74681037673336,-122.4444591648847,174.5527,-1,-1,10,65,-9999,1425237118.867734,-6.862747192382812,-33.0318603515625,19.62991333007812,179.877685546875,166.1060638427734,10,180569.3271985,-0.14935302734375,-0.992584228515625,-0.1012115478515625,180569.2917803334,-0.01194188064402431,-0.0608503014311115,-0.05471038353793382,180569.2917803334,2.730677696613584,-1.363921703650562,1.381287333109325,-0.03251069411635399,-0.04472107440233231,-0.02499133348464966,-0.01791089586913586,-0.009419265203177929,0.0539821945130825,XTrueNorthZVertical,0.5765481317176635,0.3850270223240092,0.5039243010393865,0.5151763302636899,-0.184359610080719,-0.9820968508720398,-0.0386928878724575,-7.404589653015137,-33.24855804443359,19.2672233581543,2,0.0.0.0,10.83.46.32,1,0
2015-03-01 11:11:58.931,463,1425237114.68655,37.74681037673336,-122.4444591648847,174.5527,-1,-1,10,65,-9999,1425237118.919896,-6.53875732421875,-32.94688415527344,19.41357421875,180.5889892578125,166.8173675537109,10,180569.376393875,-0.23297119140625,-0.9385223388671875,0.0036163330078125,180569.3435521667,-0.06450469107891824,0.094241281494634,-0.1025668556944397,180569.3435521667,2.702800470869367,-1.329660886338398,1.385545634701786,-0.085073322057724,0.110370360314846,-0.07284806668758392,-0.01345846708863974,-5.056802547187544e-05,-0.06569402664899826,XTrueNorthZVertical,0.5727282707586013,0.3872844597463956,0.5053254593971513,0.5163711492199001,-0.1788633167743683,-0.9828901290893555,-0.04398614913225174,-7.31899356842041,-33.35798263549805,19.11014366149902,2,0.0.0.0,10.83.46.32,1,0
2015-03-01 11:11:58.978,464,1425237114.68655,37.74681037673336,-122.4444591648847,174.5527,-1,-1,10,65,-9999,1425237118.971213,-6.913902282714844,-33.32070922851562,19.513427734375,179.9836120605469,166.2119903564453,10,180569.4254536667,-0.1157684326171875,-1.03948974609375,-0.0450592041015625,180569.39532425,0.030954453982209,-0.05081657570812897,-0.1002994403423463,180569.39532425,2.69171743929415,-1.323533048888488,1.388674567856168,0.01038603112101555,-0.03468766063451767,-0.07058095186948776,-0.04199791699647903,0.02652192302048206,0.07557843625545502,XTrueNorthZVertical,0.5729360114077389,0.3867558791026035,0.5032811912858993,0.5185288495912521,-0.1756076812744141,-0.9834616184234619,-0.04432843253016472,-7.233834266662598,-33.44303131103516,18.99357223510742,2,0.0.0.0,10.83.46.32,1,0
2015-03-01 11:11:59.029,465,1425237114.68655,37.74681037673336,-122.4444591648847,174.5527,-1,-1,10,65,-9999,1425237119.02328,-7.101470947265625,-33.5416259765625,19.06410217285156,179.350341796875,165.5787200927734,10,180569.4744084167,-0.058502197265625,-0.96075439453125,-0.0754241943359375,180569.4470934167,-0.03902116892405901,0.3312168121409368,-0.2382549132339769,180569.4470934167,2.671867195304092,-1.29023863080228,1.395470542479441,-0.05958936363458633,0.3473455607891083,-0.2085367441177368,0.09079574793577194,-0.0412244014441967,-0.02904903516173363,XTrueNorthZVertical,0.567585421109383,0.3920432459126177,0.5055838356978305,0.5182024476093005,-0.1676084846258163,-0.9846697449684143,-0.04829776659607887,-7.106300354003906,-33.47348403930664,18.98807334899902,2,0.0.0.0,10.83.46.32,1,0
2015-03-01 11:11:59.077,466,1425237114.68655,37.74681037673336,-122.4444591648847,174.5527,-1,-1,10,65,-9999,1425237119.075021,-6.487602233886719,-33.88153076171875,19.06409454345703,180.332763671875,166.5611419677734,10,180569.52345375,-0.1656951904296875,-1.034027099609375,-0.04583740234375,180569.4988655,0.06862912865912395,-0.1930477537298818,-0.1701690694372291,180569.4988655,2.655517469599025,-1.273184457616188,1.40438707722527,0.04806113988161087,-0.176919162273407,-0.1404512077569962,0.07552009075880051,-0.004201059695333242,0.02600469067692757,XTrueNorthZVertical,0.5654785128331692,0.39490230690422,0.5034500977983085,0.5204076547298322,-0.1583600640296936,-0.9861859083175659,-0.04857243970036507,-6.985695838928223,-33.60057067871094,18.8074951171875,2,0.0.0.0,10.83.46.32,1,0
2015-03-01 11:11:59.127,467,1425237114.68655,37.74681037673336,-122.4444591648847,174.5527,-1,-1,10,65,-9999,1425237119.075021,-6.487602233886719,-33.88153076171875,19.06409454345703,180.332763671875,166.5611419677734,10,180569.5725434583,-0.0597076416015625,-0.9820709228515625,0.01702880859375,180569.5506373333,-0.02093777249020297,-0.01320395268461286,-0.2308161716771676,180569.5506373333,2.641853387094447,-1.263730516195478,1.412313095007015,-0.04150557890534401,0.002924480941146612,-0.2010985761880875,0.03160252422094345,-0.02368637919425964,0.04394950717687607,XTrueNorthZVertical,0.5649283293694637,0.3962378044458172,0.5001158572870665,0.5231974988879688,-0.150437980890274,-0.9874678254127502,-0.04770316928625107,-6.646642684936523,-33.6121826171875,18.90935516357422,2,0.0.0.0,10.83.46.32,1,0
2015-03-01 11:11:59.178,468,1425237114.68655,37.74681037673336,-122.4444591648847,174.5527,-1,-1,10,65,-9999,1425237119.127567,-5.703224182128906,-33.67759704589844,19.03081512451172,181.9121856689453,168.1405639648438,10,180569.6215825,-0.01995849609375,-1.020858764648438,-0.02313232421875,180569.60240675,0.02601402384400301,-0.04912573473203766,-0.1284671625598963,180569.5506373333,2.641853387094447,-1.263730516195478,1.412313095007015,-0.04150557890534401,0.002924480941146612,-0.2010985761880875,0.03160252422094345,-0.02368637919425964,0.04394950717687607,XTrueNorthZVertical,0.5649283293694637,0.3962378044458172,0.5001158572870665,0.5231974988879688,-0.150437980890274,-0.9874678254127502,-0.04770316928625107,-6.646642684936523,-33.6121826171875,18.90935516357422,2,0.0.0.0,10.83.46.32,1,0
2015-03-01 11:11:59.225,469,1425237114.68655,37.74681037673336,-122.4444591648847,174.5527,-1,-1,10,65,-9999,1425237119.179813,-5.49859619140625,-33.54165649414062,18.86440277099609,182.2591247558594,168.4875030517578,10,180569.6706537083,0.039398193359375,-1.019760131835938,-0.0756683349609375,180569.6541785834,0.01175439410328273,0.0733597017034317,-0.12664076668432,180569.6541785834,2.626509739914525,-1.249705983566695,1.449393680116751,-0.008776684291660786,0.08948326855897903,-0.09701904654502869,0.1040044948458672,-0.03432253375649452,-0.006563982460647821,XTrueNorthZVertical,0.5604704286559169,0.4083657881410425,0.4884345499924029,0.5296620437606752,-0.1149145290255547,-0.9926397204399109,-0.03822056204080582,-5.298530101776123,-33.67459487915039,19.22154426574707,2,0.0.0.0,10.83.46.32,1,0
2015-03-01 11:11:59.277,470,1425237114.68655,37.74681037673336,-122.4444591648847,174.5527,-1,-1,10,65,-9999,1425237119.231781,-5.515647888183594,-33.28677368164062,18.81448364257812,181.7189331054688,167.9473114013672,10,180569.719807875,-0.075836181640625,-1.010528564453125,-0.0116424560546875,180569.7059507083,0.07302813814771685,-0.2947703873587664,-0.02082378919554758,180569.7059507083,2.626510120069916,-1.252919739713762,1.451092260855464,0.05249724537134171,-0.2786469757556915,0.008797666989266872,0.1173259690403938,-0.01769980415701866,-0.01412861980497837,XTrueNorthZVertical,0.5610662913939666,0.4080963219961872,0.4869972299290707,0.530561603609643,-0.1134349778294563,-0.9928440451622009,-0.03732401877641678,-5.216853141784668,-33.6986083984375,19.2017879486084,2,0.0.0.0,10.83.46.32,1,0
2015-03-01 11:11:59.324,471,1425237114.68655,37.74681037673336,-122.4444591648847,174.5527,-1,-1,10,65,-9999,1425237119.282735,-5.396278381347656,-33.30377197265625,19.09739685058594,181.9432220458984,168.1716003417969,10,180569.768787875,-0.12872314453125,-1.00665283203125,-0.01971435546875,180569.75772,0.09345218686364352,-0.2157330925273948,0.02851872684922253,180569.7059507083,2.626510120069916,-1.252919739713762,1.451092260855464,0.05249724537134171,-0.2786469757556915,0.008797666989266872,0.1173259690403938,-0.01769980415701866,-0.01412861980497837,XTrueNorthZVertical,0.5610662913939666,0.4080963219961872,0.4869972299290707,0.530561603609643,-0.1134349778294563,-0.9928440451622009,-0.03732401877641678,-5.216853141784668,-33.6986083984375,19.2017879486084,2,0.0.0.0,10.83.46.32,1,0
2015-03-01 11:11:59.363,472,1425237114.68655,37.74681037673336,-122.4444591648847,174.5527,-1,-1,10,65,-9999,1425237119.334821,-4.850624084472656,-33.64361572265625,19.46352386474609,183.4075164794922,169.6358947753906,10,180569.8178412917,-0.0831298828125,-0.9987335205078125,-0.0052490234375,180569.8094919584,0.0228073115754386,-0.1078436430783227,0.0650644875400529,180569.75772,2.65527129195745,-1.295019446615912,1.450229057013696,0.0729214996099472,-0.1996098309755325,0.05813988670706749,-0.01328312233090401,-0.001277987728826702,-0.0009717947687022388,XTrueNorthZVertical,0.5655324348416011,0.404719656827667,0.4830506260898808,0.5320122796537875,-0.1157299354672432,-0.9927405714988708,-0.03275012969970703,-4.966536045074463,-33.6430778503418,19.36484527587891,2,0.0.0.0,10.83.46.32,1,0
2015-03-01 11:11:59.422,473,1425237114.68655,37.74681037673336,-122.4444591648847,174.5527,-1,-1,10,65,-9999,1425237119.386352,-5.259864807128906,-33.779541015625,19.66322326660156,182.8614044189453,169.0897827148438,10,180569.8669309167,-0.111358642578125,-1.001296997070312,9.1552734375e-05,180569.8612638334,0.04412724768206794,0.023560187215604,0.0971819439702995,180569.8612638334,2.693203673576509,-1.339800556582136,1.441436957954316,0.02359699085354805,0.03968311473727226,0.1268024891614914,0.006690642796456814,-0.007622840348631144,0.0371631421148777,XTrueNorthZVertical,0.5698403183840981,0.4006434056402534,0.4831201873786159,0.530435355304452,-0.1255718618631363,-0.9916447401046753,-0.02953374572098255,-5.010679244995117,-33.5456428527832,19.52186584472656,2,0.0.0.0,10.83.46.32,1,0
2015-03-01 11:11:59.461,474,1425237114.68655,37.74681037673336,-122.4444591648847,174.5527,-1,-1,10,65,-9999,1425237119.438614,-5.208702087402344,-33.21878051757812,19.48015594482422,182.8951873779297,169.1235656738281,10,180569.9160853333,-0.048431396484375,-0.9936676025390625,0.0012054443359375,180569.8612638334,0.04412724768206794,0.023560187215604,0.0971819439702995,180569.8612638334,2.693203673576509,-1.339800556582136,1.441436957954316,0.02359699085354805,0.03968311473727226,0.1268024891614914,0.006690642796456814,-0.007622840348631144,0.0371631421148777,XTrueNorthZVertical,0.5698403183840981,0.4006434056402534,0.4831201873786159,0.530435355304452,-0.1255718618631363,-0.9916447401046753,-0.02953374572098255,-5.010679244995117,-33.5456428527832,19.52186584472656,2,0.0.0.0,10.83.46.32,1,0
2015-03-01 11:11:59.520,475,1425237114.68655,37.74681037673336,-122.4444591648847,174.5527,-1,-1,10,65,-9999,1425237119.490067,-5.481536865234375,-32.81094360351562,19.61329650878906,182.2677459716797,168.4961242675781,10,180569.965074,-0.1246185302734375,-1.003448486328125,0.0045318603515625,180569.9648050833,0.06166389714413071,0.1833668968513348,0.2533569008274892,180569.9130332917,2.721234502298461,-1.362800343609795,1.434876752604799,0.03928516060113907,0.09217039495706558,0.165845200419426,0.06380895525217056,-0.0117863304913044,0.01617054454982281,XTrueNorthZVertical,0.5707037356560233,0.4003833442761932,0.4859521010118563,0.5271061447236732,-0.1325803101062775,-0.9907771348953247,-0.02798084728419781,-5.343698024749756,-33.46656799316406,19.5692081451416,2,0.0.0.0,10.83.46.32,1,0
2015-03-01 11:11:59.559,476,1425237114.68655,37.74681037673336,-122.4444591648847,174.5527,-1,-1,10,65,-9999,1425237119.542036,-6.078353881835938,-32.5560302734375,19.82962799072266,181.0401000976562,167.2684783935547,10,180570.0141206667,-0.2039337158203125,-0.88134765625,-0.03961181640625,180570.0165772084,0.1019865528929114,0.05049273531957534,0.5942449824670488,180569.9648050833,2.758570556412762,-1.391729070193562,1.436384345550234,0.04116716235876083,0.199396625161171,0.2829655408859253,0.02598347887396812,-0.01397880539298058,0.002338071120902896,XTrueNorthZVertical,0.5700122187617744,0.4039207337823138,0.4870671314995205,0.5241179535607277,-0.1318642199039459,-0.990980327129364,-0.02386822178959846,-5.426681518554688,-33.37860870361328,19.69618988037109,2,0.0.0.0,10.83.46.32,1,0
2015-03-01 11:11:59.620,477,1425237114.68655,37.74681037673336,-122.4444591648847,174.5527,-1,-1,10,65,-9999,1425237119.593424,-7.2208251953125,-32.8109130859375,20.01268005371094,178.8559265136719,165.0843048095703,10,180570.063203,-0.130157470703125,-0.9523468017578125,-0.16741943359375,180570.0165772084,0.1019865528929114,0.05049273531957534,0.5942449824670488,180570.0165772084,2.822372103341895,-1.450015206879114,1.411845232134887,0.08150766044855118,0.06652137637138367,0.6238710284233093,-0.04680478572845459,0.1060461923480034,-0.02054078131914139,XTrueNorthZVertical,0.5754188365215888,0.3991962486638716,0.4939999586128405,0.5152664039777529,-0.1571289300918579,-0.987393856048584,-0.01907103508710861,-5.958196640014648,-33.28140640258789,19.70706367492676,2,0.0.0.0,10.83.46.32,1,0
2015-03-01 11:11:59.657,478,1425237114.68655,37.74681037673336,-122.4444591648847,174.5527,-1,-1,10,65,-9999,1425237119.645334,-8.721389770507812,-32.77693176269531,19.87956237792969,176.08349609375,162.3118743896484,10,180570.1123531667,-0.174560546875,-0.74395751953125,0.09967041015625,180570.0683465833,-0.1323929283227822,0.4582714340586552,0.996592963111239,180570.0683465833,2.840240992543971,-1.446209862935182,1.367237464943023,-0.1528726816177368,0.4743000864982605,1.026221752166748,0.07043119519948959,0.02700653485953808,-0.142298698425293,XTrueNorthZVertical,0.5782928890252576,0.3911738288388448,0.5119571359724137,0.500459958048716,-0.2005886733531952,-0.9793533086776733,-0.02512074075639248,-7.796014785766602,-32.86651992797852,19.76193618774414,2,0.0.0.0,10.83.46.32,1,0
2015-03-01 11:11:59.716,479,1425237114.68655,37.74681037673336,-122.4444591648847,174.5527,-1,-1,10,65,-9999,1425237119.696974,-10.98927307128906,-32.21614074707031,19.13068389892578,172.1736145019531,158.4019927978516,10,180570.1614686667,-0.30731201171875,-0.756378173828125,0.18585205078125,180570.1718904584,-0.3347377774181306,0.5232815931124705,2.151248265344207,180570.1201185,2.811876008062432,-1.418519727911035,1.296401864323768,-0.4891930222511292,0.1102516800165176,1.71367359161377,0.09326772391796112,0.2186319380998611,0.1407725811004639,XTrueNorthZVertical,0.5873253160964207,0.3667395407624496,0.5321963589667671,0.4871529804537001,-0.2678282558917999,-0.96258944272995,-0.04110216349363327,-9.679737091064453,-32.59300231933594,19.37831878662109,2,0.0.0.0,10.83.46.32,1,0
2015-03-01 11:11:59.756,480,1425237114.68655,37.74681037673336,-122.4444591648847,174.5527,-1,-1,10,65,-9999,1425237119.749257,-14.57015228271484,-30.99266052246094,18.49830627441406,165.9854278564453,152.2138061523438,10,180570.2104875,-0.2461395263671875,-0.9577178955078125,-0.2123260498046875,180570.1718904584,-0.3347377774181306,0.5232815931124705,2.151248265344207,180570.1718904584,2.804389533796457,-1.404407839202367,1.195035530586948,-0.3552171289920807,0.5393099188804626,2.180876493453979,0.1108590215444565,0.2157053798437119,0.2214091867208481,XTrueNorthZVertical,0.5984884369386064,0.3337987969577855,0.5612202060955654,0.4641354789489702,-0.3619118928909302,-0.9302287101745605,-0.06077990680932999,-12.2291955947876,-32.09593963623047,18.75681114196777,2,0.0.0.0,10.83.46.32,1,0
2015-03-01 11:11:59.815,481,1425237114.68655,37.74681037673336,-122.4444591648847,174.5527,-1,-1,10,65,-9999,1425237119.800848,-19.07183074951172,-29.02143859863281,17.30009460449219,156.7597503662109,142.9881286621094,10,180570.25947225,-0.196502685546875,-0.6713409423828125,-0.0970611572265625,180570.223659625,-0.5677020548305561,1.081850603300709,2.362636144237029,180570.223659625,2.807223180662477,-1.358069024197454,1.078227632857787,-0.58818119764328,1.097878813743591,2.392264127731323,0.2361873537302017,-0.09527359902858734,-0.1396316885948181,XTrueNorthZVertical,0.5979276651176776,0.3042410831336207,0.6048411423844658,0.4290535766643577,-0.4622310400009155,-0.881121039390564,-0.09983973950147629,-17.06929969787598,-30.53715515136719,17.53971099853516,2,0.0.0.0,10.83.46.32,1,0
2015-03-01 11:11:59.854,482,1425237114.68655,37.74681037673336,-122.4444591648847,174.5527,-1,-1,10,65,-9999,1425237119.800848,-19.07183074951172,-29.02143859863281,17.30009460449219,156.7597503662109,142.9881286621094,10,180570.3085312917,-0.522979736328125,-0.7594757080078125,-0.1166534423828125,180570.275431625,-0.7450126570469416,-0.02596022798998341,2.553607697581084,180570.275431625,2.794248785134327,-1.325076467188573,0.9449623053615344,-0.7654916048049927,-0.009932199493050575,2.583235263824463,0.249483048915863,0.09828612953424454,0.06982970982789993,XTrueNorthZVertical,0.6014922003053165,0.2587684319257003,0.6431194229576987,0.3970432570564068,-0.568178117275238,-0.8104748725891113,-0.1424920558929443,-21.01503753662109,-28.90069770812988,15.95738410949707,2,0.0.0.0,10.83.46.32,1,0
2015-03-01 11:11:59.912,483,1425237114.68655,37.74681037673336,-122.4444591648847,174.5527,-1,-1,10,65,-9999,1425237119.90455,-28.27980804443359,-23.78755187988281,13.63895416259766,139.1215209960938,125.3498916625977,10,180570.357624125,-0.6884613037109375,-0.6187896728515625,-0.20220947265625,180570.3272037917,-0.8439506894400395,0.541752745801042,3.116808743853298,180570.3272037917,2.786830987928597,-1.304527794228946,0.7947175892706378,-0.8644294738769531,0.5577806234359741,3.146435976028442,0.1565136313438416,0.0238464716821909,0.1093395724892616,XTrueNorthZVertical,0.6051787135433094,0.2039561092982551,0.6798469739631986,0.3605116235239652,-0.6758007407188416,-0.713665783405304,-0.184321254491806,-24.45288276672363,-26.71466255187988,14.82914924621582,2,0.0.0.0,10.83.46.32,1,0
2015-03-01 11:11:59.952,484,1425237114.68655,37.74681037673336,-122.4444591648847,174.5527,-1,-1,10,65,-9999,1425237119.90455,-28.27980804443359,-23.78755187988281,13.63895416259766,139.1215209960938,125.3498916625977,10,180570.4067969584,-0.919525146484375,-0.54443359375,-0.1832733154296875,180570.378973125,-0.848069534381956,0.6163217889554787,3.155299144772104,180570.378973125,2.793197795853515,-1.275911493055374,0.6293340161323023,-0.8685480952262878,0.6323494911193848,3.184926271438599,0.04210987687110901,-0.05377326533198357,0.1006733700633049,XTrueNorthZVertical,0.6008331636133967,0.1467111226978261,0.7203645621171261,0.3139270013453466,-0.7735247015953064,-0.5886064767837524,-0.2349507063627243,-29.55183410644531,-22.33678817749023,12.62050914764404,2,0.0.0.0,10.83.46.32,1,0
2015-03-01 11:12:00.010,485,1425237114.68655,37.74681037673336,-122.4444591648847,174.5527,-1,-1,10,65,-9999,1425237119.956642,-32.26993560791016,-19.5052490234375,11.84165191650391,129.8305206298828,116.0588912963867,10,180570.4557622917,-0.83538818359375,-0.4209747314453125,-0.3650970458984375,180570.4307449167,-0.8409919174689614,1.057227282177945,3.085442032534345,180570.4307449167,2.802261882969279,-1.235648427520603,0.4664468225838105,-0.8614702224731445,1.073254823684692,3.115068912506104,-0.168546736240387,-0.04199894517660141,-0.05313647538423538,XTrueNorthZVertical,0.5872983342850926,0.09052413742500702,0.7590791215036111,0.2658662124745066,-0.843477189540863,-0.4497155249118805,-0.2937721014022827,-32.84702301025391,-18.32661819458008,10.80409526824951,2,0.0.0.0,10.83.46.32,1,0
2015-03-01 11:12:00.050,486,1425237114.68655,37.74681037673336,-122.4444591648847,174.5527,-1,-1,10,65,-9999,1425237120.010583,-36.61815643310547,-13.91445922851562,9.595024108886719,119.9985961914062,106.2269744873047,10,180570.5048234584,-0.943328857421875,-0.2830352783203125,-0.4442138671875,180570.4825169583,-0.9331601943710778,0.652933862357452,2.951475176007325,180570.4825169583,2.813959739829945,-1.194959558059442,0.3120028360227395,-0.9536383152008057,0.668961226940155,2.981101512908936,0.1233283951878548,-0.08732172101736069,0.009471014142036438,XTrueNorthZVertical,0.569237768509618,0.03610195827554823,0.7915276671963912,0.2194285125554988,-0.8852912783622742,-0.3069653809070587,-0.3493300378322601,-35.53019332885742,-13.98448944091797,8.576698303222656,2,0.0.0.0,10.83.46.32,1,0
2015-03-01 11:12:00.110,487,1425237114.68655,37.74681037673336,-122.4444591648847,174.5527,-1,-1,10,65,-9999,1425237120.101469,-41.35854339599609,-5.04400634765625,6.066993713378906,106.9488677978516,93.17724609375,10,180570.5539118334,-1.185165405273438,-0.090911865234375,-0.3739013671875,180570.53428625,-0.992252809482737,0.2628286995604651,2.821983229059967,180570.53428625,2.822782676372968,-1.176855856817301,0.1562028962085806,-1.012731075286865,0.2788559794425964,2.851609230041504,-0.05948779731988907,-0.07747901976108551,-0.0254909060895443,XTrueNorthZVertical,0.5566480692073568,-0.02375850440257438,0.8118908139055527,0.1743894359210785,-0.9121613502502441,-0.155568465590477,-0.3791569173336029,-37.75152587890625,-7.886570930480957,6.644133567810059,2,0.0.0.0,10.83.46.32,1,0
2015-03-01 11:12:00.149,488,1425237114.68655,37.74681037673336,-122.4444591648847,174.5527,-1,-1,10,65,-9999,1425237120.101469,-41.35854339599609,-5.04400634765625,6.066993713378906,106.9488677978516,93.17724609375,10,180570.60307,-0.882537841796875,0.1541595458984375,-0.692901611328125,180570.5860584583,-0.8909661353242984,0.7308789948257821,2.434460267255921,180570.5860584583,2.831923366870579,-1.156146933955152,0.0169674679808979,-0.9114441275596619,0.7469061017036438,2.464085817337036,-0.05379201844334602,0.05187876150012016,-0.05158043280243874,XTrueNorthZVertical,0.5409510734649426,-0.07724255808636292,0.8267529890063208,0.1337345395002133,-0.915125846862793,-0.01696665398776531,-0.4028110504150391,-38.54162216186523,-3.394109010696411,5.877379417419434,2,0.0.0.0,10.83.46.32,1,0
2015-03-01 11:12:00.212,489,1425237114.68655,37.74681037673336,-122.4444591648847,174.5527,-1,-1,10,65,-9999,1425237120.163956,-43.76287078857422,2.99383544921875,4.119918823242188,98.20626068115234,84.43463897705078,10,180570.65204425,-1.248931884765625,0.277435302734375,-0.3029022216796875,180570.63783025,-1.117131362473752,0.09378534831601244,1.758612300563318,180570.63783025,2.82343279066839,-1.148796888038322,-0.1028245025445912,-1.137609124183655,0.1098122969269753,1.788237690925598,-0.3604452013969421,0.07147463411092758,-0.01005852967500687,XTrueNorthZVertical,0.5289264474464024,-0.1285528825308645,0.8322467808290546,0.1052434032765386,-0.9074533581733704,0.1026434078812599,-0.4074219465255737,-38.80176544189453,0.5532481670379639,5.063335418701172,2,0.0.0.0,10.83.46.32,3,0
2015-03-01 11:12:00.246,490,1425237114.68655,37.74681037673336,-122.4444591648847,174.5527,-1,-1,10,65,-9999,1425237120.216076,-44.20621490478516,7.58203125,3.021568298339844,93.58473205566406,79.8131103515625,10,180570.70120175,-0.78533935546875,0.32415771484375,-0.4476776123046875,180570.68959975,-0.2762859188647445,0.3527804274873084,1.62702098372865,180570.63783025,2.82343279066839,-1.148796888038322,-0.1028245025445912,-1.137609124183655,0.1098122969269753,1.788237690925598,-0.3604452013969421,0.07147463411092758,-0.01005852967500687,XTrueNorthZVertical,0.5289264474464024,-0.1285528825308645,0.8322467808290546,0.1052434032765386,-0.9074533581733704,0.1026434078812599,-0.4074219465255737,-38.80176544189453,0.5532481670379639,5.063335418701172,2,0.0.0.0,10.83.46.32,3,0
2015-03-01 11:12:00.312,491,1425237114.68655,37.74681037673336,-122.4444591648847,174.5527,-1,-1,10,65,-9999,1425237120.268697,-44.03569793701172,11.69436645507812,2.355911254882812,89.36454772949219,75.59292602539062,10,180570.7501788333,-1.00335693359375,0.4129180908203125,-0.5238494873046875,180570.741371625,-0.6338059741440669,0.3153094846337846,1.037798190445272,180570.741371625,2.840317830285081,-1.108277701028314,-0.2617505866246586,-0.654283344745636,0.331336110830307,1.067422986030579,-0.114433117210865,0.06942939013242722,-0.1169227436184883,XTrueNorthZVertical,0.4991495214901366,-0.1880085075899457,0.8438397170317281,0.05862590535421502,-0.8644487261772156,0.2587718963623047,-0.4310051202774048,-38.29613494873047,6.967337131500244,4.047532081604004,2,0.0.0.0,10.83.46.32,3,0
2015-03-01 11:12:00.345,492,1425237114.68655,37.74681037673336,-122.4444591648847,174.5527,-1,-1,10,65,-9999,1425237120.319227,-43.7799072265625,14.668212890625,1.840011596679688,87.07551574707031,73.30389404296875,10,180570.7993320833,-0.8440093994140625,0.412200927734375,-0.4579620361328125,180570.79314375,-0.1008901294721258,0.3094489323389562,0.8082494171308732,180570.741371625,2.840317830285081,-1.108277701028314,-0.2617505866246586,-0.654283344745636,0.331336110830307,1.067422986030579,-0.114433117210865,0.06942939013242722,-0.1169227436184883,XTrueNorthZVertical,0.4991495214901366,-0.1880085075899457,0.8438397170317281,0.05862590535421502,-0.8644487261772156,0.2587718963623047,-0.4310051202774048,-38.29613494873047,6.967337131500244,4.047532081604004,2,0.0.0.0,10.83.46.32,3,0
2015-03-01 11:12:00.405,493,1425237114.68655,37.74681037673336,-122.4444591648847,174.5527,-1,-1,10,65,-9999,1425237120.370753,-43.25130462646484,16.41848754882812,1.457260131835938,85.84019470214844,72.06857299804688,10,180570.8482987084,-0.7171783447265625,0.4254913330078125,-0.4317626953125,180570.8449129583,-0.2407513604398172,0.2736957283885334,0.6907518151010132,180570.79314375,2.848116898089446,-1.090173428356461,-0.3097530230896066,-0.1213673055171967,0.3254753947257996,0.8378739356994629,-0.03037025034427643,0.1391768157482147,-0.0329684279859066,XTrueNorthZVertical,0.4874949855825257,-0.2053881521355298,0.8474623801960888,0.04440460218766399,-0.8445076942443848,0.3048234283924103,-0.4403286874294281,-37.96818923950195,8.721485137939453,3.724605560302734,2,0.0.0.0,10.83.46.32,3,0
2015-03-01 11:12:00.443,494,1425237114.68655,37.74681037673336,-122.4444591648847,174.5527,-1,-1,10,65,-9999,1425237120.423517,-42.7908935546875,17.96487426757812,1.1077880859375,84.29015350341797,70.51853179931641,10,180570.897381625,-0.95562744140625,0.509185791015625,-0.5296173095703125,180570.8449129583,-0.2407513604398172,0.2736957283885334,0.6907518151010132,180570.8449129583,2.858356524466227,-1.070287482166129,-0.3477372120751039,-0.2612283527851105,0.2897220551967621,0.7203760147094727,0.09043616056442261,0.05070816352963448,0.0374382957816124,XTrueNorthZVertical,0.4762439749166409,-0.2182126339406119,0.8511962997802478,0.03224423256230356,-0.8248264193534851,0.3407713174819946,-0.4511498510837555,-37.56913375854492,10.52334499359131,3.056090354919434,2,0.0.0.0,10.83.46.32,3,0
2015-03-01 11:12:00.508,495,1425237114.68655,37.74681037673336,-122.4444591648847,174.5527,-1,-1,10,65,-9999,1425237120.474019,-42.53511810302734,19.44329833984375,1.091148376464844,83.01450347900391,69.24288177490234,10,180570.9464506667,-0.7021026611328125,0.5291290283203125,-0.492095947265625,180570.9484569583,0.006327937066137278,-0.04923865276225702,-0.1883661828496316,180570.8966850417,2.862397847288605,-1.068989461225676,-0.377542442346725,-0.1904280036687851,-0.08233344554901123,0.2929549217224121,-0.1258709132671356,0.1666869968175888,-0.06112053617835045,XTrueNorthZVertical,0.473020599547347,-0.2295305607236223,0.8503178714916608,0.0229490755473604,-0.8149707913398743,0.3686371147632599,-0.4471344649791718,-37.24621200561523,11.64833831787109,2.92507266998291,2,0.0.0.0,10.83.46.32,3,0
2015-03-01 11:12:00.541,496,1425237114.68655,37.74681037673336,-122.4444591648847,174.5527,-1,-1,10,65,-9999,1425237120.527183,-42.41576385498047,20.00408935546875,0.841522216796875,82.27248382568359,68.50086212158203,10,180570.99560125,-0.9809112548828125,0.4229736328125,-0.524200439453125,180570.9484569583,0.006327937066137278,-0.04923865276225702,-0.1883661828496316,180570.9484569583,2.857790682944532,-1.068973350769216,-0.3797681808294329,-0.01412725355476141,-0.03329381346702576,-0.1587015986442566,0.1121395528316498,0.1584238559007645,-0.04534413293004036,XTrueNorthZVertical,0.4722451201381065,-0.2315353950667627,0.8501668786247315,0.0243329894448527,-0.8142422437667847,0.3707051873207092,-0.4467518031597137,-37.11383056640625,12.02819156646729,3.066993713378906,2,0.0.0.0,10.83.46.32,3,0
2015-03-01 11:12:00.604,497,1425237114.68655,37.74681037673336,-122.4444591648847,174.5527,-1,-1,10,65,-9999,1425237120.578054,-42.53511810302734,19.51129150390625,0.8248825073242188,82.98641204833984,69.21479034423828,10,180571.044544875,-0.97015380859375,0.55023193359375,-0.5469970703125,180571.0519982917,0.6250007646319379,-0.7085111048302066,-1.307972154608285,180571.0002264583,2.857156538030711,-1.079633425199221,-0.3618886845410802,0.3394795060157776,-0.2545720338821411,-0.5415078997612,-0.1562397032976151,0.06893241405487061,-0.08309779316186905,XTrueNorthZVertical,0.4786031539802126,-0.2244720396388619,0.8483897062811919,0.02803817478892733,-0.8246715664863586,0.3540412187576294,-0.4411026537418365,-37.23412322998047,11.6021671295166,3.245020866394043,2,0.0.0.0,10.83.46.32,3,0
2015-03-01 11:12:00.639,498,1425237114.68655,37.74681037673336,-122.4444591648847,174.5527,-1,-1,10,65,-9999,1425237120.629414,-43.23424530029297,17.65908813476562,1.407333374023438,84.23300170898438,70.46138000488281,10,180571.0937103333,-1.096405029296875,0.4920196533203125,-0.4761810302734375,180571.0519982917,0.6250007646319379,-0.7085111048302066,-1.307972154608285,180571.0519982917,2.859809176161043,-1.104650631888347,-0.3098024076318547,0.6045459508895874,-0.6925665736198425,-1.278308153152466,-0.1193735674023628,0.2453614771366119,-0.1189469695091248,XTrueNorthZVertical,0.4948058411112668,-0.2028352285085629,0.8441464876647818,0.0379692716559477,-0.8507802486419678,0.3048704564571381,-0.4280501008033752,-37.50541305541992,10.5515193939209,3.678289413452148,2,0.0.0.0,10.83.46.32,3,0
2015-03-01 11:12:00.707,499,1425237114.68655,37.74681037673336,-122.4444591648847,174.5527,-1,-1,10,65,-9999,1425237120.682955,-43.98451995849609,15.04214477539062,2.838516235351562,85.54720306396484,71.77558135986328,10,180571.142693625,-0.98675537109375,0.2726593017578125,-0.4216461181640625,180571.10377025,0.9946254196978885,-0.7698373131481153,-2.011656013646614,180571.10377025,2.859552799187839,-1.144230318641625,-0.2185776003917707,0.9741708040237427,-0.7538929581642151,-1.981992363929749,-0.238420695066452,0.2690595984458923,-0.05193845182657242,XTrueNorthZVertical,0.5199499860608207,-0.1664352909634894,0.8357453286183625,0.05899966236053222,-0.8887308239936829,0.2168412804603577,-0.4039026200771332,-37.93725967407227,8.416570663452148,4.630969047546387,2,0.0.0.0,10.83.46.32,3,0
2015-03-01 11:12:00.736,500,1425237114.68655,37.74681037673336,-122.4444591648847,174.5527,-1,-1,10,65,-9999,1425237120.682955,-43.98451995849609,15.04214477539062,2.838516235351562,85.54720306396484,71.77558135986328,10,180571.1917510833,-1.070449829101562,0.0081329345703125,-0.3692169189453125,180571.1555396667,1.056852309096462,-0.5612686565852517,-2.60172729005329,180571.1555396667,2.859219828901575,-1.173675684916232,-0.08827183906538531,1.036397933959961,-0.545324444770813,-2.57206392288208,-0.07063933461904526,0.112389013171196,-0.05150877311825752,XTrueNorthZVertical,0.5425171006619229,-0.1142181828828001,0.8270453343694373,0.09287263124784383,-0.9185879826545715,0.08815725147724152,-0.3852587938308716,-38.50203704833984,3.889514923095703,5.829658508300781,2,0.0.0.0,10.83.46.32,3,0
2015-03-01 11:12:00.808,501,1425237114.68655,37.74681037673336,-122.4444591648847,174.5527,-1,-1,10,65,-9999,1425237120.785066,-44.155029296875,6.375640869140625,6.067001342773438,93.61525726318359,79.84363555908203,10,180571.2408477917,-0.9496307373046875,-0.127960205078125,-0.389495849609375,180571.2073117917,0.9154701468302264,-0.369605480306102,-2.926792999024471,180571.2073117917,2.851551908988886,-1.198269945096399,0.05694219998963936,0.8950159549713135,-0.3536614179611206,-2.897129774093628,-0.1583251804113388,0.06538005918264389,-0.003029543673619628,XTrueNorthZVertical,0.561179947567445,-0.05819954792223165,0.8145038709895748,0.1351785181220205,-0.929901123046875,-0.05691143497824669,-0.3633797466754913,-38.55681228637695,-0.4138855934143066,6.687386512756348,2,0.0.0.0,10.83.46.32,3,0
2015-03-01 11:12:00.834,502,1425237114.68655,37.74681037673336,-122.4444591648847,174.5527,-1,-1,10,65,-9999,1425237120.785066,-44.155029296875,6.375640869140625,6.067001342773438,93.61525726318359,79.84363555908203,10,180571.2899114167,-0.9149932861328125,-0.3292999267578125,-0.2893524169921875,180571.2590837083,1.062382895732229,-0.7006550459305819,-2.993315300945234,180571.2590837083,2.846795548770825,-1.222969002680213,0.2116774386899891,1.041929006576538,-0.6847111582756042,-2.963652372360229,-0.03767043352127075,0.0488910861313343,-0.027591772377491,XTrueNorthZVertical,0.5773846270281694,0.001719525711964475,0.7964790173783342,0.1795692599743385,-0.9191319346427917,-0.2101001888513565,-0.3332480788230896,-38.06437683105469,-5.107704639434814,7.51896858215332,2,0.0.0.0,10.83.46.32,3,0
2015-03-01 11:12:00.915,503,1425237120.846134,37.74679815834394,-122.4444508683197,174.6366,-1,-1,10,65,-9999,1425237120.889356,-41.23917388916016,-5.128753662109375,9.378677368164062,107.2639312744141,93.4923095703125,10,180571.3390102084,-0.8413543701171875,-0.4696502685546875,-0.2100982666015625,180571.3108531667,1.201667019691701,-0.9892282574327339,-3.05967275319452,180571.3108531667,2.85100736491394,-1.266485347967295,0.3722809081379563,1.181213140487671,-0.9732845425605774,-3.030010223388672,0.04696515947580338,-0.02863871864974499,-0.01176745910197496,XTrueNorthZVertical,0.5970116255593879,0.06341687889175796,0.7679851176428139,0.223056463808021,-0.8887010216712952,-0.3637410402297974,-0.279110848903656,-36.22942352294922,-11.22027587890625,9.646487236022949,2,0.0.0.0,10.83.46.32,3,0
2015-03-01 11:12:00.936,504,1425237120.846134,37.74679815834394,-122.4444508683197,174.6366,-1,-1,10,65,-9999,1425237120.889356,-41.23917388916016,-5.128753662109375,9.378677368164062,107.2639312744141,93.4923095703125,10,180571.3880757084,-0.8440093994140625,-0.692626953125,-0.149658203125,180571.3626250417,1.166131129686228,-1.205389053631196,-3.088401869769859,180571.3626250417,2.867217296898741,-1.330055191800903,0.5330595468844679,1.14567756652832,-1.189445495605469,-3.05873966217041,-0.03905408084392548,-0.02040894143283367,0.009572563692927361,XTrueNorthZVertical,0.6180432320563999,0.123899755695105,0.7297553218216948,0.2648178480950766,-0.8364189267158508,-0.5081707835197449,-0.2053428292274475,-33.90529251098633,-15.4352502822876,11.98768329620361,2,0.0.0.0,10.83.46.32,3,0
2015-03-01 11:12:01.010,505,1425237120.846134,37.74679815834394,-122.4444508683197,174.6366,-1,-1,10,65,-9999,1425237120.991993,-34.09445953369141,-16.53120422363281,14.25468444824219,124.8346328735352,111.0630111694336,10,180571.4371825417,-0.62164306640625,-0.7480926513671875,-0.103118896484375,180571.4143971667,0.7740834571901376,-0.7652167286568279,-3.124497822552574,180571.4143971667,2.888863158743757,-1.392764486834083,0.6965831684257208,0.7536300420761108,-0.7492733001708984,-3.094835996627808,0.09922967106103897,-0.0608072429895401,0.004809877369552851,XTrueNorthZVertical,0.6311226950644983,0.1837541677055188,0.6877648094747844,0.3080552304738715,-0.7549151182174683,-0.6416006088256836,-0.1358370929956436,-30.81189727783203,-19.22273063659668,14.58197021484375,2,0.0.0.0,10.83.46.32,3,0
2015-03-01 11:12:01.034,506,1425237120.846134,37.74679815834394,-122.4444508683197,174.6366,-1,-1,10,65,-9999,1425237120.991993,-34.09445953369141,-16.53120422363281,14.25468444824219,124.8346328735352,111.0630111694336,10,180571.4862459167,-0.4158477783203125,-0.67578125,-0.0873870849609375,180571.4661665417,0.5313392533066141,-0.221183518014351,-2.986118374415403,180571.4143971667,2.888863158743757,-1.392764486834083,0.6965831684257208,0.7536300420761108,-0.7492733001708984,-3.094835996627808,0.09922967106103897,-0.0608072429895401,0.004809877369552851,XTrueNorthZVertical,0.6311226950644983,0.1837541677055188,0.6877648094747844,0.3080552304738715,-0.7549151182174683,-0.6416006088256836,-0.1358370929956436,-30.81189727783203,-19.22273063659668,14.58197021484375,2,0.0.0.0,10.83.46.32,3,0
2015-03-01 11:12:01.108,507,1425237120.846134,37.74679815834394,-122.4444508683197,174.6366,-1,-1,10,65,-9999,1425237121.096392,-24.80120849609375,-25.58860778808594,17.59965515136719,144.6854095458984,130.9137878417969,10,180571.5353264583,-0.3513641357421875,-0.706634521484375,-0.0228424072265625,180571.5179385417,0.5901967112940194,-0.007001450505818317,-2.998969990887799,180571.5179385417,2.905532797713639,-1.428334775626787,0.9979180777727091,0.5697436332702637,0.008941719308495522,-2.969308853149414,0.09910736978054047,0.2768982350826263,-0.01715546101331711,XTrueNorthZVertical,0.6137100728596412,0.2913409888802508,0.6219887078296841,0.3893717125704847,-0.5365616083145142,-0.8403443098068237,-0.07696074992418289,-22.82784652709961,-26.60298156738281,17.39802169799805,2,0.0.0.0,10.83.46.32,3,0
2015-03-01 11:12:01.130,508,1425237120.846134,37.74679815834394,-122.4444508683197,174.6366,-1,-1,10,65,-9999,1425237121.096392,-24.80120849609375,-25.58860778808594,17.59965515136719,144.6854095458984,130.9137878417969,10,180571.5843846667,-0.041107177734375,-0.6449432373046875,0.034820556640625,180571.5697104583,0.6235802345064897,0.5207270889948664,-3.368306491923803,180571.5697104583,2.920718224088398,-1.42638493282504,1.164439545893175,0.6031273603439331,0.5366700887680054,-3.338645696640015,0.3638680875301361,0.104937806725502,0.1151711791753769,XTrueNorthZVertical,0.5889639153842345,0.3531008407794214,0.5881775406005104,0.4271866007941886,-0.3911508023738861,-0.9185669422149658,-0.05688260495662689,-19.02722549438477,-29.03508949279785,18.06788635253906,2,0.0.0.0,10.83.46.32,3,0
2015-03-01 11:12:01.209,509,1425237120.846134,37.74679815834394,-122.4444508683197,174.6366,-1,-1,10,65,-9999,1425237121.202939,-14.97936248779297,-31.2303466796875,18.93099975585938,161.9590454101562,148.1874237060547,10,180571.6334731667,-0.45501708984375,-0.59393310546875,-0.0168304443359375,180571.6214797917,0.6680856510633488,-0.6314802355641007,-2.391311464958348,180571.6214797917,2.952009693244182,-1.465427565888962,1.313979874719971,0.6476329565048218,-0.6155373454093933,-2.361650943756104,0.07061730325222015,0.4891608953475952,-0.03903570771217346,XTrueNorthZVertical,0.5702424361897487,0.4018287643737388,0.5473108818045697,0.4623936799929025,-0.252593606710434,-0.9672034978866577,-0.02671441622078419,-13.36402320861816,-31.52692604064941,18.94666862487793,2,0.0.0.0,10.83.46.32,3,0
2015-03-01 11:12:01.229,510,1425237120.846134,37.74679815834394,-122.4444508683197,174.6366,-1,-1,10,65,-9999,1425237121.202939,-14.97936248779297,-31.2303466796875,18.93099975585938,161.9590454101562,148.1874237060547,10,180571.6825257917,-0.1355133056640625,-0.95843505859375,-0.005950927734375,180571.6732518333,0.1367131082431087,0.2489698755638017,-0.8921347304106251,180571.6214797917,2.952009693244182,-1.465427565888962,1.313979874719971,0.6476329565048218,-0.6155373454093933,-2.361650943756104,0.07061730325222015,0.4891608953475952,-0.03903570771217346,XTrueNorthZVertical,0.5702424361897487,0.4018287643737388,0.5473108818045697,0.4623936799929025,-0.252593606710434,-0.9672034978866577,-0.02671441622078419,-13.36402320861816,-31.52692604064941,18.94666862487793,2,0.0.0.0,10.83.46.32,3,0
2015-03-01 11:12:01.312,511,1425237120.846134,37.74679815834394,-122.4444508683197,174.6366,-1,-1,10,65,-9999,1425237121.277264,-10.15370178222656,-32.02903747558594,19.58001708984375,170.4940490722656,156.7224273681641,10,180571.7316018333,-0.05596923828125,-1.036956787109375,-0.1105194091796875,180571.725024,-0.123952039247776,-0.01577816419428345,-0.007941812686725296,180571.725024,3.003329903230794,-1.514737323203547,1.405383534042036,-0.1444043070077896,0.0001643683644942939,0.02171806991100311,0.08485622704029083,-0.03333336859941483,-0.05113798752427101,XTrueNorthZVertical,0.5554491951346553,0.4322768790692102,0.5225131043631798,0.48124095395552,-0.1644002944231033,-0.9863504767417908,-0.009225782938301563,-9.038999557495117,-32.33265686035156,20.11009979248047,2,0.0.0.0,10.83.46.32,1,0
2015-03-01 11:12:01.326,512,1425237120.846134,37.74679815834394,-122.4444508683197,174.6366,-1,-1,10,65,-9999,1425237121.277264,-10.15370178222656,-32.02903747558594,19.58001708984375,170.4940490722656,156.7224273681641,10,180571.780642625,-0.203826904296875,-0.99053955078125,0.18597412109375,180571.725024,-0.123952039247776,-0.01577816419428345,-0.007941812686725296,180571.725024,3.003329903230794,-1.514737323203547,1.405383534042036,-0.1444043070077896,0.0001643683644942939,0.02171806991100311,0.08485622704029083,-0.03333336859941483,-0.05113798752427101,XTrueNorthZVertical,0.5554491951346553,0.4322768790692102,0.5225131043631798,0.48124095395552,-0.1644002944231033,-0.9863504767417908,-0.009225782938301563,-9.038999557495117,-32.33265686035156,20.11009979248047,2,0.0.0.0,10.83.46.32,1,0
2015-03-01 11:12:01.406,513,1425237120.846134,37.74679815834394,-122.4444508683197,174.6366,-1,-1,10,65,-9999,1425237121.38405,-9.505729675292969,-32.708740234375,19.67986297607422,172.6204223632812,158.8488006591797,10,180571.8297155834,0.1318511962890625,-1.03753662109375,-0.02813720703125,180571.82856525,-0.1286280174897371,0.3349910440377971,-0.1195383823731877,180571.7767932084,2.967071435989988,-1.508707164202008,1.39491246105411,-0.2359494864940643,-0.4807635247707367,0.1404415220022202,-0.00355138722807169,-0.002885009394958615,0.2076956331729889,XTrueNorthZVertical,0.5636898120593695,0.4205058490471223,0.5180866065613123,0.4868416614755096,-0.1746407449245453,-0.9845722913742065,-0.01085725333541632,-8.949106216430664,-32.44303894042969,19.97205543518066,2,0.0.0.0,10.83.46.32,1,0
2015-03-01 11:12:01.423,514,1425237120.846134,37.74679815834394,-122.4444508683197,174.6366,-1,-1,10,65,-9999,1425237121.38405,-9.505729675292969,-32.708740234375,19.67986297607422,172.6204223632812,158.8488006591797,10,180571.8787565833,-0.149322509765625,-1.0238037109375,-0.0774688720703125,180571.88033725,0.0158671137746921,-0.3685777664414405,0.1597302769124455,180571.82856525,2.902098560834318,-1.424157077016868,1.393670872330351,-0.149079903960228,0.3509332537651062,-0.08987906575202942,0.2675556540489197,-0.1081750392913818,-0.009227775037288666,XTrueNorthZVertical,0.5555349041995705,0.422502408586326,0.5262760594091073,0.4857016602775497,-0.1743091940879822,-0.9843542575836182,-0.02574536949396133,-9.09035587310791,-32.62296295166016,19.61193656921387,2,0.0.0.0,10.83.46.32,1,0
2015-03-01 11:12:01.508,515,1425237120.846134,37.74679815834394,-122.4444508683197,174.6366,-1,-1,10,65,-9999,1425237121.459456,-9.880867004394531,-33.01460266113281,19.64658355712891,172.1800994873047,158.4084777832031,10,180571.927836375,-0.15386962890625,-0.9728851318359375,0.017364501953125,180571.88033725,0.0158671137746921,-0.3685777664414405,0.1597302769124455,180571.88033725,2.890337333198636,-1.425750391895539,1.387519527373568,-0.004584545735269785,-0.3526357114315033,0.1893892586231232,0.03101568669080734,-0.04055194184184074,-0.05112655833363533,XTrueNorthZVertical,0.5594812596347698,0.4169047406206212,0.5246383535759794,0.4877762436521988,-0.1803382039070129,-0.9832517504692078,-0.02634231559932232,-9.22907829284668,-32.73514175415039,19.35858917236328,2,0.0.0.0,10.83.46.32,1,0
2015-03-01 11:12:01.522,516,1425237120.846134,37.74679815834394,-122.4444508683197,174.6366,-1,-1,10,65,-9999,1425237121.511002,-10.25601196289062,-32.70872497558594,19.1473388671875,171.5919189453125,157.8202972412109,10,180571.9768860833,-0.095611572265625,-0.9238433837890625,-0.075927734375,180571.9321066667,-0.07563217706159632,0.1336680498527121,0.1741262605009778,180571.9321066667,2.882910800452775,-1.421250152333549,1.377348510982485,-0.09606059640645981,0.1495380401611328,0.2038325518369675,0.03622778132557869,0.008462117053568363,0.04600667953491211,XTrueNorthZVertical,0.5615616314363826,0.4127074571863165,0.5268508959045746,0.4865687319533382,-0.1900974065065384,-0.9813472628593445,-0.02864217758178711,-9.316708564758301,-32.67541122436523,19.41743850708008,2,0.0.0.0,10.83.46.32,1,0
2015-03-01 11:12:01.606,517,1425237120.846134,37.74679815834394,-122.4444508683197,174.6366,-1,-1,10,65,-9999,1425237121.563219,-10.73345947265625,-32.4708251953125,19.11405944824219,170.6572418212891,156.8856201171875,10,180572.0259559167,-0.263275146484375,-0.9544830322265625,0.0852508544921875,180572.0356507083,-0.118204404983167,-0.06467406812424728,0.8752162006375697,180571.9838786667,2.875338942812004,-1.412114881435647,1.356803120936148,-0.1275168657302856,-0.2910946309566498,0.5819750428199768,0.1140836924314499,0.05334731191396713,-0.04237085953354836,XTrueNorthZVertical,0.5640838876055391,0.4062399921093551,0.5331505241365431,0.4822124674005862,-0.2096952646970749,-0.9771906733512878,-0.03355687484145164,-9.857868194580078,-32.62446212768555,19.23505783081055,2,0.0.0.0,10.83.46.32,1,0
2015-03-01 11:12:01.620,518,1425237120.846134,37.74679815834394,-122.4444508683197,174.6366,-1,-1,10,65,-9999,1425237121.615439,-11.87593078613281,-32.04600524902344,18.73130035400391,169.0186614990234,155.2470397949219,10,180572.0749978333,-0.323516845703125,-0.722625732421875,-0.1989898681640625,180572.0356507083,-0.118204404983167,-0.06467406812424728,0.8752162006375697,180572.0356507083,2.880478653232372,-1.432013812367847,1.318711127730716,-0.1386324316263199,-0.0488043837249279,0.9049218893051147,-0.0162498727440834,0.01391139719635248,0.1197554543614388,XTrueNorthZVertical,0.5745455287745966,0.3906982665298293,0.5388708127441151,0.4763092016925793,-0.247025266289711,-0.9683944582939148,-0.03450459986925125,-10.49603462219238,-32.4318962097168,19.22305488586426,2,0.0.0.0,10.83.46.32,1,0
2015-03-01 11:12:01.679,519,1425237120.846134,37.74679815834394,-122.4444508683197,174.6366,-1,-1,10,65,-9999,1425237121.669477,-13.88804626464844,-31.80810546875,18.23204803466797,165.8099060058594,152.0382843017578,10,180572.1240745417,-0.1844940185546875,-0.7132110595703125,-0.1391754150390625,180572.08742025,-0.2274715076641371,0.406439927659097,1.656159161847425,180572.08742025,2.866499425482063,-1.41405388895085,1.249820495682893,-0.2478993088006973,0.4223094284534454,1.685864567756653,-0.01115960627794266,0.1912986040115356,0.0006953470292501152,XTrueNorthZVertical,0.5828278078758674,0.3683576244118866,0.558682946281327,0.4609747075355413,-0.3116248250007629,-0.9489279985427856,-0.04924881458282471,-12.44173049926758,-31.93142127990723,18.89729881286621,2,0.0.0.0,10.83.46.32,1,0
2015-03-01 11:12:01.719,520,1425237120.846134,37.74679815834394,-122.4444508683197,174.6366,-1,-1,10,65,-9999,1425237121.669477,-13.88804626464844,-31.80810546875,18.23204803466797,165.8099060058594,152.0382843017578,10,180572.1731212084,-0.28778076171875,-0.730133056640625,0.065948486328125,180572.1391921667,-0.6174259355434255,0.552070630812336,2.092314907265735,180572.1391921667,2.846369369537618,-1.382678591831705,1.156872750998122,-0.6378535628318787,0.5679399967193604,2.12202000617981,0.1843848526477814,0.2120128124952316,0.01975062116980553,XTrueNorthZVertical,0.5899896360846472,0.338088848869415,0.5867828824687533,0.4396520407928748,-0.3951087296009064,-0.9155498147010803,-0.07521631568670273,-15.01412391662598,-31.18465614318848,18.26509284973145,2,0.0.0.0,10.83.46.32,1,0
2015-03-01 11:12:01.778,521,1425237120.846134,37.74679815834394,-122.4444508683197,174.6366,-1,-1,10,65,-9999,1425237121.744497,-19.32757568359375,-30.19375610351562,17.01720428466797,156.6381378173828,142.8665161132812,10,180572.2222030417,-0.1895904541015625,-0.744049072265625,-0.1584625244140625,180572.1909643333,-0.7155359911536177,0.9632123693759679,2.436842464850996,180572.1909643333,2.825159767513986,-1.330466848619715,1.039341461124788,-0.7359634041786194,0.9790815711021423,2.466547250747681,0.1960800588130951,0.1625162363052368,0.08005388081073761,XTrueNorthZVertical,0.5906231138889472,0.301414725069944,0.6260811498824729,0.4102874640563525,-0.4922226369380951,-0.8620706796646118,-0.1206270009279251,-18.23467445373535,-30.09088897705078,17.13346099853516,2,0.0.0.0,10.83.46.32,1,0
2015-03-01 11:12:01.817,522,1425237120.846134,37.74679815834394,-122.4444508683197,174.6366,-1,-1,10,65,-9999,1425237121.796816,-23.96567535400391,-27.74673461914062,14.98692321777344,147.9888000488281,134.2171783447266,10,180572.2713557917,-0.34173583984375,-0.75384521484375,-0.1181488037109375,180572.2427335833,-1.044904303181931,0.6313761059654787,2.762622167310428,180572.2427335833,2.813998253785021,-1.277449192162037,0.8995537754201701,-1.0653315782547,0.6472451090812683,2.792326688766479,0.3692243099212646,-0.0160991046577692,0.07661879807710648,XTrueNorthZVertical,0.5866118514581631,0.2568351260254267,0.6710648060393678,0.3736230565857702,-0.5953900814056396,-0.783049464225769,-0.1798445135354996,-23.44221496582031,-27.7247371673584,14.60554122924805,2,0.0.0.0,10.83.46.32,1,0
2015-03-01 11:12:01.878,523,1425237120.846134,37.74679815834394,-122.4444508683197,174.6366,-1,-1,10,65,-9999,1425237121.848919,-28.94480133056641,-24.89187622070312,12.75694274902344,139.2881927490234,125.5165710449219,10,180572.3203321667,-0.4946441650390625,-0.731597900390625,-0.15728759765625,180572.2945055834,-1.424868947496223,0.5418957575515793,3.116624186789756,180572.2945055834,2.79632573008264,-1.243338792099409,0.7422025553090988,-1.445295929908752,0.5577645897865295,3.146328449249268,0.1632289737462997,-0.04515654221177101,0.06070974096655846,XTrueNorthZVertical,0.5853201422711437,0.1971805720743156,0.7100314129322315,0.3381944030382697,-0.6978206634521484,-0.6759127974510193,-0.2370403110980988,-27.1195182800293,-25.17571258544922,12.73717021942139,2,0.0.0.0,10.83.46.32,1,0
2015-03-01 11:12:01.918,524,1425237120.846134,37.74679815834394,-122.4444508683197,174.6366,-1,-1,10,65,-9999,1425237121.908746,-34.077392578125,-20.52461242675781,10.04435729980469,129.8332824707031,116.0616607666016,10,180572.3693782084,-0.7858734130859375,-0.5994873046875,-0.257476806640625,180572.346277625,-1.526168138511785,0.8583237698431971,3.319210318279865,180572.346277625,2.779242332408807,-1.18829194802643,0.5614369303359488,-1.546594858169556,0.874192476272583,3.34891414642334,0.2053918242454529,-0.2663182318210602,0.08676150441169739,XTrueNorthZVertical,0.5704497871592614,0.1288905802122678,0.7552148877609397,0.296014595105628,-0.7853173613548279,-0.5324031114578247,-0.3159485161304474,-30.81160736083984,-21.77243804931641,10.39836597442627,2,0.0.0.0,10.83.46.32,1,0
2015-03-01 11:12:02.005,525,1425237120.846134,37.74679815834394,-122.4444508683197,174.6366,-1,-1,10,65,-9999,1425237121.978166,-40.01142883300781,-12.02801513671875,5.284835815429688,117.1149291992188,103.3433074951172,10,180572.4184681667,-0.815704345703125,-0.3481292724609375,-0.579864501953125,180572.398047125,-1.845649731309287,1.11450628458726,3.620341399586176,180572.398047125,2.769017642144736,-1.133756885080948,0.3671955062118341,-1.866076350212097,1.130374789237976,3.650044918060303,0.04080257937312126,-0.05483430996537209,0.1431210339069366,XTrueNorthZVertical,0.5473660761323622,0.05355892753563656,0.7968955359016816,0.2499584633283777,-0.8456121683120728,-0.3589993119239807,-0.3950436413288116,-35.14332962036133,-15.84626770019531,6.73516845703125,2,0.0.0.0,10.83.46.32,1,0
2015-03-01 11:12:02.012,526,1425237120.846134,37.74679815834394,-122.4444508683197,174.6366,-1,-1,10,65,-9999,1425237121.978166,-40.01142883300781,-12.02801513671875,5.284835815429688,117.1149291992188,103.3433074951172,10,180572.467526,-0.97747802734375,-0.201080322265625,-0.52032470703125,180572.4498190417,-1.572291958063085,0.1827588971744697,3.461114460119756,180572.4498190417,2.775693178578825,-1.100876666645266,0.169883216291891,-1.592718362808228,0.1986272931098938,3.490817785263062,-0.04135069251060486,-0.2232057005167007,-0.04735619574785233,XTrueNorthZVertical,0.5256324442925535,-0.02371623997086472,0.8269766267804481,0.1981354102030499,-0.8787695169448853,-0.1690672487020493,-0.4462961554527283,-37.53718948364258,-10.27780342102051,4.104466438293457,2,0.0.0.0,10.83.46.32,1,0
2015-03-01 11:12:02.078,527,1425237120.846134,37.74679815834394,-122.4444508683197,174.6366,-1,-1,10,65,-9999,1425237122.02969,-42.70561981201172,-5.400604248046875,2.555610656738281,109.6973266601562,95.92570495605469,10,180572.5165984167,-1.05572509765625,0.2484588623046875,-0.57568359375,180572.5015910417,-1.545100817017267,0.339994591093838,3.309088175608692,180572.5015910417,2.784731715520377,-1.084333257223735,-0.02245345676250511,-1.565526962280273,0.3558628261089325,3.338791370391846,-0.1252641677856445,0.1115663722157478,-0.1344528198242188,XTrueNorthZVertical,0.506062160495965,-0.1010392093874384,0.8439679636777273,0.1463220855339585,-0.8837690353393555,0.02245157025754452,-0.4673843383789062,-38.76372146606445,-4.481860160827637,2.967695236206055,2,0.0.0.0,10.83.46.32,1,0
2015-03-01 11:12:02.117,528,1425237120.846134,37.74679815834394,-122.4444508683197,174.6366,-1,-1,10,65,-9999,1425237122.081017,-43.84808349609375,1.923492431640625,0.8082351684570312,101.9075164794922,88.13589477539062,10,180572.56564075,-0.980621337890625,0.540557861328125,-0.618316650390625,180572.5533605,-1.258557200581864,0.3974099473509653,2.496136148624957,180572.5015910417,2.784731715520377,-1.084333257223735,-0.02245345676250511,-1.565526962280273,0.3558628261089325,3.338791370391846,-0.1252641677856445,0.1115663722157478,-0.1344528198242188,XTrueNorthZVertical,0.506062160495965,-0.1010392093874384,0.8439679636777273,0.1463220855339585,-0.8837690353393555,0.02245157025754452,-0.4673843383789062,-38.76372146606445,-4.481860160827637,2.967695236206055,2,0.0.0.0,10.83.46.32,1,0
2015-03-01 11:12:02.210,529,1425237120.846134,37.74679815834394,-122.4444508683197,174.6366,-1,-1,10,65,-9999,1425237122.184899,-43.95039367675781,13.41091918945312,-0.3566741943359375,91.41200256347656,77.640380859375,10,180572.6147160833,-0.996124267578125,0.5023651123046875,-0.540802001953125,180572.6051326667,-0.991043734347841,0.5417271794545773,1.559926901121847,180572.6051326667,2.794013745334426,-1.054283825402783,-0.3005365523396531,-1.011469483375549,0.5575951337814331,1.589629292488098,-0.2528480887413025,0.2330504953861237,-0.1062115356326103,XTrueNorthZVertical,0.4675317378617222,-0.2134397394513095,0.8546596616385007,0.0735820836327489,-0.830571711063385,0.2960327565670013,-0.4717150926589966,-38.48212051391602,6.822822093963623,2.023771286010742,2,0.0.0.0,10.83.46.32,3,0
2015-03-01 11:12:02.213,530,1425237120.846134,37.74679815834394,-122.4444508683197,174.6366,-1,-1,10,65,-9999,1425237122.184899,-43.95039367675781,13.41091918945312,-0.3566741943359375,91.41200256347656,77.640380859375,10,180572.6637514167,-0.7278289794921875,0.6893157958984375,-0.5640716552734375,180572.6569045417,-0.5156164828630043,0.2735330092459295,1.087568942793327,180572.6051326667,2.794013745334426,-1.054283825402783,-0.3005365523396531,-1.011469483375549,0.5575951337814331,1.589629292488098,-0.2528480887413025,0.2330504953861237,-0.1062115356326103,XTrueNorthZVertical,0.4675317378617222,-0.2134397394513095,0.8546596616385007,0.0735820836327489,-0.830571711063385,0.2960327565670013,-0.4717150926589966,-38.48212051391602,6.822822093963623,2.023771286010742,2,0.0.0.0,10.83.46.32,3,0
2015-03-01 11:12:02.276,531,1425237120.846134,37.74679815834394,-122.4444508683197,174.6366,-1,-1,10,65,-9999,1425237122.23755,-43.50703430175781,16.4017333984375,-0.8891983032226562,89.40503692626953,75.63341522216797,10,180572.7128360833,-0.7789154052734375,0.54656982421875,-0.511383056640625,180572.7086740833,-0.3784988404503126,0.226661374060535,-0.1065698531289378,180572.6569045417,2.786739506349924,-1.027448725849936,-0.3728039491064962,-0.5360440611839294,0.2894015312194824,1.117274761199951,0.1097918376326561,0.2371817082166672,-0.1064452230930328,XTrueNorthZVertical,0.4468432555328002,-0.2441014481647903,0.8584721501975547,0.06140898853349171,-0.7971850037574768,0.364228218793869,-0.4814911782741547,-37.99066543579102,9.287257194519043,1.405887603759766,2,0.0.0.0,10.83.46.32,3,0
2015-03-01 11:12:02.307,532,1425237120.846134,37.74679815834394,-122.4444508683197,174.6366,-1,-1,10,65,-9999,1425237122.288566,-43.01252746582031,18.05007934570312,-1.20538330078125,87.83792114257812,74.06629943847656,10,180572.761878375,-0.8604278564453125,0.4439239501953125,-0.4422454833984375,180572.760446,0.32426329853474,-0.2114544579200735,-0.0625206360668092,180572.7086740833,2.782553943113781,-1.027327167831095,-0.4082659823539995,-0.3989262878894806,0.2425297349691391,-0.07686425000429153,-0.2104451060295105,0.1894073486328125,-0.06486690789461136,XTrueNorthZVertical,0.4419109827454992,-0.2596360766014015,0.8569468079883067,0.05427584990959748,-0.785572350025177,0.3970184326171875,-0.4746075868606567,-37.42630386352539,11.3620662689209,1.302121162414551,2,0.0.0.0,10.83.46.32,3,0
2015-03-01 11:12:02.377,533,1425237120.846134,37.74679815834394,-122.4444508683197,174.6366,-1,-1,10,65,-9999,1425237122.340882,-42.91021728515625,18.5599365234375,-0.8392715454101562,87.44679260253906,73.6751708984375,10,180572.8110630834,-0.6966400146484375,0.3626861572265625,-0.5784149169921875,180572.8122181667,0.1552052999042919,-0.2950500192732248,-0.204445284247094,180572.760446,2.777513128634063,-1.028910533773747,-0.4053650831680122,0.3038360774517059,-0.195586234331131,-0.03281533345580101,-0.05754238739609718,0.09290462732315063,0.01442145276814699,XTrueNorthZVertical,0.4422990475772919,-0.2596035061499704,0.8565820047528542,0.05696270524880887,-0.7873062491416931,0.3943542838096619,-0.4739551544189453,-37.47052764892578,11.2252368927002,1.214070320129395,2,0.0.0.0,10.83.46.32,3,0
2015-03-01 11:12:02.408,534,1425237120.846134,37.74679815834394,-122.4444508683197,174.6366,-1,-1,10,65,-9999,1425237122.392407,-43.0977783203125,18.237060546875,-0.7560653686523438,87.45531463623047,73.68369293212891,10,180572.8600115833,-0.9711456298828125,0.427947998046875,-0.6275787353515625,180572.8122181667,0.1552052999042919,-0.2950500192732248,-0.204445284247094,180572.8122181667,2.785729005545177,-1.032303031348778,-0.3935645590865084,0.1347782909870148,-0.2791819870471954,-0.1747403144836426,0.09620959311723709,-0.02079672925174236,-0.1047797352075577,XTrueNorthZVertical,0.4462733156633306,-0.253026753905063,0.8565524027782911,0.05599535140240582,-0.792849600315094,0.3834828734397888,-0.4736351668834686,-37.49942016601562,11.11727714538574,1.311517715454102,2,0.0.0.0,10.83.46.32,3,0
2015-03-01 11:12:02.464,535,1425237120.846134,37.74679815834394,-122.4444508683197,174.6366,-1,-1,10,65,-9999,1425237122.445712,-43.43881988525391,17.115478515625,-0.2568206787109375,88.75447082519531,74.98284912109375,10,180572.909090375,-1.076766967773438,0.7049560546875,-0.40545654296875,180572.915759625,1.174285196311833,-0.5831113712138636,-1.571444273888113,180572.863987625,2.777118212855944,-1.055619867116391,-0.3764139267289007,0.1546475440263748,-0.558498740196228,-0.6154202222824097,-0.1618640273809433,0.06036016717553139,-0.1693840473890305,XTrueNorthZVertical,0.4572628295117755,-0.2486229325401966,0.8516807577850436,0.06113213172718589,-0.809281587600708,0.3675878345966339,-0.4581946730613708,-37.63009643554688,10.58501815795898,1.85840892791748,2,0.0.0.0,10.83.46.32,3,0
2015-03-01 11:12:02.516,536,1425237120.846134,37.74679815834394,-122.4444508683197,174.6366,-1,-1,10,65,-9999,1425237122.445712,-43.43881988525391,17.115478515625,-0.2568206787109375,88.75447082519531,74.98284912109375,10,180572.9581447917,-0.9217376708984375,0.487518310546875,-0.4718780517578125,180572.915759625,1.174285196311833,-0.5831113712138636,-1.571444273888113,180572.915759625,2.781442625389673,-1.08448658453017,-0.3102719001952104,1.153858542442322,-0.5672436356544495,-1.541739821434021,-0.2349169552326202,0.3996385037899017,0.03959360346198082,XTrueNorthZVertical,0.4779125902043643,-0.2215276102129345,0.8468638930040754,0.07311996520993795,-0.8418500423431396,0.3053175508975983,-0.4450501501560211,-37.92732238769531,9.26357364654541,2.687867164611816,2,0.0.0.0,10.83.46.32,3,0
2015-03-01 11:12:02.563,537,1425237120.846134,37.74679815834394,-122.4444508683197,174.6366,-1,-1,10,65,-9999,1425237122.523401,-43.60933685302734,13.64883422851562,1.141082763671875,90.72881317138672,76.95719146728516,10,180573.007347875,-1.013809204101562,0.0299530029296875,-0.545257568359375,180572.9675315417,1.565233515909939,-0.5183542124636058,-2.290581657783845,180572.9675315417,2.801064997757158,-1.104809586182083,-0.1894724537188277,1.544763803482056,-0.5025147199630737,-2.260845184326172,-0.04434720799326897,0.299177497625351,-0.03061439841985703,XTrueNorthZVertical,0.5011849312245963,-0.1678744698242806,0.8436044950097187,0.09467413396926518,-0.877390444278717,0.188340812921524,-0.4412636458873749,-38.43671035766602,6.623377799987793,3.204747200012207,2,0.0.0.0,10.83.46.32,3,0
2015-03-01 11:12:02.612,538,1425237120.846134,37.74679815834394,-122.4444508683197,174.6366,-1,-1,10,65,-9999,1425237122.574192,-43.40472412109375,10.14822387695312,2.672103881835938,92.11762237548828,78.34600067138672,10,180573.056290875,-0.972198486328125,-0.1783447265625,-0.5074615478515625,180573.0193009167,1.502055878002207,-0.2902049303020436,-2.901716407884176,180573.0193009167,2.812976930067053,-1.119217624122388,-0.03751792888008856,1.481586456298828,-0.2743655741214752,-2.8719801902771,-0.0302104689180851,-0.00200192560441792,-0.1216598451137543,XTrueNorthZVertical,0.5210127365062164,-0.1024988812233076,0.8375306654709891,0.1287711174558021,-0.8991260528564453,0.03750912845134735,-0.4360794126987457,-38.92642593383789,1.433825016021729,3.767983436584473,2,0.0.0.0,10.83.46.32,3,0
2015-03-01 11:12:02.660,539,1425237120.846134,37.74679815834394,-122.4444508683197,174.6366,-1,-1,10,65,-9999,1425237122.626444,-43.02957916259766,5.52606201171875,3.803733825683594,96.62741851806641,82.85579681396484,10,180573.1054992917,-0.8941802978515625,-0.218048095703125,-0.4133148193359375,180573.071073125,1.380483106872308,-0.7052897451756468,-3.026796029537492,180573.071073125,2.814521513369981,-1.146126893028432,0.1265416291264407,1.360013961791992,-0.6894505023956299,-2.997060298919678,-0.1077530160546303,-0.05551273375749588,-0.04662759602069855,XTrueNorthZVertical,0.5425535115128906,-0.03568043603579224,0.8217927737657014,0.1703500489128842,-0.9038894176483154,-0.1262041926383972,-0.4087252020835876,-38.72916412353516,-3.376014709472656,4.491639137268066,2,0.0.0.0,10.83.46.32,3,0
2015-03-01 11:12:02.710,540,1425237120.846134,37.74679815834394,-122.4444508683197,174.6366,-1,-1,10,65,-9999,1425237122.678444,-41.97236633300781,-0.387542724609375,5.501182556152344,102.9512100219727,89.17958831787109,10,180573.1544335417,-0.8293304443359375,-0.43212890625,-0.2991180419921875,180573.1228452083,1.534714222449849,-1.031077969750566,-3.124044019902825,180573.1228452083,2.818526123139369,-1.187847678090454,0.2945211098908088,1.51424515247345,-1.015238881111145,-3.094308376312256,-0.009086284786462784,4.418696335051209e-05,0.001061583519913256,XTrueNorthZVertical,0.5659114208765254,0.03098867709473689,0.7959031142722044,0.2128898937339587,-0.8876269459724426,-0.2902816236019135,-0.3575679361820221,-37.77439880371094,-8.2613525390625,6.030356407165527,2,0.0.0.0,10.83.46.32,3,0
2015-03-01 11:12:02.758,541,1425237120.846134,37.74679815834394,-122.4444508683197,174.6366,-1,-1,10,65,-9999,1425237122.729634,-39.9261474609375,-6.777008056640625,7.764450073242188,110.7239151000977,96.95229339599609,10,180573.2035437917,-0.750579833984375,-0.679046630859375,-0.2279205322265625,180573.1746146667,1.473350996192788,-1.246239015275812,-3.202903681889488,180573.1746146667,2.832674610432947,-1.249034382591746,0.4662775574684031,1.452882170677185,-1.230400085449219,-3.173168420791626,0.02317211590707302,-0.09892808645963669,0.01824298314750195,XTrueNorthZVertical,0.590948776047186,0.09767204239421506,0.7591189777556009,0.2549078311527246,-0.8474061489105225,-0.4495643377304077,-0.2824794352054596,-35.19060134887695,-14.4088134765625,9.248134613037109,2,0.0.0.0,10.83.46.32,3,0
2015-03-01 11:12:02.811,542,1425237120.846134,37.74679815834394,-122.4444508683197,174.6366,-1,-1,10,65,-9999,1425237122.788213,-36.82271575927734,-13.26840209960938,10.85979461669922,119.8223648071289,106.0507431030273,10,180573.2525951667,-0.650360107421875,-0.7802734375,-0.0559234619140625,180573.2263865,1.177675933011722,-1.283376796676967,-3.066882729213691,180573.2263865,2.855315139890595,-1.324208362774561,0.6364795951179505,1.157207369804382,-1.267538070678711,-3.037147521972656,0.1042077913880348,-0.1121596619486809,0.04449106752872467,XTrueNorthZVertical,0.6131401578400709,0.1609620026193913,0.7139964807049837,0.2972529472458166,-0.7798669934272766,-0.594368040561676,-0.1963007599115372,-32.21929550170898,-18.57417869567871,12.1834774017334,2,0.0.0.0,10.83.46.32,3,0
2015-03-01 11:12:02.857,543,1425237120.846134,37.74679815834394,-122.4444508683197,174.6366,-1,-1,10,65,-9999,1425237122.788213,-36.82271575927734,-13.26840209960938,10.85979461669922,119.8223648071289,106.0507431030273,10,180573.3017890833,-0.4490966796875,-0.729583740234375,-0.16729736328125,180573.2781587917,0.9172954774413667,-0.4770925261144631,-3.029278894621772,180573.2781587917,2.87892205286601,-1.378249868919869,0.7911340960177475,0.89682936668396,-0.4612549841403961,-2.999547958374023,0.07260017096996307,-0.05854805186390877,0.08933626860380173,XTrueNorthZVertical,0.6206533352417637,0.2179977859747528,0.6739820669509057,0.3361762703415924,-0.6900470852851868,-0.7111510634422302,-0.1345328092575073,-28.7755012512207,-22.03570938110352,14.76205635070801,2,0.0.0.0,10.83.46.32,3,0
2015-03-01 11:12:02.908,544,1425237120.846134,37.74679815834394,-122.4444508683197,174.6366,-1,-1,10,65,-9999,1425237122.859782,-30.68405914306641,-21.08528137207031,15.31975555419922,134.1657104492188,120.3940811157227,10,180573.3507233333,-0.3362579345703125,-0.74517822265625,0.077728271484375,180573.3299280417,0.6049524879458215,-0.2137612880563001,-3.036589538130149,180573.2781587917,2.87892205286601,-1.378249868919869,0.7911340960177475,0.89682936668396,-0.4612549841403961,-2.999547958374023,0.07260017096996307,-0.05854805186390877,0.08933626860380173,XTrueNorthZVertical,0.6206533352417637,0.2179977859747528,0.6739820669509057,0.3361762703415924,-0.6900470852851868,-0.7111510634422302,-0.1345328092575073,-28.7755012512207,-22.03570938110352,14.76205635070801,2,0.0.0.0,10.83.46.32,3,0
2015-03-01 11:12:02.955,545,1425237120.846134,37.74679815834394,-122.4444508683197,174.6366,-1,-1,10,65,-9999,1425237122.911508,-25.94365692138672,-25.23164367675781,16.88407135009766,143.2058258056641,129.4342041015625,10,180573.399922375,-0.021392822265625,-0.608612060546875,0.0139617919921875,180573.3817002917,0.6909582100854944,0.3470612890463632,-3.38116822840834,180573.3817002917,2.914306241849274,-1.424421574538805,1.111645238128931,0.6704925298690796,0.3628984987735748,-3.35143780708313,0.1333483010530472,0.1342677921056747,-0.05233388021588326,XTrueNorthZVertical,0.5968425217078084,0.3338547677220403,0.5997277978334218,0.4155074913950634,-0.4384477734565735,-0.8964290618896484,-0.06463999301195145,-20.05261611938477,-28.51921081542969,17.77828598022461,2,0.0.0.0,10.83.46.32,3,0
2015-03-01 11:12:03.013,546,1425237120.846134,37.74679815834394,-122.4444508683197,174.6366,-1,-1,10,65,-9999,1425237122.9638,-20.72579193115234,-28.6982421875,18.11555480957031,152.8209686279297,139.0493469238281,10,180573.4488637917,-0.1743621826171875,-0.56903076171875,-0.1634979248046875,180573.4334721667,0.7100418898247842,0.06213820613427382,-3.147715527251994,180573.4334721667,2.953202843143688,-1.448312446055563,1.278572121189613,0.6895763874053955,0.07797526568174362,-3.117985725402832,0.2052510678768158,0.3719121217727661,0.1282301396131516,XTrueNorthZVertical,0.571350733481081,0.3949173154797493,0.5612940823178125,0.4500527913353285,-0.2859242856502533,-0.9576054811477661,-0.03519730642437935,-15.82949829101562,-30.65943908691406,18.4647274017334,2,0.0.0.0,10.83.46.32,3,0
