loggingTime,loggingSample,locationTimestamp_since1970,locationLatitude,locationLongitude,locationAltitude,locationSpeed,locationCourse,locationVerticalAccuracy,locationHorizontalAccuracy,locationFloor,locationHeadingTimestamp_since1970,locationHeadingX,locationHeadingY,locationHeadingZ,locationTrueHeading,locationMagneticHeading,locationHeadingAccuracy,accelerometerTimestamp_sinceReboot,accelerometerAccelerationX,accelerometerAccelerationY,accelerometerAccelerationZ,gyroTimestamp_sinceReboot,gyroRotationX,gyroRotationY,gyroRotationZ,motionTimestamp_sinceReboot,motionYaw,motionRoll,motionPitch,motionRotationRateX,motionRotationRateY,motionRotationRateZ,motionUserAccelerationX,motionUserAccelerationY,motionUserAccelerationZ,motionAttitudeReferenceFrame,motionQuaternionX,motionQuaternionY,motionQuaternionZ,motionQuaternionW,motionGravityX,motionGravityY,motionGravityZ,motionMagneticFieldX,motionMagneticFieldY,motionMagneticFieldZ,motionMagneticFieldCalibrationAccuracy,IP_en0,IP_pdp_ip0,deviceOrientation
2015-02-09 09:17:20.722,1,1423502237.563246,37.79080635566958,-122.3995917941222,9.78359,-1,-1,12.55686406731705,283.2025213268163,-9999,1423502240.631273,34.99033355712891,319.9484252929688,-68.49698638916016,7.987163543701172,354.2073669433594,-1,13374.79420125,0.210784912109375,-0.202911376953125,-0.9485626220703125,13374.78218145833,-0.04056234024688787,-2.030153797946086,-0.3425501604758781,13374.78218145833,0.07280458235672575,-0.01258531979984464,-0.1316864706256988,-0.04559530690312386,-2.020376920700073,-0.3042913973331451,0.2535801529884338,-0.2818341553211212,-0.009057083167135715,XTrueNorthZVertical,-0.06552226056094267,-0.00866936004005524,0.03672842377967508,0.9971372515627631,-0.01247602514922619,0.1313062012195587,-0.9912633299827576,0,0,0,-1,0.0.0.0,10.227.79.254,5
2015-02-09 09:17:20.812,2,1423502237.563246,37.79080635566958,-122.3995917941222,9.78359,-1,-1,12.55686406731705,283.2025213268163,-9999,1423502240.735469,30.65917015075684,320.1183471679688,-73.62260437011719,7.988689422607422,354.2088928222656,-1,13374.89230475,0.0084228515625,-0.2756500244140625,-0.5284271240234375,13374.88574216667,1.236159749498189,-1.123684869284219,-0.1928062050190116,13374.78218145833,0.07280458235672575,-0.01258531979984464,-0.1316864706256988,-0.04559530690312386,-2.020376920700073,-0.3042913973331451,0.2535801529884338,-0.2818341553211212,-0.009057083167135715,XTrueNorthZVertical,-0.06552226056094267,-0.00866936004005524,0.03672842377967508,0.9971372515627631,-0.01247602514922619,0.1313062012195587,-0.9912633299827576,0,0,0,-1,0.0.0.0,10.227.79.254,5
2015-02-09 09:17:20.879,3,1423502237.563246,37.79080635566958,-122.3995917941222,9.78359,-1,-1,12.55686406731705,283.2025213268163,-9999,1423502240.838997,23.94075202941895,318.7249450683594,-78.88137054443359,8.677135467529297,354.8973388671875,-1,13374.99042520833,0.0967864990234375,-0.29638671875,-0.85565185546875,13374.88574216667,1.236159749498189,-1.123684869284219,-0.1928062050190116,13374.88574216667,0.06828224904787468,-0.09788916952672555,-0.08375322398340286,1.23112678527832,-1.113908290863037,-0.154548242688179,0.1728908270597458,-0.394186943769455,0.3178655803203583,XTrueNorthZVertical,-0.04012130422603886,-0.05028097460751554,0.03611074767258121,0.997275347355106,-0.09739033132791519,0.08365534245967865,-0.9917241930961609,0,0,0,-1,0.0.0.0,10.227.79.254,5
2015-02-09 09:17:21.014,4,1423502237.563246,37.79080635566958,-122.3995917941222,9.78359,-1,-1,12.55686406731705,283.2025213268163,-9999,1423502240.942735,19.57548904418945,318.0452270507812,-80.27927398681641,9.758586883544922,355.9787902832031,-1,13375.08851183333,0.175079345703125,-0.3427581787109375,-1.262802124023438,13375.09286358333,0.1723462036283689,-0.2772435915927369,-0.1119616890719122,13374.989302875,0.0466336724587862,-0.09798602881791436,-0.05647918386319007,0.0764908492565155,-0.4890611171722412,-0.1902683526277542,0.183000460267067,-0.3524086475372314,0.160257562994957,XTrueNorthZVertical,-0.02705294557938881,-0.04959810470630738,0.02465989268479155,0.9980982195344283,-0.09767331182956696,0.05644915997982025,-0.9936163425445557,0,0,0,-1,0.0.0.0,10.227.79.254,5
2015-02-09 09:17:21.083,5,1423502237.563246,37.79080635566958,-122.3995917941222,9.78359,-1,-1,12.55686406731705,283.2025213268163,-9999,1423502241.04627,14.45993804931641,317.2635192871094,-82.34284973144531,10.53229904174805,356.7525024414062,-1,13375.1866095,-0.2186126708984375,-0.14825439453125,-1.340164184570312,13375.09286358333,0.1723462036283689,-0.2772435915927369,-0.1119616890719122,13375.09286358333,0.02769711098025815,-0.1467312750899734,-0.04573863617125197,0.1673135459423065,-0.2674674093723297,-0.07370526343584061,0.3211317658424377,-0.3884808719158173,-0.2745824456214905,XTrueNorthZVertical,-0.02178882452668377,-0.07358946325073829,0.01548325979571112,0.9969303419448683,-0.1460524201393127,0.04572268947958946,-0.988219678401947,0,0,0,-1,0.0.0.0,10.227.79.254,5
2015-02-09 09:17:21.184,6,1423502241.081208,37.7914187265912,-122.3996318132825,12.35022,3.34,135,24,50,-9999,1423502241.149257,8.935147285461426,310.2962951660156,-84.97222900390625,10.6989860534668,356.919189453125,-1,13375.28470820833,0.1163330078125,-0.2416229248046875,-0.9438629150390625,13375.196424375,2.091306101844812,0.2505344827042232,0.1122429188830246,13375.196424375,0.08156324614822738,-0.2223830269427512,0.02453520912011787,2.086273431777954,0.2603104710578918,0.1504986137151718,0.001875539193861187,-0.123721644282341,-0.3650831282138824,XTrueNorthZVertical,0.01670504216453551,-0.1103648787471533,0.03915541888275686,0.9929790472500027,-0.2204882055521011,-0.02453274838626385,-0.9750810861587524,0,0,0,-1,0.0.0.0,10.227.79.254,5
2015-02-09 09:17:21.284,7,1423502241.081208,37.7914187265912,-122.3996318132825,12.35022,3.34,135,24,50,-9999,1423502241.25362,0.9548965692520142,303.2271118164062,-85.93744659423828,11.74958419799805,357.9697875976562,-1,13375.38281183333,-0.1874847412109375,-0.4040679931640625,-0.408447265625,13375.29998520833,0.7708983165264028,-1.685008653304035,0.5500088114963967,13375.29998520833,0.1055360983892014,-0.2217479349363151,0.1486693177612673,0.7658658027648926,-1.675232887268066,0.5882637500762939,0.166392058134079,-0.1122232005000114,-0.1471695601940155,XTrueNorthZVertical,0.07952726958930269,-0.1062947883481002,0.04406905472400583,0.9901690511106858,-0.217509001493454,-0.1481222659349442,-0.9647536873817444,0,0,0,-1,0.0.0.0,10.227.79.254,5
2015-02-09 09:17:21.382,8,1423502241.081208,37.7914187265912,-122.3996318132825,12.35022,3.34,135,24,50,-9999,1423502241.356953,-3.052279710769653,301.5447998046875,-85.72109222412109,10.38297653198242,356.6031799316406,-1,13375.48091116667,0.011138916015625,-0.347808837890625,-0.9161529541015625,13375.40354591667,-1.029893395697699,0.4691906608440891,1.570390461044769,13375.40354591667,0.1844737006255564,-0.3638810052312691,0.144526095323601,-1.034925699234009,0.478966236114502,1.608644604682922,0.2567952871322632,-0.2370952963829041,0.7329765558242798,XTrueNorthZVertical,0.08732866232061691,-0.1731587259952479,0.07734119054682681,0.9779611958527777,-0.3521932363510132,-0.1440234780311584,-0.9247795343399048,0,0,0,-1,0.0.0.0,10.227.79.254,5
2015-02-09 09:17:21.488,9,1423502241.081208,37.7914187265912,-122.3996318132825,12.35022,3.34,135,24,50,-9999,1423502241.459856,-3.632046461105347,298.9618225097656,-86.48661804199219,8.256633758544922,354.4768371582031,-1,13375.578999625,-0.575531005859375,-0.750396728515625,-1.10498046875,13375.50710675,1.520487083274428,-1.741624794918029,0.6601819215802117,13375.50710675,0.2896181503797144,-0.33893121951518,0.1031633839809309,1.515454769134521,-1.731849431991577,0.698435366153717,0.3924029171466827,-0.396577000617981,0.06112800166010857,XTrueNorthZVertical,0.07459356161417172,-0.1593348893612646,0.1334425108307516,0.9753159948965937,-0.3307116329669952,-0.1029804944992065,-0.9380964040756226,0,0,0,-1,0.0.0.0,10.227.79.254,5
2015-02-09 09:17:21.565,10,1423502241.081208,37.7914187265912,-122.3996318132825,12.35022,3.34,135,24,50,-9999,1423502241.459856,-3.632046461105347,298.9618225097656,-86.48661804199219,8.256633758544922,354.4768371582031,-1,13375.67709970833,-0.7034759521484375,-0.570068359375,-1.086273193359375,13375.610667625,0.4135774656966184,1.06546710259065,0.1423859076810865,13375.610667625,0.3524062319940564,-0.4425083588055528,0.1243907910830994,0.4085453152656555,1.075242280960083,0.1806384921073914,0.08978546410799026,-0.7514027953147888,-0.5063781142234802,XTrueNorthZVertical,0.09809542494491659,-0.2050079396280645,0.1572599756732456,0.9610506398445318,-0.4248989820480347,-0.1240702569484711,-0.8966980576515198,0,0,0,-1,0.0.0.0,10.227.79.254,5
2015-02-09 09:17:21.664,11,1423502241.081208,37.7914187265912,-122.3996318132825,12.35022,3.34,135,24,50,-9999,1423502241.563715,-4.910929679870605,296.2258911132812,-88.50025939941406,7.379894256591797,353.60009765625,-1,13375.77529545833,0.000518798828125,-0.2942352294921875,-0.5911102294921875,13375.714228375,0.3723290951529261,1.299480132840349,-0.7025693261221309,13375.714228375,0.3798764335600288,-0.4001178369448936,0.1934388365277214,0.3669993877410889,1.309404373168945,-0.6644015908241272,-0.2684339880943298,-0.1346085369586945,-0.09379766136407852,XTrueNorthZVertical,0.1302845209523429,-0.176372706191293,0.1653221511166096,0.9615545738340366,-0.3822618126869202,-0.1922347247600555,-0.9038372039794922,0,0,0,-1,0.0.0.0,10.227.79.254,5
2015-02-09 09:17:21.762,12,1423502241.081208,37.7914187265912,-122.3996318132825,12.35022,3.34,135,24,50,-9999,1423502241.671699,-0.6138717532157898,294.390625,-88.76651763916016,7.134075164794922,353.3542785644531,-1,13375.8734215,-0.104888916015625,-0.3935699462890625,-0.52880859375,13375.81778933333,-0.5314439155374543,1.11653321649292,-0.2828841667815248,13375.81778933333,0.2834582597250246,-0.2628900232970243,0.1553616719594831,-0.5367735028266907,1.126457214355469,-0.2447172552347183,0.3484324216842651,-0.1447010487318039,0.1352257877588272,XTrueNorthZVertical,0.09461993326361735,-0.1184941389718929,0.1295451248904275,0.9799103366510743,-0.2567423582077026,-0.1547374278306961,-0.954012393951416,0,0,0,-1,0.0.0.0,10.227.79.254,5
2015-02-09 09:17:21.861,13,1423502241.081208,37.7914187265912,-122.3996318132825,12.35022,3.34,135,24,50,-9999,1423502241.773124,2.284933567047119,297.3134155273438,-84.83908843994141,7.691234588623047,353.9114379882812,-1,13375.97152604167,-0.0297088623046875,-0.5854339599609375,-0.58013916015625,13375.921350375,-0.238425355543742,0.4566490363225789,0.3008178935621184,13375.921350375,0.2972323835913849,-0.2322587085370763,0.1684030937823362,-0.2437548488378525,0.4665729105472565,0.3389840424060822,0.1717900186777115,-0.2860202789306641,0.4812330901622772,XTrueNorthZVertical,0.09971063589373855,-0.1018162058584526,0.136913983544622,0.9802784351520744,-0.226920023560524,-0.1676082462072372,-0.9593824744224548,0,0,0,-1,0.0.0.0,10.227.79.254,5
2015-02-09 09:17:21.958,14,1423502241.081208,37.7914187265912,-122.3996318132825,12.35022,3.34,135,24,50,-9999,1423502241.874317,1.671072363853455,297.687255859375,-82.14314270019531,7.570842742919922,353.7910461425781,-1,13376.06961854167,0.0139617919921875,-0.4737396240234375,-1.319061279296875,13376.024911125,-0.410609106345616,-0.1408375458233144,-0.06787731828339458,13376.024911125,0.2872342821061361,-0.1751368244686614,0.09603616492530866,-0.4159384667873383,-0.1309138834476471,-0.02971194125711918,0.137108787894249,-0.5604376792907715,-0.0605757012963295,XTrueNorthZVertical,0.05982613674112259,-0.0796128122386016,0.138256539278674,0.9853769648397402,-0.1734399646520615,-0.09588860720396042,-0.9801652431488037,0,0,0,-1,0.0.0.0,10.227.79.254,5
2015-02-09 09:17:22.056,15,1423502241.99135,37.79138817455414,-122.399593507985,11.85376,3.34,135,24,50,-9999,1423502241.980068,-0.6991302371025085,299.9133911132812,-78.96458435058594,7.752849578857422,353.9730529785156,-1,13376.16762391667,-0.4033203125,-0.4271697998046875,-1.394012451171875,13376.128472125,0.7687376939340216,0.4841333914044146,0.7056452771811724,13376.128472125,0.3018450943750509,-0.1819473272546352,0.111031935129228,0.7634084224700928,0.4940568506717682,0.7438098788261414,0.1256621927022934,-0.5946708917617798,0.05453978851437569,XTrueNorthZVertical,0.06826788267377683,-0.08136911302179509,0.1445142109838982,0.9837856506704028,-0.1798308938741684,-0.1108039394021034,-0.9774371385574341,0,0,0,-1,0.0.0.0,10.227.79.254,5
2015-02-09 09:17:22.156,16,1423502241.99135,37.79138817455414,-122.399593507985,11.85376,3.34,135,24,50,-9999,1423502242.081356,-4.6551513671875,298.41796875,-78.33219909667969,7.600109100341797,353.8203125,-1,13376.265847625,0.176239013671875,-0.3662872314453125,-0.81842041015625,13376.232033125,0.44075422567255,1.419850486738077,-0.06354568677038071,13376.232033125,0.3133173515369445,-0.2140156580971269,0.1634663301789797,0.4354250729084015,1.429773688316345,-0.02538180537521839,0.2239586561918259,-0.03914973884820938,0.4028951227664948,XTrueNorthZVertical,0.09678889756003946,-0.09247879466148469,0.1459955016471178,0.9801861534146861,-0.2095543593168259,-0.1627392917871475,-0.9641591906547546,0,0,0,-1,0.0.0.0,10.227.79.254,5
2015-02-09 09:17:22.253,17,1423502241.99135,37.79138817455414,-122.399593507985,11.85376,3.34,135,24,50,-9999,1423502242.185524,9.659406661987305,14.61697387695312,-37.36500930786133,343.1053466796875,329.3255615234375,15,13376.36385604167,-0.1239471435546875,-0.35284423828125,-0.430511474609375,13376.335594125,0.6602631479934591,-0.09468895887387632,0.2703108506430427,13376.335594125,0.3591682052521539,-0.1700035183731642,0.1539169828606063,0.6549340486526489,-0.08476589620113373,0.3084739446640015,0.002421322744339705,-0.219080775976181,0.4211983680725098,XTrueNorthZVertical,0.09049289364777366,-0.06960363260623922,0.1710263824395069,0.9786298314668959,-0.1671857237815857,-0.1533099710941315,-0.9739327430725098,0,0,0,-1,0.0.0.0,10.227.79.254,5
2015-02-09 09:17:22.351,18,1423502241.99135,37.79138817455414,-122.399593507985,11.85376,3.34,135,24,50,-9999,1423502242.288303,7.306255340576172,12.81570434570312,-35.70083999633789,343.8501281738281,330.0703430175781,15,13376.46207058333,0.0463104248046875,-0.512908935546875,-0.507781982421875,13376.43915525,-0.2436552712924396,0.2417503121647059,-0.37262870077556,13376.43915525,0.3652442755259407,-0.1124510814960728,0.1538864030725014,-0.2489842176437378,0.2516731917858124,-0.3344663381576538,0.04251354932785034,-0.3519845306873322,0.4791644215583801,XTrueNorthZVertical,0.08564509288104306,-0.0411602180924714,0.1765374753516904,0.9796965215353325,-0.1108881831169128,-0.1532797515392303,-0.9819415211677551,0,0,0,-1,0.0.0.0,10.227.79.254,5
2015-02-09 09:17:22.449,19,1423502241.99135,37.79138817455414,-122.399593507985,11.85376,3.34,135,24,50,-9999,1423502242.392696,4.953105926513672,12.67974853515625,-34.13652420043945,348.5737609863281,334.7939758300781,15,13376.560047875,0.092437744140625,-0.511383056640625,-1.006790161132812,13376.54271633333,-0.1137220385524546,-0.7116589612386803,-0.305980963967455,13376.43915525,0.3652442755259407,-0.1124510814960728,0.1538864030725014,-0.2489842176437378,0.2516731917858124,-0.3344663381576538,0.04251354932785034,-0.3519845306873322,0.4791644215583801,XTrueNorthZVertical,0.08564509288104306,-0.0411602180924714,0.1765374753516904,0.9796965215353325,-0.1108881831169128,-0.1532797515392303,-0.9819415211677551,0,0,0,-1,0.0.0.0,10.227.79.254,5
2015-02-09 09:17:22.548,20,1423502241.99135,37.79138817455414,-122.399593507985,11.85376,3.34,135,24,50,-9999,1423502242.495915,0.07628059387207031,13.90325927734375,-32.97160720825195,356.6851806640625,342.9053955078125,15,13376.65823729167,-0.2410888671875,-0.515869140625,-1.137893676757812,13376.64627729167,0.5859369851304377,-0.6171369825651519,0.009634784191688669,13376.64627729167,0.3313487655046047,-0.1516260141199208,0.1003753500561378,0.5806566476821899,-0.6072377562522888,0.04781390726566315,-0.06065208092331886,-0.5228857398033142,-0.1741179078817368,XTrueNorthZVertical,0.06181276029822231,-0.06635966837667527,0.1604891336999685,0.9828625616236929,-0.1502854228019714,-0.1002068817615509,-0.9835511445999146,0,0,0,-1,0.0.0.0,10.227.79.254,5
2015-02-09 09:17:22.645,21,1423502241.99135,37.79138817455414,-122.399593507985,11.85376,3.34,135,24,50,-9999,1423502242.599621,-5.414402008056641,13.32550048828125,-31.37400436401367,343.0550842285156,329.2752990722656,16,13376.756224375,-0.13018798828125,-0.3263092041015625,-0.7483978271484375,13376.74983820833,-0.9111531627032079,-0.6265949328604593,-0.03636812784612208,13376.64627729167,0.3313487655046047,-0.1516260141199208,0.1003753500561378,0.5806566476821899,-0.6072377562522888,0.04781390726566315,-0.06065208092331886,-0.5228857398033142,-0.1741179078817368,XTrueNorthZVertical,0.06181276029822231,-0.06635966837667527,0.1604891336999685,0.9828625616236929,-0.1502854228019714,-0.1002068817615509,-0.9835511445999146,0,0,0,-1,0.0.0.0,10.227.79.254,5
2015-02-09 09:17:22.743,22,1423502241.99135,37.79138817455414,-122.399593507985,11.85376,3.34,135,24,50,-9999,1423502242.704034,-10.20596885681152,14.15814208984375,-29.36037826538086,342.2852783203125,328.5054931640625,16,13376.8543115,-0.019927978515625,-0.3240814208984375,-0.771942138671875,13376.74983820833,-0.9111531627032079,-0.6265949328604593,-0.03636812784612208,13376.74983820833,0.3025874325816274,-0.1975825081630052,0.1242113842533693,-0.9164333343505859,-0.6166958808898926,0.001810194225981832,0.03272349759936333,-0.1516662389039993,0.2965826988220215,XTrueNorthZVertical,0.07589429741388252,-0.08800722076609482,0.1436414998377426,0.9827827350118878,-0.1947870999574661,-0.1238922327756882,-0.972989559173584,0,0,0,-1,0.0.0.0,10.227.79.254,5
2015-02-09 09:17:22.841,23,1423502241.99135,37.79138817455414,-122.399593507985,11.85376,3.34,135,24,50,-9999,1423502242.808646,-11.16086959838867,17.48886108398438,-28.66142654418945,341.9082946777344,328.1285095214844,16,13376.95239129167,0.036712646484375,-0.3170013427734375,-0.8046875,13376.85339941667,-1.227661868775855,0.9540963689646267,0.3401866050084327,13376.85339941667,0.2789552144341165,-0.1833324881959353,-0.0223373430851689,-1.23294198513031,0.9639952182769775,0.3783642053604126,0.193492203950882,-0.3398556411266327,0.2175391763448715,XTrueNorthZVertical,0.001711795073216602,-0.09218950585182699,0.1394458998071105,0.9859274850593275,-0.182261735200882,0.02233548648655415,-0.9829963445663452,0,0,0,-1,0.0.0.0,10.227.79.254,5
2015-02-09 09:17:22.939,24,1423502241.99135,37.79138817455414,-122.399593507985,11.85376,3.34,135,24,50,-9999,1423502242.910534,-11.33138656616211,17.21697998046875,-28.46171951293945,341.4681701660156,327.6883850097656,16,13377.0504845,0.095916748046875,-0.5102386474609375,-1.021087646484375,13376.95696041667,0.5487496689330071,0.0356866249231708,-0.02635011477357101,13376.95696041667,0.2814868869499084,-0.1164218387440433,-0.04711432431094099,0.5434697270393372,0.04558523744344711,0.01182668097317219,0.1527427732944489,-0.3640982508659363,0.18744096159935,XTrueNorthZVertical,-0.01512366025691832,-0.06088548079733119,0.1413596209291751,0.9879684664498527,-0.1160301193594933,0.04709689691662788,-0.9921284914016724,0,0,0,-1,0.0.0.0,10.227.79.254,5
2015-02-09 09:17:23.041,25,1423502242.997234,37.79119807299021,-122.3995883112051,12.26212,2.31,128.671875,6,50,-9999,1423502243.013417,-11.07560920715332,14.88888549804688,-29.27716445922852,341.9462280273438,328.1664428710938,16,13377.14857375,0.0167999267578125,-0.5831146240234375,-0.9846343994140625,13377.06052175,0.6146439974687288,0.2875470955341445,-0.2065222835812467,13377.06052175,0.2804014078305852,-0.1082194716814863,0.008484848980876904,0.6093640923500061,0.2974455058574677,-0.1683462560176849,0.2123898416757584,-0.4840842187404633,-0.007320126052945852,XTrueNorthZVertical,0.01175227436816063,-0.05296021131283038,0.1393088812583326,0.9887619206196356,-0.1080044731497765,-0.008484747260808945,-0.9941142201423645,0,0,0,-1,0.0.0.0,10.227.79.254,5
2015-02-09 09:17:23.140,26,1423502242.997234,37.79119807299021,-122.3995883112051,12.26212,2.31,128.671875,6,50,-9999,1423502243.116244,-13.37760925292969,11.88107299804688,-29.22723770141602,349.6913452148438,335.9115600585938,16,13377.24666716667,0.2369384765625,-0.1706390380859375,-0.7021331787109375,13377.164083,-0.02961275342502708,-1.141148814448522,-1.64693663499248,13377.164083,0.1916622676695405,-0.1243707513543807,0.07147172545731934,-0.03489252552390099,-1.131250619888306,-1.608761310577393,0.2083436548709869,-0.3596956729888916,-0.253879189491272,XTrueNorthZVertical,0.041438130959176,-0.05840863557934185,0.09322844621191465,0.9930658434410506,-0.1237336695194244,-0.0714108943939209,-0.989742636680603,0,0,0,-1,0.0.0.0,10.227.79.254,5
2015-02-09 09:17:23.238,27,1423502242.997234,37.79119807299021,-122.3995883112051,12.26212,2.31,128.671875,6,50,-9999,1423502243.221793,-14.53712844848633,11.74514770507812,-29.65990829467773,353.1058349609375,339.3260498046875,16,13377.34486008333,-0.1678466796875,-0.2550201416015625,-0.7947235107421875,13377.26764408333,-0.9686651917079051,0.2046745824169498,0.6216310669046606,13377.26764408333,0.08857279051747939,-0.177146405970219,0.08625330900364787,-0.9739448428153992,0.2145726084709167,0.6598055958747864,0.3793931603431702,-0.09618087112903595,0.2306759655475616,XTrueNorthZVertical,0.04681471437395637,-0.0863873111083642,0.04024741782039849,0.9943469014163748,-0.1755662560462952,-0.08614639937877655,-0.9806912541389465,0,0,0,-1,0.0.0.0,10.227.79.254,5
2015-02-09 09:17:23.331,28,1423502242.997234,37.79119807299021,-122.3995883112051,12.26212,2.31,128.671875,6,50,-9999,1423502243.325143,-15.1510009765625,16.02743530273438,-28.3951530456543,350.3623657226562,336.5825805664062,16,13377.44282633333,0.0172271728515625,-0.2632293701171875,-0.839813232421875,13377.37120533333,-0.8235974808091089,0.5626316624311543,0.432522661059224,13377.37120533333,0.1324709949998801,-0.2112545400105064,-0.04851476158432269,-0.8288770318031311,0.5725294947624207,0.4706964194774628,0.03327727690339088,-0.319705456495285,0.2772010564804077,XTrueNorthZVertical,-0.01709081613107257,-0.1067652488416338,0.0683504493316052,0.9917849069833284,-0.2094399929046631,0.04849573224782944,-0.9766181707382202,0,0,0,-1,0.0.0.0,10.227.79.254,5
2015-02-09 09:17:23.430,29,1423502242.997234,37.79119807299021,-122.3995883112051,12.26212,2.31,128.671875,6,50,-9999,1423502243.325143,-15.1510009765625,16.02743530273438,-28.3951530456543,350.3623657226562,336.5825805664062,16,13377.54092179167,0.0527496337890625,-0.1089630126953125,-1.086868286132812,13377.47476658333,-0.6669974834419424,-0.5925605330775737,-0.1000493695159878,13377.47476658333,0.1315794747857056,-0.2446130625239487,-0.1646172703394723,-0.6722769141197205,-0.5826628804206848,-0.06187639012932777,0.1529541611671448,-0.4378463327884674,0.005134104285389185,XTrueNorthZVertical,-0.07343150878474462,-0.1266904336062352,0.07503905093223429,0.9863703606584362,-0.2389069199562073,0.1638747900724411,-0.9571146965026855,0,0,0,-1,0.0.0.0,10.227.79.254,5
2015-02-09 09:17:23.527,30,1423502242.997234,37.79119807299021,-122.3995883112051,12.26212,2.31,128.671875,6,50,-9999,1423502243.429614,-16.5151481628418,17.38690185546875,-26.29829788208008,350.6058959960938,336.8261108398438,16,13377.639002375,-0.1287384033203125,-0.1544952392578125,-1.331100463867188,13377.57832779167,-0.2373390521350986,-0.1401491186815289,0.1042664851021283,13377.57832779167,0.1080604911710433,-0.2710611539632182,-0.1792431375265591,-0.2426183968782425,-0.1302516758441925,0.1424387395381927,0.2626250386238098,-0.286607027053833,-0.04863764718174934,XTrueNorthZVertical,-0.08128396632560043,-0.1391665157262581,0.06536944571171824,0.9847600892026135,-0.2634642720222473,0.1782848834991455,-0.9480512142181396,0,0,0,-1,0.0.0.0,10.227.79.254,5
2015-02-09 09:17:23.627,31,1423502242.997234,37.79119807299021,-122.3995883112051,12.26212,2.31,128.671875,6,50,-9999,1423502243.532973,-17.79402923583984,16.41830444335938,-25.18330764770508,351.4273071289062,337.6475219726562,16,13377.73715508333,-0.4531402587890625,0.0043487548828125,-0.706146240234375,13377.68188904167,0.4906280423547908,-0.5015890807693389,-0.04326278559222822,13377.68188904167,0.1441785865132788,-0.2819046178675469,-0.1774331459761005,0.4853838086128235,-0.4917083978652954,-0.005076989997178316,-0.02902311272919178,-0.180348813533783,-0.5016964673995972,XTrueNorthZVertical,-0.07741474868575333,-0.1458884075738344,0.08344686992573598,0.9827309647716892,-0.2738180756568909,0.176503598690033,-0.9454470872879028,0,0,0,-1,0.0.0.0,10.227.79.254,5
2015-02-09 09:17:23.724,32,1423502242.997234,37.79119807299021,-122.3995883112051,12.26212,2.31,128.671875,6,50,-9999,1423502243.639298,-21.06797790527344,14.75296020507812,-23.81869888305664,349.4063415527344,335.6265563964844,16,13377.835208375,-0.023834228515625,-0.21820068359375,-0.80078125,13377.78545025,-0.3182299070851654,0.4032728964907747,-0.1979841891264527,13377.78545025,0.1738444328681443,-0.2157083494486191,-0.1623090259637748,-0.3234740495681763,0.4131533801555634,-0.1597991138696671,0.08674504607915878,-0.3080816864967346,-0.02923869714140892,XTrueNorthZVertical,-0.07097592272588613,-0.11388247532872,0.09471766714907522,0.986418655407558,-0.2112262547016144,0.1615973114967346,-0.9639863967895508,0,0,0,-1,0.0.0.0,10.227.79.254,5
2015-02-09 09:17:23.826,33,1423502242.997234,37.79119807299021,-122.3995883112051,12.26212,2.31,128.671875,6,50,-9999,1423502243.739916,-23.57459259033203,12.52682495117188,-23.43593597412109,348.0191650390625,334.2393798828125,16,13377.93331675,3.0517578125e-05,-0.2171478271484375,-0.5388336181640625,13377.88901141667,0.1575696543200642,1.151837145167446,0.1064148571534952,13377.88901141667,0.1868404668497336,-0.1750933921874331,-0.1544610788847011,0.1523256301879883,1.161717414855957,0.144599124789238,0.1403573751449585,-0.3861168920993805,0.2825724482536316,XTrueNorthZVertical,-0.06839116554976775,-0.09396383925585362,0.09936667205079565,0.9882407145390235,-0.1721261739730835,0.1538476198911667,-0.9729868769645691,0,0,0,-1,0.0.0.0,10.227.79.254,5
2015-02-09 09:17:23.926,34,1423502242.997234,37.79119807299021,-122.3995883112051,12.26212,2.31,128.671875,6,50,-9999,1423502243.844584,-23.21651077270508,11.25234985351562,-24.71735000610352,346.8378601074219,333.0580749511719,16,13378.03140791667,0.0246124267578125,-0.35400390625,-0.9276885986328125,13377.99257279167,0.427649875212706,-0.4600357782808326,-0.1873142342190502,13377.99257279167,0.1696712847928881,-0.1222870008892084,-0.1388286541741431,0.4224059879779816,-0.4501557052135468,-0.1491307318210602,0.2993519306182861,-0.3002941310405731,0.274212121963501,XTrueNorthZVertical,-0.06381478175543372,-0.0666050692451251,0.08859484454697816,0.9917874731514116,-0.1208088248968124,0.1383831351995468,-0.982982873916626,0,0,0,-1,0.0.0.0,10.227.79.254,5
2015-02-09 09:17:24.026,35,1423502243.999638,37.79108630031141,-122.3995338288344,12.08691,1.14,146.953125,6,50,-9999,1423502243.948255,-22.80726623535156,9.55303955078125,-25.08346176147461,348.0039672851562,334.2241821289062,16,13378.12952620833,-0.02655029296875,-0.322906494140625,-1.328857421875,13378.09613425,0.1512166835396802,-0.898686905640547,-0.7384210670328866,13378.09613425,0.1034507137113824,-0.204892200457438,-0.1088823398107602,0.14597287774086,-0.8888069987297058,-0.7002382874488831,0.3123794198036194,-0.3689822554588318,-0.1251800060272217,XTrueNorthZVertical,-0.04877698661765285,-0.1047774989766863,0.05691236303905137,0.9916670127709247,-0.2022567540407181,0.108667328953743,-0.9732849597930908,0,0,0,-1,0.0.0.0,10.227.79.254,5
2015-02-09 09:17:24.118,36,1423502243.999638,37.79108630031141,-122.3995338288344,12.08691,1.14,146.953125,6,50,-9999,1423502244.051692,-24.47834396362305,7.1400146484375,-23.75212097167969,352.9357604980469,339.1559753417969,16,13378.227650125,-0.2079620361328125,-0.086578369140625,-1.310516357421875,13378.19969541667,-0.3567815607090435,-1.506030379613042,-0.05185813801045896,13378.19969541667,0.1023581322329716,-0.2400025780266844,-0.0975369031049696,-0.362025260925293,-1.496150612831116,-0.01367616280913353,0.006457531359046698,-0.211502805352211,-0.7796630263328552,XTrueNorthZVertical,-0.04221830201763423,-0.1218905032558432,0.0565567332424722,0.9900311389626749,-0.2365753352642059,0.0973823219537735,-0.9667206406593323,0,0,0,-1,0.0.0.0,10.227.79.254,5
2015-02-09 09:17:24.218,37,1423502243.999638,37.79108630031141,-122.3995338288344,12.08691,1.14,146.953125,6,50,-9999,1423502244.156005,-22.73906326293945,7.649810791015625,-24.18481063842773,352.578125,338.79833984375,16,13378.32577504167,-0.09027099609375,-0.081878662109375,-0.9879608154296875,13378.303257,-0.784887369100371,0.0760215312129659,0.6110940037356531,13378.303257,0.1162627200814964,-0.1975048065719947,-0.1291661456200602,-0.7901309728622437,0.08590101450681686,0.6492752432823181,0.3662805557250977,-0.207924097776413,-0.07994680851697922,XTrueNorthZVertical,-0.05839915244332512,-0.1019515566914598,0.06404723324442549,0.9910062416533155,-0.1945886462926865,0.1288072764873505,-0.9723908305168152,0,0,0,-1,0.0.0.0,10.227.79.254,5
2015-02-09 09:17:24.324,38,1423502243.999638,37.79108630031141,-122.3995338288344,12.08691,1.14,146.953125,6,50,-9999,1423502244.259204,-19.05586624145508,10.13082885742188,-25.41629409790039,350.5867614746094,336.8069763183594,16,13378.42391891667,-0.0125579833984375,-0.1587982177734375,-0.543121337890625,13378.40681833333,0.04748975487440198,0.6745779051687441,0.07707188194689316,13378.303257,0.1162627200814964,-0.1975048065719947,-0.1291661456200602,-0.7901309728622437,0.08590101450681686,0.6492752432823181,0.3662805557250977,-0.207924097776413,-0.07994680851697922,XTrueNorthZVertical,-0.05839915244332512,-0.1019515566914598,0.06404723324442549,0.9910062416533155,-0.1945886462926865,0.1288072764873505,-0.9723908305168152,0,0,0,-1,0.0.0.0,10.227.79.254,5
2015-02-09 09:17:24.417,39,1423502243.999638,37.79108630031141,-122.3995338288344,12.08691,1.14,146.953125,6,50,-9999,1423502244.364036,-16.44694137573242,11.3033447265625,-26.26501083374023,348.7594909667969,334.9797058105469,16,13378.52203883333,0.1145172119140625,-0.2327117919921875,-0.9832763671875,13378.51037958333,-0.3941153507664283,-0.2301357340186523,-0.1011255529124888,13378.51037958333,0.152702009697555,-0.0860419842281879,-0.154555821222044,-0.3993587493896484,-0.2202566415071487,-0.06294582784175873,0.2417260855436325,-0.3804884850978851,0.1235238909721375,XTrueNorthZVertical,-0.07363418058146878,-0.04863764842669977,0.07928940257106111,0.9929378516531369,-0.08491150289773941,0.1539412289857864,-0.9844247698783875,0,0,0,-1,0.0.0.0,10.227.79.254,5
2015-02-09 09:17:24.515,40,1423502243.999638,37.79108630031141,-122.3995338288344,12.08691,1.14,146.953125,6,50,-9999,1423502244.466408,-16.66861343383789,11.8641357421875,-25.31643295288086,348.7532348632812,334.9734497070312,16,13378.62014108333,0.2135009765625,-0.175872802734375,-1.389617919921875,13378.61394104167,-0.1713501813806793,-0.1207357395992873,-0.2461796816897257,13378.51037958333,0.152702009697555,-0.0860419842281879,-0.154555821222044,-0.3993587493896484,-0.2202566415071487,-0.06294582784175873,0.2417260855436325,-0.3804884850978851,0.1235238909721375,XTrueNorthZVertical,-0.07363418058146878,-0.04863764842669977,0.07928940257106111,0.9929378516531369,-0.08491150289773941,0.1539412289857864,-0.9844247698783875,0,0,0,-1,0.0.0.0,10.227.79.254,5
2015-02-09 09:17:24.614,41,1423502243.999638,37.79108630031141,-122.3995338288344,12.08691,1.14,146.953125,6,50,-9999,1423502244.571659,-17.69172286987305,11.66021728515625,-25.21658706665039,350.4051818847656,336.6253967285156,16,13378.718244125,-0.1103973388671875,0.1297607421875,-1.48388671875,13378.61394104167,-0.1713501813806793,-0.1207357395992873,-0.2461796816897257,13378.61394104167,0.1200531048163869,-0.1055087734259123,-0.1824127391150051,-0.1765934675931931,-0.1108568608760834,-0.2080007642507553,0.3059737086296082,-0.3449922800064087,-0.3655198216438293,XTrueNorthZVertical,-0.08763930250142445,-0.05787251102333969,0.06445204392484015,0.9923789896802703,-0.1035658642649651,0.1814028024673462,-0.9779402613639832,0,0,0,-1,0.0.0.0,10.227.79.254,5
2015-02-09 09:17:24.713,42,1423502243.999638,37.79108630031141,-122.3995338288344,12.08691,1.14,146.953125,6,50,-9999,1423502244.674342,-19.08996963500977,10.504638671875,-24.81719589233398,352.3389282226562,338.5591430664062,16,13378.81632908333,0.1656036376953125,-0.07147216796875,-0.989990234375,13378.7175025,0.5056954088541322,-0.4126885025247499,-0.6265584475535253,13378.7175025,0.09808167751713197,-0.1387875657913099,-0.1547726174392772,0.5004787445068359,-0.4028221070766449,-0.5883683562278748,0.06134087964892387,-0.06969804316759109,-0.6055146455764771,XTrueNorthZVertical,-0.07364144074502003,-0.07282813417450754,0.05411086280696841,0.9931490399753446,-0.1366887837648392,0.154155433177948,-0.9785460233688354,0,0,0,-1,0.0.0.0,10.227.79.254,5
2015-02-09 09:17:24.815,43,1423502243.999638,37.79108630031141,-122.3995338288344,12.08691,1.14,146.953125,6,50,-9999,1423502244.776987,-19.89141082763672,8.89031982421875,-23.96846771240234,355.1269226074219,341.3471374511719,16,13378.91442516667,0.06231689453125,-0.1590118408203125,-0.7021636962890625,13378.82106383333,-0.3386733968770497,-0.08785422225229697,-0.3983873274710244,13378.82106383333,0.04840321774253646,-0.1609258056815052,-0.1404885278650099,-0.3438899517059326,-0.07798805087804794,-0.3601980805397034,0.324257105588913,-0.2114990204572678,-0.01263586618006229,XTrueNorthZVertical,-0.06799869823067184,-0.0818473769042886,0.02970113382917423,0.9938787786154243,-0.1586534678936005,0.1400268524885178,-0.9773543477058411,0,0,0,-1,0.0.0.0,10.227.79.254,5
2015-02-09 09:17:24.915,44,1423502243.999638,37.79108630031141,-122.3995338288344,12.08691,1.14,146.953125,6,50,-9999,1423502244.8808,-21.71596145629883,8.567474365234375,-24.58420181274414,353.3330993652344,339.5533142089844,16,13379.012513875,0.0522308349609375,-0.231719970703125,-0.8578643798828125,13378.92462533333,0.3395466473984867,0.750066005215367,0.4391587258634835,13378.92462533333,0.06417342399445806,-0.1361344135610205,-0.1387901868028113,0.3343301713466644,0.7599319815635681,0.477347195148468,0.202173575758934,-0.3118069469928741,0.3154038190841675,XTrueNorthZVertical,-0.06696649241244843,-0.07003537089723567,0.03664354877487519,0.9946194176922393,-0.1344092935323715,0.1383450329303741,-0.981221079826355,0,0,0,-1,0.0.0.0,10.227.79.254,5
2015-02-09 09:17:25.027,45,1423502244.988715,37.79113604690674,-122.3996148818381,12.99356,0.9,-1,6,30,-9999,1423502244.985824,-23.13125991821289,7.462921142578125,-24.06830978393555,351.9300231933594,338.1502380371094,16,13379.11062370833,0.0641326904296875,-0.2723388671875,-1.07958984375,13379.02818683333,0.3693913621544597,-0.1535219157792528,0.005658684684200365,13379.02818683333,0.1062962021764057,-0.1054116981652495,-0.1486856263654272,0.3641749918460846,-0.1436561346054077,0.04384643957018852,0.1288207173347473,-0.3731292486190796,0.1101099029183388,XTrueNorthZVertical,-0.07127560934015914,-0.05640195744591293,0.05681013988881146,0.9942390128712902,-0.1040556952357292,0.1481383889913559,-0.9834772348403931,0,0,0,-1,0.0.0.0,10.227.79.254,5
2015-02-09 09:17:25.117,46,1423502244.988715,37.79113604690674,-122.3996148818381,12.99356,0.9,-1,6,30,-9999,1423502245.089418,-24.81938934326172,6.698272705078125,-23.81867980957031,352.366943359375,338.587158203125,16,13379.20874283333,-0.1336669921875,-0.1279144287109375,-1.524856567382812,13379.13174816667,0.2369331863849706,-0.3921677810612533,-0.08226637765309271,13379.13174816667,0.09718279771260062,-0.131008479345877,-0.1197816569900306,0.2317169308662415,-0.3823021948337555,-0.04407941922545433,0.1467268317937851,-0.362369567155838,-0.2516961395740509,XTrueNorthZVertical,-0.05648245172581461,-0.06816398293211008,0.05229454067819037,0.9947002991319218,-0.1296980232000351,0.1194954290986061,-0.9843267798423767,0,0,0,-1,0.0.0.0,10.227.79.254,5
2015-02-09 09:17:25.214,47,1423502244.988715,37.79113604690674,-122.3996148818381,12.99356,0.9,-1,6,30,-9999,1423502245.19224,-25.34799575805664,6.00152587890625,-23.10309982299805,352.3410034179688,338.5612182617188,16,13379.306856625,0.2186126708984375,-0.0891265869140625,-1.000137329101562,13379.23530970833,0.780647084012747,-0.1484906718478751,-0.2337320667546953,13379.23530970833,0.1033300484319739,-0.1628376459988934,-0.1034104908668896,0.7754309177398682,-0.1386252790689468,-0.1955458372831345,0.1988047808408737,-0.1563268750905991,-0.6525181531906128,XTrueNorthZVertical,-0.04724789268290223,-0.08377196682229245,0.0555998308180389,0.9938101192002229,-0.1612529009580612,0.1032262817025185,-0.9814997911453247,0,0,0,-1,0.0.0.0,10.227.79.254,5
2015-02-09 09:17:25.315,48,1423502244.988715,37.79113604690674,-122.3996148818381,12.99356,0.9,-1,6,30,-9999,1423502245.295856,-25.46735382080078,5.610687255859375,-22.65377426147461,351.0880432128906,337.3082580566406,16,13379.404972125,-0.0118408203125,-0.1800079345703125,-0.5247039794921875,13379.33887141667,0.287362005838384,-0.1554681539038827,0.4107374707101579,13379.33887141667,0.1201489379649747,-0.147227799812088,-0.08020883439579125,0.2821459472179413,-0.1456029713153839,0.448922872543335,0.1591643095016479,-0.2212819159030914,0.1035855561494827,XTrueNorthZVertical,-0.03550083723907552,-0.07575636504857258,0.06277106302230963,0.9945151870921864,-0.1462248563766479,0.08012285828590393,-0.9860013127326965,0,0,0,-1,0.0.0.0,10.227.79.254,5
2015-02-09 09:17:25.393,49,1423502244.988715,37.79113604690674,-122.3996148818381,12.99356,0.9,-1,6,30,-9999,1423502245.295856,-25.46735382080078,5.610687255859375,-22.65377426147461,351.0880432128906,337.3082580566406,16,13379.503079375,0.143402099609375,-0.3145904541015625,-0.729949951171875,13379.442432625,0.009633452611143628,0.04919630850092476,0.1822217375826007,13379.442432625,0.1461153039228344,-0.1307891347734602,-0.07308118158827953,0.004417498130351305,0.05906130000948906,0.2204064428806305,0.06617991626262665,-0.2901334464550018,0.2928136885166168,XTrueNorthZVertical,-0.03159039088690929,-0.06779104747680836,0.07516899315055413,0.9943621289823675,-0.1300684660673141,0.07301614433526993,-0.9888128638267517,0,0,0,-1,0.0.0.0,10.227.79.254,5
2015-02-09 09:17:25.496,50,1423502244.988715,37.79113604690674,-122.3996148818381,12.99356,0.9,-1,6,30,-9999,1423502245.399432,-24.93875122070312,5.42376708984375,-22.50400161743164,350.1202392578125,336.3404541015625,16,13379.601179,0.1789398193359375,-0.28350830078125,-1.120361328125,13379.54599420833,-0.3188259225371252,-0.3038525656242637,-0.2339528428090629,13379.54599420833,0.1337577341802578,-0.1393648054294998,-0.05978343700007478,-0.3240417838096619,-0.2939877808094025,-0.1957689374685287,0.1225373968482018,-0.4403935968875885,0.08973154425621033,XTrueNorthZVertical,-0.02509712265268793,-0.0714318268632336,0.06871333722528733,0.9947593205559354,-0.1386659443378448,0.05974783003330231,-0.9885352849960327,0,0,0,-1,0.0.0.0,10.227.79.254,5
2015-02-09 09:17:25.620,51,1423502244.988715,37.79113604690674,-122.3996148818381,12.99356,0.9,-1,6,30,-9999,1423502245.563852,-24.27372741699219,4.89697265625,-23.11974716186523,351.3224487304688,337.5426635742188,16,13379.699265875,-0.05902099609375,-0.405303955078125,-1.2291259765625,13379.64955579167,0.4986127319350664,-0.3561461304729506,0.4190936712624995,13379.64955579167,0.1223835929547833,-0.1237585262535879,-0.06518225054722673,0.4934177398681641,-0.3462909758090973,0.4572870433330536,0.3939479291439056,-0.3617669641971588,-0.3228049874305725,XTrueNorthZVertical,-0.02868240144586853,-0.06368015982316451,0.06301545964644829,0.9955657732855961,-0.1231807023286819,0.06513610482215881,-0.9902443289756775,0,0,0,-1,0.0.0.0,10.227.79.254,5
2015-02-09 09:17:25.743,52,1423502244.988715,37.79113604690674,-122.3996148818381,12.99356,0.9,-1,6,30,-9999,1423502245.697623,-21.46017074584961,3.724456787109375,-23.53578948974609,349.8004150390625,336.0206298828125,16,13379.79735979167,0.0379638671875,-0.1779022216796875,-0.6670684814453125,13379.75311733333,0.5860368536713156,0.317712188569254,-0.4946869661721807,13379.75311733333,0.166382629955629,-0.1326137537690037,0.02584570032205079,0.5808419585227966,0.3275671303272247,-0.4564943909645081,0.02941329032182693,-0.0865686759352684,-0.1355609595775604,XTrueNorthZVertical,0.01835479995073442,-0.0649521991508001,0.08205260386679665,0.9943398228688861,-0.1321812272071838,-0.0258428230881691,-0.9908886551856995,0,0,0,-1,0.0.0.0,10.227.79.254,5
2015-02-09 09:17:25.809,53,1423502244.988715,37.79113604690674,-122.3996148818381,12.99356,0.9,-1,6,30,-9999,1423502245.697623,-21.46017074584961,3.724456787109375,-23.53578948974609,349.8004150390625,336.0206298828125,16,13379.895470625,0.1318817138671875,-0.309539794921875,-0.785858154296875,13379.85667879167,-0.2916619457344259,-0.3093581185457845,-0.05038114886990101,13379.85667879167,0.164637922579333,-0.1049836985453866,0.01399494781138587,-0.2968567311763763,-0.2995033860206604,-0.01218934077769518,0.2264390140771866,-0.2548806369304657,0.0597502775490284,XTrueNorthZVertical,0.01127822447515466,-0.05171421806528825,0.08174485929444286,0.9952468132486136,-0.1047806963324547,-0.01399449072778225,-0.9943968653678894,0,0,0,-1,0.0.0.0,10.227.79.254,5
2015-02-09 09:17:25.916,54,1423502244.988715,37.79113604690674,-122.3996148818381,12.99356,0.9,-1,6,30,-9999,1423502245.818015,-20.16423797607422,4.438201904296875,-24.23473739624023,74.27152252197266,60.49172592163086,15,13379.99356070833,0.0143280029296875,-0.3625030517578125,-0.6630706787109375,13379.96024033333,0.102374309147627,-0.03663311237458496,0.3518017157867043,13379.96024033333,0.2003526868773573,-0.1188953121387463,0.0006369177496217732,0.09717962890863419,-0.0267785582691431,0.3899928033351898,0.10770533233881,-0.3711434900760651,0.3236438035964966,XTrueNorthZVertical,0.006258094428096697,-0.05908298925601672,0.09981338201986163,0.9932307513385118,-0.1186153665184975,-0.0006369177135638893,-0.9929400682449341,0,0,0,-1,0.0.0.0,10.227.79.254,5
2015-02-09 09:17:25.997,55,1423502244.988715,37.79113604690674,-122.3996148818381,12.99356,0.9,-1,6,30,-9999,1423502245.921487,-22.3298225402832,4.896942138671875,-24.11824417114258,74.69244384765625,60.91265106201172,15,13380.09164754167,0.0787353515625,-0.48065185546875,-0.84271240234375,13380.06380191667,0.2247111411942699,0.04740320213897441,0.4130677366639772,13380.06380191667,0.2202002900769195,-0.1079464772848186,0.02444036830253543,0.2195165604352951,0.05725754797458649,0.4512580037117004,0.1739126741886139,-0.38518425822258,0.2682660520076752,XTrueNorthZVertical,0.01805534434859793,-0.05227565111627634,0.1090544088482306,0.9924960436956871,-0.1077047809958458,-0.02443793602287769,-0.9938825368881226,0,0,0,-1,0.0.0.0,10.227.79.254,5
2015-02-09 09:17:26.129,56,1423502246.014797,37.79119585178587,-122.3996597250201,15.81049,1.62,119.53125,6,50,-9999,1423502246.029467,-22.96074295043945,4.64208984375,-23.26951217651367,75.2296142578125,61.44982147216797,15,13380.189748125,0.1528472900390625,-0.49285888671875,-1.101028442382812,13380.167363375,0.4541360775179801,-0.3363788172818374,0.1850414925447766,13380.167363375,0.2509803075305066,-0.1303343869477613,0.03952213464130433,0.4489415884017944,-0.3265246450901031,0.2232310473918915,0.1320614814758301,-0.3768242001533508,-0.18215312063694,XTrueNorthZVertical,0.02771181712305669,-0.06212847488908797,0.1235943325754222,0.9899982569454026,-0.1298642158508301,-0.03951184824109077,-0.9907442331314087,0,0,0,-1,0.0.0.0,10.227.79.254,5
2015-02-09 09:17:26.192,57,1423502246.014797,37.79119585178587,-122.3996597250201,15.81049,1.62,119.53125,6,50,-9999,1423502246.152697,-22.68791580200195,6.171478271484375,-22.37087249755859,71.07552337646484,57.29572677612305,15,13380.28782483333,0.12164306640625,-0.24737548828125,-0.97186279296875,13380.270925125,0.6999849946003179,0.2213036265795136,0.1105845684722323,13380.167363375,0.2509803075305066,-0.1303343869477613,0.03952213464130433,0.4489415884017944,-0.3265246450901031,0.2232310473918915,0.1320614814758301,-0.3768242001533508,-0.18215312063694,XTrueNorthZVertical,0.02771181712305669,-0.06212847488908797,0.1235943325754222,0.9899982569454026,-0.1298642158508301,-0.03951184824109077,-0.9907442331314087,0,0,0,-1,0.0.0.0,10.227.79.254,5
2015-02-09 09:17:26.323,58,1423502246.014797,37.79119585178587,-122.3996597250201,15.81049,1.62,119.53125,6,50,-9999,1423502246.258006,-20.573486328125,8.0067138671875,-22.83683776855469,66.21147155761719,52.43167495727539,15,13380.38592108333,0.146148681640625,-0.277984619140625,-0.894927978515625,13380.374486375,-0.8333470472437799,0.3798967337064952,0.7343930358841417,13380.374486375,0.3818337513219098,0.04673171790197335,0.03499652971513486,-0.8385412693023682,0.3897504806518555,0.7725810408592224,0.2172909379005432,-0.2743062674999237,0.1329706907272339,XTrueNorthZVertical,0.01274196245768132,0.02625509832765234,0.1900797266059521,0.9813348102141002,0.04668610543012619,-0.03498938679695129,-0.9982966184616089,0,0,0,-1,0.0.0.0,10.227.79.254,5
2015-02-09 09:17:26.428,59,1423502246.014797,37.79119585178587,-122.3996597250201,15.81049,1.62,119.53125,6,50,-9999,1423502246.393662,-16.22526931762695,11.76223754882812,-23.91854476928711,58.40615081787109,44.6263542175293,15,13380.484009625,0.0436859130859375,-0.317718505859375,-0.7324981689453125,13380.47804816667,-0.208850685322303,1.071970808288733,0.6142746170255348,13380.374486375,0.3818337513219098,0.04673171790197335,0.03499652971513486,-0.8385412693023682,0.3897504806518555,0.7725810408592224,0.2172909379005432,-0.2743062674999237,0.1329706907272339,XTrueNorthZVertical,0.01274196245768132,0.02625509832765234,0.1900797266059521,0.9813348102141002,0.04668610543012619,-0.03498938679695129,-0.9982966184616089,0,0,0,-1,0.0.0.0,10.227.79.254,5
2015-02-09 09:17:26.473,60,1423502246.014797,37.79119585178587,-122.3996597250201,15.81049,1.62,119.53125,6,50,-9999,1423502246.393662,-16.22526931762695,11.76223754882812,-23.91854476928711,58.40615081787109,44.6263542175293,15,13380.58211154167,0.27740478515625,-0.410430908203125,-1.264984130859375,13380.47804816667,-0.208850685322303,1.071970808288733,0.6142746170255348,13380.47804816667,0.4522314881138414,0.09597249948094853,0.005837218613782594,-0.2140448391437531,1.081824421882629,0.6524618268013,-0.06593164056539536,-0.2723152935504913,0.2629135549068451,XTrueNorthZVertical,-0.007913010983389939,0.04740017484293125,0.2240712515966791,0.9733872209403304,0.09582360833883286,-0.005837185308337212,-0.995381236076355,0,0,0,-1,0.0.0.0,10.227.79.254,5
2015-02-09 09:17:26.573,61,1423502246.014797,37.79119585178587,-122.3996597250201,15.81049,1.62,119.53125,6,50,-9999,1423502246.513725,-11.00741577148438,14.31124877929688,-24.05167007446289,50.55902099609375,36.77922439575195,15,13380.68022279167,0.395263671875,-0.446441650390625,-1.127044677734375,13380.58160966667,0.5583588867782311,-0.3333784999977542,-0.06597875074227709,13380.58160966667,0.5010428799040346,0.1694772493463351,-0.03931789069453944,0.5531648397445679,-0.3235251307487488,-0.02779224887490273,0.09022178500890732,-0.4512493014335632,-0.3069130480289459,XTrueNorthZVertical,-0.03995399196625525,0.07712347494338348,0.2453600490264483,0.965533062344507,0.1685367524623871,0.03930776193737984,-0.984911322593689,0,0,0,-1,0.0.0.0,10.227.79.254,5
2015-02-09 09:17:26.673,62,1423502246.014797,37.79119585178587,-122.3996597250201,15.81049,1.62,119.53125,6,50,-9999,1423502246.622935,-11.14382934570312,14.75308227539062,-23.61899185180664,49.53284072875977,35.75304412841797,15,13380.77846720833,-0.0621490478515625,-0.5186309814453125,-0.9041290283203125,13380.68517116667,0.3625675444933497,-0.6293792677801372,0.141228231555229,13380.68517116667,0.4916132951185535,0.1487738464169993,0.003583779521857624,0.357390284538269,-0.6195335388183594,0.1794229298830032,0.2470389902591705,-0.4428578913211823,-0.1380974650382996,XTrueNorthZVertical,-0.01635128631460851,0.07251914560617988,0.2427946455693978,0.9672250870605265,0.1482246816158295,-0.00358377187512815,-0.9889472126960754,0,0,0,-1,0.0.0.0,10.227.79.254,5
2015-02-09 09:17:26.766,63,1423502246.014797,37.79119585178587,-122.3996597250201,15.81049,1.62,119.53125,6,50,-9999,1423502246.74723,-11.84295272827148,13.17269897460938,-24.63413619995117,47.86377716064453,34.08398056030273,15,13380.876478125,0.094940185546875,-0.463043212890625,-0.8865203857421875,13380.78873275,0.4783910834619858,0.06289481019996533,-0.3351598884509082,13380.78873275,0.5444581852685022,0.1021585857462556,0.1219213160008463,0.4732139408588409,0.072740338742733,-0.2969659566879272,-0.126858726143837,-0.2999655902385712,0.03020275197923183,XTrueNorthZVertical,0.0449001408961744,0.0654450372349424,0.2710256161017548,0.9592945532345584,0.101223960518837,-0.1216194853186607,-0.9874018430709839,0,0,0,-1,0.0.0.0,10.227.79.254,5
2015-02-09 09:17:26.865,64,1423502246.014797,37.79119585178587,-122.3996597250201,15.81049,1.62,119.53125,6,50,-9999,1423502246.85219,-11.45076179504395,14.039306640625,-24.41778945922852,47.65348052978516,33.87368392944336,15,13380.97466270834,0.2388458251953125,-0.4539794921875,-0.7811126708984375,13380.89229445833,-0.635559665721884,-0.9577243933176416,-0.5593764806307504,13380.89229445833,0.5295673574687447,0.1051038000916792,0.1252578525530331,-0.6407367587089539,-0.9478790163993835,-0.5211832523345947,0.01488430332392454,-0.3444145321846008,0.03928744420409203,XTrueNorthZVertical,0.04660377468579224,0.06695438021973291,0.2639998654202592,0.9610667355665361,0.1040884777903557,-0.1249305680394173,-0.9866904020309448,0,0,0,-1,0.0.0.0,10.227.79.254,5
2015-02-09 09:17:26.961,65,1423502246.014797,37.79119585178587,-122.3996597250201,15.81049,1.62,119.53125,6,50,-9999,1423502246.956149,-10.29124069213867,14.78701782226562,-24.41779708862305,45.05545043945312,31.27565574645996,15,13381.07286495833,0.0601043701171875,-0.43310546875,-0.545013427734375,13380.995855875,0.03676200937134479,-0.3292985372077528,0.5843782369444143,13380.995855875,0.5451037163123292,0.1141262318469873,0.08276927329215153,0.03158506751060486,-0.3194533884525299,0.6225706338882446,-0.02445375919342041,-0.3918735384941101,0.2424128502607346,XTrueNorthZVertical,0.02444143993391125,0.06599892293467859,0.2707941940652773,0.9600610723521508,0.1134887933731079,-0.08267480134963989,-0.9900935292243958,0,0,0,-1,0.0.0.0,10.227.79.254,5
2015-02-09 09:17:27.059,66,1423502246.014797,37.79119585178587,-122.3996597250201,15.81049,1.62,119.53125,6,50,-9999,1423502246.956149,-10.29124069213867,14.78701782226562,-24.41779708862305,45.05545043945312,31.27565574645996,15,13381.17071679167,0.2646026611328125,-0.6231536865234375,-0.748687744140625,13381.09941758333,0.2061007051806872,1.039025108759472,0.008872853803816997,13381.09941758333,0.5700409481940651,0.1741492464338624,0.1160240380286634,0.2009238600730896,1.048869967460632,0.04706453531980515,-0.1492629647254944,-0.3578689098358154,0.2960628271102905,XTrueNorthZVertical,0.03101822777489204,0.09955646953927437,0.2844793635759856,0.9529941608519895,0.1721053719520569,-0.1157639026641846,-0.9782527685165405,0,0,0,-1,0.0.0.0,10.227.79.254,5
2015-02-09 09:17:27.164,67,1423502247.012913,37.79125951234045,-122.3995348346628,12.6347,0.53,119.53125,6,50,-9999,1423502247.059251,-7.375377655029297,13.85235595703125,-25.19995498657227,42.66118621826172,28.88138961791992,15,13381.268797375,0.1829681396484375,-0.768341064453125,-0.735565185546875,13381.20297920833,0.7462156069113305,0.2851422610698029,0.03182797081975499,13381.20297920833,0.5433756021708281,0.2703688412556857,0.1837699668454829,0.7410388588905334,0.2949870228767395,0.07001885026693344,0.06028635054826736,-0.4788990020751953,0.03684715181589127,XTrueNorthZVertical,0.05156883670737614,0.1536805157312628,0.2767002202559379,0.9471852734684708,0.2625896334648132,-0.1827373504638672,-0.9474459290504456,0,0,0,-1,0.0.0.0,10.227.79.254,5
2015-02-09 09:17:27.256,68,1423502247.012913,37.79125951234045,-122.3995348346628,12.6347,0.53,119.53125,6,50,-9999,1423502247.169637,-4.203739166259766,12.66281127929688,-25.46622085571289,39.40792083740234,25.62812232971191,15,13381.36688029167,0.173248291015625,-0.481048583984375,-0.6448211669921875,13381.30654070833,-0.8637217310566787,-2.054143020413302,-1.074393219616269,13381.30654070833,0.5534329468424766,0.2661339108919324,0.204664444014223,-0.8688983917236328,-2.044298410415649,-1.036203026771545,-0.0499795563519001,-0.6779412031173706,-0.303952544927597,XTrueNorthZVertical,0.0613419437905224,0.1546212117480179,0.2824043817650365,0.9447630454084706,0.2575143575668335,-0.2032386213541031,-0.9446588754653931,0,0,0,-1,0.0.0.0,10.227.79.254,5
2015-02-09 09:17:27.442,69,1423502247.012913,37.79125951234045,-122.3995348346628,12.6347,0.53,119.53125,6,50,-9999,1423502247.292561,-5.636089324951172,12.22100830078125,-25.43294143676758,41.00406265258789,27.22426605224609,10,13381.46497,0.299285888671875,-0.453887939453125,-0.983154296875,13381.41010241667,-0.7341453619027644,-1.129694025967873,-0.8239644644073217,13381.41010241667,0.5163270473331416,0.2176842872676024,0.1908193147162764,-0.7393218874931335,-1.119849681854248,-0.7857751250267029,0.3549522161483765,-0.3526339530944824,0.1434463858604431,XTrueNorthZVertical,0.06395587083782846,0.1287275747686603,0.2626457796463753,0.954125805391253,0.212049126625061,-0.1896633952856064,-0.9586777091026306,0,0,0,-1,0.0.0.0,10.227.79.254,5
2015-02-09 09:17:27.453,70,1423502247.012913,37.79125951234045,-122.3995348346628,12.6347,0.53,119.53125,6,50,-9999,1423502247.292561,-5.636089324951172,12.22100830078125,-25.43294143676758,41.00406265258789,27.22426605224609,10,13381.56306275,-0.3399200439453125,-0.460784912109375,-0.7091064453125,13381.51366408333,0.1061988747890898,-3.652965389255756,0.4492041694952624,13381.51366408333,0.5039624757195784,-0.04949945655143909,0.1808747790208717,0.1010255366563797,-3.643117904663086,0.4873924553394318,0.1141170188784599,-0.06411314755678177,0.3810261487960815,XTrueNorthZVertical,0.09358011915513624,-0.001357241957720371,0.2460637291798825,0.9647246033844447,-0.04867207631468773,-0.1798901557922363,-0.982481837272644,0,0,0,-1,0.0.0.0,10.227.79.254,1
2015-02-09 09:17:27.549,71,1423502247.012913,37.79125951234045,-122.3995348346628,12.6347,0.53,119.53125,6,50,-9999,1423502247.525839,-10.32534027099609,14.10720825195312,-21.42231750488281,38.49005126953125,24.71025657653809,10,13381.66117333333,-0.094329833984375,-0.541351318359375,-1.233505249023438,13381.61722554167,-0.4272243020705114,-0.2697696963095386,-0.4181003121758999,13381.61722554167,-1.837009965117569,-0.2324747768137533,0.1271100508972968,-0.4323975443840027,-0.2599224150180817,-0.379912793636322,-0.1750977337360382,-0.4204273819923401,0.3966603875160217,XTrueNorthZVertical,0.05368697612380595,0.1203885025537354,0.7922099895911485,-0.5958419663849874,-0.2285277545452118,-0.1267680376768112,-0.9652486443519592,-9.75999927520752,14.18634033203125,-21.41915130615234,1,0.0.0.0,10.227.79.254,1
2015-02-09 09:17:27.648,72,1423502247.012913,37.79125951234045,-122.3995348346628,12.6347,0.53,119.53125,6,50,-9999,1423502247.628272,-11.24613571166992,15.36471557617188,-19.95784759521484,36.82638549804688,23.04658889770508,10,13381.75937966667,-0.0122833251953125,-0.47540283203125,-0.8162689208984375,13381.72078725,1.240995251089446,-1.447616870579353,0.4538782835244604,13381.72078725,-1.818158929598285,-0.3986305382494002,0.1037489303746771,1.235835552215576,-1.43777596950531,0.4920732080936432,0.198615238070488,-0.2647384703159332,-0.02778956107795238,XTrueNorthZVertical,0.1247679117592413,0.1615982792123832,0.7785875229840268,-0.5933973650686509,-0.3860694766044617,-0.1035629063844681,-0.9166379570960999,-12.57149600982666,15.14858055114746,-19.17727470397949,1,0.0.0.0,10.227.79.254,1
2015-02-09 09:17:27.751,73,1423502247.012913,37.79125951234045,-122.3995348346628,12.6347,0.53,119.53125,6,50,-9999,1423502247.628272,-11.24613571166992,15.36471557617188,-19.95784759521484,36.82638549804688,23.04658889770508,10,13381.8573905,-0.37371826171875,-0.4461822509765625,-0.9810791015625,13381.82434904167,0.5158239431119216,-0.9554998548590984,2.486739983666939,13381.82434904167,-1.636404771178892,-0.4908663530569123,0.1372875323583995,0.5106643438339233,-0.9456591606140137,2.524934053421021,0.3649497330188751,-0.4162744283676147,-0.01885992847383022,XTrueNorthZVertical,0.1314568034213403,0.2142563569580035,0.7177683218098065,-0.6493242318053803,-0.4669547379016876,-0.1368566751480103,-0.8736266493797302,-12.1685791015625,14.44020748138428,-19.96737289428711,1,0.0.0.0,10.227.79.254,1
2015-02-09 09:17:27.844,74,1423502247.012913,37.79125951234045,-122.3995348346628,12.6347,0.53,119.53125,6,50,-9999,1423502247.732149,-12.16693115234375,14.58306884765625,-18.59322738647461,33.61118316650391,19.83138656616211,10,13381.95547445833,-0.8281402587890625,-0.3385009765625,-0.49566650390625,13381.9279105,2.401259703210339,0.1930733200763466,2.316137884236463,13381.9279105,-1.334255345955195,-0.6667946257524652,0.1421374268868906,2.396100282669067,0.202913761138916,2.354331254959106,-0.2084300816059113,-0.1554140597581863,0.523962140083313,XTrueNorthZVertical,0.1492591024130761,0.2979595753714991,0.601442153609774,-0.7260916933270216,-0.6122334003448486,-0.1416593044996262,-0.7778836488723755,-11.71926975250244,14.64971923828125,-20.08318519592285,1,0.0.0.0,10.227.79.254,1
2015-02-09 09:17:28.143,75,1423502247.012913,37.79125951234045,-122.3995348346628,12.6347,0.53,119.53125,6,50,-9999,1423502247.840839,-11.48485946655273,14.58309936523438,-17.92755508422852,22.11605262756348,8.33625602722168,10,13382.053573,-0.39990234375,-0.0150604248046875,-0.653289794921875,13382.03147220833,1.139338930171704,1.471217804159635,2.0965386807546,13382.03147220833,-1.122686875561245,-0.6280984267770104,0.1339660641343834,1.134184122085571,1.481060862541199,2.134730815887451,0.07835964113473892,0.01196842081844807,0.2395489513874054,XTrueNorthZVertical,0.1101824782534384,0.2948078006615324,0.5226563275099839,-0.7923247723849118,-0.5823422074317932,-0.1335657089948654,-0.8018963932991028,-8.096169471740723,13.20334434509277,-22.70272445678711,1,0.0.0.0,10.227.79.254,1
2015-02-09 09:17:28.163,76,1423502247.012913,37.79125951234045,-122.3995348346628,12.6347,0.53,119.53125,6,50,-9999,1423502247.954132,-10.78573226928711,14.43014526367188,-17.71121597290039,17.26795196533203,3.488154649734497,10,13382.15168491667,-0.7984466552734375,-0.219146728515625,-0.2532958984375,13382.13503395834,1.02975091657938,0.1883906839316603,2.830019051333172,13382.03147220833,-1.122686875561245,-0.6280984267770104,0.1339660641343834,1.134184122085571,1.481060862541199,2.134730815887451,0.07835964113473892,0.01196842081844807,0.2395489513874054,XTrueNorthZVertical,0.1101824782534384,0.2948078006615324,0.5226563275099839,-0.7923247723849118,-0.5823422074317932,-0.1335657089948654,-0.8018963932991028,-8.096169471740723,13.20334434509277,-22.70272445678711,1,0.0.0.0,10.227.79.254,1
2015-02-09 09:17:28.496,77,1423502247.012913,37.79125951234045,-122.3995348346628,12.6347,0.53,119.53125,6,50,-9999,1423502247.954132,-10.78573226928711,14.43014526367188,-17.71121597290039,17.26795196533203,3.488154649734497,10,13382.24976991667,-1.284164428710938,-0.0248870849609375,-0.4340362548828125,13382.23859545833,0.8969654383119198,-0.3372209088185205,1.321853615474214,13382.23859545833,-0.5773010877168648,-0.48590964859435,-0.005558684913577311,0.891823947429657,-0.3273791968822479,1.360042691230774,-0.7513628602027893,-0.04176776111125946,0.3454032242298126,XTrueNorthZVertical,0.07106671179704642,0.2298501781760695,0.2756567798065025,-0.9306619994818093,-0.4670056998729706,0.005558656062930822,-0.8842368125915527,3.02598762512207,10.26192378997803,-25.31454467773438,1,0.0.0.0,10.227.79.254,1
2015-02-09 09:17:28.539,78,1423502248.070491,37.79132803439888,-122.3995417916424,12.7002,0.95,-1,6,50,-9999,1423502248.180143,-2.754318237304688,13.18963623046875,-20.62349700927734,338.2327880859375,324.4530029296875,10,13382.34788279167,-0.812408447265625,0.0438995361328125,-0.96392822265625,13382.34215720833,0.5277104300052722,0.3053524579501963,0.4121279071152882,13382.23859545833,-0.5773010877168648,-0.48590964859435,-0.005558684913577311,0.891823947429657,-0.3273791968822479,1.360042691230774,-0.7513628602027893,-0.04176776111125946,0.3454032242298126,XTrueNorthZVertical,0.07106671179704642,0.2298501781760695,0.2756567798065025,-0.9306619994818093,-0.4670056998729706,0.005558656062930822,-0.8842368125915527,3.02598762512207,10.26192378997803,-25.31454467773438,1,0.0.0.0,10.227.79.254,1
2015-02-09 09:17:28.663,79,1423502248.070491,37.79132803439888,-122.3995417916424,12.7002,0.95,-1,6,50,-9999,1423502248.294843,-1.356069564819336,9.213226318359375,-21.05617523193359,331.52197265625,317.7421875,10,13382.44601291667,-0.7107086181640625,-0.0103607177734375,-1.170089721679688,13382.34215720833,0.5277104300052722,0.3053524579501963,0.4121279071152882,13382.34215720833,-0.532185612357349,-0.4826904748050332,0.02851677736710021,0.5225690603256226,0.3151939511299133,0.4503161311149597,-0.3547045886516571,0.06760592758655548,0.0285929199308157,XTrueNorthZVertical,0.049486923217183,0.2342145430794782,0.2586042580674773,-0.9358517133691228,-0.4639752209186554,-0.02851291187107563,-0.8853892087936401,3.501729965209961,8.595666885375977,-25.86778450012207,1,0.0.0.0,10.227.79.254,1
2015-02-09 09:17:28.746,80,1423502248.070491,37.79132803439888,-122.3995417916424,12.7002,0.95,-1,6,50,-9999,1423502248.418429,-0.4182205200195312,6.0694580078125,-21.43893814086914,318.0149841308594,304.2351989746094,10,13382.54412879167,-0.7691497802734375,-0.2350311279296875,-0.51971435546875,13382.44571895833,0.5827603665821911,-0.9298855714947163,1.736145340975191,13382.44571895833,-0.3964124534026956,-0.4574268120249116,0.03746633732937864,0.5776190161705017,-0.9200442433357239,1.774332880973816,-0.2526234686374664,-0.01898468844592571,-0.251722663640976,XTrueNorthZVertical,0.02674966604822622,0.2258391589482684,0.1959134375735274,-0.9538862899192736,-0.4413309991359711,-0.03745757415890694,-0.8965622782707214,5.398469924926758,6.274877071380615,-26.20634078979492,1,0.0.0.0,10.227.79.254,1
2015-02-09 09:17:28.749,81,1423502248.070491,37.79132803439888,-122.3995417916424,12.7002,0.95,-1,6,50,-9999,1423502248.418429,-0.4182205200195312,6.0694580078125,-21.43893814086914,318.0149841308594,304.2351989746094,10,13382.642233875,-1.144927978515625,0.0197601318359375,-0.514312744140625,13382.54928045833,2.067419144763456,-1.510652828317092,1.638053394860412,13382.54928045833,-0.1379290436065284,-0.4808109635931602,0.1223077161914193,2.062284469604492,-1.500807285308838,1.676239132881165,-0.3101064264774323,-0.1130281239748001,0.3602825105190277,XTrueNorthZVertical,-0.04284052481949333,0.2411768284353247,0.0813198676442848,-0.9661187843383287,-0.4590433537960052,-0.1220030039548874,-0.8799968361854553,6.449438095092773,1.274584054946899,-26.68463897705078,1,0.0.0.0,10.227.79.254,1
2015-02-09 09:17:28.752,82,1423502248.070491,37.79132803439888,-122.3995417916424,12.7002,0.95,-1,6,50,-9999,1423502248.418429,-0.4182205200195312,6.0694580078125,-21.43893814086914,318.0149841308594,304.2351989746094,10,13382.74033754167,-0.331634521484375,-0.2424163818359375,-0.295623779296875,13382.65284220833,1.154296041801916,-1.177466608550042,-0.03962357596263494,13382.65284220833,0.01098960781875194,-0.64617453813313,0.1371538244173991,1.149187445640564,-1.167616963386536,-0.00143311417195946,-0.4789421856403351,0.1000115796923637,0.3806782066822052,XTrueNorthZVertical,-0.0667172536028343,0.3163875165006237,0.01655725003199296,-0.9461361447548797,-0.5964820384979248,-0.1367242187261581,-0.7908955216407776,2.130637168884277,-2.610727548599243,-27.2751579284668,1,0.0.0.0,10.227.79.254,1
2015-02-09 09:17:28.755,83,1423502248.070491,37.79132803439888,-122.3995417916424,12.7002,0.95,-1,6,50,-9999,1423502248.534474,-2.617904663085938,0.78460693359375,-20.4903678894043,300.4574890136719,286.6777038574219,10,13382.83843295834,-0.95843505859375,0.1122283935546875,-0.356475830078125,13382.756404,0.9249914803594776,-1.553328386888958,0.8032823553817664,13382.756404,0.06504020806638519,-0.7698364105454308,0.2045490567442483,0.9198829531669617,-1.543478846549988,0.8414720296859741,0.2418409287929535,0.01074282545596361,0.4778816998004913,XTrueNorthZVertical,-0.1067206240662476,0.3702470542094617,0.00833740076264145,-0.9227449888580461,-0.6815077066421509,-0.2031256407499313,-0.7030556797981262,-1.010030746459961,-5.164194583892822,-26.97407722473145,1,0.0.0.0,10.227.79.254,1
2015-02-09 09:17:28.825,84,1423502248.070491,37.79132803439888,-122.3995417916424,12.7002,0.95,-1,6,50,-9999,1423502248.741332,-9.916082382202148,-2.478057861328125,-16.89577484130859,290.1912231445312,276.4114379882812,10,13382.93651345833,-1.3187255859375,0.3363494873046875,-0.426727294921875,13382.85996554167,0.4098186801340805,0.967686480007301,1.057375620250663,13382.85996554167,0.1640024358848097,-0.8012105722874839,0.1559148652850201,0.4047102928161621,0.9775357842445374,1.095564603805542,-0.2364967465400696,0.2588605880737305,0.2156869918107986,XTrueNorthZVertical,-0.1033171518994123,0.3816110194635134,-0.04492643881520251,-0.9174313110575529,-0.7094871401786804,-0.1552839279174805,-0.6873971819877625,-2.819342613220215,-6.048314094543457,-26.66006469726562,1,0.0.0.0,10.227.79.254,1
2015-02-09 09:17:30.197,85,1423502248.070491,37.79132803439888,-122.3995417916424,12.7002,0.95,-1,6,50,-9999,1423502248.845972,-9.67735481262207,-2.206146240234375,-17.59472274780273,278.6639099121094,264.8841247558594,10,13383.0346115,-0.882110595703125,0.01788330078125,0.63079833984375,13382.96352729167,0.1472256703300875,-0.5892464954170791,1.891014549949915,13382.96352729167,0.3138031095177554,-0.8370494288746207,0.03337258520905463,0.142117366194725,-0.5793973803520203,1.929202795028687,-0.8669502139091492,0.08536834269762039,-0.1032988429069519,XTrueNorthZVertical,-0.07855477892854919,0.3989825356980682,-0.1360540355481677,-0.9033999013684192,-0.7422569394111633,-0.03336638957262039,-0.6692841649055481,-3.754337310791016,-6.333515644073486,-26.47794342041016,1,0.0.0.0,10.227.79.254,1
2015-02-09 09:17:30.314,86,1423502248.070491,37.79132803439888,-122.3995417916424,12.7002,0.95,-1,6,50,-9999,1423502248.948199,-12.38859748840332,-2.359100341796875,-16.31331634521484,262.1380004882812,248.3582153320312,10,13383.13270425,-0.8874359130859375,0.095916748046875,-0.06048583984375,13383.067089125,-0.5996719721364123,0.6117747077102774,1.592929325982327,13383.067089125,0.4969450674995659,-0.9212081333419956,-0.03120836159409307,-0.6047801375389099,0.6216235756874084,1.63111674785614,0.0270395427942276,0.07443330436944962,0.1752884835004807,XTrueNorthZVertical,-0.09574898839226532,0.4342236009896336,-0.2269903387319891,-0.8664625676587392,-0.7959451675415039,0.03120329603552818,-0.6045640110969543,-7.530915260314941,-8.06955623626709,-25.16858291625977,1,0.0.0.0,10.227.79.254,1
2015-02-09 09:17:30.318,87,1423502249.028309,37.79157701883259,-122.3999889661767,12.54984,0.85,-1,3,50,-9999,1423502248.948199,-12.38859748840332,-2.359100341796875,-16.31331634521484,262.1380004882812,248.3582153320312,10,13383.23078916667,-0.4993438720703125,0.7687225341796875,0.156280517578125,13383.170650625,-0.7038953140288813,-0.5471049006437743,2.30125347690401,13383.170650625,0.583174619388839,-0.8975353015067781,-0.2519826557001154,-0.7090034484863281,-0.5372561812400818,2.33944034576416,-0.4469218254089355,0.1970408707857132,-0.1610909700393677,XTrueNorthZVertical,-0.01529620180096657,0.444794706941508,-0.3091713093476776,-0.8404384545161591,-0.757103443145752,0.2493244856595993,-0.6038473844528198,-8.221742630004883,-5.124230861663818,-25.71837997436523,1,0.0.0.0,10.227.79.254,1
2015-02-09 09:17:30.321,88,1423502249.028309,37.79157701883259,-122.3999889661767,12.54984,0.85,-1,3,50,-9999,1423502249.051823,-14.17904663085938,0.002960205078125,-16.19683074951172,265.7509460449219,251.9711456298828,11,13383.32900275,-0.78619384765625,0.67303466796875,-0.091094970703125,13383.2742125,-1.608038770426892,0.7627764741499882,1.009902376975019,13383.2742125,0.6235209299945972,-0.9451212635144534,-0.4505466345572369,-1.613146781921387,0.7726250290870667,1.048088192939758,0.3202569186687469,0.1483893543481827,0.7074394822120667,XTrueNorthZVertical,0.05321669950195172,0.4832873455946098,-0.3629884724668264,-0.7948840750728496,-0.7296807169914246,0.4354576766490936,-0.5272026658058167,-10.7514762878418,-0.908116340637207,-25.2758960723877,1,0.0.0.0,10.227.79.254,1
2015-02-09 09:17:30.324,89,1423502249.028309,37.79157701883259,-122.3999889661767,12.54984,0.85,-1,3,50,-9999,1423502249.051823,-14.17904663085938,0.002960205078125,-16.19683074951172,265.7509460449219,251.9711456298828,11,13383.42709791667,-0.72247314453125,0.7752685546875,-0.135101318359375,13383.37777441667,-0.2980141175664829,-1.451081909473655,0.2010766517842527,13383.37777441667,0.6256879343800934,-0.9907471862800724,-0.5257044047419804,-0.3031219840049744,-1.441233515739441,0.2392618060112,0.143963560461998,0.3993921875953674,0.4842377901077271,XTrueNorthZVertical,0.07623078310589118,0.5071082479930339,-0.3789899382862236,-0.7703224770628774,-0.7234923839569092,0.5018224120140076,-0.4740601778030396,-11.35734176635742,1.467972755432129,-24.98291015625,1,0.0.0.0,10.227.79.254,1
2015-02-09 09:17:30.326,90,1423502249.028309,37.79157701883259,-122.3999889661767,12.54984,0.85,-1,3,50,-9999,1423502249.051823,-14.17904663085938,0.002960205078125,-16.19683074951172,265.7509460449219,251.9711456298828,11,13383.52510420833,-0.8799285888671875,0.9898681640625,0.440948486328125,13383.48133595833,-0.7849970913372823,-2.737984731433886,0.3127235552153176,13383.48133595833,0.5704952247677337,-1.308722357091824,-0.6185004349123083,-0.7900992035865784,-2.728135347366333,0.3509074151515961,0.1721066236495972,0.3078202307224274,0.3652023673057556,XTrueNorthZVertical,0.06857349260046836,0.6243023109176871,-0.3904326608365545,-0.6731319614410547,-0.7869290113449097,0.5798140168190002,-0.2110885977745056,-16.78377532958984,3.931243896484375,-21.40420722961426,1,0.0.0.0,10.227.79.254,1
2015-02-09 09:17:30.328,91,1423502249.028309,37.79157701883259,-122.3999889661767,12.54984,0.85,-1,3,50,-9999,1423502249.155681,-15.1509895324707,5.253875732421875,-17.2452507019043,252.4485168457031,238.6687164306641,11,13383.62331054167,-0.96795654296875,0.7158660888671875,0.0217132568359375,13383.58489775,3.354115838055316,-0.373031903364598,2.34829022807699,13383.58489775,0.7820389510043124,-1.266725980463343,-0.725108389397281,3.349029779434204,-0.3631848394870758,2.386472702026367,0.01605013385415077,0.2665777504444122,-0.01799676939845085,XTrueNorthZVertical,0.05338409381997369,0.6205708491954842,-0.4813041247452944,-0.6167562716543442,-0.7140939831733704,0.6632165908813477,-0.2240839153528214,-19.3234806060791,4.835603713989258,-18.93435859680176,1,0.0.0.0,10.227.79.254,1
2015-02-09 09:17:30.330,92,1423502249.028309,37.79157701883259,-122.3999889661767,12.54984,0.85,-1,3,50,-9999,1423502249.155681,-15.1509895324707,5.253875732421875,-17.2452507019043,252.4485168457031,238.6687164306641,11,13383.72131179167,-0.2721710205078125,0.868896484375,0.0699920654296875,13383.68845954167,0.3768037384164772,0.2129820471213429,1.76270824231986,13383.68845954167,0.8855065205093848,-1.26399967232464,-0.8190814045027938,0.3717178106307983,0.2228289246559143,1.800889849662781,0.2395675033330917,-0.004734534304589033,0.4147950708866119,XTrueNorthZVertical,0.05812998867449382,0.6272973273154356,-0.529641803788605,-0.5679775758823158,-0.6510055065155029,0.7305188179016113,-0.2062379419803619,-19.97677040100098,5.695968627929688,-17.99373435974121,1,0.0.0.0,10.227.79.254,1
2015-02-09 09:17:30.333,93,1423502249.028309,37.79157701883259,-122.3999889661767,12.54984,0.85,-1,3,50,-9999,1423502249.155681,-15.1509895324707,5.253875732421875,-17.2452507019043,252.4485168457031,238.6687164306641,11,13383.81951241667,-0.20220947265625,0.5772705078125,0.226409912109375,13383.79202108333,0.4282357706525235,-1.584939842712089,-0.476951911208907,13383.79202108333,0.9856168370138724,-1.20674464177114,-0.9300368062410582,0.423149973154068,-1.575093150138855,-0.438770979642868,0.255662202835083,-0.08423471450805664,0.3474845290184021,XTrueNorthZVertical,0.08537508835146131,0.6215166769865185,-0.572374647407807,-0.5280297122202399,-0.5586254596710205,0.8016419410705566,-0.2128562331199646,-18.67964935302734,8.321364402770996,-18.36070442199707,1,0.0.0.0,10.227.79.254,1
2015-02-09 09:17:30.335,94,1423502249.028309,37.79157701883259,-122.3999889661767,12.54984,0.85,-1,3,50,-9999,1423502249.259705,-15.52613830566406,8.890472412109375,-15.78078460693359,248.4846954345703,234.7048950195312,11,13383.91760458333,-0.1749420166015625,0.50250244140625,0.51318359375,13383.89558291667,1.154927477296374,0.71302809235509,-0.1240460488342558,13383.89558291667,1.090507753453364,-1.132300117135351,-0.9342589022876007,1.149841785430908,0.7228745818138123,-0.08586585521697998,0.4411317706108093,-0.6015068292617798,0.2228345721960068,XTrueNorthZVertical,0.07656612580565378,0.6065886837116721,-0.5973419705563934,-0.5190090238616702,-0.5381776690483093,0.8041588068008423,-0.252375602722168,-19.36931991577148,7.925420761108398,-17.81311416625977,1,0.0.0.0,10.227.79.254,1
2015-02-09 09:17:30.338,95,1423502249.028309,37.79157701883259,-122.3999889661767,12.54984,0.85,-1,3,50,-9999,1423502249.259705,-15.52613830566406,8.890472412109375,-15.78078460693359,248.4846954345703,234.7048950195312,11,13384.01561129167,0.2149505615234375,0.8268890380859375,0.0238037109375,13383.99914470833,0.4832465587614183,2.629265174673037,-0.7926060088877478,13383.89558291667,1.090507753453364,-1.132300117135351,-0.9342589022876007,1.149841785430908,0.7228745818138123,-0.08586585521697998,0.4411317706108093,-0.6015068292617798,0.2228345721960068,XTrueNorthZVertical,0.07656612580565378,0.6065886837116721,-0.5973419705563934,-0.5190090238616702,-0.5381776690483093,0.8041588068008423,-0.252375602722168,-19.36931991577148,7.925420761108398,-17.81311416625977,1,0.0.0.0,10.227.79.254,1
2015-02-09 09:17:30.340,96,1423502249.028309,37.79157701883259,-122.3999889661767,12.54984,0.85,-1,3,50,-9999,1423502249.259705,-15.52613830566406,8.890472412109375,-15.78078460693359,248.4846954345703,234.7048950195312,11,13384.11375575,-0.75091552734375,1.252883911132812,0.18524169921875,13384.10270629167,-0.1809303707700213,1.11984565625676,0.559194320412189,13383.99914470833,0.7786498579993333,-1.413944825986199,-1.011400193999191,0.4781846404075623,2.639099597930908,-0.7544255256652832,0.4519400596618652,0.9454693198204041,0.4764661490917206,XTrueNorthZVertical,0.1250750059593374,0.6655134424909488,-0.5435739482134855,-0.495959134443259,-0.5241599082946777,0.8475757241249084,-0.08289620280265808,-19.72320747375488,11.37923812866211,-15.38823890686035,1,0.0.0.0,10.227.79.254,1
2015-02-09 09:17:30.342,97,1423502249.028309,37.79157701883259,-122.3999889661767,12.54984,0.85,-1,3,50,-9999,1423502249.363231,-19.22637939453125,10.02902221679688,-11.20433044433594,243.0357818603516,229.2559814453125,11,13384.21178358333,-0.53277587890625,0.722808837890625,0.0599517822265625,13384.206268125,0.5096334251580323,-0.03408499984359715,-0.4281779800568687,13384.10270629167,0.7438251725169186,-1.348576640666952,-1.046315124791014,-0.1859922111034393,1.129679918289185,0.5973740816116333,0.1379256397485733,0.04855494201183319,0.3728324472904205,XTrueNorthZVertical,0.1670578308533602,0.6456846535644896,-0.5365068468942007,-0.5170526201495387,-0.4884505569934845,0.8655838370323181,-0.110366016626358,-18.08116340637207,11.84068298339844,-16.97526550292969,1,0.0.0.0,10.227.79.254,1
2015-02-09 09:17:30.344,98,1423502249.028309,37.79157701883259,-122.3999889661767,12.54984,0.85,-1,3,50,-9999,1423502249.363231,-19.22637939453125,10.02902221679688,-11.20433044433594,243.0357818603516,229.2559814453125,11,13384.30986304167,-0.3695831298828125,0.759521484375,0.0664215087890625,13384.206268125,0.5096334251580323,-0.03408499984359715,-0.4281779800568687,13384.206268125,0.6345360722812762,-1.396904333387318,-0.9990045428466654,0.5045716762542725,-0.02425092644989491,-0.3899990320205688,-0.04873213917016983,-0.1448878049850464,0.2083113938570023,XTrueNorthZVertical,0.1724217423407511,0.6507361788847736,-0.5023626033683269,-0.5426278489550699,-0.5329786539077759,0.8409327268600464,-0.09362633526325226,-17.33071327209473,12.15108108520508,-17.52961730957031,1,0.0.0.0,10.227.79.254,1
2015-02-09 09:17:30.346,99,1423502249.028309,37.79157701883259,-122.3999889661767,12.54984,0.85,-1,3,50,-9999,1423502249.363231,-19.22637939453125,10.02902221679688,-11.20433044433594,243.0357818603516,229.2559814453125,11,13384.40793879167,-0.2498016357421875,0.9081268310546875,0.14483642578125,13384.30982975,0.149394282405739,0.07355863983686062,0.01866875924145546,13384.30982975,0.6510541173603102,-1.357979094633813,-1.005498137531826,0.1443352401256561,0.08338814973831177,0.05685490742325783,0.1657337248325348,-0.05779255554080009,0.1948210150003433,XTrueNorthZVertical,0.1792863009558117,0.6413158819277669,-0.5047863286510755,-0.5493278836448661,-0.5235828161239624,0.8444288969039917,-0.1131407245993614,-16.90512847900391,11.93050384521484,-18.08782958984375,1,0.0.0.0,10.227.79.254,1
2015-02-09 09:17:30.419,100,1423502250.082093,37.79158753812107,-122.3999738787509,12.48053,0.82,-1,3,30,-9999,1423502250.396987,-30.88982772827148,20.93856811523438,5.7701416015625,205.2112274169922,191.4314270019531,11,13384.50603008333,-0.224090576171875,0.8575286865234375,0.2075347900390625,13384.41339125,-0.02971954618473926,-0.1524758261030697,0.08096435819615297,13384.41339125,0.6751570197628558,-1.35909627339782,-1.018235008997686,-0.03477849811315536,-0.1426464915275574,0.11914973706007,0.2633498013019562,0.0569438710808754,0.2551231384277344,XTrueNorthZVertical,0.175989964112189,0.6433383098230077,-0.5139735488965254,-0.5394205614792268,-0.5131514668464661,0.8511829376220703,-0.1102867051959038,-17.06826019287109,12.01859092712402,-17.87506103515625,1,0.0.0.0,10.227.79.254,1
2015-02-09 09:17:30.517,101,1423502250.082093,37.79158753812107,-122.3999738787509,12.48053,0.82,-1,3,30,-9999,1423502250.501385,-30.7022590637207,21.80520629882812,6.252750396728516,204.3068695068359,190.5270690917969,11,13384.60413654167,-0.2938232421875,0.9771881103515625,0.234130859375,13384.51695308333,-0.02588565947946119,0.2242410932618709,0.08857221048218233,13384.51695308333,0.6729983229158092,-1.378866667779493,-1.044536710680249,-0.03094450570642948,0.234070211648941,0.1267567873001099,0.3048926293849945,-0.05087966471910477,0.2562926411628723,XTrueNorthZVertical,0.1812952972986016,0.6474751219628485,-0.5203294136828392,-0.5264648918390153,-0.493079274892807,0.8646919131278992,-0.09581596404314041,-17.14365386962891,12.57061767578125,-17.4173641204834,1,0.0.0.0,10.227.79.254,1
2015-02-09 09:17:30.619,102,1423502250.082093,37.79158753812107,-122.3999738787509,12.48053,0.82,-1,3,30,-9999,1423502250.604616,-31.36727905273438,22.26400756835938,8.466085433959961,201.6793670654297,187.8995666503906,11,13384.70225691667,-0.2130584716796875,0.9533233642578125,0.202606201171875,13384.62051491667,0.07402575829206053,-0.4498577092267678,0.05525846209027213,13384.62051491667,0.691429157492751,-1.374766276998029,-1.05400669108207,0.06896700710058212,-0.4400287866592407,0.09344231337308884,0.2265260964632034,0.06014030054211617,0.3561863899230957,XTrueNorthZVertical,0.1798873026570632,0.6477049728230667,-0.5266236016132844,-0.520371413716085,-0.4846284985542297,0.8694098591804504,-0.09623765200376511,-16.97050285339355,12.68600845336914,-17.50306129455566,1,0.0.0.0,10.227.79.254,1
2015-02-09 09:17:30.717,103,1423502250.082093,37.79158753812107,-122.3999738787509,12.48053,0.82,-1,3,30,-9999,1423502250.708635,-32.21987152099609,21.75424194335938,8.066686630249023,202.9461212158203,189.1663208007812,11,13384.800357625,-0.3405609130859375,0.96832275390625,0.2224578857421875,13384.72407645833,-0.003818973003173627,0.2239225791954975,0.01881762994639089,13384.72407645833,0.7091787417746857,-1.351843059496745,-1.057530006677812,-0.008875420317053795,0.2337476462125778,0.05700769275426865,0.2132957726716995,0.06792634725570679,0.3050646483898163,XTrueNorthZVertical,0.1815152567206506,0.6432145053941606,-0.5298428180103375,-0.5221052569138083,-0.4793022274971008,0.8711453080177307,-0.1066546216607094,-17.04861450195312,12.62222480773926,-17.47323799133301,1,0.0.0.0,10.227.79.254,1
2015-02-09 09:17:30.816,104,1423502250.082093,37.79158753812107,-122.3999738787509,12.48053,0.82,-1,3,30,-9999,1423502250.708635,-32.21987152099609,21.75424194335938,8.066686630249023,202.9461212158203,189.1663208007812,11,13384.89845783333,-0.2130279541015625,0.9135589599609375,0.195953369140625,13384.82763825,-0.1660520887080756,0.219335284217836,-0.2205241193284473,13384.82763825,0.6906650902218522,-1.343269544369363,-1.053593384016541,-0.1711084395647049,0.2291601598262787,-0.1823347806930542,0.1548947542905807,0.07073581963777542,0.3425049483776093,XTrueNorthZVertical,0.188248921652639,0.6393715783311296,-0.5234457214003434,-0.5308209722049814,-0.4817075133323669,0.8692055940628052,-0.1115326583385468,-16.62554550170898,12.68136978149414,-17.83434867858887,1,0.0.0.0,10.227.79.254,1
2015-02-09 09:17:30.912,105,1423502250.082093,37.79158753812107,-122.3999738787509,12.48053,0.82,-1,3,30,-9999,1423502250.811561,-30.75341415405273,21.51632690429688,5.936550140380859,205.4307403564453,191.6509399414062,11,13384.996557375,-0.2614593505859375,0.9727630615234375,0.234405517578125,13384.93120016667,-0.1322302091801783,0.1238021032784045,-0.09585222763802294,13384.93120016667,0.6621586400494978,-1.348959988124896,-1.042191542792466,-0.1372864544391632,0.1336267739534378,-0.0576636902987957,0.2623562216758728,0.07844400405883789,0.3195507824420929,XTrueNorthZVertical,0.1916492569712345,0.6385835794466468,-0.5141952460507175,-0.5395227731693194,-0.4919704794883728,0.8635115623474121,-0.1109631508588791,-16.47779083251953,12.63165092468262,-18.00593566894531,1,0.0.0.0,10.227.79.254,1
2015-02-09 09:17:30.983,106,1423502250.082093,37.79158753812107,-122.3999738787509,12.48053,0.82,-1,3,30,-9999,1423502250.915816,-29.30400848388672,21.7032470703125,3.057544708251953,206.2379302978516,192.4581298828125,11,13385.09472858333,-0.30474853515625,0.9264678955078125,0.2076416015625,13385.03476179167,-0.06367085534161443,0.1752224176056545,0.06663655153152667,13385.03476179167,0.6442364986881775,-1.353481016318566,-1.049690318905828,-0.06872700154781342,0.1850468963384628,0.1048243567347527,0.2218939214944839,0.08507770299911499,0.3293540179729462,XTrueNorthZVertical,0.1989854115142167,0.6377581728422246,-0.5112522200755736,-0.5406389607781252,-0.4861303567886353,0.8672690987586975,-0.1073386371135712,-16.25315475463867,12.86709213256836,-18.04335784912109,1,0.0.0.0,10.227.79.254,1
2015-02-09 09:17:31.090,107,1423502250.082093,37.79158753812107,-122.3999738787509,12.48053,0.82,-1,3,30,-9999,1423502251.019006,-27.64998245239258,22.19607543945312,1.343460083007812,206.5113983154297,192.7315979003906,11,13385.19277883333,-0.2664794921875,0.947845458984375,0.2393798828125,13385.13832358333,-0.001093760259695543,0.1708282018070237,-0.07525693766400415,13385.13832358333,0.643935350539242,-1.344037880017463,-1.054479817868386,-0.006149803288280964,0.1806524693965912,-0.03706992790102959,0.2355892211198807,0.06924501061439514,0.3435026705265045,XTrueNorthZVertical,0.2032670217055394,0.6349707832326256,-0.511150449203941,-0.5424203536672487,-0.4810420870780945,0.8696435689926147,-0.1109892427921295,-15.97207450866699,13.02522659301758,-18.18037796020508,1,0.0.0.0,10.227.79.254,1
2015-02-09 09:17:31.183,108,1423502251.070646,37.79157953340354,-122.3999416084237,12.38824,0.87,94.5703125,3,30,-9999,1423502251.122415,-26.78033828735352,21.02352905273438,-0.3373489379882812,207.1687316894531,193.3889312744141,11,13385.29091370833,-0.310394287109375,0.919219970703125,0.1970062255859375,13385.241885375,-0.05581985644806083,0.08386107851383215,-0.06317790422384076,13385.241885375,0.6343884435326095,-1.344009955121563,-1.049709253761954,-0.06087579950690269,0.09368515014648438,-0.02499166131019592,0.2349691540002823,0.07075553387403488,0.3287006020545959,XTrueNorthZVertical,0.204536477737144,0.6341905965576606,-0.5076247398819023,-0.5461540436896348,-0.4850759506225586,0.867278516292572,-0.1119342297315598,-15.89409732818604,12.97200012207031,-18.28646469116211,1,0.0.0.0,10.227.79.254,1
2015-02-09 09:17:31.284,109,1423502251.070646,37.79157953340354,-122.3999416084237,12.38824,0.87,94.5703125,3,30,-9999,1423502251.226513,-24.95579147338867,20.19088745117188,-1.885021209716797,207.6606750488281,193.8808746337891,11,13385.3890315,-0.2465362548828125,0.9265594482421875,0.204681396484375,13385.345446875,-0.02399774458270401,0.08815915419711104,-0.2015658744765003,13385.345446875,0.6270404494796875,-1.347530589493059,-1.041781565218954,-0.02905359119176865,0.09798303991556168,-0.163380354642868,0.2821040749549866,0.09943331778049469,0.3461654186248779,XTrueNorthZVertical,0.2030409015354367,0.6347456779388713,-0.504416909774681,-0.5490317816310345,-0.4921565651893616,0.8633047342300415,-0.1117446348071098,-15.90719985961914,12.93918514251709,-18.29831504821777,1,0.0.0.0,10.227.79.254,1
2015-02-09 09:17:31.385,110,1423502251.070646,37.79157953340354,-122.3999416084237,12.38824,0.87,94.5703125,3,30,-9999,1423502251.330336,-23.60870361328125,19.494140625,-2.933444976806641,207.882080078125,194.1022796630859,11,13385.487125625,-0.2078399658203125,0.8607177734375,0.2630615234375,13385.44900870833,0.160719907573519,-0.1786115564088893,-0.05816343820733056,13385.44900870833,0.6276554396476861,-1.354865100168121,-1.032282405834795,0.1556641608476639,-0.168787881731987,-0.01997872069478035,0.2421159446239471,0.1030913293361664,0.3183496594429016,XTrueNorthZVertical,0.1974810992489419,0.6372277268409811,-0.5034329788023116,-0.5490876750617558,-0.500950813293457,0.8584717512130737,-0.109884075820446,-16.12757110595703,12.74456024169922,-18.24191474914551,1,0.0.0.0,10.227.79.254,1
2015-02-09 09:17:31.485,111,1423502251.070646,37.79157953340354,-122.3999416084237,12.38824,0.87,94.5703125,3,30,-9999,1423502251.433637,-23.5745964050293,19.59613037109375,-3.499259948730469,206.7986602783203,193.0188598632812,11,13385.58523004167,-0.287322998046875,0.8047027587890625,0.1792755126953125,13385.5525705,-0.4476824392483911,0.08856368836669408,-0.1494411540409244,13385.5525705,0.6412676446782797,-1.350182204006112,-1.034978553240743,-0.4527380764484406,0.09838718175888062,-0.1112571582198143,0.2472396492958069,0.201351597905159,0.3293884992599487,XTrueNorthZVertical,0.1953259804331667,0.6371709573622258,-0.5072360761735716,-0.5464178757653836,-0.4981704354286194,0.8598514199256897,-0.1117218658328056,-16.22467041015625,12.47545433044434,-18.3415641784668,1,0.0.0.0,10.227.79.254,1
2015-02-09 09:17:31.583,112,1423502251.070646,37.79157953340354,-122.3999416084237,12.38824,0.87,94.5703125,3,30,-9999,1423502251.537303,-23.31881713867188,19.54513549804688,-2.384265899658203,205.2961730957031,191.5163726806641,11,13385.6833455,-0.2226104736328125,0.62933349609375,0.53778076171875,13385.656132,-0.2542165692273668,-0.1690324322839833,0.3349897124572521,13385.656132,0.6273477164139712,-1.390301229718235,-1.059553038742119,-0.2592702209949493,-0.1592122316360474,0.3731796443462372,0.2973538935184479,-0.005025682505220175,0.4012919664382935,XTrueNorthZVertical,0.1986051875557209,0.6454770695015193,-0.5123532631286505,-0.5304804100540379,-0.4813138544559479,0.8721368908882141,-0.08783066272735596,-16.4492073059082,13.01904010772705,-17.75438117980957,1,0.0.0.0,10.227.79.254,1
2015-02-09 09:17:31.683,113,1423502251.070646,37.79157953340354,-122.3999416084237,12.38824,0.87,94.5703125,3,30,-9999,1423502251.6409,-23.31881713867188,20.49676513671875,-1.219356536865234,201.6938629150391,187.9140625,11,13385.78148658333,-0.1088409423828125,1.090423583984375,0.2249755859375,13385.759693875,-0.2621511913791489,-0.5092776268363978,0.009657154744845334,13385.759693875,0.5155357967857457,-1.464104553711732,-1.150822637205322,-0.2672047317028046,-0.4994576275348663,0.04784637689590454,0.3684611916542053,0.06427154690027237,0.2625205814838409,XTrueNorthZVertical,0.2484388382971171,0.6454210445888454,-0.5107905113932778,-0.5106886250583663,-0.4054179787635803,0.9130996465682983,-0.04341963678598404,-14.72184562683105,15.51874732971191,-17.25472831726074,1,0.0.0.0,10.227.79.254,1
2015-02-09 09:17:31.785,114,1423502251.070646,37.79157953340354,-122.3999416084237,12.38824,0.87,94.5703125,3,30,-9999,1423502251.744483,-22.22749710083008,19.91903686523438,-0.5204086303710938,197.9488525390625,184.1690521240234,11,13385.879663375,-0.1492919921875,1.0030517578125,0.232452392578125,13385.863255625,0.09142285811300314,0.1328994615621152,0.2093188690419389,13385.759693875,0.5155357967857457,-1.464104553711732,-1.150822637205322,-0.2672047317028046,-0.4994576275348663,0.04784637689590454,0.3684611916542053,0.06427154690027237,0.2625205814838409,XTrueNorthZVertical,0.2484388382971171,0.6454210445888454,-0.5107905113932778,-0.5106886250583663,-0.4054179787635803,0.9130996465682983,-0.04341963678598404,-14.72184562683105,15.51874732971191,-17.25472831726074,1,0.0.0.0,10.227.79.254,1
2015-02-09 09:17:31.867,115,1423502251.070646,37.79157953340354,-122.3999416084237,12.38824,0.87,94.5703125,3,30,-9999,1423502251.848025,-20.91450881958008,19.5281982421875,-1.768531799316406,196.6273193359375,182.8475189208984,11,13385.97776954167,-0.26129150390625,0.8865203857421875,0.2600860595703125,13385.966817125,0.1918378796466588,0.1281774106332957,-0.3228379747193295,13385.863255625,0.4997024868830334,-1.51032029588943,-1.165086984894925,0.08636941760778427,0.1427192687988281,0.2475072741508484,0.23470838367939,0.07713375240564346,0.3408854305744171,XTrueNorthZVertical,0.2466377952681671,0.6536382905569221,-0.5157166203692867,-0.495946720932755,-0.3939491212368011,0.9188226461410522,-0.02385356649756432,-15.26189994812012,15.90342426300049,-16.41479301452637,1,0.0.0.0,10.227.79.254,1
2015-02-09 09:17:31.965,116,1423502251.070646,37.79157953340354,-122.3999416084237,12.38824,0.87,94.5703125,3,30,-9999,1423502251.951899,-18.71482467651367,18.96746826171875,-3.948589324951172,198.8811645507812,185.1013641357422,11,13386.075909,-0.1235504150390625,0.9417266845703125,0.285888671875,13386.07037891667,0.2950444266349356,-0.05987664973657854,-0.1311249973277954,13385.966817125,0.5884131985331207,-1.434782520708615,-1.154073207878433,0.1867845356464386,0.1379970163106918,-0.2846502959728241,0.177379846572876,-0.04915532469749451,0.3534529209136963,XTrueNorthZVertical,0.2336445199222013,0.6465045542568079,-0.5263681556245691,-0.5003785205680874,-0.4010279178619385,0.9144202470779419,-0.05488419905304909,-15.25586795806885,15.41695785522461,-16.87796783447266,1,0.0.0.0,10.227.79.254,1
2015-02-09 09:17:32.063,117,1423502251.070646,37.79157953340354,-122.3999416084237,12.38824,0.87,94.5703125,3,30,-9999,1423502252.054892,-16.44693374633789,17.86288452148438,-6.761028289794922,198.3712005615234,184.5914001464844,11,13386.17403720833,-0.1292266845703125,0.9437103271484375,0.3171539306640625,13386.07037891667,0.2950444266349356,-0.05987664973657854,-0.1311249973277954,13386.07037891667,0.6197298793319502,-1.399209838569338,-1.132930782665436,0.289991170167923,-0.05005724355578423,-0.09293811023235321,0.2782544791698456,0.01949688978493214,0.3534490764141083,XTrueNorthZVertical,0.2253567981094743,0.6426628873773419,-0.5259618094555579,-0.5094731604254408,-0.4177808463573456,0.9056587219238281,-0.07239745557308197,-15.46669006347656,14.74918174743652,-17.27810668945312,1,0.0.0.0,10.227.79.254,1
2015-02-09 09:17:32.162,118,1423502252.077501,37.79157601300421,-122.399939764405,12.37921,0.79,101.25,3,30,-9999,1423502252.054892,-16.44693374633789,17.86288452148438,-6.761028289794922,198.3712005615234,184.5914001464844,11,13386.27206179167,-0.0428924560546875,1.006332397460938,0.3596343994140625,13386.17394066667,-0.08536656347805395,-0.2996466353147015,-0.009407616550704909,13386.17394066667,0.6707056155667153,-1.370160670083952,-1.122485545248251,-0.090419702231884,-0.289827436208725,0.0287785492837429,0.2818962335586548,0.08224838227033615,0.4649525582790375,XTrueNorthZVertical,0.2128994405750886,0.6414692676007536,-0.5337578929685418,-0.5082258534218201,-0.4247490167617798,0.9011805653572083,-0.08638201653957367,-15.96947956085205,17.76070976257324,-7.127159118652344,1,0.0.0.0,10.227.79.254,1
2015-02-09 09:17:32.259,119,1423502252.077501,37.79157601300421,-122.399939764405,12.37921,0.79,101.25,3,30,-9999,1423502252.159154,-13.6163330078125,17.794921875,-9.889656066894531,196.7413330078125,182.9615325927734,11,13386.37027970833,-0.2149505615234375,1.069229125976562,0.28948974609375,13386.27750220833,0.03237471779154826,-0.04775473940286487,0.2482353757351579,13386.27750220833,0.6705343921863052,-1.372174853001521,-1.134476862842393,0.02732167392969131,-0.03793571516871452,0.2864207625389099,0.3714055120944977,0.1000191792845726,0.4430223405361176,XTrueNorthZVertical,0.2167867685687262,0.6413341803123157,-0.5361431999765385,-0.5042265708206637,-0.4142979681491852,0.9063132405281067,-0.08338793367147446,-15.91390800476074,17.89684867858887,-6.907516479492188,1,0.0.0.0,10.227.79.254,1
2015-02-09 09:17:32.357,120,1423502252.077501,37.79157601300421,-122.399939764405,12.37921,0.79,101.25,3,30,-9999,1423502252.262503,-10.03544807434082,17.794921875,-12.65216445922852,195.1877899169922,181.4079895019531,11,13386.468386875,-0.1987457275390625,0.8998260498046875,0.2760467529296875,13386.38106395833,-0.231770648611852,0.5635219571835677,0.2039209078284573,13386.38106395833,0.6606975615095422,-1.352973405131351,-1.172619880241641,-0.2368235886096954,0.5733407735824585,0.2421054989099503,0.1248527839779854,0.1848435699939728,0.3859464824199677,XTrueNorthZVertical,0.2389552351139159,0.6332490995274802,-0.5383570453385533,-0.502063407110715,-0.3785759210586548,0.9217695593833923,-0.08379194885492325,-15.09407711029053,18.53213500976562,-7.070518016815186,1,0.0.0.0,10.227.79.254,1
2015-02-09 09:17:32.456,121,1423502252.077501,37.79157601300421,-122.399939764405,12.37921,0.79,101.25,3,30,-9999,1423502252.366124,-6.556875228881836,17.5570068359375,-14.98199844360352,197.5779876708984,183.7981872558594,11,13386.566485,-0.2304229736328125,0.970245361328125,0.08868408203125,13386.48462575,0.00306955947242533,0.4973083156331456,-0.03213157118402402,13386.48462575,0.6314488418754955,-1.330299201414378,-1.188572025661206,-0.001983281224966049,0.5071269273757935,0.006052303593605757,0.1504280418157578,-0.0181845910847187,0.3430663347244263,XTrueNorthZVertical,0.2600004637960162,0.6228803521378296,-0.5309123848977506,-0.5123981506355003,-0.3622505366802216,0.9278373122215271,-0.08883965015411377,-14.38773536682129,18.91238212585449,-7.521860122680664,1,0.0.0.0,10.227.79.254,1
2015-02-09 09:17:32.553,122,1423502252.077501,37.79157601300421,-122.399939764405,12.37921,0.79,101.25,3,30,-9999,1423502252.469086,-4.732332229614258,17.26815795898438,-16.49638366699219,200.4857177734375,186.7059173583984,11,13386.66449545833,-0.09100341796875,0.9698333740234375,0.2078857421875,13386.58818725,0.2570909189918894,-0.8788948250512961,-0.1201666220743374,13386.58818725,0.639623227762856,-1.325472121973196,-1.174109231386132,0.2520381808280945,-0.8690763711929321,-0.08198355138301849,0.2080637514591217,0.05922133848071098,0.2591046988964081,XTrueNorthZVertical,0.2534644753319773,0.6235682690600154,-0.5298693336615619,-0.5159039273713877,-0.3747965395450592,0.9223460555076599,-0.09383674710988998,-14.46209812164307,18.74396514892578,-7.795829772949219,1,0.0.0.0,10.227.79.254,1
2015-02-09 09:17:32.652,123,1423502252.077501,37.79157601300421,-122.399939764405,12.37921,0.79,101.25,3,30,-9999,1423502252.572811,-4.766435623168945,16.24853515625,-16.59623718261719,197.9079742431641,184.128173828125,11,13386.76272320833,-0.1748809814453125,0.988555908203125,0.2137451171875,13386.691749,0.1524784892641598,-0.2440198580456714,-0.1335596591963459,13386.691749,0.691526932857518,-1.324656434314629,-1.168159375460629,0.1474274694919586,-0.2342042028903961,-0.0953708216547966,0.3014376163482666,0.05154196172952652,0.2469671964645386,XTrueNorthZVertical,0.2352376149771213,0.6300192837004254,-0.5419862733384553,-0.5039740525504867,-0.3800356388092041,0.9200308918952942,-0.09547793120145798,-14.93888473510742,18.53935623168945,-7.374647617340088,1,0.0.0.0,10.227.79.254,1
2015-02-09 09:17:32.750,124,1423502252.077501,37.79157601300421,-122.399939764405,12.37921,0.79,101.25,3,30,-9999,1423502252.676147,-5.704282760620117,15.9256591796875,-16.51302719116211,196.4881591796875,182.7083587646484,11,13386.86084370833,-0.14447021484375,0.9499053955078125,0.18389892578125,13386.79531058333,-0.06938200429928935,-0.1096250315314767,-0.08150977358740119,13386.79531058333,0.6965949163688216,-1.332517675887954,-1.159637911723103,-0.07443291693925858,-0.09980959445238113,-0.04332173988223076,0.265194833278656,0.04089159518480301,0.3192338645458221,XTrueNorthZVertical,0.2283790854173187,0.6329895044125646,-0.5427363250019397,-0.5025978130044562,-0.3883790373802185,0.9166584610939026,-0.09433455765247345,-15.20736122131348,18.3555965423584,-7.285032272338867,1,0.0.0.0,10.227.79.254,1
2015-02-09 09:17:32.848,125,1423502252.077501,37.79157601300421,-122.399939764405,12.37921,0.79,101.25,3,30,-9999,1423502252.780512,-6.471614837646484,15.22897338867188,-16.39653015136719,196.3080902099609,182.5282897949219,11,13386.95884233333,-0.1643829345703125,0.9787750244140625,0.2447357177734375,13386.89887225,0.08693995905007276,-0.3582316519225916,0.0003246393368806592,13386.89887225,0.68735443316755,-1.35478237331636,-1.159303557810849,0.08188914507627487,-0.3484164178371429,0.03851195052266121,0.242092177271843,0.01893055252730846,0.2829045057296753,XTrueNorthZVertical,0.2251490296961447,0.6375285829312096,-0.5428913148916693,-0.4981307459430628,-0.3906822800636292,0.9165247678756714,-0.08573044091463089,-15.30957508087158,18.35926055908203,-7.058181285858154,1,0.0.0.0,10.227.79.254,1
2015-02-09 09:17:32.946,126,1423502252.077501,37.79157601300421,-122.399939764405,12.37921,0.79,101.25,3,30,-9999,1423502252.883946,-8.364372253417969,14.60028076171875,-15.08184051513672,185.4658050537109,171.6860046386719,10,13387.05696033333,-0.13702392578125,0.9585113525390625,0.2340545654296875,13387.00243379167,-0.004179032382552341,-0.1219860937310795,-0.02382384016352184,13387.00243379167,0.7006793793101966,-1.371941561673756,-1.16257604423242,-0.009229743853211403,-0.112171046435833,0.01436266861855984,0.2759942710399628,0.08856464922428131,0.3293064534664154,XTrueNorthZVertical,0.2173918352970249,0.6430630407525395,-0.5486488103101805,-0.4880524541230185,-0.3891534507274628,0.9178287982940674,-0.07842142879962921,-15.45489597320557,18.39044380187988,-6.648402214050293,1,0.0.0.0,10.227.79.254,1
2015-02-09 09:17:33.043,127,1423502252.077501,37.79157601300421,-122.399939764405,12.37921,0.79,101.25,3,30,-9999,1423502252.986762,-8.99528694152832,14.9910888671875,-13.73386764526367,182.4957733154297,168.7159729003906,10,13387.15506745833,-0.18243408203125,0.932952880859375,0.2128448486328125,13387.10599558333,0.02608353234845407,0.1461793143377953,-0.06367485008324955,13387.10599558333,0.6966525047961306,-1.365961405344582,-1.15909982891405,0.0210329182446003,0.155994176864624,-0.02548906765878201,0.2642965912818909,0.04524191841483116,0.3114982545375824,XTrueNorthZVertical,0.2190576892521574,0.641339127763444,-0.5463988512954225,-0.4920834753861999,-0.3917990326881409,0.9164432883262634,-0.0813957005739212,-15.4808406829834,18.35806655883789,-6.677457809448242,1,0.0.0.0,10.227.79.254,1
2015-02-09 09:17:33.142,128,1423502253.104424,37.7915720316002,-122.3999359087296,12.17783,0.73,101.25,3,30,-9999,1423502253.090792,-6.710344314575195,15.05905151367188,-15.56444931030273,189.7399139404297,175.9601135253906,10,13387.25318329167,-0.1688385009765625,0.9312591552734375,0.2218017578125,13387.20955720833,0.008217449859548497,-0.3413615916813757,-0.02809368633924588,13387.20955720833,0.7107296401012394,-1.355455270432657,-1.154017363671452,0.003166936105117202,-0.3315469324588776,0.01009133365005255,0.2239891439676285,0.01957760751247406,0.2817683219909668,XTrueNorthZVertical,0.2155664198870447,0.6405312781682403,-0.5478397956615645,-0.493074394042852,-0.3954674303531647,0.9143975973129272,-0.0865015983581543,-15.51655864715576,18.24204444885254,-6.90852165222168,1,0.0.0.0,10.227.79.254,1
2015-02-09 09:17:33.240,129,1423502253.104424,37.7915720316002,-122.3999359087296,12.17783,0.73,101.25,3,30,-9999,1423502253.194538,-3.436395645141602,14.68524169921875,-19.19232559204102,197.7117462158203,183.9319458007812,10,13387.35131858333,-0.104736328125,0.996002197265625,0.2498779296875,13387.31311879167,0.0456247431630195,-0.4200675892731415,0.1034861789027351,13387.31311879167,0.7164267668416272,-1.399359770530181,-1.161219876190919,0.0405743345618248,-0.4102531373500824,0.1416704058647156,0.2677799463272095,0.05857102572917938,0.3242375552654266,XTrueNorthZVertical,0.2042380675300623,0.6513977030474075,-0.5550912365024199,-0.4752279062306319,-0.3923832178115845,0.9172895550727844,-0.06793569028377533,-15.7307186126709,18.32228660583496,-6.172661304473877,1,0.0.0.0,10.227.79.254,1
2015-02-09 09:17:33.338,130,1423502253.104424,37.7915720316002,-122.3999359087296,12.17783,0.73,101.25,3,30,-9999,1423502253.297761,-0.9809322357177734,15.05905151367188,-22.65378952026367,200.7031097412109,186.9233093261719,10,13387.4495545,-0.1323394775390625,0.9582061767578125,0.2288818359375,13387.4166805,0.03442508551480027,-0.003175286967701476,0.029374933139683,13387.4166805,0.7259937724391138,-1.409101675006278,-1.172021308958343,0.02937477082014084,0.006638982333242893,0.06755842268466949,0.2615512907505035,0.04974562674760818,0.3112446665763855,XTrueNorthZVertical,0.2022972620868729,0.6540796909433803,-0.5602557445652588,-0.4662285660437198,-0.3832248747348785,0.9215373396873474,-0.06251115351915359,-15.66837310791016,18.4915657043457,-5.816148281097412,1,0.0.0.0,10.227.79.254,1
2015-02-09 09:17:33.436,131,1423502253.104424,37.7915720316002,-122.3999359087296,12.17783,0.73,101.25,3,30,-9999,1423502253.401826,2.821622848510742,15.04208374023438,-27.29680252075195,206.1619720458984,192.3821716308594,10,13387.54768129167,-0.1558380126953125,0.9450531005859375,0.2214508056640625,13387.52024195833,0.00141360590661406,-0.2240006098154368,0.06558939659090751,13387.52024195833,-0.03316775893296935,-2.209185411378137,-1.319153318806077,-0.00324722658842802,-0.2140334248542786,0.1038981750607491,0.05330533906817436,-0.01743956468999386,0.08232054114341736,XTrueNorthZVertical,0.2871130583028024,0.7012521909482048,-0.5414210824929613,-0.3642453394904205,-0.1999575644731522,0.9685046076774597,0.1483770906925201,-12.26187038421631,21.66946029663086,-1.159540891647339,1,0.0.0.0,10.227.79.254,1
2015-02-09 09:17:33.534,132,1423502253.104424,37.7915720316002,-122.3999359087296,12.17783,0.73,101.25,3,30,-9999,1423502253.505488,4.236924171447754,14.65121459960938,-30.97460556030273,206.7588653564453,192.9790649414062,10,13387.64570791667,-0.0978546142578125,0.9822845458984375,0.2350006103515625,13387.62380366667,0.07457064105109074,-0.1467915750724046,-0.03067801786105878,13387.62380366667,-0.2275468691807505,-2.429072354165185,-1.324848612195243,0.06996777653694153,-0.136797696352005,0.007654344197362661,0.0451568141579628,0.01292684674263,0.05449695140123367,XTrueNorthZVertical,0.2970146355492115,0.7098614912936281,-0.5414633522976909,-0.3386685799310157,-0.1591704785823822,0.9699069857597351,0.1842420548200607,-11.33334255218506,22.19867324829102,0.1939663887023926,1,0.0.0.0,10.227.79.254,1
2015-02-09 09:17:33.633,133,1423502253.104424,37.7915720316002,-122.3999359087296,12.17783,0.73,101.25,3,30,-9999,1423502253.609428,5.396450042724609,14.107421875,-34.00337600708008,188.8581085205078,175.0783081054688,11,13387.74392758333,-0.100494384765625,0.9554290771484375,0.23150634765625,13387.7273655,0.05655275838005064,-0.0237016010694872,-0.1438421241651418,13387.62380366667,-0.2275468691807505,-2.429072354165185,-1.324848612195243,0.06996777653694153,-0.136797696352005,0.007654344197362661,0.0451568141579628,0.01292684674263,0.05449695140123367,XTrueNorthZVertical,0.2970146355492115,0.7098614912936281,-0.5414633522976909,-0.3386685799310157,-0.1591704785823822,0.9699069857597351,0.1842420548200607,-11.33334255218506,22.19867324829102,0.1939663887023926,1,0.0.0.0,10.227.79.254,1
2015-02-09 09:17:33.731,134,1423502253.104424,37.7915720316002,-122.3999359087296,12.17783,0.73,101.25,3,30,-9999,1423502253.712999,6.351350784301758,14.44729614257812,-35.16830062866211,186.2677917480469,172.4879913330078,11,13387.84198358333,-0.1023406982421875,0.95550537109375,0.2138671875,13387.83092679167,-0.009514142994308078,-0.06232729057166945,-0.117060843611087,13387.7273655,-0.253880447547248,-2.460729281133009,-1.325519643330399,0.05193886160850525,-0.01371863577514887,-0.1055014207959175,0.0150320753455162,0.03154725581407547,0.04709681496024132,XTrueNorthZVertical,0.297860968614225,0.7110695041813286,-0.5419947770571643,-0.334515567213632,-0.1528494656085968,0.9700701832771301,0.1886819899082184,-11.0963659286499,22.3140983581543,0.4638655185699463,1,0.0.0.0,10.227.79.254,1
2015-02-09 09:17:33.829,135,1423502253.104424,37.7915720316002,-122.3999359087296,12.17783,0.73,101.25,3,30,-9999,1423502253.816662,5.856845855712891,15.5858154296875,-35.4844856262207,186.2733764648438,172.4935760498047,11,13387.94016079167,-0.1027069091796875,0.969757080078125,0.2476043701171875,13387.93448858333,-0.02377244115448331,0.06850822114563436,-0.02859755641748888,13387.83092679167,-0.3000160488476993,-2.515140543920422,-1.317963567175403,-0.014115653000772,-0.05233412235975266,-0.07871225476264954,0.0406523235142231,-0.015754085034132,0.02248039655387402,XTrueNorthZVertical,0.2989581278438605,0.7155053646601602,-0.5395711618182355,-0.3279315046449981,-0.1466551274061203,0.9682077169418335,0.2026477754116058,-10.97961616516113,22.3610725402832,0.8330302238464355,1,0.0.0.0,10.227.79.254,1
2015-02-09 09:17:33.927,136,1423502253.104424,37.7915720316002,-122.3999359087296,12.17783,0.73,101.25,3,30,-9999,1423502253.92013,5.54991340637207,16.12957763671875,-34.75224685668945,186.2578277587891,172.47802734375,11,13388.03827804167,-0.1558074951171875,0.9721832275390625,0.234832763671875,13387.93448858333,-0.02377244115448331,0.06850822114563436,-0.02859755641748888,13387.93448858333,-0.3496328686925948,-2.57150596492773,-1.315352408128286,-0.02835464477539062,0.07849355041980743,0.009782292880117893,0.03334259614348412,0.005761153995990753,0.04479186236858368,XTrueNorthZVertical,0.3013658146559853,0.7180086187443432,-0.5389663946785255,-0.3211814036316459,-0.1363699436187744,0.9675512313842773,0.2127154618501663,-10.80995559692383,22.4298152923584,1.145302057266235,1,0.0.0.0,10.227.79.254,1
2015-02-09 09:17:34.026,137,1423502253.104424,37.7915720316002,-122.3999359087296,12.17783,0.73,101.25,3,30,-9999,1423502253.92013,5.54991340637207,16.12957763671875,-34.75224685668945,186.2578277587891,172.47802734375,11,13388.13640441667,-0.1353302001953125,0.96630859375,0.2432861328125,13388.03805029167,0.03241040415015532,0.1158373874063046,-0.06414330011899448,13388.03805029167,-0.3612097270210408,-2.571313975253237,-1.313833022288471,0.02782719954848289,0.1258242726325989,-0.02576335147023201,-0.01376619189977646,0.007549989968538284,0.02185233496129513,XTrueNorthZVertical,0.3054820300396265,0.7166895884985145,-0.5364777187437433,-0.3243893028726367,-0.1372042596340179,0.9671661853790283,0.2139264792203903,-10.77696132659912,22.44757652282715,1.107632875442505,1,0.0.0.0,10.227.79.254,1
2015-02-09 09:17:34.123,138,1423502253.104424,37.7915720316002,-122.3999359087296,12.17783,0.73,101.25,3,30,-9999,1423502254.024512,4.697324752807617,16.94528198242188,-35.1849250793457,186.3824768066406,172.6026763916016,11,13388.23440604167,-0.1130828857421875,0.9544677734375,0.2408599853515625,13388.14161175,-0.01099326266373809,-0.0138268660635824,-0.03999748377968206,13388.14161175,-0.3537387064925688,-2.562111001441496,-1.310154976458367,-0.01558488514274359,-0.003835374256595969,-0.001627923687919974,0.005783975590020418,8.369305578526109e-05,0.02765628881752491,XTrueNorthZVertical,0.3050529148605687,0.717466125247434,-0.5348555306404352,-0.3257524198940501,-0.1411141753196716,0.9662249088287354,0.2156298458576202,-10.87892723083496,22.40107345581055,1.050872087478638,1,0.0.0.0,10.227.79.254,1
2015-02-09 09:17:34.222,139,1423502254.107116,37.7915625181401,-122.3999437038995,11.96857,0.74,101.25,3,30,-9999,1423502254.127744,3.674215316772461,17.28512573242188,-35.51777267456055,187.4223785400391,173.642578125,11,13388.33262183333,-0.164337158203125,0.957855224609375,0.220611572265625,13388.245173375,0.0005020058654799364,0.1207858070277808,0.02508324904302031,13388.245173375,-0.3938593443883618,-2.598596471126768,-1.310662756101653,-0.004090724978595972,0.1307752430438995,0.06346549838781357,0.007504394743591547,-0.005677530542016029,0.01222340948879719,XTrueNorthZVertical,0.3097182854973818,0.7170644641611044,-0.5341501752867643,-0.3233832518437163,-0.1329011172056198,0.9663556218147278,0.2202137261629105,-10.69873428344727,22.4799690246582,1.204775094985962,1,0.0.0.0,10.227.79.254,1
2015-02-09 09:17:34.320,140,1423502254.107116,37.7915625181401,-122.3999437038995,11.96857,0.74,101.25,3,30,-9999,1423502254.231492,2.838676452636719,16.62240600585938,-35.20157241821289,208.6051635742188,194.8253631591797,15,13388.430736,-0.143341064453125,0.9688568115234375,0.2432861328125,13388.34873508333,0.01136850206133025,-0.05315270061634648,-0.01702692042942161,13388.34873508333,-0.3916809972100762,-2.589744126747078,-1.308421486191003,0.006771613843739033,-0.04315965622663498,0.02134088613092899,-0.02448098547756672,-0.003710077842697501,0.006346198730170727,XTrueNorthZVertical,0.3111901000063235,0.7166567772007878,-0.5322543579593333,-0.3259893913143779,-0.1359804421663284,0.9657767415046692,0.2208724319934845,-10.71667098999023,22.47364234924316,1.16265869140625,1,0.0.0.0,10.227.79.254,1
2015-02-09 09:17:34.421,141,1423502254.107116,37.7915625181401,-122.3999437038995,11.96857,0.74,101.25,3,30,-9999,1423502254.335356,2.497640609741211,16.24856567382812,-36.46634292602539,207.9440460205078,194.1642456054688,15,13388.528718875,-0.157073974609375,0.9560394287109375,0.23822021484375,13388.45229645833,-0.003318831350456746,-0.06043351672051411,-0.008254467798700598,13388.45229645833,-0.3967468389373431,-2.600951995625463,-1.30867410518341,-0.007925757206976414,-0.05043619871139526,0.03009836561977863,-0.01590586639940739,-0.002341243904083967,0.01069098897278309,XTrueNorthZVertical,0.3100329940709484,0.7176114812818828,-0.5332713851541105,-0.3233186257573594,-0.1333708614110947,0.9658422470092773,0.2221733927726746,-10.66969299316406,22.49335289001465,1.212532520294189,1,0.0.0.0,10.227.79.254,1
2015-02-09 09:17:34.516,142,1423502254.107116,37.7915625181401,-122.3999437038995,11.96857,0.74,101.25,3,30,-9999,1423502254.438689,3.094450950622559,15.89169311523438,-38.84609603881836,207.6037139892578,193.8239135742188,20,13388.62682125,-0.123138427734375,0.963958740234375,0.2404632568359375,13388.55585808333,0.003959854224838819,-0.05221553422874759,-0.07330484058497608,13388.55585808333,-0.3827147011460927,-2.590160813657028,-1.301332680091495,-0.0006653645541518927,-0.04220935329794884,-0.03498415648937225,-0.01950959861278534,-0.005692384671419859,0.003011947032064199,XTrueNorthZVertical,0.3075039878492454,0.7202907376928084,-0.5310026358432097,-0.3235100475167814,-0.1394717246294022,0.9639137983322144,0.226754903793335,-10.80601692199707,22.41954040527344,1.362955093383789,1,0.0.0.0,10.227.79.254,1
2015-02-09 09:17:34.615,143,1423502254.107116,37.7915625181401,-122.3999437038995,11.96857,0.74,101.25,3,30,-9999,1423502254.541884,3.929990768432617,15.73873901367188,-39.76138687133789,207.7000274658203,193.9202270507812,20,13388.724915875,-0.121795654296875,0.956787109375,0.2345428466796875,13388.65941975,0.02237028684055659,-0.04894543872623929,-0.05996559931698718,13388.65941975,-0.3816889146210287,-2.595424138285591,-1.300075190808115,0.01771129295229912,-0.0389568991959095,-0.02164256200194359,0.01692703552544117,0.001311230240389705,0.005350026302039623,XTrueNorthZVertical,0.3056726236093578,0.7216820380653405,-0.5314823425302856,-0.3213499683431318,-0.138905793428421,0.9635782837867737,0.2285214364528656,-10.84541797637939,22.39468383789062,1.455519199371338,1,0.0.0.0,10.227.79.254,1
2015-02-09 09:17:34.717,144,1423502254.107116,37.7915625181401,-122.3999437038995,11.96857,0.74,101.25,3,30,-9999,1423502254.645985,2.156600952148438,17.37014770507812,-36.83245468139648,207.7449188232422,193.9651184082031,20,13388.82303616667,-0.1112823486328125,0.9670562744140625,0.237701416015625,13388.76298116667,0.03960493383500438,-0.05206826142046621,-0.02444409038140129,13388.76298116667,-0.3891924252856829,-2.609395726211245,-1.303738214124246,0.0349450409412384,-0.0420842319726944,0.01389465108513832,0.01839857362210751,-0.006223171483725309,0.0139819672331214,XTrueNorthZVertical,0.304835028947142,0.721646737480533,-0.533849889262117,-0.3182858567566388,-0.1339076012372971,0.9645513892173767,0.2273968160152435,-10.77459144592285,22.42743110656738,1.477158546447754,1,0.0.0.0,10.227.79.254,1
2015-02-09 09:17:34.816,145,1423502254.107116,37.7915625181401,-122.3999437038995,11.96857,0.74,101.25,3,30,-9999,1423502254.750408,0.7242488861083984,18.35574340820312,-33.33769607543945,207.6781768798828,193.8983764648438,20,13388.921152875,-0.1389007568359375,0.9685516357421875,0.239990234375,13388.86654275,0.003424026213514877,0.04133918433686398,-0.0108356035272054,13388.86654275,-0.402688775722855,-2.6222071136658,-1.306606531095261,-0.001238359254784882,0.05131930485367775,0.02751615084707737,-0.0009750370518304408,-0.002612123265862465,0.007623039651662111,XTrueNorthZVertical,0.3064040358498016,0.7207371431164907,-0.5347865395877252,-0.3172662823071523,-0.1296096742153168,0.9653043746948242,0.2266909182071686,-10.65667247772217,22.48424339294434,1.468871593475342,1,0.0.0.0,10.227.79.254,1
2015-02-09 09:17:34.918,146,1423502254.107116,37.7915625181401,-122.3999437038995,11.96857,0.74,101.25,3,30,-9999,1423502254.853273,-0.1112899780273438,19.32431030273438,-29.95943832397461,207.5558166503906,193.7760162353516,20,13389.01925641667,-0.1312255859375,0.960296630859375,0.232879638671875,13388.970104375,-0.007585748048981702,0.0320769763816774,-0.03260002121976896,13388.970104375,-0.4053129425775301,-2.617766861120808,-1.306021515244901,-0.01225189678370953,0.04205818846821785,0.005745168309658766,-0.007560840342193842,-0.004686977714300156,-0.009240699931979179,XTrueNorthZVertical,0.3085106878993912,0.7198070787765605,-0.5334570781209558,-0.3195660652566746,-0.1308974176645279,0.9651514291763306,0.2266021519899368,-10.64873027801514,22.49128723144531,1.417737483978271,1,0.0.0.0,10.227.79.254,1
2015-02-09 09:17:35.015,147,1423502254.107116,37.7915625181401,-122.3999437038995,11.96857,0.74,101.25,3,30,-9999,1423502254.957096,0.2126941680908203,20.05499267578125,-29.14400100708008,207.4573516845703,193.6775512695312,20,13389.11735158333,-0.134674072265625,0.9682159423828125,0.2364654541015625,13389.07366575,0.02090954298264813,-0.009231847918759679,-0.04139377913921061,13389.07366575,-0.401373487816798,-2.613559146429679,-1.30534664290194,0.01624050550162792,0.0007504341774620116,-0.003055272158235312,-0.006280379369854927,-0.005486711859703064,0.003200667211785913,XTrueNorthZVertical,0.308186124666718,0.7199495051762294,-0.5331740134006305,-0.3200304570812872,-0.1321778744459152,0.9649746417999268,0.2266119569540024,-10.67319488525391,22.47999954223633,1.41279411315918,1,0.0.0.0,10.227.79.254,1
2015-02-09 09:17:35.125,148,1423502254.107116,37.7915625181401,-122.3999437038995,11.96857,0.74,101.25,3,30,-9999,1423502255.060816,0.9288711547851562,20.73471069335938,-29.3104133605957,207.447265625,193.6674652099609,20,13389.21544120833,-0.12310791015625,0.9634857177734375,0.22589111328125,13389.17722720833,0.002372876531260601,0.008107461306528225,-0.05525366840030999,13389.17722720833,-0.3953197105359505,-2.606170986958552,-1.304804050220864,-0.002295383252203465,0.01808930747210979,-0.01691472344100475,0.01253358088433743,0.003643202362582088,-0.005330607295036316,XTrueNorthZVertical,0.3079518606601692,0.719864852411075,-0.5327938268648057,-0.3210778461679596,-0.134115606546402,0.9648321270942688,0.2260795086622238,-10.72064971923828,22.45815277099609,1.400885343551636,1,0.0.0.0,10.227.79.254,1
2015-02-09 09:17:35.214,149,1423502255.115942,37.79155581261757,-122.3999630660959,11.84811,0.71,101.25,3,30,-9999,1423502255.164129,0.6389904022216797,19.5281982421875,-28.56154251098633,207.4734649658203,193.6936645507812,20,13389.31353741667,-0.13067626953125,0.9576873779296875,0.22723388671875,13389.28078879167,-0.02489230039286163,0.05145067436367683,-0.02204884329698403,13389.28078879167,-0.4065873123799004,-2.613909237004654,-1.303732937060303,-0.02956102415919304,0.06142977625131607,0.01629951409995556,0.009225225076079369,-0.007472999393939972,0.0006496641435660422,XTrueNorthZVertical,0.3099004112059469,0.7196967278737019,-0.5317601152837862,-0.3212935328972945,-0.1328824460506439,0.9645500183105469,0.2280032932758331,-10.68413925170898,22.47530937194824,1.404657125473022,1,0.0.0.0,10.227.79.254,1
2015-02-09 09:17:35.318,150,1423502255.115942,37.79155581261757,-122.3999630660959,11.84811,0.71,101.25,3,30,-9999,1423502255.268537,0.4514198303222656,19.51119995117188,-27.41327285766602,207.4449768066406,193.6651763916016,20,13389.41163125,-0.12841796875,0.959259033203125,0.2613525390625,13389.38435029167,-0.02850114998602801,0.04038151160887149,-0.009530920909175577,13389.38435029167,-0.4111633478003085,-2.609117627690128,-1.302709580425537,-0.03316742181777954,0.05036080628633499,0.0288159716874361,0.01060361228883266,-0.01744107715785503,0.0001335225242655724,XTrueNorthZVertical,0.3127739391860153,0.7185259848199785,-0.5298747642314106,-0.3242307909517987,-0.1344744563102722,0.9642794728279114,0.2282142490148544,-10.68746757507324,22.47780990600586,1.337753057479858,1,0.0.0.0,10.227.79.254,1
2015-02-09 09:17:35.419,151,1423502255.115942,37.79155581261757,-122.3999630660959,11.84811,0.71,101.25,3,30,-9999,1423502255.371446,3.606006622314453,20.85369873046875,-31.19091415405273,207.5484771728516,193.7686767578125,20,13389.509747,-0.13836669921875,0.9556732177734375,0.2316741943359375,13389.48791170833,-0.02983832316935679,0.05956133146351315,0.00466532559760081,13389.48791170833,-0.434790401822082,-2.623770908726756,-1.298997505075532,-0.03451017290353775,0.06954064220190048,0.04300817102193832,-0.004228527657687664,-0.0004599452076945454,-0.009773307479918003,XTrueNorthZVertical,0.3172428405362981,0.718325396577127,-0.5268907382824086,-0.3251949478989057,-0.1328869462013245,0.9632895588874817,0.2332687973976135,-10.62049674987793,22.50586700439453,1.398026943206787,1,0.0.0.0,10.227.79.254,1
