loggingTime,loggingSample,locationTimestamp_since1970,locationLatitude,locationLongitude,locationAltitude,locationSpeed,locationCourse,locationVerticalAccuracy,locationHorizontalAccuracy,locationFloor,locationHeadingTimestamp_since1970,locationHeadingX,locationHeadingY,locationHeadingZ,locationTrueHeading,locationMagneticHeading,locationHeadingAccuracy,accelerometerTimestamp_sinceReboot,accelerometerAccelerationX,accelerometerAccelerationY,accelerometerAccelerationZ,gyroTimestamp_sinceReboot,gyroRotationX,gyroRotationY,gyroRotationZ,motionTimestamp_sinceReboot,motionYaw,motionRoll,motionPitch,motionRotationRateX,motionRotationRateY,motionRotationRateZ,motionUserAccelerationX,motionUserAccelerationY,motionUserAccelerationZ,motionAttitudeReferenceFrame,motionQuaternionX,motionQuaternionY,motionQuaternionZ,motionQuaternionW,motionGravityX,motionGravityY,motionGravityZ,motionMagneticFieldX,motionMagneticFieldY,motionMagneticFieldZ,motionMagneticFieldCalibrationAccuracy,IP_en0,IP_pdp_ip0,deviceOrientation,state
2015-02-21 19:00:14.924,1,1424570407.482963,39.63832064476181,-106.3701094025551,2517.568,-1,-1,10,65,-9999,1424570414.887629,-35.3404426574707,-22.6048583984375,-9.040565490722656,92.78307342529297,83.65701293945312,10,22282.47683779167,-0.4212493896484375,-0.8001708984375,-0.4806671142578125,22282.45502133334,-0.00958311886654113,-0.02415061002927456,0.1559741545109978,22282.45502133334,-1.252767709679544,-0.7919704668045845,0.8808990273520391,-0.01436913013458252,-0.01488613523542881,0.1931615173816681,0.02310599014163017,-0.0003560968034435064,-0.02213151380419731,XTrueNorthZVertical,0.1141424792761344,-0.5132576056462783,-0.6224652497361259,0.5797199129414883,-0.4529918432235718,-0.7713114023208618,-0.4470762610435486,-35.83795166015625,-24.70036697387695,-13.50263595581055,2,192.168.1.118,10.97.20.126,3,0
2015-02-21 19:00:14.964,2,1424570407.482963,39.63832064476181,-106.3701094025551,2517.568,-1,-1,10,65,-9999,1424570414.942393,-35.90329360961914,-22.1802978515625,-9.955802917480469,90.72313690185547,81.59707641601562,10,22282.52590204167,-0.4400787353515625,-0.755523681640625,-0.48297119140625,22282.50680341667,0.03269030238072265,-0.1092005236537181,0.1470363195765828,22282.50680341667,-1.247631913043566,-0.796786810942048,0.8719510601031212,0.02790066599845886,-0.09993264079093933,0.1842188537120819,-0.05031891912221909,-0.02149328030645847,-0.007762740831822157,XTrueNorthZVertical,0.1105034560419313,-0.5127778354446819,-0.620997245487248,0.5824176668815122,-0.4600570499897003,-0.7655856013298035,-0.4496957659721375,-36.11938095092773,-24.242431640625,-13.58244895935059,2,192.168.1.118,10.97.20.126,3,0
2015-02-21 19:00:14.990,3,1424570407.482963,39.63832064476181,-106.3701094025551,2517.568,-1,-1,10,65,-9999,1424570414.942393,-35.90329360961914,-22.1802978515625,-9.955802917480469,90.72313690185547,81.59707641601562,10,22282.575002375,-0.4705963134765625,-0.8097686767578125,-0.44110107421875,22282.55858566667,0.1144024762109699,0.1709536366943664,0.008933573876670804,22282.55858566667,-1.240000693853485,-0.7981479684448122,0.8718790958571814,0.1096118837594986,0.1802236586809158,0.04611203446984291,0.01359515078365803,-0.02944363281130791,0.006984172854572535,XTrueNorthZVertical,0.1120101684306366,-0.5127376807810777,-0.6188446659888156,0.5844528314343,-0.4607082009315491,-0.765539288520813,-0.4491075873374939,-36.19809722900391,-24.11775398254395,-13.59483814239502,2,192.168.1.118,10.97.20.126,3,0
2015-02-21 19:00:15.033,4,1424570407.482963,39.63832064476181,-106.3701094025551,2517.568,-1,-1,10,65,-9999,1424570415.017286,-36.21030807495117,-21.84062194824219,-10.45502471923828,89.24172210693359,80.11566162109375,10,22282.62406583333,-0.374176025390625,-0.777557373046875,-0.42352294921875,22282.610368625,0.06034296924345141,0.1603033891790306,-0.1338155889771025,22282.55858566667,-1.240000693853485,-0.7981479684448122,0.8718790958571814,0.1096118837594986,0.1802236586809158,0.04611203446984291,0.01359515078365803,-0.02944363281130791,0.006984172854572535,XTrueNorthZVertical,0.1120101684306366,-0.5127376807810777,-0.6188446659888156,0.5844528314343,-0.4607082009315491,-0.765539288520813,-0.4491075873374939,-36.19809722900391,-24.11775398254395,-13.59483814239502,2,192.168.1.118,10.97.20.126,3,0
2015-02-21 19:00:15.087,5,1424570407.482963,39.63832064476181,-106.3701094025551,2517.568,-1,-1,10,65,-9999,1424570415.069331,-35.80096054077148,-22.28218078613281,-10.4217529296875,89.53684234619141,80.41078186035156,10,22282.67318108333,-0.429412841796875,-0.78173828125,-0.4335479736328125,22282.662151,0.024736505469092,-0.03754258188684702,-0.09328414139885953,22282.662151,-1.234870533485121,-0.7866457504854832,0.8830217621304839,0.01995284296572208,-0.02826902642846107,-0.0561186745762825,0.02891246788203716,-0.009947355836629868,0.008917299099266529,XTrueNorthZVertical,0.1211970757872114,-0.51102734245869,-0.616992128172439,0.586074293731161,-0.4494446814060211,-0.7726606726646423,-0.4483246505260468,-35.87291717529297,-24.39213562011719,-13.9622974395752,2,192.168.1.118,10.97.20.126,3,0
2015-02-21 19:00:15.144,6,1424570415.116523,39.6382603399699,-106.3701867677608,2518.24,-1,-1,10,65,-9999,1424570415.126502,-35.44278335571289,-22.53691101074219,-10.53823089599609,89.67681121826172,80.55075073242188,10,22282.72223641667,-0.4493865966796875,-0.79827880859375,-0.4271087646484375,22282.71393316667,0.04873238583903296,-0.147646716098429,-0.1174581872457268,22282.662151,-1.234870533485121,-0.7866457504854832,0.8830217621304839,0.01995284296572208,-0.02826902642846107,-0.0561186745762825,0.02891246788203716,-0.009947355836629868,0.008917299099266529,XTrueNorthZVertical,0.1211970757872114,-0.51102734245869,-0.616992128172439,0.586074293731161,-0.4494446814060211,-0.7726606726646423,-0.4483246505260468,-35.87291717529297,-24.39213562011719,-13.9622974395752,2,192.168.1.118,10.97.20.126,3,0
2015-02-21 19:00:15.186,7,1424570415.116523,39.6382603399699,-106.3701867677608,2518.24,-1,-1,10,65,-9999,1424570415.126502,-35.44278335571289,-22.53691101074219,-10.53823089599609,89.67681121826172,80.55075073242188,10,22282.77135941667,-0.4685211181640625,-0.7891082763671875,-0.4388580322265625,22282.76571625,0.02612774082254939,-0.07363480624403689,-0.1890090699367767,22282.71393316667,-1.239138823837886,-0.787318173913173,0.886215584175496,0.04394813999533653,-0.1383724957704544,-0.08029426634311676,0.01539353374391794,-0.001270968350581825,0.008091799914836884,XTrueNorthZVertical,0.121135675804289,-0.5120419176790133,-0.6183659703518162,0.5837489093924636,-0.4479954540729523,-0.7746842503547668,-0.44627845287323,-35.79408264160156,-24.55099296569824,-13.8859748840332,2,192.168.1.118,10.97.20.126,3,0
2015-02-21 19:00:15.235,8,1424570415.116523,39.6382603399699,-106.3701867677608,2518.24,-1,-1,10,65,-9999,1424570415.198918,-35.42572402954102,-23.02938842773438,-10.38847351074219,90.09023284912109,80.96417236328125,10,22282.82042925,-0.435791015625,-0.7897186279296875,-0.442779541015625,22282.817498375,0.04693182262603039,-0.05224163320743037,-0.09539922393660046,22282.76571625,-1.241818801124659,-0.7918353699455899,0.8903235450969748,0.02134658396244049,-0.0643622875213623,-0.1518442928791046,-0.03230319917201996,-0.01850101724267006,-0.0001889784762170166,XTrueNorthZVertical,0.1206405694264068,-0.5142377745101567,-0.6195261444619667,0.5806830120835295,-0.4477383196353912,-0.7772753238677979,-0.4420107305049896,-35.81480407714844,-24.68254470825195,-13.59632110595703,2,192.168.1.118,10.97.20.126,3,0
2015-02-21 19:00:15.284,9,1424570415.116523,39.6382603399699,-106.3701867677608,2518.24,-1,-1,10,65,-9999,1424570415.250143,-35.25516128540039,-23.30108642578125,-9.989097595214844,90.63777160644531,81.51171112060547,10,22282.86967179167,-0.417266845703125,-0.8027191162109375,-0.4282684326171875,22282.86928083334,0.05078834620057412,-0.07911559176741996,-0.08371886571162192,22282.817498375,-1.246305302686004,-0.7904061676100971,0.8957038745505543,0.04215146601200104,-0.0429694727063179,-0.05823475867509842,0.01079342793673277,-0.004095088224858046,-0.005382097326219082,XTrueNorthZVertical,0.1220098012525285,-0.5150367443999883,-0.6208745521347384,0.5782435393038681,-0.4441277682781219,-0.7806491851806641,-0.4397015273571014,-35.68163299560547,-24.96846389770508,-13.42329788208008,2,192.168.1.118,10.97.20.126,3,0
2015-02-21 19:00:15.335,10,1424570415.116523,39.6382603399699,-106.3701867677608,2518.24,-1,-1,10,65,-9999,1424570415.301121,-35.11870956420898,-23.09730529785156,-9.756118774414062,90.67495727539062,81.54889678955078,10,22282.91861295834,-0.42230224609375,-0.787841796875,-0.42840576171875,22282.86928083334,0.05078834620057412,-0.07911559176741996,-0.08371886571162192,22282.86928083334,-1.246941256739271,-0.7919087139515179,0.8991573713653445,0.04600808769464493,-0.06984268873929977,-0.04655653610825539,0.02225807122886181,-0.01601002179086208,0.003268792992457747,XTrueNorthZVertical,0.1227134564083958,-0.5161131726737733,-0.6212333993995616,0.5767475218831699,-0.4428665935993195,-0.7828028202056885,-0.4371371865272522,-35.62190246582031,-25.10206413269043,-13.33245944976807,2,192.168.1.118,10.97.20.126,3,0
2015-02-21 19:00:15.381,11,1424570415.116523,39.6382603399699,-106.3701867677608,2518.24,-1,-1,10,65,-9999,1424570415.354513,-34.98225784301758,-23.0633544921875,-9.622993469238281,90.73341369628906,81.60735321044922,10,22282.96773158334,-0.4313201904296875,-0.781494140625,-0.4182586669921875,22282.97284604167,-0.019022959666436,-0.1090527182132187,-0.06815934704283398,22282.921063625,-1.249842053631889,-0.7940015668028029,0.9010853215495539,-0.01759195886552334,-0.1097388416528702,-0.01730496995151043,0.02040110342204571,-0.003840702120214701,0.006744869984686375,XTrueNorthZVertical,0.1220577936473092,-0.5172297160364741,-0.6222424760490457,0.5747953172896663,-0.4427033364772797,-0.7840011119842529,-0.4351506233215332,-35.59385299682617,-25.21875190734863,-13.18637084960938,2,192.168.1.118,10.97.20.126,3,0
2015-02-21 19:00:15.438,12,1424570415.116523,39.6382603399699,-106.3701867677608,2518.24,-1,-1,10,65,-9999,1424570415.406474,-34.84582138061523,-23.30108642578125,-9.789398193359375,90.75782775878906,81.63176727294922,10,22283.01680170833,-0.43804931640625,-0.8132781982421875,-0.4147491455078125,22282.97284604167,-0.019022959666436,-0.1090527182132187,-0.06815934704283398,22282.97284604167,-1.252302545592757,-0.7973560408840031,0.903113971153531,-0.0237970408052206,-0.09977801144123077,-0.03100631386041641,0.01170145999640226,0.003764643566682935,0.01429249159991741,XTrueNorthZVertical,0.1211586545718348,-0.5186954801314204,-0.623200276758221,0.5726229425032245,-0.4430216550827026,-0.7852587699890137,-0.4325511455535889,-35.61476898193359,-25.30278396606445,-12.96708297729492,2,192.168.1.118,10.97.20.126,3,0
2015-02-21 19:00:15.480,13,1424570415.116523,39.6382603399699,-106.3701867677608,2518.24,-1,-1,10,65,-9999,1424570415.458706,-34.91404342651367,-23.23316955566406,-9.822685241699219,90.79848480224609,81.67242431640625,10,22283.065918625,-0.4160614013671875,-0.803924560546875,-0.4132232666015625,22283.02462816667,-0.001025317019680507,-0.0380057056004118,-0.04919071586263559,22283.02462816667,-1.252371156978393,-0.8015983954218235,0.9053464012052607,-0.005789232905954123,-0.02873264998197556,-0.01204209309071302,0.005542768631130457,-0.02663912437856197,0.01469825953245163,XTrueNorthZVertical,0.1206792154552952,-0.5203007057311865,-0.6235297572804984,0.57090663359033,-0.4435920715332031,-0.7866390943527222,-0.4294474124908447,-35.63284683227539,-25.3746452331543,-12.77557945251465,2,192.168.1.118,10.97.20.126,3,0
2015-02-21 19:00:15.540,14,1424570415.116523,39.6382603399699,-106.3701867677608,2518.24,-1,-1,10,65,-9999,1424570415.509091,-35.06754684448242,-23.52188110351562,-9.473236083984375,90.86901092529297,81.74295043945312,10,22283.11498191667,-0.412811279296875,-0.8133087158203125,-0.4090576171875,22283.076411125,0.02461186953007629,-0.01174507303946746,-0.03766748414197173,22283.076411125,-1.253121138588033,-0.8013533564286239,0.9102871006814026,0.01985975913703442,-0.002470890060067177,-0.0005316906026564538,0.02822941169142723,-0.01812037825584412,0.01455436926335096,XTrueNorthZVertical,0.1224642820118763,-0.5211324923039635,-0.6238456673982643,0.569420800712256,-0.440689742565155,-0.7896798849105835,-0.4268468618392944,-35.59130859375,-25.48288154602051,-12.67555236816406,2,192.168.1.118,10.97.20.126,3,0
2015-02-21 19:00:15.578,15,1424570415.116523,39.6382603399699,-106.3701867677608,2518.24,-1,-1,10,65,-9999,1424570415.562506,-35.1528205871582,-23.43698120117188,-9.589714050292969,91.33709716796875,82.21103668212891,10,22283.16408945834,-0.40216064453125,-0.7887115478515625,-0.41802978515625,22283.12819341667,0.01003425835520055,-0.03927443554372555,-0.05162511141507702,22283.12819341667,-1.253546456841883,-0.8010441849519383,0.9155784149206773,0.005293062422424555,-0.0299985259771347,-0.01450293976813555,0.02797470800578594,-0.01876085996627808,0.01527087856084108,XTrueNorthZVertical,0.1244877686255644,-0.5219849110820242,-0.6240678993652409,0.5679558477260114,-0.4375511109828949,-0.7929151654243469,-0.4240691065788269,-35.4531135559082,-25.72590255737305,-12.57149791717529,2,192.168.1.118,10.97.20.126,3,0
2015-02-21 19:00:15.633,16,1424570415.116523,39.6382603399699,-106.3701867677608,2518.24,-1,-1,10,65,-9999,1424570415.612903,-34.81169509887695,-23.47093200683594,-9.323448181152344,91.39473724365234,82.2686767578125,10,22283.21314720833,-0.4111785888671875,-0.7840423583984375,-0.407196044921875,22283.17997566667,-0.01897315855405152,-0.1164405933932075,-0.06063378643448807,22283.17997566667,-1.258285949082681,-0.7997681773106937,0.9186253074424208,-0.0237120296806097,-0.1071613505482674,-0.02352395467460155,0.03486905246973038,0.01054258830845356,0.009413064457476139,XTrueNorthZVertical,0.1248212964354275,-0.5224451077978682,-0.6253977763511696,0.5659932990312371,-0.4352749288082123,-0.7947680354118347,-0.4229415059089661,-35.36219787597656,-25.88448524475098,-12.50185585021973,2,192.168.1.118,10.97.20.126,3,0
2015-02-21 19:00:15.678,17,1424570415.116523,39.6382603399699,-106.3701867677608,2518.24,-1,-1,10,65,-9999,1424570415.665407,-34.86286544799805,-23.55584716796875,-9.43994140625,91.60588836669922,82.47982788085938,10,22283.26225216667,-0.371307373046875,-0.7802734375,-0.3957977294921875,22283.23175870833,-0.01173335513067111,-0.09583704761980948,-0.0648365209507421,22283.23175870833,-1.262839104011746,-0.8011108203398174,0.9200011643463522,-0.0164707824587822,-0.08655614405870438,-0.02773307077586651,0.02131466194987297,0.01041555777192116,0.01769519224762917,XTrueNorthZVertical,0.1237393604379041,-0.5233458713246997,-0.6267956945702404,0.5638482657887822,-0.4350567162036896,-0.7956023216247559,-0.4215953350067139,-35.3464241027832,-25.96365737915039,-12.38171005249023,2,192.168.1.118,10.97.20.126,3,0
2015-02-21 19:00:15.741,18,1424570415.116523,39.6382603399699,-106.3701867677608,2518.24,-1,-1,10,65,-9999,1424570415.716417,-35.13576889038086,-23.69172668457031,-9.107124328613281,92.22595977783203,83.09989929199219,10,22283.311312375,-0.3525390625,-0.7937469482421875,-0.38128662109375,22283.28354108334,0.09593079089018026,-0.2330044911448857,-0.1092718963709322,22283.28354108334,-1.26676487726858,-0.8026628115372825,0.9272264913550706,0.09121070802211761,-0.2237213253974915,-0.07211902737617493,0.0782170370221138,0.02098232135176659,0.02725096419453621,XTrueNorthZVertical,0.1249964958288523,-0.5252794926973628,-0.6281376302547101,0.5602682285826172,-0.4315648078918457,-0.7999587655067444,-0.4169146716594696,-35.24861145019531,-26.20568466186523,-12.14847755432129,2,192.168.1.118,10.97.20.126,3,0
2015-02-21 19:00:15.778,19,1424570415.116523,39.6382603399699,-106.3701867677608,2518.24,-1,-1,10,65,-9999,1424570415.76871,-35.13576889038086,-23.99739074707031,-8.0421142578125,93.46615600585938,84.34009552001953,10,22283.36041104167,-0.3667144775390625,-0.80780029296875,-0.3609619140625,22283.33532320834,0.1061000715126478,-0.6971987954678771,-0.1880894804123723,22283.33532320834,-1.267663612477803,-0.8252379730883793,0.9360557966805708,0.1013806313276291,-0.6879149675369263,-0.1509395241737366,0.07507909834384918,0.006153315305709839,0.01882122829556465,XTrueNorthZVertical,0.1210419942286919,-0.5331220930394949,-0.6299562204207881,0.5516202224524431,-0.4356595277786255,-0.8052256107330322,-0.402259349822998,-35.28064727783203,-26.46762466430664,-11.46859741210938,2,192.168.1.118,10.97.20.126,1,0
2015-02-21 19:00:15.840,20,1424570415.116523,39.6382603399699,-106.3701867677608,2518.24,-1,-1,10,65,-9999,1424570415.820461,-35.0163688659668,-24.65974426269531,-6.927192687988281,94.50983428955078,85.38377380371094,10,22283.409474875,-0.3767242431640625,-0.8285980224609375,-0.3425750732421875,22283.38710620833,0.1485367445347335,-1.018297992311494,-0.2913713948594983,22283.38710620833,-1.271161729294307,-0.8659915596926318,0.94759069575431,0.1438174545764923,-1.009014248847961,-0.2542219758033752,0.07167217135429382,-0.0002136480179615319,0.02510511316359043,XTrueNorthZVertical,0.111635300954282,-0.5463252979269283,-0.6335617946049515,0.5363447778825212,-0.4445817172527313,-0.81201171875,-0.3781324625015259,-35.42342376708984,-26.81696319580078,-10.13999366760254,2,192.168.1.118,10.97.20.126,1,0
2015-02-21 19:00:15.878,21,1424570415.116523,39.6382603399699,-106.3701867677608,2518.24,-1,-1,10,65,-9999,1424570415.875277,-34.77759170532227,-25.20320129394531,-4.963584899902344,97.178955078125,88.05289459228516,10,22283.45868383333,-0.37506103515625,-0.85833740234375,-0.381103515625,22283.43888854167,0.09056984761585077,-1.209309493071901,-0.6008104735024212,22283.43888854167,-1.285230147940053,-0.9114093116511864,0.967642243818403,0.08585064858198166,-1.200025677680969,-0.563661515712738,0.07337635010480881,-0.01080000214278698,0.002327090362086892,XTrueNorthZVertical,0.1009049452338599,-0.5621943470096401,-0.6402513712288802,0.5136476708564862,-0.4483305811882019,-0.8235505819320679,-0.3475114107131958,-35.45556259155273,-27.59103775024414,-7.643670558929443,2,192.168.1.118,10.97.20.126,1,0
2015-02-21 19:00:15.935,22,1424570415.116523,39.6382603399699,-106.3701867677608,2518.24,-1,-1,10,65,-9999,1424570415.875277,-34.77759170532227,-25.20320129394531,-4.963584899902344,97.178955078125,88.05289459228516,10,22283.50763591667,-0.3923187255859375,-0.8990020751953125,-0.371795654296875,22283.49067091667,-0.1794445931978661,-1.261541538899407,-0.8338634341791463,22283.49067091667,-1.327422717213382,-0.9373593758045902,0.9946292443114484,-0.1841637641191483,-1.252257704734802,-0.7967151999473572,0.06013628467917442,-0.05138132348656654,-0.07131345570087433,XTrueNorthZVertical,0.09070328807941493,-0.5749175837146249,-0.6527854034388837,0.4848854941565612,-0.4391188323497772,-0.8385570049285889,-0.3224853575229645,-34.98836517333984,-28.63609313964844,-5.707584381103516,2,192.168.1.118,10.97.20.126,1,0
2015-02-21 19:00:15.971,23,1424570415.116523,39.6382603399699,-106.3701867677608,2518.24,-1,-1,10,65,-9999,1424570415.951227,-33.68599319458008,-27.34306335449219,-2.633888244628906,102.4571304321289,93.33106994628906,10,22283.55684779167,-0.37078857421875,-0.9013671875,-0.3214569091796875,22283.54245383334,-0.3826698833495947,-0.9969543540711628,-1.138641714598321,22283.54245383334,-1.405477484676869,-0.9279015328991665,1.024038552833607,-0.3873890042304993,-0.9876706004142761,-1.101493954658508,0.02994074299931526,-0.04899879172444344,-0.02367289364337921,XTrueNorthZVertical,0.0822155581572289,-0.5808533259073326,-0.6711629968054966,0.45320005231393,-0.4161254465579987,-0.8542147278785706,-0.3117000460624695,-34.12158584594727,-29.92217826843262,-4.143501281738281,2,192.168.1.118,10.97.20.126,1,0
2015-02-21 19:00:16.038,24,1424570415.116523,39.6382603399699,-106.3701867677608,2518.24,-1,-1,10,65,-9999,1424570416.001925,-32.40677261352539,-29.02436828613281,-1.285987854003906,107.991584777832,98.86552429199219,10,22283.60580145834,-0.3822021484375,-0.9253082275390625,-0.2708740234375,22283.59423608334,-0.3127003857138339,-0.5946428587339067,-1.177057547006606,22283.54245383334,-1.405477484676869,-0.9279015328991665,1.024038552833607,-0.3873890042304993,-0.9876706004142761,-1.101493954658508,0.02994074299931526,-0.04899879172444344,-0.02367289364337921,XTrueNorthZVertical,0.0822155581572289,-0.5808533259073326,-0.6711629968054966,0.45320005231393,-0.4161254465579987,-0.8542147278785706,-0.3117000460624695,-34.12158584594727,-29.92217826843262,-4.143501281738281,2,192.168.1.118,10.97.20.126,1,0
2015-02-21 19:00:16.069,25,1424570415.116523,39.6382603399699,-106.3701867677608,2518.24,-1,-1,10,65,-9999,1424570416.054355,-30.44531631469727,-30.77359008789062,-0.2708969116210938,113.8572769165039,104.7312164306641,10,22283.6549175,-0.2416839599609375,-0.956787109375,-0.2626190185546875,22283.646018375,-0.1788555019647406,-0.4108338771416187,-1.382543860923811,22283.646018375,-1.610389788775183,-0.8078748744559234,1.096391536326072,-0.1835739761590958,-0.4015503525733948,-1.345397114753723,0.08023665845394135,-0.06327030807733536,0.05659259483218193,XTrueNorthZVertical,0.09022959996288375,-0.5779470838107102,-0.7077425975195519,0.3961517931052565,-0.330190896987915,-0.8895647525787354,-0.3156715631484985,-30.52524185180664,-33.71852111816406,-2.838860511779785,2,192.168.1.118,10.97.20.126,1,0
2015-02-21 19:00:16.135,26,1424570415.116523,39.6382603399699,-106.3701867677608,2518.24,-1,-1,10,65,-9999,1424570416.110229,-28.04038619995117,-32.59075927734375,0.3115310668945312,119.4462432861328,110.320182800293,10,22283.70399204167,-0.288421630859375,-0.9573516845703125,-0.2486114501953125,22283.69780141667,-0.1262245146059406,-0.9768102035858035,-1.329207934824467,22283.646018375,-1.610389788775183,-0.8078748744559234,1.096391536326072,-0.1835739761590958,-0.4015503525733948,-1.345397114753723,0.08023665845394135,-0.06327030807733536,0.05659259483218193,XTrueNorthZVertical,0.09022959996288375,-0.5779470838107102,-0.7077425975195519,0.3961517931052565,-0.330190896987915,-0.8895647525787354,-0.3156715631484985,-30.52524185180664,-33.71852111816406,-2.838860511779785,2,192.168.1.118,10.97.20.126,1,0
2015-02-21 19:00:16.167,27,1424570415.116523,39.6382603399699,-106.3701867677608,2518.24,-1,-1,10,65,-9999,1424570416.161626,-25.31140518188477,-34.18714904785156,1.143562316894531,125.2871780395508,116.1611175537109,10,22283.75318058334,-0.35015869140625,-0.8973541259765625,-0.2456817626953125,22283.74958383333,-0.07157804693416869,-1.061877161441223,-1.187712321895795,22283.69780141667,-1.731975447347126,-0.7335405756129614,1.137028630138461,-0.130942702293396,-0.9675267934799194,-1.292061805725098,0.01338212564587593,-0.05463221669197083,0.06100679188966751,XTrueNorthZVertical,0.09541858518787429,-0.5786162843536552,-0.7243065844979911,0.3625996423789856,-0.2813875079154968,-0.9073886871337891,-0.3121969699859619,-28.4964485168457,-35.47982025146484,-2.43367862701416,2,192.168.1.118,10.97.20.126,1,0
2015-02-21 19:00:16.235,28,1424570415.116523,39.6382603399699,-106.3701867677608,2518.24,-1,-1,10,65,-9999,1424570416.161626,-25.31140518188477,-34.18714904785156,1.143562316894531,125.2871780395508,116.1611175537109,10,22283.80215033333,-0.394989013671875,-0.91839599609375,-0.2711029052734375,22283.80136595833,0.1777521543251207,-0.4463290207824128,-1.010432346031945,22283.74958383333,-1.856734219813509,-0.6732558263778938,1.172047492697581,-0.07629605382680893,-1.05259382724762,-1.150566458702087,-0.09274173527956009,0.01863917522132397,0.06628555059432983,XTrueNorthZVertical,0.09242779849378284,-0.5828249072653086,-0.739062726606934,0.3248977617591426,-0.2420971393585205,-0.9215474724769592,-0.3035444617271423,-25.83986282348633,-37.52260589599609,-1.069389343261719,2,192.168.1.118,10.97.20.126,1,0
2015-02-21 19:00:16.266,29,1424570415.116523,39.6382603399699,-106.3701867677608,2518.24,-1,-1,10,65,-9999,1424570416.23558,-21.55904006958008,-36.70063781738281,2.940765380859375,134.5568237304688,125.4307632446289,10,22283.85125883334,-0.3761444091796875,-0.9620208740234375,-0.306640625,22283.85314916667,-0.1102314333116878,-0.09280104397711915,-0.4402615408708853,22283.80136595833,-1.964993708836006,-0.6102619877984631,1.207231257415118,0.1730339825153351,-0.4370464980602264,-0.9732848405838013,-0.1875949800014496,0.03236754238605499,0.02468161471188068,XTrueNorthZVertical,0.09469914804351764,-0.5876408922199114,-0.7478775903638694,0.2939207425503522,-0.2037929594516754,-0.9346349835395813,-0.2914205193519592,-23.95742034912109,-38.76633834838867,-0.03405380249023438,2,192.168.1.118,10.97.20.126,1,0
2015-02-21 19:00:16.305,30,1424570415.116523,39.6382603399699,-106.3701867677608,2518.24,-1,-1,10,65,-9999,1424570416.287771,-19.9898796081543,-38.19514465332031,3.539833068847656,138.3833618164062,129.2572937011719,10,22283.90031179167,-0.455291748046875,-1.025360107421875,-0.2872772216796875,22283.85314916667,-0.1102314333116878,-0.09280104397711915,-0.4402615408708853,22283.85314916667,-2.042067741405987,-0.5474018695645414,1.228489664055397,-0.1149501651525497,-0.08351892977952957,-0.4031131863594055,-0.2014428079128265,-0.02003795839846134,-0.02002660743892193,XTrueNorthZVertical,0.1015803361589875,-0.5885358330970959,-0.7522497860192937,0.2782576285018282,-0.174701601266861,-0.9419829249382019,-0.2866140305995941,-22.43749237060547,-39.66123580932617,0.577509880065918,2,192.168.1.118,10.97.20.126,1,0
2015-02-21 19:00:16.363,31,1424570415.116523,39.6382603399699,-106.3701867677608,2518.24,-1,-1,10,65,-9999,1424570416.339585,-19.8022575378418,-38.11019897460938,2.857559204101562,138.5718688964844,129.4458160400391,10,22283.949419,-0.585113525390625,-0.95245361328125,-0.252899169921875,22283.95671375,-0.3245301472759659,1.172229235950292,1.24557375763551,22283.90493129167,-2.043364326947235,-0.5461273471634313,1.208646138361102,-0.4380796849727631,0.2282017767429352,0.5376036167144775,-0.2712821364402771,-0.09022290259599686,0.01547502726316452,XTrueNorthZVertical,0.09628279921501315,-0.5825405547953295,-0.7558839514326613,0.2828703174241119,-0.1840096116065979,-0.9351372122764587,-0.3027522563934326,-22.23118019104004,-39.78126525878906,0.116520881652832,2,192.168.1.118,10.97.20.126,1,0
2015-02-21 19:00:16.405,32,1424570415.116523,39.6382603399699,-106.3701867677608,2518.24,-1,-1,10,65,-9999,1424570416.393385,-21.4737663269043,-37.56674194335938,1.52630615234375,135.9335327148438,126.8074645996094,10,22283.998473625,-0.558990478515625,-0.8737030029296875,-0.2045440673828125,22283.95671375,-0.3245301472759659,1.172229235950292,1.24557375763551,22283.95671375,-1.961656658079177,-0.5861276769814849,1.164680570681041,-0.329258918762207,1.181506514549255,1.282741069793701,-0.3665991723537445,-0.03379141539335251,0.07620764523744583,XTrueNorthZVertical,0.09244027104197489,-0.5717529079902657,-0.7527998022714293,0.3128033025935927,-0.2185143530368805,-0.9186621904373169,-0.3291068077087402,-23.63495254516602,-38.94684982299805,-1.148908615112305,2,192.168.1.118,10.97.20.126,1,0
2015-02-21 19:00:16.461,33,1424570415.116523,39.6382603399699,-106.3701867677608,2518.24,-1,-1,10,65,-9999,1424570416.393385,-21.4737663269043,-37.56674194335938,1.52630615234375,135.9335327148438,126.8074645996094,10,22284.04757604167,-0.43731689453125,-0.930908203125,-0.1208038330078125,22284.00849666667,0.102609998904099,2.478291637740881,1.884601658045004,22284.00849666667,-1.809439328963943,-0.6300964996490988,1.112498832520233,0.09788129478693008,2.487568855285645,1.921768546104431,-0.2940481901168823,0.02086097747087479,0.1660729944705963,XTrueNorthZVertical,0.1032988447251448,-0.5573126211156978,-0.7359484768189277,0.3702862006752379,-0.2606850862503052,-0.8968070149421692,-0.3574639856815338,-25.92800712585449,-37.33911895751953,-3.211940765380859,2,192.168.1.118,10.97.20.126,1,0
2015-02-21 19:00:16.508,34,1424570415.116523,39.6382603399699,-106.3701867677608,2518.24,-1,-1,10,65,-9999,1424570416.468939,-25.34551620483398,-34.22111511230469,-2.217857360839844,124.135124206543,115.0090637207031,10,22284.09663645834,-0.163970947265625,-0.9865570068359375,-0.1244659423828125,22284.06027891667,0.5850365703658819,3.548978269751977,2.199205138673809,22284.06027891667,-1.598700742979402,-0.6596237169739221,1.063339901844344,0.5803095102310181,3.558254718780518,2.236372232437134,-0.08403270691633224,-0.07132910192012787,0.2787277698516846,XTrueNorthZVertical,0.1342681519840533,-0.5384843131721724,-0.6991075316485234,0.450838559732407,-0.2978032231330872,-0.8739833831787109,-0.3840134143829346,-29.39991760253906,-34.03179550170898,-7.366806983947754,2,192.168.1.118,10.97.20.126,1,0
2015-02-21 19:00:16.568,35,1424570415.116523,39.6382603399699,-106.3701867677608,2518.24,-1,-1,10,65,-9999,1424570416.52111,-28.0403938293457,-31.23211669921875,-5.67913818359375,112.1004943847656,102.9744338989258,10,22284.145751,0.036224365234375,-0.95916748046875,-0.2569580078125,22284.11206125,0.748686487770706,3.059370218094687,1.79905000487119,22284.11206125,-1.392117300541366,-0.6651020193473605,1.028203379117711,0.7439628839492798,3.06864595413208,1.836215853691101,0.2080998718738556,-0.114971324801445,0.2667416334152222,XTrueNorthZVertical,0.1744200687973907,-0.5161670143184738,-0.6509159026670367,0.5286376646668528,-0.3186650574207306,-0.8563726544380188,-0.4062985181808472,-31.09120941162109,-31.37130928039551,-11.22343444824219,2,192.168.1.118,10.97.20.126,1,0
2015-02-21 19:00:16.606,36,1424570416.527029,39.63827166827625,-106.370185615814,2518.318,-1,-1,10,65,-9999,1424570416.587533,-30.29181289672852,-28.92242431640625,-9.107147216796875,99.86181640625,90.73575592041016,10,22284.19481779167,-0.1995391845703125,-0.9188995361328125,-0.3236236572265625,22284.16384429167,0.6530180182478985,1.187308586674539,1.294813741978312,22284.16384429167,-1.236619797931317,-0.6934462305676008,1.0090339027992,0.6482943892478943,1.196584105491638,1.331979274749756,0.3767231702804565,-0.1126057207584381,0.1261470317840576,XTrueNorthZVertical,0.1980141293871273,-0.5059276041331681,-0.6110919775264533,0.5756685668515696,-0.340483546257019,-0.8463176488876343,-0.4096553325653076,-31.87097930908203,-29.38631439208984,-14.05250930786133,2,192.168.1.118,10.97.20.126,1,0
2015-02-21 19:00:16.661,37,1424570416.527029,39.63827166827625,-106.370185615814,2518.318,-1,-1,10,65,-9999,1424570416.652281,-32.78201675415039,-25.86550903320312,-11.13732147216797,89.20368957519531,80.07762908935547,10,22284.24393075,-0.6160888671875,-0.8061370849609375,-0.383056640625,22284.21562654167,0.4237584642278823,-0.08895011304086457,1.202676357744841,22284.21562654167,-1.117561610656708,-0.7787956564466176,0.9848464469946607,0.4190349280834198,-0.07967463135719299,1.239841461181641,-0.04047578573226929,-0.05160895735025406,0.05804092437028885,XTrueNorthZVertical,0.1934968195477857,-0.5155196442878719,-0.5843699408085031,0.5960790965775141,-0.3884335160255432,-0.8331871628761292,-0.3935969471931458,-33.459228515625,-27.31239891052246,-14.53619384765625,2,192.168.1.118,10.97.20.126,1,0
2015-02-21 19:00:16.705,38,1424570416.527029,39.63827166827625,-106.370185615814,2518.318,-1,-1,10,65,-9999,1424570416.652281,-32.78201675415039,-25.86550903320312,-11.13732147216797,89.20368957519531,80.07762908935547,10,22284.29299866667,-0.5716705322265625,-0.9454498291015625,-0.32098388671875,22284.26740904167,0.7511283401741996,1.202288068857907,1.212304217717695,22284.26740904167,-1.007190606793162,-0.8432227984301306,0.9572862406760955,0.7464048266410828,1.211563467979431,1.249468922615051,-0.1634107083082199,-0.0004067818808835,0.01861371099948883,XTrueNorthZVertical,0.1927786262579881,-0.5209466201920733,-0.5559182713095677,0.6183897926969049,-0.4299578368663788,-0.8176321387290955,-0.3829020261764526,-34.8067626953125,-25.68330383300781,-14.34033489227295,2,192.168.1.118,10.97.20.126,1,0
2015-02-21 19:00:16.760,39,1424570416.527029,39.63827166827625,-106.370185615814,2518.318,-1,-1,10,65,-9999,1424570416.727715,-34.77759170532227,-23.23316955566406,-11.68647766113281,81.30895233154297,72.18289184570312,10,22284.34210495833,-0.291778564453125,-0.884063720703125,-0.3167266845703125,22284.31919195833,0.8538134402210389,2.265447542364004,1.050727837537607,22284.31919195833,-0.8867339287402194,-0.8482409639219695,0.9433543892608022,0.8491024971008301,2.274720668792725,1.087956190109253,-0.08319845795631409,-0.07659172266721725,0.0783599391579628,XTrueNorthZVertical,0.2168240849716032,-0.5087922964458269,-0.5171914528601264,0.6531697759855715,-0.4403763711452484,-0.8095319271087646,-0.3882354199886322,-35.16585540771484,-24.34014129638672,-15.73875045776367,2,192.168.1.118,10.97.20.126,1,0
2015-02-21 19:00:16.808,40,1424570416.527029,39.63827166827625,-106.370185615814,2518.318,-1,-1,10,65,-9999,1424570416.779857,-34.67525100708008,-22.21418762207031,-13.38383483886719,75.01837158203125,65.89231109619141,10,22284.391173875,-0.2037200927734375,-0.8426513671875,-0.301910400390625,22284.370974375,0.7997549985179565,1.447522328360655,0.8439560157622196,22284.370974375,-0.7768611347688481,-0.8360192743730176,0.9342128401916887,0.7950441241264343,1.4567950963974,0.881183922290802,0.2213447988033295,-0.0827399417757988,0.09155698120594025,XTrueNorthZVertical,0.2436003203267246,-0.4913168354070215,-0.4782279213417789,0.6859772199938345,-0.4410713613033295,-0.8041313886642456,-0.3985333144664764,-34.42243194580078,-23.03880500793457,-19.0025691986084,2,192.168.1.118,10.97.20.126,1,0
2015-02-21 19:00:16.855,41,1424570416.527029,39.63827166827625,-106.370185615814,2518.318,-1,-1,10,65,-9999,1424570416.83138,-34.24885177612305,-21.21220397949219,-15.43064880371094,69.20868682861328,60.08262634277344,10,22284.44029516667,-0.31640625,-0.9300994873046875,-0.2799835205078125,22284.42275658334,0.6932834160332426,0.7792822139540814,0.7815080839931695,22284.42275658334,-0.6877602478488851,-0.8580245132968727,0.927310125142435,0.6885726451873779,0.7885549664497375,0.8187355995178223,0.2092629075050354,-0.04889852553606033,0.02168570458889008,XTrueNorthZVertical,0.2574456019265529,-0.4873865586556627,-0.4493611311059711,0.7030296709674702,-0.4539223313331604,-0.8000089526176453,-0.3923522233963013,-34.24401092529297,-22.40558433532715,-20.05306816101074,2,192.168.1.118,10.97.20.126,1,0
2015-02-21 19:00:16.896,42,1424570416.527029,39.63827166827625,-106.370185615814,2518.318,-1,-1,10,65,-9999,1424570416.883679,-33.8565559387207,-20.38005065917969,-16.07963562011719,64.13692474365234,55.0108642578125,10,22284.48937158334,0.06683349609375,-0.909423828125,-0.3047027587890625,22284.47453979167,0.08953707374511803,0.3181537406779892,1.000955220976789,22284.42275658334,-0.6877602478488851,-0.8580245132968727,0.927310125142435,0.6885726451873779,0.7885549664497375,0.8187355995178223,0.2092629075050354,-0.04889852553606033,0.02168570458889008,XTrueNorthZVertical,0.2574456019265529,-0.4873865586556627,-0.4493611311059711,0.7030296709674702,-0.4539223313331604,-0.8000089526176453,-0.3923522233963013,-34.24401092529297,-22.40558433532715,-20.05306816101074,2,192.168.1.118,10.97.20.126,1,0
2015-02-21 19:00:16.954,43,1424570416.527029,39.63827166827625,-106.370185615814,2518.318,-1,-1,10,65,-9999,1424570416.935575,-33.78833389282227,-19.59886169433594,-16.61213684082031,60.80104446411133,51.67498397827148,10,22284.53867091667,-0.5986480712890625,-0.333526611328125,-0.352020263671875,22284.52632191667,-1.109261987768676,-2.259551836342786,-0.977026718582427,22284.52632191667,-0.6155785450506637,-0.8951203664903089,0.9196768445255491,-1.113972663879395,-2.250279188156128,-0.9397998452186584,1.326825022697449,-0.5616346001625061,0.3860748708248138,XTrueNorthZVertical,0.2638001612844265,-0.4907968693869735,-0.4277812088649861,0.7117100429017914,-0.472912609577179,-0.7954058051109314,-0.3790558278560638,-34.34917449951172,-21.41102981567383,-20.94014739990234,2,192.168.1.118,10.97.20.126,1,0
2015-02-21 19:00:16.994,44,1424570416.527029,39.63827166827625,-106.370185615814,2518.318,-1,-1,10,65,-9999,1424570416.986979,-34.4023551940918,-19.93850708007812,-15.58042144775391,62.409912109375,53.28385162353516,10,22284.58755783334,-0.803314208984375,-1.028839111328125,-0.423126220703125,22284.57810441667,1.889564725052476,0.3230765939530006,0.312602647701828,22284.52632191667,-0.6155785450506637,-0.8951203664903089,0.9196768445255491,-1.113972663879395,-2.250279188156128,-0.9397998452186584,1.326825022697449,-0.5616346001625061,0.3860748708248138,XTrueNorthZVertical,0.2638001612844265,-0.4907968693869735,-0.4277812088649861,0.7117100429017914,-0.472912609577179,-0.7954058051109314,-0.3790558278560638,-34.34917449951172,-21.41102981567383,-20.94014739990234,2,192.168.1.118,10.97.20.126,1,0
2015-02-21 19:00:17.051,45,1424570416.527029,39.63827166827625,-106.370185615814,2518.318,-1,-1,10,65,-9999,1424570417.039666,-34.8458137512207,-20.00643920898438,-14.48212432861328,58.84856414794922,49.72250366210938,10,22284.636671,-0.39752197265625,-0.6711578369140625,-0.4046783447265625,22284.62988733334,0.3746654863772526,2.226634100004971,0.3810253813764708,22284.57810441667,-0.5516011424756787,-1.029720685140433,0.9282529470845788,1.884854078292847,0.3323490619659424,0.3498290479183197,-0.976888120174408,0.8130559325218201,-0.05332877114415169,XTrueNorthZVertical,0.2549784848813018,-0.5297790684526857,-0.4240358352806101,0.6888495925773042,-0.5136361718177795,-0.8005742430686951,-0.3086402118206024,-36.07540893554688,-21.67469596862793,-17.48028182983398,2,192.168.1.118,10.97.20.126,1,0
2015-02-21 19:00:17.095,46,1424570416.527029,39.63827166827625,-106.370185615814,2518.318,-1,-1,10,65,-9999,1424570417.039666,-34.8458137512207,-20.00643920898438,-14.48212432861328,58.84856414794922,49.72250366210938,10,22284.6858565,-0.2672271728515625,-0.975677490234375,-0.2021636962890625,22284.68166975,0.7428999713541818,-0.3742476364022191,0.04481034850167327,22284.62988733334,-0.4479916997217944,-1.013941431202499,0.9368428145064276,0.3699548542499542,2.235906362533569,0.4182514250278473,0.09021755307912827,0.08216600865125656,-0.07700034230947495,XTrueNorthZVertical,0.2885983071311615,-0.5100793801138422,-0.3870010309471013,0.7118709750148472,-0.5028457045555115,-0.8056920170783997,-0.313060075044632,-35.94662475585938,-22.01860809326172,-17.31499099731445,2,192.168.1.118,10.97.20.126,1,0
2015-02-21 19:00:17.150,47,1424570416.527029,39.63827166827625,-106.370185615814,2518.318,-1,-1,10,65,-9999,1424570417.144136,-34.4023551940918,-20.991455078125,-14.64853668212891,55.04351043701172,45.91744995117188,10,22284.73484966667,-0.6888275146484375,-0.85662841796875,-0.27447509765625,22284.73345195833,0.3144468867567079,-0.4115470716815419,-0.04766605613856523,22284.73345195833,-0.3523122220608664,-1.084760660994303,0.9610591786957402,0.3097363710403442,-0.402274876832962,-0.01044071093201637,-0.1379071772098541,-0.03457154706120491,0.002042553620412946,XTrueNorthZVertical,0.3095674885819106,-0.5200174194704721,-0.3680066035248217,0.7059185740164987,-0.506334125995636,-0.8197985887527466,-0.267499715089798,-35.13795852661133,-22.65200614929199,-18.13831520080566,2,192.168.1.118,10.97.20.126,1,0
2015-02-21 19:00:17.188,48,1424570416.527029,39.63827166827625,-106.370185615814,2518.318,-1,-1,10,65,-9999,1424570417.144136,-34.4023551940918,-20.991455078125,-14.64853668212891,55.04351043701172,45.91744995117188,10,22284.784025125,-0.487823486328125,-0.88739013671875,-0.2320098876953125,22284.73345195833,0.3144468867567079,-0.4115470716815419,-0.04766605613856523,22284.73345195833,-0.3523122220608664,-1.084760660994303,0.9610591786957402,0.3097363710403442,-0.402274876832962,-0.01044071093201637,-0.1379071772098541,-0.03457154706120491,0.002042553620412946,XTrueNorthZVertical,0.3095674885819106,-0.5200174194704721,-0.3680066035248217,0.7059185740164987,-0.506334125995636,-0.8197985887527466,-0.267499715089798,-35.13795852661133,-22.65200614929199,-18.13831520080566,2,192.168.1.118,10.97.20.126,1,0
2015-02-21 19:00:17.247,49,1424570416.527029,39.63827166827625,-106.370185615814,2518.318,-1,-1,10,65,-9999,1424570417.195635,-34.50469589233398,-21.26316833496094,-13.84979248046875,54.50714111328125,45.38108062744141,10,22284.83302754167,-0.370574951171875,-0.9126739501953125,-0.2618408203125,22284.8370175,0.1235794630112739,-0.1215096542120643,0.03097922138034674,22284.78523516667,-0.3206217494743119,-1.095573551205875,0.9702453070007468,0.4074026644229889,0.6968139410018921,0.01423497218638659,0.0146557679399848,-0.06236577779054642,0.02654274180531502,XTrueNorthZVertical,0.3194400860228532,-0.5183451711713567,-0.3602890613308473,0.7067306043814638,-0.5024792551994324,-0.8250243663787842,-0.2585526406764984,-35.21592712402344,-22.95288467407227,-17.60089111328125,2,192.168.1.118,10.97.20.126,1,0
2015-02-21 19:00:17.286,50,1424570416.527029,39.63827166827625,-106.370185615814,2518.318,-1,-1,10,65,-9999,1424570417.246916,-34.48764419555664,-21.51789855957031,-13.79986572265625,54.10359191894531,44.97753143310547,10,22284.882208,-0.398712158203125,-0.8822021484375,-0.2026519775390625,22284.8370175,0.1235794630112739,-0.1215096542120643,0.03097922138034674,22284.8370175,-0.3070232048992111,-1.084253213630727,0.9873916422214671,0.1188485622406006,-0.1122165769338608,0.06816496700048447,0.116367906332016,-0.07808199524879456,-0.004269512835890055,XTrueNorthZVertical,0.3316874320719501,-0.511075135127494,-0.3569721559842453,0.7080653736985671,-0.486942857503891,-0.8345919847488403,-0.2575713098049164,-34.50869750976562,-23.48954010009766,-18.28056907653809,2,192.168.1.118,10.97.20.126,1,0
2015-02-21 19:00:17.345,51,1424570416.527029,39.63827166827625,-106.370185615814,2518.318,-1,-1,10,65,-9999,1424570417.297736,-33.99300765991211,-21.77262878417969,-13.84979248046875,53.48306274414062,44.35700225830078,10,22284.93119366667,-0.43438720703125,-0.8350677490234375,-0.2270660400390625,22284.888799875,-0.2597093389756552,-0.317376630271904,-0.0979414775131901,22284.888799875,-0.3156832707873298,-1.093575804523327,0.9861639554448318,-0.2644401788711548,-0.3080836236476898,-0.06075606122612953,0.0915205106139183,-0.04828711599111557,0.05083906278014183,XTrueNorthZVertical,0.3273097288996296,-0.5158709349517883,-0.3613280226825658,0.7044058629674578,-0.4902326762676239,-0.8339150547981262,-0.2534910440444946,-34.55002975463867,-23.71344757080078,-17.90965843200684,2,192.168.1.118,10.97.20.126,1,0
2015-02-21 19:00:17.385,52,1424570416.527029,39.63827166827625,-106.370185615814,2518.318,-1,-1,10,65,-9999,1424570417.350263,-33.87360763549805,-21.38203430175781,-14.09939575195312,54.42090225219727,45.29484176635742,10,22284.98036504167,-0.592376708984375,-0.874237060546875,-0.227874755859375,22284.94058270834,-0.01202417232170776,-0.08311139866697485,-0.4162182562335409,22284.94058270834,-0.3255104165619391,-1.086689947204189,0.9913787187588925,-0.016754986718297,-0.07381849735975266,-0.3790332078933716,0.05023275688290596,0.001713923760689795,0.02776720561087132,XTrueNorthZVertical,0.3280673315601836,-0.5147379949456925,-0.3646638023905671,0.7031621247389003,-0.4846199750900269,-0.8367816805839539,-0.2548332512378693,-34.62550354003906,-23.64216232299805,-17.85806465148926,2,192.168.1.118,10.97.20.126,1,0
2015-02-21 19:00:17.444,53,1424570416.527029,39.63827166827625,-106.370185615814,2518.318,-1,-1,10,65,-9999,1424570417.401348,-33.99299240112305,-21.73867797851562,-13.81649017333984,56.03672027587891,46.91065979003906,10,22285.029368375,-0.69970703125,-0.9793548583984375,-0.25189208984375,22284.99236525,0.1870186233380514,0.3585890481408803,0.137396209062714,22284.99236525,-0.3213922154046919,-1.081026524045429,0.9897291026584336,0.1822878569364548,0.3678818643093109,0.1745808273553848,-0.1012001410126686,-0.1373435109853745,0.05007761716842651,XTrueNorthZVertical,0.3295072280609572,-0.512165606014734,-0.3619668698119571,0.7057559094677712,-0.4843864142894745,-0.8358772993087769,-0.258222758769989,-34.36703491210938,-23.8809814453125,-18.03866386413574,2,192.168.1.118,10.97.20.126,1,0
2015-02-21 19:00:17.482,54,1424570416.527029,39.63827166827625,-106.370185615814,2518.318,-1,-1,10,65,-9999,1424570417.453767,-33.63481521606445,-22.46894836425781,-14.39891815185547,54.1507682800293,45.02470779418945,10,22285.07843129167,-0.6779937744140625,-0.82940673828125,-0.304351806640625,22285.04414754167,-0.06159412232357064,1.624289645714664,-0.07514428594989381,22285.04414754167,-0.3198350663318355,-1.027339329121808,0.9894187012346751,-0.06632483750581741,1.633582353591919,-0.03796002268791199,-0.2978141009807587,-0.1075761988759041,0.03339787945151329,XTrueNorthZVertical,0.3393643982639823,-0.4927909782029603,-0.3523762338260159,0.7195970308070275,-0.4700539410114288,-0.835706889629364,-0.2839777171611786,-33.79325103759766,-23.84640121459961,-19.1351318359375,2,192.168.1.118,10.97.20.126,1,0
2015-02-21 19:00:17.542,55,1424570416.527029,39.63827166827625,-106.370185615814,2518.318,-1,-1,10,65,-9999,1424570417.507618,-32.56026840209961,-22.41801452636719,-16.34589385986328,52.66909790039062,43.54303741455078,10,22285.12753795833,-0.329681396484375,-0.7938079833984375,-0.3090667724609375,22285.0959305,0.001344363718271999,2.564647032931681,-0.1882908153907823,22285.0959305,-0.3195318685088488,-0.933218980962642,0.989271346656907,-0.003386200172826648,2.573939561843872,-0.151106670498848,-0.1643596291542053,-0.02518337406218052,0.04980981722474098,XTrueNorthZVertical,0.3555752542998109,-0.4583459477637767,-0.3358851385877034,0.7420690293315524,-0.4413837790489197,-0.835625946521759,-0.3269704580307007,-32.31949615478516,-23.79644775390625,-21.58627700805664,2,192.168.1.118,10.97.20.126,1,0
2015-02-21 19:00:17.581,56,1424570416.527029,39.63827166827625,-106.370185615814,2518.318,-1,-1,10,65,-9999,1424570417.507618,-32.56026840209961,-22.41801452636719,-16.34589385986328,52.66909790039062,43.54303741455078,10,22285.17669795833,-0.191253662109375,-0.7307891845703125,-0.2425384521484375,22285.147713,0.1619020847814051,2.608471479197807,-0.2899886816215292,22285.147713,-0.3316255548710051,-0.7807912210198552,0.9993193923821367,0.1571715623140335,2.617763757705688,-0.2528049945831299,0.00814699474722147,0.1185383573174477,0.1136453747749329,XTrueNorthZVertical,0.3818666980137309,-0.4025800691869563,-0.3138077809840119,0.7704750673152305,-0.380690336227417,-0.8411030769348145,-0.3842142224311829,-28.19741439819336,-24.12975311279297,-26.44709014892578,2,192.168.1.118,10.97.20.126,1,0
2015-02-21 19:00:17.640,57,1424570416.527029,39.63827166827625,-106.370185615814,2518.318,-1,-1,10,65,-9999,1424570417.6353,-23.16232681274414,-23.04638671875,-23.61788940429688,43.14902496337891,34.02296447753906,10,22285.22580608333,0.091522216796875,-1.001266479492188,-0.375885009765625,22285.19949508334,0.3056198393236402,1.943073223990457,-0.9082945255891169,22285.19949508334,-0.3706261611243446,-0.6296856801951308,1.035425069763678,0.3008893728256226,1.952365517616272,-0.8711112141609192,0.195677176117897,0.001207827939651906,0.1544140577316284,XTrueNorthZVertical,0.4129301977166633,-0.3511831364213416,-0.3028666343007627,0.7838564270663843,-0.3004287481307983,-0.860079288482666,-0.4123181104660034,-24.35897445678711,-25.14637565612793,-29.17341041564941,2,192.168.1.118,10.97.20.126,1,0
2015-02-21 19:00:17.679,58,1424570416.527029,39.63827166827625,-106.370185615814,2518.318,-1,-1,10,65,-9999,1424570417.6353,-23.16232681274414,-23.04638671875,-23.61788940429688,43.14902496337891,34.02296447753906,10,22285.27476233333,-0.1785125732421875,-0.960357666015625,-0.2665252685546875,22285.251278375,0.05994669087324762,1.017157626732722,-0.2190532554583966,22285.251278375,-0.4048711422175663,-0.5271079172167438,1.057695062634165,0.05521626397967339,1.026449918746948,-0.1818702965974808,0.129819855093956,-0.2129258811473846,0.139767125248909,XTrueNorthZVertical,0.4319476441031999,-0.318269125479458,-0.2963504141479062,0.7901281342121694,-0.2469310611486435,-0.8712263703346252,-0.4242520034313202,-20.36126518249512,-26.45255661010742,-31.02368545532227,2,192.168.1.118,10.97.20.126,1,0
2015-02-21 19:00:17.739,59,1424570416.527029,39.63827166827625,-106.370185615814,2518.318,-1,-1,10,65,-9999,1424570417.686931,-19.40996170043945,-24.33708190917969,-25.34852600097656,40.99412155151367,31.86806106567383,10,22285.323966625,-0.131927490234375,-0.850982666015625,-0.4217376708984375,22285.3030605,-0.6940498737949674,-0.1487479332091768,0.2863382867153575,22285.3030605,-0.4133617620103593,-0.4941809063351862,1.041285218674614,-0.6987674832344055,-0.1394588500261307,0.3235837817192078,0.1520248651504517,-0.04572883993387222,0.05811254680156708,XTrueNorthZVertical,0.4285231186575678,-0.3066408048880588,-0.2916908263018624,0.7982830671659867,-0.2395797967910767,-0.863054096698761,-0.4446786940097809,-19.39530181884766,-26.14820861816406,-31.88857460021973,2,192.168.1.118,10.97.20.126,1,0
2015-02-21 19:00:17.778,60,1424570416.527029,39.63827166827625,-106.370185615814,2518.318,-1,-1,10,65,-9999,1424570417.740573,-18.06252670288086,-24.79562377929688,-26.66313934326172,37.97314834594727,28.84708786010742,10,22285.37302179167,0.024200439453125,-0.735595703125,-0.38580322265625,22285.354843,-0.6238659916914552,-1.779226498981076,0.2870075390972945,22285.354843,-0.4165628134008375,-0.5482011931869003,0.9997848608328184,-0.6285837292671204,-1.7699373960495,0.3242523968219757,0.2388735413551331,0.08569371700286865,0.00727273803204298,XTrueNorthZVertical,0.4023423575855014,-0.3278402865174567,-0.3016432291118459,0.7997829556065031,-0.2816744446754456,-0.8413547277450562,-0.4612827599048615,-20.8669548034668,-24.73287391662598,-32.08805084228516,2,192.168.1.118,10.97.20.126,1,0
2015-02-21 19:00:17.836,61,1424570416.527029,39.63827166827625,-106.370185615814,2518.318,-1,-1,10,65,-9999,1424570417.790819,-19.54640579223633,-23.92947387695312,-26.84619140625,38.07726287841797,28.95120429992676,10,22285.42212458334,-0.214385986328125,-0.764923095703125,-0.3876495361328125,22285.40662595833,-0.4934541889035829,-2.35060957507034,0.9580612831955366,22285.40662595833,-0.3996034691481424,-0.66832649160663,0.960873667962586,-0.4981718957424164,-2.341320514678955,0.9953057765960693,0.3497024476528168,0.1432244330644608,0.0810711532831192,XTrueNorthZVertical,0.3701897756674085,-0.3717177351746508,-0.3148357814342285,0.7909892072561067,-0.3549514710903168,-0.8196923136711121,-0.4495709240436554,-25.29527282714844,-22.97088623046875,-30.15419387817383,2,192.168.1.118,10.97.20.126,1,0
2015-02-21 19:00:17.875,62,1424570416.527029,39.63827166827625,-106.370185615814,2518.318,-1,-1,10,65,-9999,1424570417.842293,-23.11115646362305,-22.65573120117188,-26.23047637939453,40.31833648681641,31.19227600097656,10,22285.47108641667,-0.546539306640625,-0.970458984375,-0.33428955078125,22285.45840841667,-0.4883936502002144,-2.074386506807321,-0.05562224989517695,22285.40662595833,-0.3996034691481424,-0.66832649160663,0.960873667962586,-0.4981718957424164,-2.341320514678955,0.9953057765960693,0.3497024476528168,0.1432244330644608,0.0810711532831192,XTrueNorthZVertical,0.3701897756674085,-0.3717177351746508,-0.3148357814342285,0.7909892072561067,-0.3549514710903168,-0.8196923136711121,-0.4495709240436554,-25.29527282714844,-22.97088623046875,-30.15419387817383,2,192.168.1.118,10.97.20.126,1,0
2015-02-21 19:00:17.934,63,1424570416.527029,39.63827166827625,-106.370185615814,2518.318,-1,-1,10,65,-9999,1424570417.894247,-27.28992080688477,-21.75564575195312,-24.61631011962891,42.33637619018555,33.2103157043457,10,22285.5202,-0.27362060546875,-0.7809600830078125,-0.3577880859375,22285.510190625,-0.6921907210379831,-2.131116631715971,-0.5039654194100167,22285.510190625,-0.4626672162593952,-0.8327139878953602,0.9199870824428138,-0.6969082951545715,-2.121827840805054,-0.4667216539382935,0.3271518349647522,-0.218230664730072,-0.02913735993206501,XTrueNorthZVertical,0.3121120227445958,-0.4458288309150101,-0.3626538070452159,0.756508423573622,-0.4481692910194397,-0.795593798160553,-0.4076454639434814,-31.09386825561523,-21.20855140686035,-25.69351196289062,2,192.168.1.118,10.97.20.126,1,0
2015-02-21 19:00:17.974,64,1424570416.527029,39.63827166827625,-106.370185615814,2518.318,-1,-1,10,65,-9999,1424570417.946079,-30.00185012817383,-21.19522094726562,-22.43639373779297,46.927001953125,37.80094146728516,10,22285.56926845833,-0.173004150390625,-0.8365020751953125,-0.332366943359375,22285.56197383333,-0.5070640073383239,-1.518045763503152,-0.9124248221237208,22285.510190625,-0.4626672162593952,-0.8327139878953602,0.9199870824428138,-0.6969082951545715,-2.121827840805054,-0.4667216539382935,0.3271518349647522,-0.218230664730072,-0.02913735993206501,XTrueNorthZVertical,0.3121120227445958,-0.4458288309150101,-0.3626538070452159,0.756508423573622,-0.4481692910194397,-0.795593798160553,-0.4076454639434814,-31.09386825561523,-21.20855140686035,-25.69351196289062,2,192.168.1.118,10.97.20.126,1,0
2015-02-21 19:00:18.037,65,1424570416.527029,39.63827166827625,-106.370185615814,2518.318,-1,-1,10,65,-9999,1424570417.997508,-31.87802505493164,-21.63677978515625,-20.20652770996094,52.76329803466797,43.63723754882812,10,22285.61838295834,-0.1927642822265625,-0.9130096435546875,-0.201324462890625,22285.61375604167,-0.3695218570478735,-1.759633356525254,-1.350598178383875,22285.56197383333,-0.527262571333282,-0.8647086001739571,0.9234426990441145,-0.5117815732955933,-1.508756995201111,-0.8751814365386963,0.2811205983161926,-0.03463860973715782,0.03051999025046825,XTrueNorthZVertical,0.2927659452890268,-0.4675800175538343,-0.392048448222083,0.7361759861806405,-0.4588854908943176,-0.7976825833320618,-0.3913140594959259,-33.00967788696289,-21.41495132446289,-22.99019432067871,2,192.168.1.118,10.97.20.126,1,0
2015-02-21 19:00:18.072,66,1424570416.527029,39.63827166827625,-106.370185615814,2518.318,-1,-1,10,65,-9999,1424570418.049644,-32.69672012329102,-22.58781433105469,-18.04322814941406,59.74608993530273,50.62002944946289,10,22285.66755579167,-0.103179931640625,-0.9369049072265625,-0.1710205078125,22285.66553854167,-0.3601304857798181,-2.33327079847727,-1.794837150342794,22285.61375604167,-0.6181992109060014,-0.8719274677145863,0.9530605363844767,-0.3742393851280212,-1.750344634056091,-1.313355207443237,0.2448488026857376,-0.07860687375068665,0.1375773251056671,XTrueNorthZVertical,0.2819404634786242,-0.4839397868198211,-0.4295479510258186,0.7083787514280541,-0.4434114396572113,-0.8151919841766357,-0.3726237118244171,-33.49758911132812,-22.58194160461426,-21.0892219543457,2,192.168.1.118,10.97.20.126,1,0
2015-02-21 19:00:18.137,67,1424570416.527029,39.63827166827625,-106.370185615814,2518.318,-1,-1,10,65,-9999,1424570418.101052,-32.86728286743164,-24.55783081054688,-15.08116912841797,67.74549865722656,58.61944198608398,10,22285.7165605,-0.1805267333984375,-1.037948608398438,-0.09503173828125,22285.71732145833,-0.3457150611153282,-3.311457057398317,-2.097989304600366,22285.66553854167,-0.7336877634141526,-0.8770219444677185,1.002407608961192,-0.3648471832275391,-2.323981761932373,-1.757596254348755,0.2959720194339752,-0.08530068397521973,0.1800423711538315,XTrueNorthZVertical,0.2725182591521725,-0.5036224648598736,-0.4752291213952381,0.6680236024378542,-0.4138461649417877,-0.8427693843841553,-0.3441964089870453,-33.62484741210938,-24.47548294067383,-18.63084602355957,2,192.168.1.118,10.97.20.126,1,0
2015-02-21 19:00:18.170,68,1424570416.527029,39.63827166827625,-106.370185615814,2518.318,-1,-1,10,65,-9999,1424570418.153686,-31.69041061401367,-27.29206848144531,-11.53668975830078,76.9771728515625,67.85111236572266,10,22285.7657355,-0.3478851318359375,-1.135055541992188,-0.0951080322265625,22285.71732145833,-0.3457150611153282,-3.311457057398317,-2.097989304600366,22285.71732145833,-0.8791555258212739,-0.8967325661373465,1.069890389731746,-0.3504240810871124,-3.302166223526001,-2.060760498046875,0.1946654915809631,-0.1608007401227951,0.2047055810689926,XTrueNorthZVertical,0.2570246786660685,-0.5329818507389472,-0.5299014901996892,0.6075138779835755,-0.3751922249794006,-0.8771478533744812,-0.2997373342514038,-33.23225402832031,-28.01549530029297,-13.69441699981689,2,192.168.1.118,10.97.20.126,1,0
2015-02-21 19:00:18.234,69,1424570416.527029,39.63827166827625,-106.370185615814,2518.318,-1,-1,10,65,-9999,1424570418.204955,-30.29180526733398,-30.65467834472656,-7.110252380371094,89.07028961181641,79.94422912597656,10,22285.8147435,-0.32891845703125,-1.2034912109375,-0.13555908203125,22285.82088616667,-0.7520058517533807,-2.985803322458447,-2.477336894490087,22285.769104,-1.071757828306223,-0.8920057139253681,1.13919400717949,-0.628060519695282,-3.306848287582397,-2.230170965194702,-0.02228775061666965,-0.2267589122056961,0.1675393581390381,XTrueNorthZVertical,0.2328567565270894,-0.560762015141738,-0.5879421687635502,0.5344602318437522,-0.3255973756313324,-0.9082966446876526,-0.2626473903656006,-32.12616729736328,-30.94332885742188,-9.338512420654297,2,192.168.1.118,10.97.20.126,1,0
2015-02-21 19:00:18.268,70,1424570416.527029,39.63827166827625,-106.370185615814,2518.318,-1,-1,10,65,-9999,1424570418.257425,-27.10229873657227,-34.67961120605469,-3.565773010253906,103.7714920043945,94.64543151855469,10,22285.86380420833,-0.32025146484375,-1.224197387695312,-0.104888916015625,22285.82088616667,-0.7520058517533807,-2.985803322458447,-2.477336894490087,22285.82088616667,-1.340477996067067,-0.8000340712818921,1.204942890084615,-0.7567143440246582,-2.976512908935547,-2.440109252929688,-0.07227835804224014,-0.2696724236011505,0.1136765331029892,XTrueNorthZVertical,0.209717748019235,-0.5756740895503181,-0.6443476920806716,0.4576394873865977,-0.2566401064395905,-0.9338188171386719,-0.2492356151342392,-29.84652709960938,-33.94015884399414,-5.834246158599854,2,192.168.1.118,10.97.20.126,1,0
2015-02-21 19:00:18.336,71,1424570416.527029,39.63827166827625,-106.370185615814,2518.318,-1,-1,10,65,-9999,1424570418.309237,-22.59946823120117,-38.00827026367188,-1.435752868652344,119.2539596557617,110.1278991699219,10,22285.91288033333,-0.16839599609375,-1.189239501953125,-0.2284698486328125,22285.87266941667,-1.000317660211824,-2.568562146050207,-2.677022044604774,22285.87266941667,-1.720055953837457,-0.5814859654890462,1.254013553307249,-1.00502610206604,-2.559271574020386,-2.639794588088989,-0.1491489112377167,-0.273954838514328,0.1554245352745056,XTrueNorthZVertical,0.1907953166856994,-0.5774429998734535,-0.6976811176478127,0.3786790554343517,-0.1711025536060333,-0.9502425193786621,-0.2603134512901306,-25.13102149963379,-37.90725708007812,-2.873929023742676,2,192.168.1.118,10.97.20.126,1,0
2015-02-21 19:00:18.366,72,1424570416.527029,39.63827166827625,-106.370185615814,2518.318,-1,-1,10,65,-9999,1424570418.361021,-17.61906814575195,-40.89535522460938,-0.270904541015625,134.1641235351562,125.0380706787109,10,22285.96200020834,-0.21026611328125,-1.07379150390625,-0.13037109375,22285.92445158333,-1.024918344465322,-2.34976934774642,-2.550394860042013,22285.92445158333,-2.178817960339322,-0.2629139777033697,1.259188514067713,-1.029626727104187,-2.340478897094727,-2.513167858123779,-0.06819169223308563,-0.2261519134044647,0.09192201495170593,XTrueNorthZVertical,0.1763693997954734,-0.5664510457944054,-0.7459642615461013,0.3025961135725176,-0.07968123257160187,-0.9518418908119202,-0.2960540950298309,-20.7580509185791,-40.50596237182617,-2.271158218383789,2,192.168.1.118,10.97.20.126,1,0
2015-02-21 19:00:18.436,73,1424570416.527029,39.63827166827625,-106.370185615814,2518.318,-1,-1,10,65,-9999,1424570418.412623,-13.09917068481445,-42.50872802734375,-0.38739013671875,144.0794372558594,134.953369140625,10,22286.0110265,-0.1573028564453125,-0.9113616943359375,-0.1749114990234375,22285.97623404167,-0.8902609302676453,-1.819610940067147,-1.960977389682951,22285.97623404167,-2.538010985990304,-0.02609058512220995,1.226718379613325,-0.8949692845344543,-1.810320615768433,-1.923750758171082,-0.2022136896848679,-0.08996992558240891,0.1885782182216644,XTrueNorthZVertical,0.1608916071286421,-0.5527267395660702,-0.7829282864964292,0.2358609341264317,-0.008800109848380089,-0.941386878490448,-0.3372140824794769,-16.62389373779297,-42.37035369873047,-2.277582168579102,2,192.168.1.118,10.97.20.126,1,0
2015-02-21 19:00:18.465,74,1424570416.527029,39.63827166827625,-106.370185615814,2518.318,-1,-1,10,65,-9999,1424570418.412623,-13.09917068481445,-42.50872802734375,-0.38739013671875,144.0794372558594,134.953369140625,10,22286.06018820834,-0.16796875,-0.835601806640625,-0.201416015625,22286.028017,-0.5121905924367264,-1.532113113013169,-1.408683852287375,22286.028017,-2.76398342307907,0.1037565957862195,1.188391917052392,-0.5168988704681396,-1.522822856903076,-1.371457695960999,-0.191128671169281,0.02943941950798035,0.1913970410823822,XTrueNorthZVertical,0.1471361212856299,-0.5410897996979924,-0.807330571694081,0.1838210499451,0.03864758834242821,-0.9277700781822205,-0.3711455762386322,-12.37897300720215,-43.76931762695312,-2.792128562927246,2,192.168.1.118,10.97.20.126,1,0
2015-02-21 19:00:18.539,75,1424570416.527029,39.63827166827625,-106.370185615814,2518.318,-1,-1,10,65,-9999,1424570418.516455,-6.344913482666016,-44.478759765625,-1.984901428222656,159.0037536621094,149.877685546875,10,22286.10918970834,-0.2438812255859375,-0.79547119140625,-0.2915191650390625,22286.07979945833,-0.2940201748796911,-1.185766616403383,-0.6557589436418081,22286.07979945833,-2.882924744385964,0.1455614991691289,1.161449454424757,-0.2987284362316132,-1.17647647857666,-0.6185330748558044,-0.2209386080503464,0.09865538030862808,0.1605553478002548,XTrueNorthZVertical,0.1308594970866292,-0.5347664856810329,-0.8217422924654219,0.147106228648788,0.05773060396313667,-0.9173809885978699,-0.3938011825084686,-10.40188121795654,-44.26971054077148,-2.963388442993164,2,192.168.1.118,10.97.20.126,1,0
2015-02-21 19:00:18.562,76,1424570416.527029,39.63827166827625,-106.370185615814,2518.318,-1,-1,10,65,-9999,1424570418.516455,-6.344913482666016,-44.478759765625,-1.984901428222656,159.0037536621094,149.877685546875,10,22286.15825229167,-0.32440185546875,-0.8496551513671875,-0.2920684814453125,22286.13158166667,0.2066754153439263,-0.252105215115152,0.04513578678688095,22286.13158166667,-2.907537773763983,0.1303347755668885,1.158433561765343,0.2019672095775604,-0.2428152114152908,0.08236123621463776,-0.3434385061264038,0.1113516166806221,0.1202611476182938,XTrueNorthZVertical,0.117902051316057,-0.5361073574127642,-0.8252411631818325,0.132910007646784,0.05208718776702881,-0.916176438331604,-0.3973760008811951,-9.768636703491211,-44.42195892333984,-2.837493896484375,2,192.168.1.118,10.97.20.126,1,0
2015-02-21 19:00:18.635,77,1424570416.527029,39.63827166827625,-106.370185615814,2518.318,-1,-1,10,65,-9999,1424570418.620277,-5.492107391357422,-45.05616760253906,-1.186149597167969,162.3153686523438,153.1893005371094,10,22286.20737658333,-0.222625732421875,-0.9420928955078125,-0.29327392578125,22286.18336495834,0.5879074580209873,1.097095868960867,0.3504435036307639,22286.18336495834,-2.874029958834092,0.1264448254898525,1.18042013003841,0.5831992626190186,1.106385707855225,0.387668639421463,-0.3522337377071381,0.06354465335607529,0.06231284141540527,XTrueNorthZVertical,0.1261065467216397,-0.5434592392250668,-0.8170650405708509,0.1454439877437744,0.04798874258995056,-0.924765944480896,-0.3774983882904053,-10.36149406433105,-44.32712554931641,-2.129147529602051,2,192.168.1.118,10.97.20.126,1,0
2015-02-21 19:00:18.661,78,1424570416.527029,39.63827166827625,-106.370185615814,2518.318,-1,-1,10,65,-9999,1424570418.620277,-5.492107391357422,-45.05616760253906,-1.186149597167969,162.3153686523438,153.1893005371094,10,22286.25643633333,0.01708984375,-1.006362915039062,-0.3198699951171875,22286.23514729167,0.6449755380719683,2.019991175226344,0.5068546828766437,22286.23514729167,-2.825605689113678,0.1649372866366113,1.217130562172162,0.6402674317359924,2.0292809009552,0.5440794229507446,-0.1792258024215698,-0.05328462272882462,0.05970215797424316,XTrueNorthZVertical,0.1563869448946039,-0.5520178636183515,-0.8000869361575695,0.1751580321360096,0.05686557665467262,-0.9381093978881836,-0.3416388034820557,-11.08856010437012,-44.17546081542969,-1.536320686340332,2,192.168.1.118,10.97.20.126,1,0
2015-02-21 19:00:18.739,79,1424570416.527029,39.63827166827625,-106.370185615814,2518.318,-1,-1,10,65,-9999,1424570418.723533,-7.607078552246094,-44.41081237792969,0.01198577880859375,152.3460693359375,143.2200012207031,10,22286.305535875,0.226531982421875,-1.018661499023438,-0.321929931640625,22286.286929625,0.4251140132227326,2.024202698174195,0.5132590526660662,22286.286929625,-2.754940883695284,0.2021616566468412,1.247569947648973,0.4204059541225433,2.03349232673645,0.5504834055900574,0.08153381943702698,-0.06603614240884781,-0.01511962711811066,XTrueNorthZVertical,0.1920280990282263,-0.5545680117434636,-0.7811625346528822,0.2129898211375239,0.06377562880516052,-0.9482155442237854,-0.3111590445041656,-12.07480621337891,-43.91773986816406,-1.489684104919434,2,192.168.1.118,10.97.20.126,1,0
2015-02-21 19:00:18.759,80,1424570416.527029,39.63827166827625,-106.370185615814,2518.318,-1,-1,10,65,-9999,1424570418.723533,-7.607078552246094,-44.41081237792969,0.01198577880859375,152.3460693359375,143.2200012207031,10,22286.35460725,0.3427581787109375,-1.041015625,-0.3757171630859375,22286.33871266667,0.1369189705953718,1.537468996281427,0.3340195228721362,22286.286929625,-2.754940883695284,0.2021616566468412,1.247569947648973,0.4204059541225433,2.03349232673645,0.5504834055900574,0.08153381943702698,-0.06603614240884781,-0.01511962711811066,XTrueNorthZVertical,0.1920280990282263,-0.5545680117434636,-0.7811625346528822,0.2129898211375239,0.06377562880516052,-0.9482155442237854,-0.3111590445041656,-12.07480621337891,-43.91773986816406,-1.489684104919434,2,192.168.1.118,10.97.20.126,1,0
2015-02-21 19:00:18.836,81,1424570416.527029,39.63827166827625,-106.370185615814,2518.318,-1,-1,10,65,-9999,1424570418.826923,-8.664562225341797,-44.37684631347656,-0.1211471557617188,144.8789672851562,135.7528991699219,10,22286.40370833334,0.317291259765625,-0.9922027587890625,-0.3596343994140625,22286.39049504167,-0.1600674331064496,0.6771491872012155,0.104289920919721,22286.39049504167,-2.65146215593567,0.2469427664361008,1.266524308719416,-0.1647635996341705,0.6864357590675354,0.1415745168924332,0.2581104934215546,-0.05817224085330963,-0.07794371992349625,XTrueNorthZVertical,0.2387952810162872,-0.5456387866059215,-0.7583802351692818,0.2647915918966425,0.07323411852121353,-0.9540653228759766,-0.2905102670192719,-13.57394981384277,-43.41423416137695,-2.782094955444336,2,192.168.1.118,10.97.20.126,1,0
2015-02-21 19:00:18.857,82,1424570416.527029,39.63827166827625,-106.370185615814,2518.318,-1,-1,10,65,-9999,1424570418.826923,-8.664562225341797,-44.37684631347656,-0.1211471557617188,144.8789672851562,135.7528991699219,10,22286.45277466667,0.2069244384765625,-0.9420623779296875,-0.3343353271484375,22286.44227720833,-0.4129633407492461,0.06423730970547428,0.1495737794632103,22286.39049504167,-2.65146215593567,0.2469427664361008,1.266524308719416,-0.1647635996341705,0.6864357590675354,0.1415745168924332,0.2581104934215546,-0.05817224085330963,-0.07794371992349625,XTrueNorthZVertical,0.2387952810162872,-0.5456387866059215,-0.7583802351692818,0.2647915918966425,0.07323411852121353,-0.9540653228759766,-0.2905102670192719,-13.57394981384277,-43.41423416137695,-2.782094955444336,2,192.168.1.118,10.97.20.126,1,0
2015-02-21 19:00:18.933,83,1424570416.527029,39.63827166827625,-106.370185615814,2518.318,-1,-1,10,65,-9999,1424570418.879289,-9.363872528076172,-44.08816528320312,-1.036376953125,143.0879821777344,133.9619140625,10,22286.5018865,0.1069183349609375,-0.94329833984375,-0.3147735595703125,22286.49406029167,-0.404492624270031,-0.108927017009767,0.2150904717563587,22286.44227720833,-2.614564575118805,0.2281045965763282,1.253146350720218,-0.4176594316959381,0.07352381199598312,0.1868579983711243,0.1819804161787033,-0.01484119705855846,-0.04661602899432182,XTrueNorthZVertical,0.2407476761783985,-0.5384405943330455,-0.7596163949463751,0.274053380268614,0.07062883675098419,-0.9499720335006714,-0.3042445778846741,-13.79063987731934,-43.28857040405273,-3.564537048339844,2,192.168.1.118,10.97.20.126,1,0
2015-02-21 19:00:18.955,84,1424570416.527029,39.63827166827625,-106.370185615814,2518.318,-1,-1,10,65,-9999,1424570418.93113,-9.739101409912109,-44.22402954101562,-2.034820556640625,142.8431701660156,133.7171020507812,10,22286.55094545833,0.0588531494140625,-0.9061279296875,-0.3404388427734375,22286.54584258333,-0.2879521623359456,-0.07960215129857744,0.2912030830786053,22286.49406029167,-2.567271593002458,0.1810191689071454,1.23450783693148,-0.4091886579990387,-0.0996406227350235,0.2523742914199829,0.06395924091339111,0.007309884764254093,0.002847284311428666,XTrueNorthZVertical,0.2339510899932751,-0.5319490879966166,-0.7640605968303826,0.280193682228434,0.05940807238221169,-0.9439859390258789,-0.324594110250473,-14.33228492736816,-43.00831604003906,-4.653850555419922,2,192.168.1.118,10.97.20.126,1,0
2015-02-21 19:00:19.035,85,1424570416.527029,39.63827166827625,-106.370185615814,2518.318,-1,-1,10,65,-9999,1424570418.983655,-10.02905654907227,-44.10514831542969,-2.816940307617188,142.6322021484375,133.5061340332031,10,22286.60004775,0.0272369384765625,-0.8438262939453125,-0.3494415283203125,22286.597625125,-0.1719912042550613,0.0358781062055475,0.2819640446249024,22286.597625125,-2.465505674401182,0.08051794807235509,1.210297921924319,-0.17668716609478,0.0451643243432045,0.3192471563816071,0.002253109822049737,0.07655975222587585,0.008610841818153858,XTrueNorthZVertical,0.2197405368329148,-0.5252762561895187,-0.7676508376786243,0.2941278335795756,0.02837128005921841,-0.9357211589813232,-0.3515979051589966,-15.54649353027344,-42.45017623901367,-5.751258850097656,2,192.168.1.118,10.97.20.126,1,0
2015-02-21 19:00:19.053,86,1424570416.527029,39.63827166827625,-106.370185615814,2518.318,-1,-1,10,65,-9999,1424570419.034411,-11.00125503540039,-43.68057250976562,-3.532501220703125,141.2178955078125,132.0918273925781,10,22286.649181375,0.0138092041015625,-0.83905029296875,-0.3618927001953125,22286.597625125,-0.1719912042550613,0.0358781062055475,0.2819640446249024,22286.597625125,-2.465505674401182,0.08051794807235509,1.210297921924319,-0.17668716609478,0.0451643243432045,0.3192471563816071,0.002253109822049737,0.07655975222587585,0.008610841818153858,XTrueNorthZVertical,0.2197405368329148,-0.5252762561895187,-0.7676508376786243,0.2941278335795756,0.02837128005921841,-0.9357211589813232,-0.3515979051589966,-15.54649353027344,-42.45017623901367,-5.751258850097656,2,192.168.1.118,10.97.20.126,1,0
2015-02-21 19:00:19.135,87,1424570416.527029,39.63827166827625,-106.370185615814,2518.318,-1,-1,10,65,-9999,1424570419.086543,-11.66645431518555,-43.4937744140625,-3.449302673339844,140.6913452148438,131.5652923583984,10,22286.69823016667,0.018829345703125,-0.8724212646484375,-0.4028167724609375,22286.701190375,0.2468055245458943,0.2181752112469975,0.0943518026798723,22286.64940825,-2.427848414802252,0.05141270384100781,1.207173744626747,0.01021485682576895,0.197981208562851,0.2074110209941864,-0.004468304570764303,0.09556425362825394,-0.006700302008539438,XTrueNorthZVertical,0.2180510374039935,-0.5242685818587622,-0.766080408408901,0.3011927073053042,0.01827750913798809,-0.9346145391464233,-0.3551923930644989,-16.22853851318359,-42.14065551757812,-6.130874633789062,2,192.168.1.118,10.97.20.126,1,0
2015-02-21 19:00:19.153,88,1424570416.527029,39.63827166827625,-106.370185615814,2518.318,-1,-1,10,65,-9999,1424570419.13859,-12.46809005737305,-43.54472351074219,-3.632339477539062,139.2626647949219,130.1365966796875,10,22286.747414125,-0.0382537841796875,-0.88873291015625,-0.40960693359375,22286.701190375,0.2468055245458943,0.2181752112469975,0.0943518026798723,22286.701190375,-2.408023387032483,0.04484250725239141,1.208549243219655,0.2420937567949295,0.2274678498506546,0.1316244453191757,0.002943542320281267,0.06268160790205002,-0.04879655689001083,XTrueNorthZVertical,0.2209239272097355,-0.5236243991777361,-0.7634174383900229,0.3069266388780889,0.01588580384850502,-0.9351028800010681,-0.3540202081203461,-16.44894027709961,-42.02152633666992,-6.357025146484375,2,192.168.1.118,10.97.20.126,1,0
2015-02-21 19:00:19.235,89,1424570416.527029,39.63827166827625,-106.370185615814,2518.318,-1,-1,10,65,-9999,1424570419.191123,-12.58749008178711,-43.35792541503906,-3.449295043945312,138.8744201660156,129.7483520507812,10,22286.796403,-0.0563812255859375,-0.8941192626953125,-0.382171630859375,22286.75297291667,0.3206121046802413,0.1919936745704285,0.02271090514397773,22286.75297291667,-2.391844560803234,0.03924943466772398,1.217516816466297,0.3158822953701019,0.2012910395860672,0.05998034030199051,-0.05182968825101852,0.04951021447777748,-0.06389667838811874,XTrueNorthZVertical,0.224325682348613,-0.5261395812862938,-0.7591319840955323,0.3107632537558067,0.01357590407133102,-0.9382431507110596,-0.3457102477550507,-16.65978813171387,-41.95682144165039,-6.234147071838379,2,192.168.1.118,10.97.20.126,1,0
2015-02-21 19:00:19.251,90,1424570416.527029,39.63827166827625,-106.370185615814,2518.318,-1,-1,10,65,-9999,1424570419.242752,-12.60454940795898,-42.79747009277344,-3.299530029296875,138.3024291992188,129.1763610839844,10,22286.84551679167,-0.020721435546875,-0.919342041015625,-0.374542236328125,22286.804755875,0.2816013220844336,0.3387120127128558,-0.03963662545197633,22286.804755875,-2.363485739857653,0.02292530342128206,1.22289001591111,0.2768286466598511,0.3480116128921509,-0.00235031615011394,-0.06419647485017776,0.04596931114792824,-0.04133083671331406,XTrueNorthZVertical,0.2264149149985973,-0.5275565276935201,-0.755082152275218,0.3166565641014911,0.007815247401595116,-0.9400885701179504,-0.3408407866954803,-17.04793357849121,-41.82341003417969,-6.079322814941406,2,192.168.1.118,10.97.20.126,1,0
2015-02-21 19:00:19.339,91,1424570416.527029,39.63827166827625,-106.370185615814,2518.318,-1,-1,10,65,-9999,1424570419.294299,-12.29754257202148,-42.86540222167969,-2.567337036132812,138.906494140625,129.7804260253906,10,22286.89456516667,0.02276611328125,-0.920166015625,-0.3751678466796875,22286.90832045833,0.248206347279276,0.3829021109966497,0.02046799087391299,22286.85653829167,-2.355094217450127,0.0349693519033986,1.231938613135462,0.2038114070892334,0.4401812255382538,0.03337724134325981,-0.02192147821187973,0.02765342034399509,-0.05098713561892509,XTrueNorthZVertical,0.2345363406879343,-0.528099694473586,-0.7499253643597359,0.3220487624608085,0.01162179559469223,-0.9431349635124207,-0.3322068452835083,-17.0588264465332,-41.82666397094727,-6.026162624359131,2,192.168.1.118,10.97.20.126,1,0
2015-02-21 19:00:19.347,92,1424570416.527029,39.63827166827625,-106.370185615814,2518.318,-1,-1,10,65,-9999,1424570419.294299,-12.29754257202148,-42.86540222167969,-2.567337036132812,138.906494140625,129.7804260253906,10,22286.94367620834,0.04132080078125,-0.935089111328125,-0.35784912109375,22286.90832045833,0.248206347279276,0.3829021109966497,0.02046799087391299,22286.90832045833,-2.347669018567337,0.04818129161036705,1.238288514155164,0.2434080988168716,0.392206996679306,0.05775519832968712,0.007823319174349308,0.02049833722412586,-0.03246946632862091,XTrueNorthZVertical,0.2423958360624326,-0.5274716737190193,-0.7454268590371371,0.3276533684073472,0.01572099141776562,-0.9452267289161682,-0.3260357975959778,-17.03846549987793,-41.81699371337891,-6.149599552154541,2,192.168.1.118,10.97.20.126,1,0
2015-02-21 19:00:19.407,93,1424570416.527029,39.63827166827625,-106.370185615814,2518.318,-1,-1,10,65,-9999,1424570419.39809,-11.64941024780273,-43.71456909179688,-1.801856994628906,144.4659423828125,135.3398742675781,10,22286.992738625,0.092742919921875,-0.993927001953125,-0.3502044677734375,22286.96010370833,0.3521729604426613,0.4512638582823297,0.008769789469630931,22286.96010370833,-2.34821716611638,0.07102080064946957,1.248747203024379,0.3473645448684692,0.4605756103992462,0.04604761675000191,0.02400303445756435,0.003657809458673,-0.04527924209833145,XTrueNorthZVertical,0.2522904408792931,-0.5277243026033076,-0.7398357132919762,0.3324150284501889,0.02245997823774815,-0.9485888481140137,-0.3157131969928741,-10.04859352111816,-42.95584487915039,-4.708761215209961,2,192.168.1.118,10.97.20.126,1,0
2015-02-21 19:00:19.446,94,1424570416.527029,39.63827166827625,-106.370185615814,2518.318,-1,-1,10,65,-9999,1424570419.39809,-11.64941024780273,-43.71456909179688,-1.801856994628906,144.4659423828125,135.3398742675781,10,22287.04181858333,0.0803680419921875,-1.067474365234375,-0.2202911376953125,22287.01188595833,0.3644016635360872,0.2670234445934488,0.08312205131133517,22287.01188595833,-2.347784252156612,0.08942672812146785,1.26616901246038,0.3595929145812988,0.2763388156890869,0.1203926354646683,0.07695779204368591,-0.08020562678575516,-0.0366947203874588,XTrueNorthZVertical,0.2617113937235658,-0.5311661949089284,-0.7325678042811805,0.3357291644032315,0.02678671665489674,-0.9539588093757629,-0.2987392246723175,-9.995326995849609,-43.01844787597656,-4.225831985473633,2,192.168.1.118,10.97.20.126,1,0
2015-02-21 19:00:19.506,95,1424570416.527029,39.63827166827625,-106.370185615814,2518.318,-1,-1,10,65,-9999,1424570419.501523,-11.70058059692383,-43.66361999511719,-1.086311340332031,143.3678283691406,134.2417755126953,10,22287.09091566667,0.094085693359375,-0.8263702392578125,-0.2890167236328125,22287.06366820834,0.2648468430345271,0.2809259444319895,0.101298125751126,22287.06366820834,-2.325676518711732,0.08100147487105115,1.283268967152563,0.2600436210632324,0.2902418971061707,0.1385650485754013,0.0243567917495966,0.05361352860927582,0.03881679475307465,XTrueNorthZVertical,0.2670289198783923,-0.5360684966943976,-0.7251558407707682,0.3398163758788429,0.0229454543441534,-0.958948016166687,-0.2826522588729858,-10.28639221191406,-42.99825668334961,-3.700236320495605,2,192.168.1.118,10.97.20.126,1,0
2015-02-21 19:00:19.544,96,1424570416.527029,39.63827166827625,-106.370185615814,2518.318,-1,-1,10,65,-9999,1424570419.501523,-11.70058059692383,-43.66361999511719,-1.086311340332031,143.3678283691406,134.2417755126953,10,22287.13998145833,0.1304473876953125,-0.94244384765625,-0.2126922607421875,22287.11545133333,0.153226837530472,0.2314875545879765,-0.1651364939253064,22287.11545133333,-2.339354382216877,0.1095747098471573,1.29432149493366,0.1484236866235733,0.240803450345993,-0.1278699338436127,0.1055561229586601,0.1072568222880363,-0.02322656288743019,XTrueNorthZVertical,0.2752773894296804,-0.5371757700499444,-0.7204801735855612,0.3414277527225236,0.02985037118196487,-0.9620236754417419,-0.2713291049003601,-10.18342208862305,-43.06219100952148,-3.208869934082031,2,192.168.1.118,10.97.20.126,1,0
2015-02-21 19:00:19.605,97,1424570416.527029,39.63827166827625,-106.370185615814,2518.318,-1,-1,10,65,-9999,1424570419.553975,-11.78585433959961,-43.81645202636719,-0.6702880859375,141.8652648925781,132.7392120361328,10,22287.18908891667,-0.0054779052734375,-1.017654418945312,-0.1227569580078125,22287.16723379167,-0.02220011084690053,0.01793665625779268,0.02772031115441678,22287.16723379167,-2.367293751727686,0.1421498741200552,1.29849971709122,-0.0269873421639204,0.02725792862474918,0.06497017294168472,0.02752628177404404,-0.06627842783927917,0.1239891648292542,XTrueNorthZVertical,0.2800662091047388,-0.5370727331671341,-0.7195127519858835,0.3397311252369867,0.03810176998376846,-0.9631558060646057,-0.2662315964698792,-9.807375907897949,-43.1633186340332,-3.015717506408691,2,192.168.1.118,10.97.20.126,1,0
2015-02-21 19:00:19.642,98,1424570416.527029,39.63827166827625,-106.370185615814,2518.318,-1,-1,10,65,-9999,1424570419.605736,-11.85407638549805,-44.02024841308594,-0.636993408203125,140.7327880859375,131.6067199707031,10,22287.23814833333,0.0406646728515625,-1.011627197265625,-0.123565673828125,22287.219016,0.0526930390121988,0.0001051948630581299,-0.1921414800109279,22287.219016,-2.376597677720032,0.1524811094057382,1.310794442447273,0.04795253276824951,0.00941460020840168,-0.1548775285482407,0.004591641016304493,-0.02259366028010845,0.09026601165533066,XTrueNorthZVertical,0.2828402185203986,-0.5412500316217594,-0.7160511633517275,0.3381132730882049,0.03904849663376808,-0.9663894772529602,-0.2540996372699738,-9.903270721435547,-43.15971755981445,-2.741452217102051,2,192.168.1.118,10.97.20.126,1,0
2015-02-21 19:00:19.736,99,1424570416.527029,39.63827166827625,-106.370185615814,2518.318,-1,-1,10,65,-9999,1424570419.709825,-11.80291366577148,-44.41081237792969,-0.5205154418945312,139.6604614257812,130.5344085693359,10,22287.28724591667,0.067291259765625,-1.142318725585938,-0.015411376953125,22287.27079925,-0.1218428156644332,0.03902170155627703,-0.0264539780560841,22287.27079925,-2.404037820227911,0.1784535393641681,1.320631143775964,-0.1265482753515244,0.04832363128662109,0.01081788446754217,-0.002425419166684151,-0.1203008219599724,0.2048295587301254,XTrueNorthZVertical,0.285869922573533,-0.5444832969038953,-0.7140667939000329,0.3345519100659839,0.0439445860683918,-0.968871533870697,-0.2436326593160629,-9.577098846435547,-43.27413558959961,-1.994867324829102,2,192.168.1.118,10.97.20.126,1,0
2015-02-21 19:00:19.740,100,1424570416.527029,39.63827166827625,-106.370185615814,2518.318,-1,-1,10,65,-9999,1424570419.709825,-11.80291366577148,-44.41081237792969,-0.5205154418945312,139.6604614257812,130.5344085693359,10,22287.3363095,0.016632080078125,-1.141754150390625,-0.0766143798828125,22287.32258141667,-0.1134959361759069,0.5125184275669152,0.3016296250623745,22287.27079925,-2.404037820227911,0.1784535393641681,1.320631143775964,-0.1265482753515244,0.04832363128662109,0.01081788446754217,-0.002425419166684151,-0.1203008219599724,0.2048295587301254,XTrueNorthZVertical,0.285869922573533,-0.5444832969038953,-0.7140667939000329,0.3345519100659839,0.0439445860683918,-0.968871533870697,-0.2436326593160629,-9.577098846435547,-43.27413558959961,-1.994867324829102,2,192.168.1.118,10.97.20.126,1,0
2015-02-21 19:00:19.806,101,1424570416.527029,39.63827166827625,-106.370185615814,2518.318,-1,-1,10,65,-9999,1424570419.761379,-11.3935661315918,-44.03720092773438,-0.8200531005859375,140.3674621582031,131.2414093017578,10,22287.38541625,0.1143951416015625,-1.02581787109375,-0.1724395751953125,22287.374363875,0.1239144886764059,0.6322320459398301,0.1085840018613647,22287.374363875,-2.303999758364826,0.1297010739015592,1.316306820983741,0.1192208826541901,0.641530454158783,0.1459142416715622,0.03715643659234047,-0.1153226867318153,0.1056092381477356,XTrueNorthZVertical,0.2950524314994718,-0.5367733127494887,-0.7051147791496003,0.3572557368748662,0.03256097063422203,-0.9677919149398804,-0.2496369481086731,-10.4191951751709,-43.03292846679688,-2.821106433868408,2,192.168.1.118,10.97.20.126,1,0
2015-02-21 19:00:19.840,102,1424570416.527029,39.63827166827625,-106.370185615814,2518.318,-1,-1,10,65,-9999,1424570419.813061,-11.59823989868164,-43.83338928222656,-1.319267272949219,138.705810546875,129.5797424316406,10,22287.43463383333,0.110687255859375,-0.9310150146484375,-0.1155548095703125,22287.42614683334,-0.01352193411876832,0.2118605899863106,0.09864801415038811,22287.374363875,-2.303999758364826,0.1297010739015592,1.316306820983741,0.1192208826541901,0.641530454158783,0.1459142416715622,0.03715643659234047,-0.1153226867318153,0.1056092381477356,XTrueNorthZVertical,0.2950524314994718,-0.5367733127494887,-0.7051147791496003,0.3572557368748662,0.03256097063422203,-0.9677919149398804,-0.2496369481086731,-10.4191951751709,-43.03292846679688,-2.821106433868408,2,192.168.1.118,10.97.20.126,1,0
2015-02-21 19:00:19.904,103,1424570416.527029,39.63827166827625,-106.370185615814,2518.318,-1,-1,10,65,-9999,1424570419.865124,-12.33164596557617,-43.47676086425781,-1.602165222167969,135.0927734375,125.9667129516602,10,22287.48356991667,0.1292572021484375,-0.8968963623046875,-0.0804901123046875,22287.47792925,-0.2481131366411232,0.224377447109683,0.2027262137634478,22287.42614683334,-2.312063944155839,0.1591972589437215,1.327310152238237,-0.01818971149623394,0.2211587131023407,0.1359608024358749,0.07527630776166916,0.02062852308154106,0.1063708811998367,XTrueNorthZVertical,0.3047726489485647,-0.5367440249341303,-0.698933217137471,0.3612642828335696,0.03821856528520584,-0.9705033898353577,-0.2380389720201492,-10.57624816894531,-42.99503326416016,-2.814486026763916,2,192.168.1.118,10.97.20.126,1,0
2015-02-21 19:00:19.937,104,1424570416.527029,39.63827166827625,-106.370185615814,2518.318,-1,-1,10,65,-9999,1424570419.917243,-12.8774528503418,-43.17106628417969,-1.968254089355469,133.4259185791016,124.2998580932617,10,22287.53263066667,0.1847991943359375,-0.952728271484375,-0.0641021728515625,22287.52971145833,-0.2798223304762607,0.1945481786880325,0.2683662104150668,22287.47792925,-2.266468412491905,0.1247020599226076,1.320259268675255,-0.2527808845043182,0.233675479888916,0.2400386333465576,0.08981462568044662,0.07990917563438416,0.1585205793380737,XTrueNorthZVertical,0.3039188557242845,-0.5335107503031407,-0.6979118220609963,0.3686715841948291,0.03083661757409573,-0.9687793850898743,-0.2459992170333862,-10.73110485076904,-42.9480094909668,-2.943329334259033,2,192.168.1.118,10.97.20.126,1,0
2015-02-21 19:00:20.005,105,1424570416.527029,39.63827166827625,-106.370185615814,2518.318,-1,-1,10,65,-9999,1424570419.968603,-13.5085334777832,-43.42579650878906,-2.051460266113281,131.7364501953125,122.6103820800781,10,22287.58172908333,0.202606201171875,-0.9927978515625,-0.10150146484375,22287.58149466667,-0.2138046975820684,-0.1499817757422105,0.3344363075827336,22287.52971145833,-2.251430113678552,0.1256116280576748,1.320699498637389,-0.2844431698322296,0.2038462609052658,0.3056468367576599,0.1444538980722427,0.02536123991012573,0.1911350786685944,XTrueNorthZVertical,0.3083049272147276,-0.531200633310568,-0.6948536088759649,0.3741022068587999,0.03100692480802536,-0.9688884615898132,-0.2455479204654694,-11.01366806030273,-42.84809112548828,-3.330359935760498,2,192.168.1.118,10.97.20.126,1,0
2015-02-21 19:00:20.037,106,1424570416.527029,39.63827166827625,-106.370185615814,2518.318,-1,-1,10,65,-9999,1424570420.020535,-14.17372512817383,-43.10311889648438,-2.767013549804688,129.2338256835938,120.1077651977539,10,22287.630793125,0.169952392578125,-1.071853637695312,-0.1710205078125,22287.58149466667,-0.2138046975820684,-0.1499817757422105,0.3344363075827336,22287.58149466667,-2.212498140952938,0.091597369516958,1.317799293358948,-0.2183952480554581,-0.140683114528656,0.3716889619827271,0.1797108054161072,-0.02515005692839622,0.1717276126146317,XTrueNorthZVertical,0.3063728439145127,-0.5305722606449246,-0.6935758615640009,0.3789212595258094,0.02289539948105812,-0.9681665897369385,-0.2492575198411942,-11.24245357513428,-42.78200149536133,-3.414516925811768,2,192.168.1.118,10.97.20.126,1,0
2015-02-21 19:00:20.105,107,1424570416.527029,39.63827166827625,-106.370185615814,2518.318,-1,-1,10,65,-9999,1424570420.072281,-15.02653121948242,-42.79743957519531,-2.534049987792969,128.9793701171875,119.8533020019531,10,22287.680006875,-0.016845703125,-1.16375732421875,-0.2414093017578125,22287.68505929167,0.08726113627753632,-0.8124183295012832,-0.0151208960372519,22287.633276875,-2.150857034047662,0.01277057358339555,1.311989170219243,-0.06226233020424843,-0.5798333883285522,0.2381560802459717,0.1666841357946396,-0.1051576882600784,0.08488635718822479,XTrueNorthZVertical,0.2943876572358392,-0.5342120132327309,-0.6953198429426947,0.3801102315305084,0.003268255153670907,-0.9666959643363953,-0.2559068500995636,-11.91831684112549,-42.58763122558594,-3.54946231842041,2,192.168.1.118,10.97.20.126,1,0
2015-02-21 19:00:20.137,108,1424570416.527029,39.63827166827625,-106.370185615814,2518.318,-1,-1,10,65,-9999,1424570420.123866,-15.1629753112793,-42.59365844726562,-2.700454711914062,128.7522583007812,119.6262054443359,10,22287.728968875,-0.0615692138671875,-0.9724884033203125,-0.3108367919921875,22287.68505929167,0.08726113627753632,-0.8124183295012832,-0.0151208960372519,22287.68505929167,-2.120478521283466,-0.05348779387205609,1.312892478606689,0.0826706662774086,-0.8031198978424072,0.02213099040091038,-0.003209909657016397,-0.1968305855989456,0.01328034233301878,XTrueNorthZVertical,0.2796456603604917,-0.5426356813595322,-0.698870950478124,0.3727254437972115,-0.01363579370081425,-0.9669267535209656,-0.254689633846283,-12.41069412231445,-42.47401809692383,-3.206843852996826,2,192.168.1.118,10.97.20.126,1,0
2015-02-21 19:00:20.192,109,1424570416.527029,39.63827166827625,-106.370185615814,2518.318,-1,-1,10,65,-9999,1424570420.175816,-14.9924201965332,-42.52572631835938,-1.801849365234375,130.5135498046875,121.3874969482422,10,22287.77818920833,0.0391845703125,-0.9373779296875,-0.2154083251953125,22287.73684241667,0.1703198043549276,-0.1684547926435451,-0.3275429814171725,22287.73684241667,-2.162738141686756,-0.0393244154247066,1.32095663157247,0.1657293736934662,-0.1591564118862152,-0.290291428565979,-0.05184880644083023,-0.003536334028467536,-0.06377918273210526,XTrueNorthZVertical,0.2746571717015099,-0.548666232335946,-0.70252585937346,0.3605360735873601,-0.009720407426357269,-0.9689520597457886,-0.2470576018095016,-12.15721607208252,-42.59994506835938,-2.407916069030762,2,192.168.1.118,10.97.20.126,1,0
2015-02-21 19:00:20.236,110,1424570416.527029,39.63827166827625,-106.370185615814,2518.318,-1,-1,10,65,-9999,1424570420.227648,-14.58307266235352,-42.69554138183594,-1.602157592773438,131.5899047851562,122.4638366699219,10,22287.82715425,0.084075927734375,-0.9877777099609375,-0.20654296875,22287.78862475,-0.1400985186208174,0.4134275297272469,-0.01385536188724625,22287.78862475,-2.18893127736569,-0.0021413848808,1.321470779276521,-0.1446888893842697,0.4227258265018463,0.02339578047394753,0.05751996487379074,0.01944832690060139,0.03736887127161026,XTrueNorthZVertical,0.2806421069037644,-0.5457701173111075,-0.7019529877246028,0.3614374493966322,-0.0005283874925225973,-0.9690790772438049,-0.2467499673366547,-11.79865264892578,-42.70204162597656,-2.383013725280762,2,192.168.1.118,10.97.20.126,1,0
2015-02-21 19:00:20.290,111,1424570416.527029,39.63827166827625,-106.370185615814,2518.318,-1,-1,10,65,-9999,1424570420.27959,-14.53190231323242,-43.35789489746094,-1.652076721191406,132.4139099121094,123.287841796875,10,22287.876366,0.0458984375,-0.943634033203125,-0.25469970703125,22287.84040691667,-0.1927651923382244,0.1855189973282278,-0.05693598726091304,22287.84040691667,-2.181856253362538,0.007478723769906173,1.310497266990901,-0.1973555237054825,0.1948171854019165,-0.01968521811068058,0.0766579881310463,-0.01587994024157524,0.04381571337580681,XTrueNorthZVertical,0.2839449522257586,-0.5391604871064097,-0.7022865445445649,0.3680691273651576,0.001924778684042394,-0.9663130640983582,-0.2573624551296234,-11.83168983459473,-42.6556396484375,-2.976377487182617,2,192.168.1.118,10.97.20.126,1,0
2015-02-21 19:00:20.335,112,1424570416.527029,39.63827166827625,-106.370185615814,2518.318,-1,-1,10,65,-9999,1424570420.27959,-14.53190231323242,-43.35789489746094,-1.652076721191406,132.4139099121094,123.287841796875,10,22287.92533483333,0.028472900390625,-0.917266845703125,-0.3133087158203125,22287.89218991667,-0.03395716811127334,0.1131891400183298,-0.1691533397974729,22287.89218991667,-2.214616606245932,0.04519874991901933,1.307181694414293,-0.03853914141654968,0.122487798333168,-0.131914958357811,0.02037674374878407,0.03018219769001007,-0.008462307043373585,XTrueNorthZVertical,0.28781557468581,-0.5357323897600672,-0.7038232119894444,0.3671320303570763,0.01177352480590343,-0.9654543995857239,-0.2603060007095337,-11.46538352966309,-42.72884368896484,-3.337974071502686,2,192.168.1.118,10.97.20.126,1,0
2015-02-21 19:00:20.389,113,1424570416.527029,39.63827166827625,-106.370185615814,2518.318,-1,-1,10,65,-9999,1424570420.382894,-14.46368026733398,-43.086181640625,-2.617233276367188,130.6539001464844,121.5278472900391,10,22287.97454554167,-0.0046234130859375,-0.978790283203125,-0.3314666748046875,22287.94397245834,-0.01306120725018462,0.321005453573246,-0.06312490731814818,22287.94397245834,-2.231757174755627,0.07494359414949603,1.30652581678769,-0.01764313504099846,0.3303040266036987,-0.0258869044482708,0.002369536319747567,0.03982248902320862,-0.05950471386313438,XTrueNorthZVertical,0.2935883161206199,-0.5325127731144743,-0.7028368945643388,0.3691292275959069,0.01955734379589558,-0.9652832746505737,-0.2604720890522003,-11.2238597869873,-42.78179168701172,-3.477778911590576,2,192.168.1.118,10.97.20.126,1,0
2015-02-21 19:00:20.434,114,1424570416.527029,39.63827166827625,-106.370185615814,2518.318,-1,-1,10,65,-9999,1424570420.382894,-14.46368026733398,-43.086181640625,-2.617233276367188,130.6539001464844,121.5278472900391,10,22288.02349870833,-0.082305908203125,-1.043563842773438,-0.2972869873046875,22287.99575466667,-0.02200223797790764,0.1873493879454393,0.04301457897863283,22287.99575466667,-2.217113502687412,0.07295381504318785,1.298774374090944,-0.02660790458321571,0.1966460049152374,0.08025612682104111,-0.04344857111573219,-0.04116492345929146,-0.05573492869734764,XTrueNorthZVertical,0.2954857510722266,-0.5279258083299563,-0.7025627570383031,0.3746840324249029,0.01958382688462734,-0.9632295966148376,-0.2679650187492371,-11.18821716308594,-42.76083374023438,-3.832280158996582,2,192.168.1.118,10.97.20.126,1,0
2015-02-21 19:00:20.487,115,1424570416.527029,39.63827166827625,-106.370185615814,2518.318,-1,-1,10,65,-9999,1424570420.434655,-14.22488784790039,-42.74652099609375,-3.049896240234375,130.1116638183594,120.9856033325195,10,22288.07262154167,-0.1506195068359375,-0.9735107421875,-0.2602386474609375,22288.04753779167,-0.02137319932843093,0.2906685866478264,0.1003423172358965,22288.04753779167,-2.178998684990198,0.04563074420681112,1.298130945250932,-0.02597988583147526,0.2999638617038727,0.1376001089811325,-0.1289985477924347,-0.0491810142993927,-0.009285956621170044,XTrueNorthZVertical,0.2958507077141863,-0.5272217844647284,-0.6995786515664957,0.3809190188507905,0.01228406839072704,-0.9630565047264099,-0.2690190970897675,-11.66613292694092,-42.60449600219727,-4.136364936828613,2,192.168.1.118,10.97.20.126,1,0
2015-02-21 19:00:20.536,116,1424570416.527029,39.63827166827625,-106.370185615814,2518.318,-1,-1,10,65,-9999,1424570420.48833,-14.25900650024414,-42.88238525390625,-3.149749755859375,130.1537933349609,121.0277328491211,10,22288.12168545834,-0.085723876953125,-0.9411468505859375,-0.2582244873046875,22288.09931991667,-0.0506027238725956,0.8528999759671417,0.1192281241061934,22288.09931991667,-2.12771436348981,0.02413908974671818,1.296843979179465,-0.05520826950669289,0.8621933460235596,0.1565099358558655,-0.1395713090896606,0.006501880940049887,0.01109089516103268,XTrueNorthZVertical,0.301598407223149,-0.523267144877845,-0.6932085164105118,0.393308897111148,0.006529921665787697,-0.9627091288566589,-0.2704598009586334,-12.12558555603027,-42.44525146484375,-4.44097375869751,2,192.168.1.118,10.97.20.126,1,0
2015-02-21 19:00:20.585,117,1424570416.527029,39.63827166827625,-106.370185615814,2518.318,-1,-1,10,65,-9999,1424570420.566114,-14.44662094116211,-42.66159057617188,-4.43109130859375,126.7090148925781,117.5829544067383,10,22288.17092054167,-0.0305633544921875,-0.9898223876953125,-0.257080078125,22288.15110241667,-0.05649257093941485,1.226399796735267,0.2614877979516101,22288.15110241667,-2.085071282559416,0.03891914158386206,1.294142946662527,-0.06109806895256042,1.235692977905273,0.2987692356109619,-0.05741105601191521,0.005813412833958864,0.009259216487407684,XTrueNorthZVertical,0.317207958106534,-0.5127509782710274,-0.6830504423172293,0.4121985914158711,0.01062761060893536,-0.9619749188423157,-0.2729310989379883,-12.28269195556641,-42.32400894165039,-5.115188121795654,2,192.168.1.118,10.97.20.126,1,0
2015-02-21 19:00:20.634,118,1424570416.527029,39.63827166827625,-106.370185615814,2518.318,-1,-1,10,65,-9999,1424570420.566114,-14.44662094116211,-42.66159057617188,-4.43109130859375,126.7090148925781,117.5829544067383,10,22288.21984970833,-0.0572357177734375,-0.9878692626953125,-0.27496337890625,22288.20288533334,-0.09942965193032638,1.231933312848233,0.3972016881537211,22288.15110241667,-2.085071282559416,0.03891914158386206,1.294142946662527,-0.06109806895256042,1.235692977905273,0.2987692356109619,-0.05741105601191521,0.005813412833958864,0.009259216487407684,XTrueNorthZVertical,0.317207958106534,-0.5127509782710274,-0.6830504423172293,0.4121985914158711,0.01062761060893536,-0.9619749188423157,-0.2729310989379883,-12.28269195556641,-42.32400894165039,-5.115188121795654,2,192.168.1.118,10.97.20.126,1,0
2015-02-21 19:00:20.683,119,1424570416.527029,39.63827166827625,-106.370185615814,2518.318,-1,-1,10,65,-9999,1424570420.644251,-14.46368026733398,-42.13510131835938,-5.945396423339844,122.0656127929688,112.9395523071289,10,22288.26902079167,-0.1075439453125,-0.9569244384765625,-0.262847900390625,22288.25466779167,-0.1153942374009154,1.440368278724375,0.483709149842765,22288.25466779167,-1.925766601319399,0.0139523860048933,1.285055823704044,-0.1199990659952164,1.449661254882812,0.5209913849830627,-0.09438670426607132,-0.008518610149621964,0.01000534649938345,XTrueNorthZVertical,0.3468246028826731,-0.4886638499290115,-0.6547488796480679,0.4606780666869596,0.003932605031877756,-0.9594531655311584,-0.2818406820297241,-13.26242542266846,-41.71627807617188,-7.22575044631958,2,192.168.1.118,10.97.20.126,1,0
2015-02-21 19:00:20.735,120,1424570416.527029,39.63827166827625,-106.370185615814,2518.318,-1,-1,10,65,-9999,1424570420.719732,-15.1629753112793,-41.608642578125,-7.8258056640625,116.0150604248047,106.8889999389648,10,22288.31801216667,-0.1254425048828125,-0.9828948974609375,-0.1904144287109375,22288.30644991667,-0.178297569716369,1.692809584769095,0.5716363427089302,22288.30644991667,-1.826186995477206,-0.0008090206304904718,1.278621181303885,-0.1828945577144623,1.702099323272705,0.608977198600769,-0.1070362627506256,0.0080346604809165,0.04876279830932617,XTrueNorthZVertical,0.3644708169774447,-0.4723802366125622,-0.6352506166637776,0.4903821260781705,-0.0002330270071979612,-0.9576196074485779,-0.2880358695983887,-13.74955940246582,-41.33913421630859,-8.389094352722168,2,192.168.1.118,10.97.20.126,1,0
2015-02-21 19:00:20.781,121,1424570416.527029,39.63827166827625,-106.370185615814,2518.318,-1,-1,10,65,-9999,1424570420.770847,-15.53821182250977,-40.99723815917969,-9.955833435058594,109.7297744750977,100.6037139892578,10,22288.3672185,-0.09686279296875,-0.9077301025390625,-0.176666259765625,22288.358233125,-0.3420596062030855,1.972366131768566,0.685970641995994,22288.30644991667,-1.826186995477206,-0.0008090206304904718,1.278621181303885,-0.1828945577144623,1.702099323272705,0.608977198600769,-0.1070362627506256,0.0080346604809165,0.04876279830932617,XTrueNorthZVertical,0.3644708169774447,-0.4723802366125622,-0.6352506166637776,0.4903821260781705,-0.0002330270071979612,-0.9576196074485779,-0.2880358695983887,-13.74955940246582,-41.33913421630859,-8.389094352722168,2,192.168.1.118,10.97.20.126,1,0
2015-02-21 19:00:20.852,122,1424570416.527029,39.63827166827625,-106.370185615814,2518.318,-1,-1,10,65,-9999,1424570420.824033,-15.50409317016602,-40.08015441894531,-12.35209655761719,103.0426483154297,93.91658782958984,10,22288.416180375,-0.047393798828125,-0.9742431640625,-0.1206207275390625,22288.41001529167,-0.3146972238991753,2.133129981500071,0.853112229906021,22288.358233125,-1.71029169888542,-0.01907295061361914,1.263876963531597,-0.3466555178165436,1.981655716896057,0.7233116626739502,-0.09902006387710571,0.02496987394988537,0.1332300454378128,XTrueNorthZVertical,0.3817452580644836,-0.4508173549857749,-0.6125966869193855,0.5251281838592422,-0.005762036889791489,-0.953268826007843,-0.3020685315132141,-14.35903835296631,-40.63765335083008,-10.52381992340088,2,192.168.1.118,10.97.20.126,1,0
2015-02-21 19:00:20.879,123,1424570416.527029,39.63827166827625,-106.370185615814,2518.318,-1,-1,10,65,-9999,1424570420.824033,-15.50409317016602,-40.08015441894531,-12.35209655761719,103.0426483154297,93.91658782958984,10,22288.46528741667,0.0085601806640625,-1.0081787109375,-0.097747802734375,22288.461797625,-0.3456692547445788,2.202124762176863,1.109523510187722,22288.461797625,-1.427394949436942,-0.0726680386020971,1.227725806338584,-0.3502625524997711,2.211414337158203,1.146862864494324,0.02257627807557583,-0.07173200696706772,0.2402777373790741,XTrueNorthZVertical,0.4157213953215049,-0.3992861522163404,-0.5505811425795241,0.6038267429280013,-0.02442259155213833,-0.9417262673377991,-0.3354925811290741,-15.10025405883789,-39.12048721313477,-14.48865509033203,2,192.168.1.118,10.97.20.126,1,0
2015-02-21 19:00:20.936,124,1424570416.527029,39.63827166827625,-106.370185615814,2518.318,-1,-1,10,65,-9999,1424570420.927385,-16.16928482055664,-37.85540771484375,-17.66048431396484,86.93527221679688,77.80921173095703,10,22288.514356875,0.032470703125,-0.982666015625,-0.109954833984375,22288.461797625,-0.3456692547445788,2.202124762176863,1.109523510187722,22288.461797625,-1.427394949436942,-0.0726680386020971,1.227725806338584,-0.3502625524997711,2.211414337158203,1.146862864494324,0.02257627807557583,-0.07173200696706772,0.2402777373790741,XTrueNorthZVertical,0.4157213953215049,-0.3992861522163404,-0.5505811425795241,0.6038267429280013,-0.02442259155213833,-0.9417262673377991,-0.3354925811290741,-15.10025405883789,-39.12048721313477,-14.48865509033203,2,192.168.1.118,10.97.20.126,1,0
2015-02-21 19:00:20.978,125,1424570416.527029,39.63827166827625,-106.370185615814,2518.318,-1,-1,10,65,-9999,1424570420.927385,-16.16928482055664,-37.85540771484375,-17.66048431396484,86.93527221679688,77.80921173095703,10,22288.56357675,0.0230255126953125,-1.017501831054688,-0.108367919921875,22288.56536308333,-0.2859862168192491,1.476640799087363,1.05189190525008,22288.51358066667,-1.262424128695779,-0.1234174470214965,1.214839257973614,-0.2674716711044312,1.935122728347778,1.179356336593628,0.07399776577949524,-0.04700057208538055,0.2400935739278793,XTrueNorthZVertical,0.4300143400832078,-0.3770532808832807,-0.5120578686823253,0.6408707121857532,-0.04290035739541054,-0.9373133778572083,-0.3458369672298431,-15.72203922271729,-37.89196395874023,-16.89283180236816,2,192.168.1.118,10.97.20.126,1,0
2015-02-21 19:00:21.034,126,1424570416.527029,39.63827166827625,-106.370185615814,2518.318,-1,-1,10,65,-9999,1424570420.979851,-16.62980270385742,-36.34393310546875,-19.80713653564453,79.24391937255859,70.11785888671875,10,22288.612560125,-0.01007080078125,-1.000885009765625,-0.1219329833984375,22288.56536308333,-0.2859862168192491,1.476640799087363,1.05189190525008,22288.56536308333,-1.113450600869613,-0.1783518398617041,1.196376313015782,-0.2905549705028534,1.485932469367981,1.089199185371399,0.08790937066078186,-0.08678193390369415,0.2515634596347809,XTrueNorthZVertical,0.4373182331898995,-0.3588691506873691,-0.4774984428674733,0.6722804270412249,-0.06488385796546936,-0.9307199120521545,-0.3599313795566559,-16.21324920654297,-36.92650604248047,-18.49094390869141,2,192.168.1.118,10.97.20.126,1,0
2015-02-21 19:00:21.076,127,1424570416.527029,39.63827166827625,-106.370185615814,2518.318,-1,-1,10,65,-9999,1424570421.032272,-17.05620193481445,-35.07020568847656,-21.82066345214844,69.44142150878906,60.31536102294922,10,22288.66164883333,-0.02154541015625,-0.9899444580078125,-0.1197662353515625,22288.61714525,-0.2982386220463766,1.263541040245839,0.9692225913240587,22288.61714525,-0.9861208210040774,-0.2294590570787944,1.170957140410787,-0.3028073310852051,1.27283251285553,1.006529450416565,0.07846903055906296,-0.07976140081882477,0.257134348154068,XTrueNorthZVertical,0.4384167470723419,-0.3438852783663379,-0.4476226177036636,0.6994052496575466,-0.08853983134031296,-0.9211236238479614,-0.3790673315525055,-16.74488067626953,-35.88694000244141,-20.00219917297363,2,192.168.1.118,10.97.20.126,1,0
2015-02-21 19:00:21.139,128,1424570416.527029,39.63827166827625,-106.370185615814,2518.318,-1,-1,10,65,-9999,1424570421.083596,-16.40806198120117,-33.9493408203125,-23.25176239013672,61.98091888427734,52.8548583984375,10,22288.71071470833,0.0383148193359375,-1.021804809570312,-0.128570556640625,22288.66892829167,-0.2186356717994722,1.494140430610274,0.9020976160486115,22288.66892829167,-0.8776403778986562,-0.2607526124173438,1.173015012441799,-0.2231657654047012,1.503438115119934,0.9393232464790344,0.07832260429859161,-0.0680217370390892,0.2545129656791687,XTrueNorthZVertical,0.4507602797060973,-0.3311730186855621,-0.4159992755129877,0.7169966838316932,-0.09986801445484161,-0.9219227433204651,-0.3742792010307312,-16.88848114013672,-35.21363830566406,-21.05065536499023,2,192.168.1.118,10.97.20.126,1,0
2015-02-21 19:00:21.174,129,1424570416.527029,39.63827166827625,-106.370185615814,2518.318,-1,-1,10,65,-9999,1424570421.134529,-15.94755935668945,-32.84544372558594,-24.69950103759766,56.32588195800781,47.19982147216797,10,22288.75982608333,0.0977630615234375,-1.0047607421875,-0.176544189453125,22288.77249308334,0.0945403544850499,1.705477709442384,1.009959102306238,22288.720710625,-0.7637348495707633,-0.2803220186544567,1.152743073980164,-0.1133262291550636,1.827950358390808,1.050803661346436,0.1605083644390106,-0.1097701042890549,0.2490982562303543,XTrueNorthZVertical,0.4571206379876319,-0.309795258301687,-0.3800378780545545,0.7420504507258021,-0.1123211085796356,-0.9138810038566589,-0.3901352286338806,-14.1246280670166,-32.31111145019531,-27.49758911132812,2,192.168.1.118,10.97.20.126,1,0
2015-02-21 19:00:21.235,130,1424570416.527029,39.63827166827625,-106.370185615814,2518.318,-1,-1,10,65,-9999,1424570421.187608,-14.95829391479492,-31.07919311523438,-25.83108520507812,50.1182975769043,40.99223709106445,10,22288.80889375,0.0934600830078125,-1.048965454101562,-0.1818084716796875,22288.77249308334,0.0945403544850499,1.705477709442384,1.009959102306238,22288.77249308334,-0.6416396788179846,-0.3015849933002979,1.137555881999067,0.09001121670007706,1.714775443077087,1.047179222106934,0.2335705459117889,-0.1109292954206467,0.2200194299221039,XTrueNorthZVertical,0.4654083106269775,-0.2880309062885335,-0.3394632661458433,0.7649823738352072,-0.1246990859508514,-0.9076101183891296,-0.4008665978908539,-13.32803058624268,-31.60541152954102,-28.6895866394043,2,192.168.1.118,10.97.20.126,1,0
2015-02-21 19:00:21.272,131,1424570416.527029,39.63827166827625,-106.370185615814,2518.318,-1,-1,10,65,-9999,1424570421.239635,-14.0543098449707,-30.281005859375,-27.14569854736328,43.04252624511719,33.91646575927734,10,22288.858106875,0.08612060546875,-1.042266845703125,-0.26312255859375,22288.82427595833,0.2067617017632449,1.419107731110054,0.8946660650267454,22288.82427595833,-0.5226592719121116,-0.3317421266569189,1.129469136590521,0.202232614159584,1.428405284881592,0.931885838508606,0.2254191935062408,-0.1384322345256805,0.2086602747440338,XTrueNorthZVertical,0.4738888163385017,-0.2711162755224245,-0.3006195819764576,0.7820187093333802,-0.1391154825687408,-0.9041855931282043,-0.4038507044315338,-12.43067836761475,-31.05009841918945,-29.68164825439453,2,192.168.1.118,10.97.20.126,1,0
2015-02-21 19:00:21.335,132,1424570416.527029,39.63827166827625,-106.370185615814,2518.318,-1,-1,10,65,-9999,1424570421.292415,-13.16738510131836,-30.00927734375,-27.94444274902344,36.4091682434082,27.28310775756836,10,22288.90707004167,0.07366943359375,-1.029159545898438,-0.274810791015625,22288.876058375,0.3905198169787123,1.270992032343662,0.6546566612666243,22288.876058375,-0.4239479553243337,-0.354771447308715,1.130067991938086,0.3859907686710358,1.280289530754089,0.6918760538101196,0.2360348999500275,-0.1309439390897751,0.1249926686286926,XTrueNorthZVertical,0.4838914897035559,-0.2565791384807727,-0.2672691321002795,0.792832531392541,-0.148190051317215,-0.9044411778450012,-0.4000323414802551,-11.77302742004395,-30.95941352844238,-30.04232215881348,2,192.168.1.118,10.97.20.126,1,0
2015-02-21 19:00:21.370,133,1424570416.527029,39.63827166827625,-106.370185615814,2518.318,-1,-1,10,65,-9999,1424570421.343806,-11.92229080200195,-30.53573608398438,-28.49358367919922,31.02131652832031,21.89525604248047,10,22288.956175625,0.0650634765625,-1.002334594726562,-0.2689666748046875,22288.92784054167,0.5766659887436538,1.346344044858582,0.5374384248351136,22288.92784054167,-0.3320030604614025,-0.3717902142821006,1.142544941398285,0.5721369981765747,1.355641484260559,0.5746573805809021,0.2257091999053955,-0.1107076928019524,0.1189943626523018,XTrueNorthZVertical,0.4983911594278497,-0.2411475940546794,-0.2351697544252267,0.7988424854803259,-0.150864839553833,-0.9096933007240295,-0.3869081735610962,-10.93551445007324,-31.24171447753906,-30.06660079956055,2,192.168.1.118,10.97.20.126,1,0
2015-02-21 19:00:21.438,134,1424570416.527029,39.63827166827625,-106.370185615814,2518.318,-1,-1,10,65,-9999,1424570421.395455,-10.38722610473633,-31.14714050292969,-28.22732543945312,25.51656723022461,16.39050674438477,10,22289.00523883334,0.0766143798828125,-1.007354736328125,-0.251129150390625,22288.97962370834,0.5882371573639391,1.244743117691514,0.3626173456057341,22288.97962370834,-0.2509704404245053,-0.3802996717929814,1.160784878950527,0.5837082266807556,1.254040479660034,0.3998359739780426,0.2229336351156235,-0.08897199481725693,0.1070325672626495,XTrueNorthZVertical,0.5144529868978009,-0.2242056852042803,-0.2056020110135958,0.8017467106138809,-0.147967204451561,-0.9171162843704224,-0.370139867067337,-9.525215148925781,-31.96255493164062,-29.78751754760742,2,192.168.1.118,10.97.20.126,1,0
2015-02-21 19:00:21.468,135,1424570416.527029,39.63827166827625,-106.370185615814,2518.318,-1,-1,10,65,-9999,1424570421.447128,-9.022724151611328,-31.79249572753906,-27.99436187744141,21.42298126220703,12.29692077636719,10,22289.05435083334,0.04052734375,-0.982574462890625,-0.2698211669921875,22289.031405875,0.4493770086500085,1.048581329699003,0.2736315462062625,22289.031405875,-0.1874022053358432,-0.3806714507836043,1.1805568536347,0.4448443949222565,1.057878255844116,0.3108464181423187,0.2222716361284256,-0.04712110012769699,0.09338231384754181,XTrueNorthZVertical,0.5294372318035929,-0.2076222267500552,-0.1811668675626313,0.8023514408013759,-0.1413390189409256,-0.9248179793357849,-0.353178471326828,-8.440942764282227,-32.57691192626953,-29.44700241088867,2,192.168.1.118,10.97.20.126,1,0
2015-02-21 19:00:21.539,136,1424570416.527029,39.63827166827625,-106.370185615814,2518.318,-1,-1,10,65,-9999,1424570421.498249,-7.624122619628906,-32.13214111328125,-28.0609130859375,17.44793319702148,8.321872711181641,10,22289.103409,-0.008544921875,-1.031173706054688,-0.291656494140625,22289.08318833333,0.2103921229612409,0.7522820215584219,0.1335322286371181,22289.08318833333,-0.1465238966159742,-0.3732479605606899,1.192133223269722,0.205853208899498,0.7615783214569092,0.1707412600517273,0.139942467212677,-0.07775254547595978,0.07063544541597366,XTrueNorthZVertical,0.5389250816477167,-0.1935122466073682,-0.1634045624895741,0.803375227188743,-0.1348002552986145,-0.9291597008705139,-0.3442255258560181,-7.440962314605713,-33.03414154052734,-29.20630264282227,2,192.168.1.118,10.97.20.126,1,0
2015-02-21 19:00:21.567,137,1424570416.527029,39.63827166827625,-106.370185615814,2518.318,-1,-1,10,65,-9999,1424570421.550758,-6.379016876220703,-32.42086791992188,-28.01099395751953,14.28239440917969,5.156334400177002,10,22289.15251716667,0.006683349609375,-1.139556884765625,-0.31005859375,22289.13497120834,0.180314381609886,0.6318309738796641,-0.05297054039778506,22289.13497120834,-0.1312662808188617,-0.3517828583473506,1.199742730990297,0.175774559378624,0.6411271095275879,-0.01576298475265503,0.1400929689407349,-0.1117858588695526,0.03057762607932091,XTrueNorthZVertical,0.5451563691547373,-0.1805782188757468,-0.1518731632673045,0.8044442940538966,-0.1249409914016724,-0.9319458603858948,-0.3403920829296112,-6.330918788909912,-33.33320999145508,-29.12811470031738,2,192.168.1.118,10.97.20.126,1,0
2015-02-21 19:00:21.607,138,1424570416.527029,39.63827166827625,-106.370185615814,2518.318,-1,-1,10,65,-9999,1424570421.602165,-5.202140808105469,-33.0152587890625,-27.89450836181641,12.2662239074707,3.140163898468018,10,22289.20159645833,-0.0744171142578125,-0.9224395751953125,-0.3424530029296875,22289.186753625,0.1127502510706847,0.2128206595592841,-0.2673422249759314,22289.13497120834,-0.1312662808188617,-0.3517828583473506,1.199742730990297,0.175774559378624,0.6411271095275879,-0.01576298475265503,0.1400929689407349,-0.1117858588695526,0.03057762607932091,XTrueNorthZVertical,0.5451563691547373,-0.1805782188757468,-0.1518731632673045,0.8044442940538966,-0.1249409914016724,-0.9319458603858948,-0.3403920829296112,-6.330918788909912,-33.33320999145508,-29.12811470031738,2,192.168.1.118,10.97.20.126,1,0
2015-02-21 19:00:21.664,139,1424570421.628867,39.63827133498723,-106.3701877994351,2518.199,-1,-1,10,65,-9999,1424570421.653398,-4.076438903808594,-33.2869873046875,-28.02763366699219,12.61254978179932,3.486489057540894,10,22289.25074208334,0.0149993896484375,-0.83245849609375,-0.31365966796875,22289.23853575,0.07948337431395991,0.203910255184097,-0.5337171898439459,22289.23853575,-0.1995846835946972,-0.2559583393155639,1.218011584363253,0.07493424415588379,0.2132055014371872,-0.49650639295578,0.08370538055896759,0.1113725602626801,-0.02664482779800892,XTrueNorthZVertical,0.5541217837513919,-0.1606892123687632,-0.153695156197269,0.8021881728628152,-0.08747430145740509,-0.9384142160415649,-0.3342560529708862,-5.154409408569336,-33.70659637451172,-28.92970657348633,2,192.168.1.118,10.97.20.126,1,0
2015-02-21 19:00:21.740,140,1424570421.628867,39.63827133498723,-106.3701877994351,2518.199,-1,-1,10,65,-9999,1424570421.703733,-2.899555206298828,-33.84744262695312,-28.11083221435547,12.26942443847656,3.143363475799561,10,22289.2998125,0.0305633544921875,-0.9569244384765625,-0.2599945068359375,22289.29031875,-0.269785941592188,0.1091690983528552,-0.2481371050909339,22289.23853575,-0.1995846835946972,-0.2559583393155639,1.218011584363253,0.07493424415588379,0.2132055014371872,-0.49650639295578,0.08370538055896759,0.1113725602626801,-0.02664482779800892,XTrueNorthZVertical,0.5541217837513919,-0.1606892123687632,-0.153695156197269,0.8021881728628152,-0.08747430145740509,-0.9384142160415649,-0.3342560529708862,-5.154409408569336,-33.70659637451172,-28.92970657348633,2,192.168.1.118,10.97.20.126,1,0
2015-02-21 19:00:21.763,141,1424570421.628867,39.63827133498723,-106.3701877994351,2518.199,-1,-1,10,65,-9999,1424570421.703733,-2.899555206298828,-33.84744262695312,-28.11083221435547,12.26942443847656,3.143363475799561,10,22289.34893704167,0.06304931640625,-1.01513671875,-0.2791900634765625,22289.34210108333,-0.160620571664859,-0.0686240686530528,-0.252407217582767,22289.34210108333,-0.3155530350067333,-0.1339880679642641,1.21634242350819,-0.1651899367570877,-0.05933240801095963,-0.2151723057031631,0.09934385120868683,-0.0859217643737793,0.05600361898541451,XTrueNorthZVertical,0.5543723947613788,-0.1438315140249634,-0.1664349437894688,0.8026725315498345,-0.04636533558368683,-0.9378361701965332,-0.3439674973487854,-2.707847356796265,-33.71622085571289,-29.24918365478516,2,192.168.1.118,10.97.20.126,1,0
2015-02-21 19:00:21.835,142,1424570421.628867,39.63827133498723,-106.3701877994351,2518.199,-1,-1,10,65,-9999,1424570421.761551,-2.132034301757812,-33.42286682128906,-28.49356842041016,12.77458953857422,3.648528814315796,10,22289.398003375,0.11920166015625,-0.8904571533203125,-0.276275634765625,22289.39388345834,0.002984072001433786,-0.3059458102410659,-0.1990047124561711,22289.34210108333,-0.3155530350067333,-0.1339880679642641,1.21634242350819,-0.1651899367570877,-0.05933240801095963,-0.2151723057031631,0.09934385120868683,-0.0859217643737793,0.05600361898541451,XTrueNorthZVertical,0.5543723947613788,-0.1438315140249634,-0.1664349437894688,0.8026725315498345,-0.04636533558368683,-0.9378361701965332,-0.3439674973487854,-2.707847356796265,-33.71622085571289,-29.24918365478516,2,192.168.1.118,10.97.20.126,1,0
2015-02-21 19:00:21.862,143,1424570421.628867,39.63827133498723,-106.3701877994351,2518.199,-1,-1,10,65,-9999,1424570421.83453,-2.114974975585938,-32.72657775878906,-28.61004638671875,16.23529052734375,7.109230518341064,10,22289.447166125,0.1219024658203125,-0.9049835205078125,-0.307647705078125,22289.4456665,-0.0354077919570395,-0.8493033769149897,-0.1472991735761737,22289.39388345834,-0.3629284509498527,-0.09605791771252274,1.221051110122699,-0.001601322088390589,-0.2966543734073639,-0.1617922633886337,0.1392029672861099,0.02947164326906204,0.07710182666778564,XTrueNorthZVertical,0.556135406505717,-0.1420351079810296,-0.1747693455007758,0.7999969709466227,-0.03286447003483772,-0.9394600391387939,-0.3410788774490356,-2.241588592529297,-33.78813171386719,-29.20561408996582,2,192.168.1.118,10.97.20.126,1,0
2015-02-21 19:00:21.906,144,1424570421.628867,39.63827133498723,-106.3701877994351,2518.199,-1,-1,10,65,-9999,1424570421.886683,-2.6607666015625,-32.72657775878906,-28.27722930908203,19.14388275146484,10.01782321929932,10,22289.49617645833,0.052490234375,-0.99273681640625,-0.326751708984375,22289.4456665,-0.0354077919570395,-0.8493033769149897,-0.1472991735761737,22289.4456665,-0.4056801995829862,-0.08169051254482186,1.222858689002131,-0.04001374170184135,-0.8400141000747681,-0.1101006492972374,0.1546990424394608,0.05119239538908005,0.03229715675115585,XTrueNorthZVertical,0.5550649877041146,-0.148295189770487,-0.187776692393542,0.7966500799150844,-0.02782221511006355,-0.9400779008865356,-0.3398227989673615,-2.42500376701355,-33.84632110595703,-29.12347221374512,2,192.168.1.118,10.97.20.126,1,0
2015-02-21 19:00:21.959,145,1424570421.628867,39.63827133498723,-106.3701877994351,2518.199,-1,-1,10,65,-9999,1424570421.937491,-4.076423645019531,-32.607666015625,-28.09417724609375,22.16177368164062,13.0357141494751,10,22289.54538216667,-0.012481689453125,-0.9814605712890625,-0.3493804931640625,22289.54923091667,-0.2504194341451318,-1.443669000579419,-0.2248725287563287,22289.497448625,-0.4240934730629877,-0.1197217012279634,1.219164776738461,-0.1257281601428986,-1.283785104751587,-0.1244329735636711,0.09362754970788956,-0.053924810141325,0.01521289069205523,XTrueNorthZVertical,0.5483762014937701,-0.1682297287867718,-0.2057296071823391,0.7928793531396791,-0.04113731533288956,-0.9388120174407959,-0.3419646024703979,-3.610269069671631,-33.76676940917969,-29.09298706054688,2,192.168.1.118,10.97.20.126,1,0
2015-02-21 19:00:22.007,146,1424570421.628867,39.63827133498723,-106.3701877994351,2518.199,-1,-1,10,65,-9999,1424570421.99074,-6.327842712402344,-32.60768127441406,-28.02761077880859,26.68131446838379,17.55525398254395,10,22289.5943315,-0.040252685546875,-0.94354248046875,-0.343505859375,22289.54923091667,-0.2504194341451318,-1.443669000579419,-0.2248725287563287,22289.54923091667,-0.4506547844770937,-0.1645845687154874,1.210415941471722,-0.2550270557403564,-1.434380054473877,-0.1876760423183441,0.0452941469848156,-0.04569781571626663,-0.001515477430075407,XTrueNorthZVertical,0.5375709375479925,-0.1925746069422456,-0.2287034704420511,0.7884334280023753,-0.0577758364379406,-0.9357627630233765,-0.3478650152683258,-4.633678436279297,-33.65038681030273,-29.08282852172852,2,192.168.1.118,10.97.20.126,1,0
