loggingTime,loggingSample,locationTimestamp_since1970,locationLatitude,locationLongitude,locationAltitude,locationSpeed,locationCourse,locationVerticalAccuracy,locationHorizontalAccuracy,locationFloor,locationHeadingTimestamp_since1970,locationHeadingX,locationHeadingY,locationHeadingZ,locationTrueHeading,locationMagneticHeading,locationHeadingAccuracy,accelerometerTimestamp_sinceReboot,accelerometerAccelerationX,accelerometerAccelerationY,accelerometerAccelerationZ,gyroTimestamp_sinceReboot,gyroRotationX,gyroRotationY,gyroRotationZ,motionTimestamp_sinceReboot,motionYaw,motionRoll,motionPitch,motionRotationRateX,motionRotationRateY,motionRotationRateZ,motionUserAccelerationX,motionUserAccelerationY,motionUserAccelerationZ,motionAttitudeReferenceFrame,motionQuaternionX,motionQuaternionY,motionQuaternionZ,motionQuaternionW,motionGravityX,motionGravityY,motionGravityZ,motionMagneticFieldX,motionMagneticFieldY,motionMagneticFieldZ,motionMagneticFieldCalibrationAccuracy,IP_en0,IP_pdp_ip0,deviceOrientation,state
2015-02-27 16:59:47.198,1,1425085185.020329,37.78767636913688,-122.3967090609179,12.84107,-1,-1,10,65,-9999,1425085187.162176,23.08847045898438,-34.3870849609375,-10.27603912353516,262.1760559082031,248.4028167724609,10,136831.399279,0.2086639404296875,-0.851287841796875,-0.5358123779296875,136831.3643224583,-0.01616538781678098,0.03385383746097827,0.01385243241004716,136831.3643224583,0.159743133130542,0.3087592647152103,1.018614890329909,-0.01959706097841263,0.04481597244739532,0.05336001515388489,-0.01942840777337551,0.007281333208084106,0.00758367357775569,XTrueNorthZVertical,0.4695266696073854,0.1722625279666688,0.1435655156133629,0.8539667926830361,0.1593972742557526,-0.851382315158844,-0.4997406601905823,21.53422164916992,-33.92314529418945,-11.7311840057373,2,10.3.35.51,10.83.46.32,1,0
2015-02-27 16:59:47.251,2,1425085185.020329,37.78767636913688,-122.3967090609179,12.84107,-1,-1,10,65,-9999,1425085187.212654,22.7474365234375,-34.52304077148438,-10.34261322021484,261.5310363769531,247.7577819824219,10,136831.448363125,0.151611328125,-0.8412017822265625,-0.4958953857421875,136831.4161039167,-0.007041131606060498,-0.05434047046252181,-0.008401474290872972,136831.4161039167,0.1643177111622333,0.3079842350114051,1.016262764239077,-0.01047131232917309,-0.04338007792830467,0.03110898099839687,0.01982682943344116,0.007983047515153885,-0.02252100221812725,XTrueNorthZVertical,0.4681690138124192,0.1730094778997642,0.1452260381313206,0.8542803434494967,0.1596165299415588,-0.8501461148262024,-0.5017709732055664,21.48715209960938,-33.95685195922852,-11.71996307373047,2,10.3.35.51,10.83.46.32,1,0
2015-02-27 16:59:47.267,3,1425085185.020329,37.78767636913688,-122.3967090609179,12.84107,-1,-1,10,65,-9999,1425085187.264212,22.76448822021484,-34.7099609375,-10.19283294677734,260.8490600585938,247.0758056640625,10,136831.4974061667,0.15802001953125,-0.845611572265625,-0.50390625,136831.467886125,-0.02446699356677598,-0.01871243508333276,-0.03006442554590452,136831.467886125,0.1671848345626852,0.303554606323897,1.015966411168824,-0.02785024605691433,-0.007580996491014957,0.009504847228527069,-0.008618127554655075,0.00645367568358779,-0.001192740513943136,XTrueNorthZVertical,0.4681152905174216,0.1717885911423554,0.1454002807337294,0.8545264919196008,0.1574676185846329,-0.8499900698661804,-0.5027135014533997,21.43448638916016,-33.95975875854492,-11.80764579772949,2,10.3.35.51,10.83.46.32,1,0
2015-02-27 16:59:47.338,4,1425085185.020329,37.78767636913688,-122.3967090609179,12.84107,-1,-1,10,65,-9999,1425085187.315748,22.62807083129883,-34.8798828125,-9.993141174316406,260.0453186035156,246.2720794677734,10,136831.546481,0.167999267578125,-0.843170166015625,-0.5083465576171875,136831.519667875,-0.01246892022375099,0.0293714710302659,-0.01172829512459996,136831.519667875,0.169971105661044,0.302895772958038,1.015048965563439,-0.01585659757256508,0.04050186276435852,0.02784068882465363,0.009638527408242226,0.009693153202533722,-0.006646876689046621,XTrueNorthZVertical,0.4675260878749679,0.1721590269027678,0.1463949342450482,0.8546046817870588,0.1573689132928848,-0.8495063781738281,-0.50356125831604,21.39937973022461,-33.97180938720703,-11.83662796020508,2,10.3.35.51,10.83.46.32,1,0
2015-02-27 16:59:47.366,5,1425085185.020329,37.78767636913688,-122.3967090609179,12.84107,-1,-1,10,65,-9999,1425085187.315748,22.62807083129883,-34.8798828125,-9.993141174316406,260.0453186035156,246.2720794677734,10,136831.5956259583,0.1582183837890625,-0.8339385986328125,-0.5000457763671875,136831.5714494167,-0.03805790355777736,-0.005299157937039669,-0.02793203246107807,136831.5714494167,0.1715206583937043,0.3033548991221052,1.013070858888407,-0.04144983738660812,0.005836358293890953,0.01162646152079105,0.006693150382488966,0.00272747571580112,-0.0006914332625456154,XTrueNorthZVertical,0.4665010227345266,0.1727164494013884,0.1470748139586593,0.8549355737630737,0.1581017673015594,-0.8484610915184021,-0.505091667175293,21.40989685058594,-33.96560287475586,-11.83541870117188,2,10.3.35.51,10.83.46.32,1,0
2015-02-27 16:59:47.435,6,1425085185.020329,37.78767636913688,-122.3967090609179,12.84107,-1,-1,10,65,-9999,1425085187.418853,23.12257766723633,-34.72695922851562,-10.20948028564453,259.6455078125,245.8722686767578,10,136831.644606,0.1670989990234375,-0.8436279296875,-0.5059814453125,136831.6232315417,-0.01228809158573461,-0.003965713179236993,-0.05002987792211956,136831.6232315417,0.1727159289721942,0.3024411833260981,1.011650874062828,-0.01562086027115583,0.007324995473027229,-0.0104145398363471,0.008947523310780525,0.01883604377508163,0.01178711745887995,XTrueNorthZVertical,0.4658490351005941,0.1726033707038956,0.1473087898826246,0.8552735735620315,0.1579988896846771,-0.8477087020874023,-0.5063855051994324,21.40554046630859,-33.93999862670898,-11.91646766662598,2,10.3.35.51,10.83.46.32,1,0
2015-02-27 16:59:47.464,7,1425085185.020329,37.78767636913688,-122.3967090609179,12.84107,-1,-1,10,65,-9999,1425085187.418853,23.12257766723633,-34.72695922851562,-10.20948028564453,259.6455078125,245.8722686767578,10,136831.6936471667,0.17022705078125,-0.8382110595703125,-0.508758544921875,136831.6750132084,0.01365669006992633,-0.02536607675078673,-0.01283963224749002,136831.6750132084,0.1727985203756418,0.3024944173219631,1.011253225716367,0.01032242644578218,-0.01407118327915668,0.02676755003631115,0.004257780965417624,0.005136271007359028,0.002838365267962217,XTrueNorthZVertical,0.4656654236987777,0.1726449931675024,0.1473386154031859,0.8553600202309283,0.1581262499094009,-0.8474977016448975,-0.5066988468170166,21.42465972900391,-33.92443084716797,-11.92644691467285,2,10.3.35.51,10.83.46.32,1,0
2015-02-27 16:59:47.535,8,1425085185.020329,37.78767636913688,-122.3967090609179,12.84107,-1,-1,10,65,-9999,1425085187.524549,22.9691162109375,-34.94784545898438,-10.39253234863281,259.7076721191406,245.9344177246094,10,136831.7427317083,0.168365478515625,-0.838653564453125,-0.514190673828125,136831.726795,0.01137649154460049,-0.0554254422906201,-0.02675544789148107,136831.726795,0.172582251550369,0.3019553967604199,1.011069489588323,0.008037159219384193,-0.04412472993135452,0.01283971592783928,0.0188889168202877,0.00834988709539175,-0.003473833203315735,XTrueNorthZVertical,0.4656440157254335,0.1723639176853664,0.1471123559088381,0.8554672977565814,0.157899409532547,-0.8474001884460449,-0.5069326758384705,21.4109001159668,-33.9305305480957,-11.93379974365234,2,10.3.35.51,10.83.46.32,1,0
2015-02-27 16:59:47.563,9,1425085185.020329,37.78767636913688,-122.3967090609179,12.84107,-1,-1,10,65,-9999,1425085187.524549,22.9691162109375,-34.94784545898438,-10.39253234863281,259.7076721191406,245.9344177246094,10,136831.7918765,0.16082763671875,-0.8356475830078125,-0.5078277587890625,136831.7785770417,0.02863324277609594,-0.0642682023741192,-0.013107812569261,136831.726795,0.172582251550369,0.3019553967604199,1.011069489588323,0.008037159219384193,-0.04412472993135452,0.01283971592783928,0.0188889168202877,0.00834988709539175,-0.003473833203315735,XTrueNorthZVertical,0.4656440157254335,0.1723639176853664,0.1471123559088381,0.8554672977565814,0.157899409532547,-0.8474001884460449,-0.5069326758384705,21.4109001159668,-33.9305305480957,-11.93379974365234,2,10.3.35.51,10.83.46.32,1,0
2015-02-27 16:59:47.635,10,1425085185.020329,37.78767636913688,-122.3967090609179,12.84107,-1,-1,10,65,-9999,1425085187.627161,22.71334075927734,-35.134765625,-10.60887908935547,259.7393188476562,245.9660797119141,10,136831.840849625,0.1641082763671875,-0.8461761474609375,-0.5125885009765625,136831.8303586667,0.03954607797491363,-0.04238873612246421,-0.02346511236468817,136831.8303586667,0.1735154518062695,0.2970422836754879,1.012791064893084,0.03634392097592354,-0.0310049019753933,0.01616657711565495,0.004352604504674673,0.006012586876749992,-0.00484758336097002,XTrueNorthZVertical,0.4666717015819524,0.170482337226646,0.146442620843275,0.8553992440548741,0.1549796760082245,-0.8483129739761353,-0.5063065886497498,21.34388732910156,-33.95124435424805,-11.99477577209473,2,10.3.35.51,10.83.46.32,1,0
2015-02-27 16:59:47.660,11,1425085185.020329,37.78767636913688,-122.3967090609179,12.84107,-1,-1,10,65,-9999,1425085187.627161,22.71334075927734,-35.134765625,-10.60887908935547,259.7393188476562,245.9660797119141,10,136831.890003,0.1493377685546875,-0.8442535400390625,-0.50390625,136831.8821402917,0.0398036056523243,-0.08474444904741144,-0.02728941169004195,136831.8303586667,0.1735154518062695,0.2970422836754879,1.012791064893084,0.03634392097592354,-0.0310049019753933,0.01616657711565495,0.004352604504674673,0.006012586876749992,-0.00484758336097002,XTrueNorthZVertical,0.4666717015819524,0.170482337226646,0.146442620843275,0.8553992440548741,0.1549796760082245,-0.8483129739761353,-0.5063065886497498,21.34388732910156,-33.95124435424805,-11.99477577209473,2,10.3.35.51,10.83.46.32,1,0
2015-02-27 16:59:47.735,12,1425085185.020329,37.78767636913688,-122.3967090609179,12.84107,-1,-1,10,65,-9999,1425085187.730909,23.2930908203125,-34.8968505859375,-10.40918731689453,259.8109130859375,246.0376586914062,10,136831.9389739167,0.14837646484375,-0.843048095703125,-0.5083770751953125,136831.9339225,0.02231622467042798,-0.03727812999060216,-0.03090305497317047,136831.8821402917,0.1734559095068244,0.2946771285996735,1.013514991216058,0.0365946963429451,-0.07335978001356125,0.01233781594783068,-0.005669386126101017,0.004488331265747547,-0.004185217432677746,XTrueNorthZVertical,0.4671637318297358,0.169458176985306,0.1458964137421355,0.8554275087145998,0.1536033451557159,-0.8486961126327515,-0.5060839653015137,21.32775115966797,-33.96416854858398,-11.9868860244751,2,10.3.35.51,10.83.46.32,1,0
2015-02-27 16:59:47.759,13,1425085185.020329,37.78767636913688,-122.3967090609179,12.84107,-1,-1,10,65,-9999,1425085187.730909,23.2930908203125,-34.8968505859375,-10.40918731689453,259.8109130859375,246.0376586914062,10,136831.9880290417,0.16143798828125,-0.8420867919921875,-0.5102386474609375,136831.9857043333,0.01371554593001709,-0.03818893108340925,-0.04554298411755406,136831.9339225,0.1738880009281036,0.2919334115553516,1.014843824843378,0.01910490542650223,-0.02589554712176323,0.008726232685148716,-0.008975687436759472,0.01002741232514381,-0.0001159595703938976,XTrueNorthZVertical,0.4679036092286744,0.1683886042520536,0.1454966905290093,0.8553024118793791,0.1518895030021667,-0.849398136138916,-0.5054230093955994,21.26168060302734,-33.99348068237305,-12.0211181640625,2,10.3.35.51,10.83.46.32,1,0
2015-02-27 16:59:47.835,14,1425085185.020329,37.78767636913688,-122.3967090609179,12.84107,-1,-1,10,65,-9999,1425085187.783505,22.91795349121094,-35.37265014648438,-10.54232025146484,259.8428344726562,246.069580078125,10,136832.0370915,0.1480255126953125,-0.8475494384765625,-0.5034637451171875,136832.0374858333,-0.007146326469118628,-0.04049176647800077,-0.04177780696840003,136831.9857043333,0.1731265152679695,0.2917952492856637,1.014782850720836,0.01060197409242392,-0.02670384012162685,-0.005847163964062929,0.009313498623669147,0.009903679601848125,-0.004241544753313065,XTrueNorthZVertical,0.4679512652098688,0.1681512180331344,0.1451361095018294,0.8553843015124147,0.1518345773220062,-0.8493659496307373,-0.5054935812950134,21.24358558654785,-34.00274658203125,-12.02689743041992,2,10.3.35.51,10.83.46.32,1,0
2015-02-27 16:59:47.857,15,1425085185.020329,37.78767636913688,-122.3967090609179,12.84107,-1,-1,10,65,-9999,1425085187.83452,22.38935089111328,-35.3896484375,-10.72537994384766,259.8575744628906,246.0843200683594,10,136832.08625475,0.1430206298828125,-0.8534393310546875,-0.50494384765625,136832.0374858333,-0.007146326469118628,-0.04049176647800077,-0.04177780696840003,136832.0374858333,0.1724116162945048,0.2910072323414162,1.0144490207483,-0.01026161573827267,-0.02900566160678864,-0.002084926469251513,-0.003492020070552826,0.001640276750549674,0.002420902717858553,XTrueNorthZVertical,0.4679235413411128,0.1676461616186408,0.1446317654583839,0.8555840044475304,0.1515175402164459,-0.8491896986961365,-0.5058846473693848,21.25544357299805,-33.98818588256836,-12.04709148406982,2,10.3.35.51,10.83.46.32,1,0
2015-02-27 16:59:47.936,16,1425085185.020329,37.78767636913688,-122.3967090609179,12.84107,-1,-1,10,65,-9999,1425085187.88699,22.08241271972656,-35.3896484375,-10.52567291259766,259.8605346679688,246.0872955322266,10,136832.1352038333,0.137237548828125,-0.8464202880859375,-0.499481201171875,136832.1410496667,-0.02087359030793206,-0.005199289396161696,-0.0438670568435672,136832.089268,0.1729474609409981,0.2895198243639895,1.014246188424706,-0.005432830657809973,-0.01459715515375137,0.003662721253931522,-0.00779344979673624,-0.004356746561825275,0.001330673112533987,XTrueNorthZVertical,0.467898204034169,0.1671347070374604,0.1445044564826687,0.8557194252291471,0.1508140861988068,-0.8490825891494751,-0.5062745213508606,21.24402809143066,-33.97639465332031,-12.10037231445312,2,10.3.35.51,10.83.46.32,1,0
2015-02-27 16:59:47.954,17,1425085185.020329,37.78767636913688,-122.3967090609179,12.84107,-1,-1,10,65,-9999,1425085187.938216,22.40640258789062,-35.13473510742188,-11.00827789306641,259.8891906738281,246.1159515380859,10,136832.1842489583,0.1599884033203125,-0.84967041015625,-0.5142822265625,136832.1410496667,-0.02087359030793206,-0.005199289396161696,-0.0438670568435672,136832.1410496667,0.1730538984747099,0.2890175518816586,1.013168906278197,-0.02392284572124481,0.006385209038853645,-0.004129097796976566,-0.01358283590525389,0.002092718612402678,0.007745475042611361,XTrueNorthZVertical,0.4674580725978055,0.1669419426938553,0.1443872868216313,0.8560173256598174,0.1508203893899918,-0.8485130071640015,-0.5072267055511475,21.24108505249023,-33.96723175048828,-12.13122177124023,2,10.3.35.51,10.83.46.32,1,0
2015-02-27 16:59:48.037,18,1425085185.020329,37.78767636913688,-122.3967090609179,12.84107,-1,-1,10,65,-9999,1425085187.990493,22.4234504699707,-35.42361450195312,-11.05820465087891,259.9154357910156,246.1421813964844,10,136832.2333140417,0.150543212890625,-0.845001220703125,-0.5048675537109375,136832.1928313333,-0.01598748865596368,-0.001509479705856912,-0.05008527167279321,136832.1928313333,0.1729606587557959,0.2901508987316619,1.012350290731666,-0.01903758570551872,0.01007505320012569,-0.01034825015813112,0.008394577540457249,-0.001590878237038851,-0.006561405956745148,XTrueNorthZVertical,0.4670286448446535,0.1674032095644599,0.1445776698514384,0.8561294995473313,0.1515938192605972,-0.84807950258255,-0.5077208280563354,21.23552894592285,-33.96123123168945,-12.1577205657959,2,10.3.35.51,10.83.46.32,1,0
2015-02-27 16:59:48.054,19,1425085185.020329,37.78767636913688,-122.3967090609179,12.84107,-1,-1,10,65,-9999,1425085188.042419,22.38935089111328,-35.35563659667969,-11.05820465087891,259.9407043457031,246.1674499511719,10,136832.2823653333,0.15362548828125,-0.837921142578125,-0.5052490234375,136832.2446135833,-0.01352086885433229,-0.002799781254000303,-0.04638720618310918,136832.2446135833,0.1724734566842664,0.2909445274691958,1.011426126616208,-0.01657135970890522,0.00878556352108717,-0.006652340292930603,-0.000671190267894417,0.008768072351813316,0.001423470093868673,XTrueNorthZVertical,0.4666108543213435,0.1676270576916266,0.1445151505456538,0.8563240413036836,0.1522214859724045,-0.8475894927978516,-0.5083509683609009,21.27247047424316,-33.93388366699219,-12.16950225830078,2,10.3.35.51,10.83.46.32,1,0
2015-02-27 16:59:48.134,20,1425085185.020329,37.78767636913688,-122.3967090609179,12.84107,-1,-1,10,65,-9999,1425085188.093171,22.30409240722656,-35.20271301269531,-10.67545318603516,259.9498901367188,246.1766510009766,10,136832.331432875,0.15655517578125,-0.84271240234375,-0.5078887939453125,136832.2963954583,0.008608668223681138,-0.004524444375935618,-0.02558871701791735,136832.2963954583,0.1729521921687215,0.2908298519129167,1.011034589091885,0.005605095066130161,0.007145251147449017,0.0141487130895257,-0.002279698383063078,0.005020198412239552,0.004078146535903215,XTrueNorthZVertical,0.4664089943071056,0.1676886983032425,0.1446767480761723,0.8563946528030484,0.1522583365440369,-0.8473816514015198,-0.5086863040924072,21.27848815917969,-33.92422866821289,-12.18588256835938,2,10.3.35.51,10.83.46.32,1,0
2015-02-27 16:59:48.152,21,1425085185.020329,37.78767636913688,-122.3967090609179,12.84107,-1,-1,10,65,-9999,1425085188.145602,22.49166488647461,-35.1517333984375,-10.62551879882812,259.9605712890625,246.1873168945312,10,136832.3804790833,0.1491851806640625,-0.83758544921875,-0.503631591796875,136832.3481769583,0.001285507858181248,-0.01281433221713427,-0.0339289386037185,136832.3481769583,0.1729687687583773,0.2914918602623196,1.011222194369478,-0.001718408311717212,-0.001143692061305046,0.005806244444102049,0.00612677913159132,0.003532884875312448,-0.00015758111840114,XTrueNorthZVertical,0.466441152297733,0.1679764652691583,0.1448462129147669,0.8562920912024375,0.1525493711233139,-0.8474812507629395,-0.5084331035614014,21.27679634094238,-33.92755508422852,-12.1795654296875,2,10.3.35.51,10.83.46.32,1,0
2015-02-27 16:59:48.235,22,1425085185.020329,37.78767636913688,-122.3967090609179,12.84107,-1,-1,10,65,-9999,1425085188.197899,22.61102294921875,-35.40664672851562,-10.309326171875,259.9518127441406,246.1785736083984,10,136832.4295459167,0.1633148193359375,-0.8421173095703125,-0.511383056640625,136832.3999593333,0.01969141310004589,-0.01049045784993113,-0.03769038732734642,136832.3999593333,0.1726977082450353,0.2917390318481718,1.011746621149933,0.0166859645396471,0.001181209576316178,0.002041959902271628,-0.001729312469251454,0.01038768514990807,0.002919004531577229,XTrueNorthZVertical,0.466673722690989,0.1680202506998396,0.1448101842793608,0.8561628669395949,0.1525471806526184,-0.847759485244751,-0.5079696774482727,21.28728675842285,-33.93019104003906,-12.15387535095215,2,10.3.35.51,10.83.46.32,1,0
2015-02-27 16:59:48.249,23,1425085185.020329,37.78767636913688,-122.3967090609179,12.84107,-1,-1,10,65,-9999,1425085188.197899,22.61102294921875,-35.40664672851562,-10.309326171875,259.9518127441406,246.1785736083984,10,136832.4785921667,0.1495208740234375,-0.8421173095703125,-0.5045928955078125,136832.451740875,0.02346697657745122,-0.02510828275726706,-0.03488181764174885,136832.451740875,0.1713813957831123,0.2931461599583719,1.012062075856496,0.02049583569169044,-0.01333346404135227,0.004816294647753239,0.01270902995020151,0.005748435854911804,-0.003640454728156328,XTrueNorthZVertical,0.4668195444555416,0.1683160190716395,0.1445886446409653,0.856062711938697,0.1531845182180405,-0.8479267954826355,-0.5074984431266785,21.29658317565918,-33.93320846557617,-12.12913703918457,2,10.3.35.51,10.83.46.32,1,0
2015-02-27 16:59:48.333,24,1425085185.020329,37.78767636913688,-122.3967090609179,12.84107,-1,-1,10,65,-9999,1425085188.30092,22.57691955566406,-35.44062805175781,-10.309326171875,259.9466247558594,246.1733703613281,10,136832.527658125,0.155792236328125,-0.840576171875,-0.50457763671875,136832.5035226667,0.03198163521465256,-0.01286839438726288,-0.04743808954925444,136832.5035226667,0.1706588887638327,0.2931787768749539,1.013455737840596,0.02900954708456993,-0.001093470607884228,-0.007741009816527367,-0.004101480357348919,0.008943076245486736,0.003187844762578607,XTrueNorthZVertical,0.4674828270000059,0.1681635216216502,0.1443471841535899,0.8557714292821238,0.1528594195842743,-0.8486647605895996,-0.5063616633415222,21.3084716796875,-33.92987060546875,-12.11759185791016,2,10.3.35.51,10.83.46.32,1,0
2015-02-27 16:59:48.347,25,1425085185.020329,37.78767636913688,-122.3967090609179,12.84107,-1,-1,10,65,-9999,1425085188.30092,22.57691955566406,-35.44062805175781,-10.309326171875,259.9466247558594,246.1733703613281,10,136832.576702,0.1566925048828125,-0.8484344482421875,-0.5095672607421875,136832.5553047917,0.011158378651323,-0.02127093394257188,-0.04107233559563804,136832.5035226667,0.1706588887638327,0.2931787768749539,1.013455737840596,0.02900954708456993,-0.001093470607884228,-0.007741009816527367,-0.004101480357348919,0.008943076245486736,0.003187844762578607,XTrueNorthZVertical,0.4674828270000059,0.1681635216216502,0.1443471841535899,0.8557714292821238,0.1528594195842743,-0.8486647605895996,-0.5063616633415222,21.3084716796875,-33.92987060546875,-12.11759185791016,2,10.3.35.51,10.83.46.32,1,0
2015-02-27 16:59:48.407,26,1425085185.020329,37.78767636913688,-122.3967090609179,12.84107,-1,-1,10,65,-9999,1425085188.404415,22.90090560913086,-35.3216552734375,-10.15955352783203,259.952392578125,246.1791534423828,10,136832.6257755834,0.1598358154296875,-0.843719482421875,-0.5078887939453125,136832.6070865833,0.02585529944303428,-0.01524073828630546,-0.04736698314814933,136832.6070865833,0.168306062555035,0.2945161448665304,1.014791967068397,0.02287855930626392,-0.003463019849732518,-0.007677401881664991,0.006796506233513355,0.008962445892393589,-0.0002083848812617362,XTrueNorthZVertical,0.4681640641662116,0.1681868929346544,0.1437114586901164,0.8555013775572038,0.1532071530818939,-0.8493707776069641,-0.5050711631774902,21.30667495727539,-33.9527587890625,-12.05648422241211,2,10.3.35.51,10.83.46.32,1,0
2015-02-27 16:59:48.445,27,1425085185.020329,37.78767636913688,-122.3967090609179,12.84107,-1,-1,10,65,-9999,1425085188.404415,22.90090560913086,-35.3216552734375,-10.15955352783203,259.952392578125,246.1791534423828,10,136832.6748171667,0.1533050537109375,-0.8431549072265625,-0.5048370361328125,136832.658868125,0.007529821666090038,-0.02980183786242271,-0.03595773472214087,136832.658868125,0.1669300387301817,0.29526392345171,1.015281794017222,0.004562084563076496,-0.01789756864309311,0.003674847539514303,0.002267490839585662,0.00264433491975069,-0.00313208089210093,XTrueNorthZVertical,0.4684385603846073,0.1681848409344281,0.1433194642486947,0.8554172770554014,0.1534637063741684,-0.8496292233467102,-0.5045583248138428,21.32621765136719,-33.94714736938477,-12.03772163391113,2,10.3.35.51,10.83.46.32,1,0
2015-02-27 16:59:48.539,28,1425085185.020329,37.78767636913688,-122.3967090609179,12.84107,-1,-1,10,65,-9999,1425085188.509721,22.83270263671875,-35.3216552734375,-10.42581939697266,259.9867858886719,246.2135467529297,10,136832.7239004167,0.15557861328125,-0.8410491943359375,-0.5043487548828125,136832.7106505,0.02469602542052279,-0.02617887351547891,-0.04464230303688926,136832.7106505,0.1661959141571779,0.2950442122224168,1.015831577767541,0.0217276643961668,-0.01427323184907436,-0.005012764595448971,0.007793743629008532,0.006397896911948919,0.0002540588611736894,XTrueNorthZVertical,0.4687543799718917,0.1679190466139001,0.1429782068790076,0.855353593370521,0.1532170027494431,-0.8499190211296082,-0.5041450262069702,21.32515907287598,-33.95046997070312,-12.03022384643555,2,10.3.35.51,10.83.46.32,1,0
2015-02-27 16:59:48.545,29,1425085185.020329,37.78767636913688,-122.3967090609179,12.84107,-1,-1,10,65,-9999,1425085188.509721,22.83270263671875,-35.3216552734375,-10.42581939697266,259.9867858886719,246.2135467529297,10,136832.7729519167,0.15625,-0.849609375,-0.5020599365234375,136832.7624320417,0.01488946733852401,-0.02861460064846538,-0.03844752402525595,136832.7106505,0.1661959141571779,0.2950442122224168,1.015831577767541,0.0217276643961668,-0.01427323184907436,-0.005012764595448971,0.007793743629008532,0.006397896911948919,0.0002540588611736894,XTrueNorthZVertical,0.4687543799718917,0.1679190466139001,0.1429782068790076,0.855353593370521,0.1532170027494431,-0.8499190211296082,-0.5041450262069702,21.32515907287598,-33.95046997070312,-12.03022384643555,2,10.3.35.51,10.83.46.32,1,0
2015-02-27 16:59:48.639,30,1425085185.020329,37.78767636913688,-122.3967090609179,12.84107,-1,-1,10,65,-9999,1425085188.612488,22.78154373168945,-35.30465698242188,-10.60887145996094,260.038818359375,246.2655639648438,10,136832.8220175834,0.153961181640625,-0.842437744140625,-0.50201416015625,136832.8142139167,0.008795355816095692,-0.03693458220998193,-0.04556562098681973,136832.8142139167,0.1636015368510769,0.2956886523830542,1.016847086904776,0.00582854775711894,-0.02493474818766117,-0.005980511661618948,-0.0004124647821299732,0.005193041637539864,-0.000472323881695047,XTrueNorthZVertical,0.4693663313376822,0.1675860837668814,0.142064795084967,0.8552354984590521,0.1532902717590332,-0.8504536747932434,-0.5032203197479248,21.34242630004883,-33.94637298583984,-12.01114749908447,2,10.3.35.51,10.83.46.32,1,0
2015-02-27 16:59:48.643,31,1425085185.020329,37.78767636913688,-122.3967090609179,12.84107,-1,-1,10,65,-9999,1425085188.612488,22.78154373168945,-35.30465698242188,-10.60887145996094,260.038818359375,246.2655639648438,10,136832.8710761667,0.15155029296875,-0.8488311767578125,-0.4999542236328125,136832.8142139167,0.008795355816095692,-0.03693458220998193,-0.04556562098681973,136832.8142139167,0.1636015368510769,0.2956886523830542,1.016847086904776,0.00582854775711894,-0.02493474818766117,-0.005980511661618948,-0.0004124647821299732,0.005193041637539864,-0.000472323881695047,XTrueNorthZVertical,0.4693663313376822,0.1675860837668814,0.142064795084967,0.8552354984590521,0.1532902717590332,-0.8504536747932434,-0.5032203197479248,21.34242630004883,-33.94637298583984,-12.01114749908447,2,10.3.35.51,10.83.46.32,1,0
2015-02-27 16:59:48.708,32,1425085185.020329,37.78767636913688,-122.3967090609179,12.84107,-1,-1,10,65,-9999,1425085188.66413,23.08847808837891,-35.44059753417969,-10.20948028564453,260.0547790527344,246.2815246582031,10,136832.9201577083,0.1538238525390625,-0.8457794189453125,-0.497802734375,136832.917777875,0.02112738955981661,-0.04442765225302887,-0.03805923513832239,136832.865996,0.1625750943417169,0.2955741146624895,1.017536820269281,0.01926400139927864,-0.01290708221495152,-0.007533419877290726,-0.001267297426238656,0.00174097646959126,0.0001283708843402565,XTrueNorthZVertical,0.4697593454514798,0.1672957352435668,0.1416296865020567,0.8551487230443561,0.1530617326498032,-0.8508163094520569,-0.5026766061782837,21.34268760681152,-33.94472503662109,-12.01533985137939,2,10.3.35.51,10.83.46.32,1,0
2015-02-27 16:59:48.739,33,1425085185.020329,37.78767636913688,-122.3967090609179,12.84107,-1,-1,10,65,-9999,1425085188.715564,23.15668487548828,-35.4066162109375,-10.34261322021484,260.072021484375,246.2987823486328,10,136832.9691955833,0.1517181396484375,-0.8555145263671875,-0.49835205078125,136832.9695594167,0.0050885018948144,-0.03326581149228877,-0.0456516410900293,136832.917777875,0.1613579662402417,0.2956686358116863,1.018081155222319,0.0181604940444231,-0.03242556378245354,0.001520900870673358,0.006693693809211254,0.004987083375453949,0.0008914970094338059,XTrueNorthZVertical,0.4700902942311208,0.1670497214250229,0.1411557782247312,0.8550933074279338,0.1529742777347565,-0.8511021733283997,-0.502219021320343,21.34578323364258,-33.94720840454102,-12.0028247833252,2,10.3.35.51,10.83.46.32,1,0
2015-02-27 16:59:48.838,34,1425085185.020329,37.78767636913688,-122.3967090609179,12.84107,-1,-1,10,65,-9999,1425085188.819212,23.02027130126953,-35.54255676269531,-10.509033203125,260.1112670898438,246.3380126953125,10,136833.018269375,0.1515350341796875,-0.847869873046875,-0.5030059814453125,136833.0213417917,0.01240127593206298,-0.02474742442956132,-0.05199582343881606,136832.9695594167,0.1607927088413933,0.2948325688448762,1.019019989810175,0.002123731188476086,-0.02126399986445904,-0.006070977076888084,-0.0006039399886503816,-0.003919817507266998,0.003229894675314426,XTrueNorthZVertical,0.4706031465116091,0.1665584153077275,0.1407593777997926,0.8549723870615465,0.1523220837116241,-0.8515946865081787,-0.5015819668769836,21.34532737731934,-33.94705581665039,-12.00405693054199,2,10.3.35.51,10.83.46.32,1,0
2015-02-27 16:59:48.840,35,1425085185.020329,37.78767636913688,-122.3967090609179,12.84107,-1,-1,10,65,-9999,1425085188.819212,23.02027130126953,-35.54255676269531,-10.509033203125,260.1112670898438,246.3380126953125,10,136833.067320375,0.14385986328125,-0.8498687744140625,-0.4994964599609375,136833.0213417917,0.01240127593206298,-0.02474742442956132,-0.05199582343881606,136833.0213417917,0.1607429318739219,0.29358906944213,1.019531425630374,0.009439091198146343,-0.01257169526070356,-0.01249197591096163,-3.715159618877806e-05,0.00399281969293952,-0.001651976956054568,XTrueNorthZVertical,0.4709162776871064,0.1660146293768696,0.1404681082071904,0.8549536391592392,0.1515721827745438,-0.8518626689910889,-0.5013539791107178,21.31449890136719,-33.9658317565918,-12.00572967529297,2,10.3.35.51,10.83.46.32,1,0
2015-02-27 16:59:48.908,36,1425085185.020329,37.78767636913688,-122.3967090609179,12.84107,-1,-1,10,65,-9999,1425085188.871509,23.00321960449219,-35.59353637695312,-10.09298706054688,260.1212158203125,246.3479766845703,10,136833.11651225,0.1501617431640625,-0.8499908447265625,-0.4985504150390625,136833.1249052083,0.01366707639817764,-0.02873710605860903,-0.02987986848236203,136833.073123375,0.1611776450906167,0.2919572940671424,1.019592271585148,0.007026706822216511,-0.01882287301123142,0.001126530929468572,-0.006879104766994715,0.002025785623118281,0.002054568845778704,XTrueNorthZVertical,0.4710211441393711,0.1654193682626859,0.140272370320576,0.8550433841593138,0.1507389694452286,-0.8518945574760437,-0.5015510320663452,21.30306625366211,-33.96607971191406,-12.02530670166016,2,10.3.35.51,10.83.46.32,1,0
2015-02-27 16:59:48.937,37,1425085185.020329,37.78767636913688,-122.3967090609179,12.84107,-1,-1,10,65,-9999,1425085188.923835,22.96912002563477,-35.72946166992188,-9.993133544921875,260.1116333007812,246.3383941650391,10,136833.16545925,0.1534576416015625,-0.8498077392578125,-0.497833251953125,136833.1249052083,0.01366707639817764,-0.02873710605860903,-0.02987986848236203,136833.1249052083,0.1613372998289272,0.2908067541064636,1.019760047096735,0.01070148218423128,-0.01656286045908928,0.009624209254980087,4.091203663847409e-05,0.00199156953021884,0.003036779817193747,XTrueNorthZVertical,0.471161282421703,0.1649649916507732,0.1400769559524549,0.8550859934417376,0.1501208245754242,-0.8519824147224426,-0.5015872120857239,21.28731536865234,-33.97122955322266,-12.0386381149292,2,10.3.35.51,10.83.46.32,1,0
2015-02-27 16:59:48.995,38,1425085185.020329,37.78767636913688,-122.3967090609179,12.84107,-1,-1,10,65,-9999,1425085188.975428,23.27605056762695,-35.93338012695312,-10.15955352783203,260.1098022460938,246.3365478515625,10,136833.2146545,0.147552490234375,-0.848297119140625,-0.4947662353515625,136833.1766875,0.02095508303728848,-0.01652518088005068,-0.03998656481921273,136833.1766875,0.1602309444390791,0.2916041820298756,1.020560151617868,0.0179901085793972,-0.004350752104073763,-0.0004832720151171088,0.005192837212234735,0.003493581898510456,0.0006464205216616392,XTrueNorthZVertical,0.4715433523274311,0.1650446402557069,0.1398268986729263,0.854900920749847,0.150324746966362,-0.852401077747345,-0.5008142590522766,21.27294921875,-33.98093032836914,-12.03664970397949,2,10.3.35.51,10.83.46.32,1,0
2015-02-27 16:59:49.040,39,1425085185.020329,37.78767636913688,-122.3967090609179,12.84107,-1,-1,10,65,-9999,1425085189.028307,23.37836456298828,-35.593505859375,-10.49238586425781,260.13330078125,246.3600463867188,10,136833.2635982917,0.1483917236328125,-0.84423828125,-0.5036773681640625,136833.22846925,0.01979021637648783,-0.0252475660822782,-0.02386245599932799,136833.22846925,0.1608395295907846,0.2901498916949968,1.021127018078448,0.01681820303201675,-0.01296003069728613,0.01558818574994802,-0.004575785715132952,0.008993100374937057,0.003010678803548217,XTrueNorthZVertical,0.4718403732947595,0.1645661747972453,0.1397687810817418,0.8548387779981328,0.1494579911231995,-0.8526973128318787,-0.5005692839622498,21.27030754089355,-33.9844970703125,-12.03125381469727,2,10.3.35.51,10.83.46.32,1,0
2015-02-27 16:59:49.093,40,1425085185.020329,37.78767636913688,-122.3967090609179,12.84107,-1,-1,10,65,-9999,1425085189.078902,23.1396369934082,-35.28762817382812,-9.926567077636719,260.154541015625,246.3813018798828,10,136833.3127702083,0.144195556640625,-0.8441619873046875,-0.49945068359375,136833.2802507917,0.02339507122801908,-0.01304176617422704,-0.03151664728832473,136833.2802507917,0.1607963574387691,0.2902362524857048,1.021890368969491,0.02042074128985405,-0.0007548945141024888,0.007933856919407845,0.00603483384475112,0.01134475506842136,0.0002834858023561537,XTrueNorthZVertical,0.4721684578788924,0.1645924681106053,0.1398038701876949,0.8546468024855779,0.1493148952722549,-0.8530958294868469,-0.4999325275421143,21.25069808959961,-33.99923324584961,-12.02426719665527,2,10.3.35.51,10.83.46.32,1,0
2015-02-27 16:59:49.137,41,1425085185.020329,37.78767636913688,-122.3967090609179,12.84107,-1,-1,10,65,-9999,1425085189.13056,23.25899887084961,-35.47453308105469,-9.909919738769531,260.1632690429688,246.3900299072266,10,136833.3617357917,0.1529693603515625,-0.849334716796875,-0.499481201171875,136833.3320330417,0.03686693791829392,-0.009159676253218531,-0.05487976058326286,136833.3320330417,0.1598560048952387,0.2906566425017864,1.022711882693385,0.03388969600200653,0.003127426840364933,-0.01543114706873894,-0.004670835565775633,0.01053713355213404,0.0006934774573892355,XTrueNorthZVertical,0.4725721510189877,0.1645493968662862,0.1395371225195761,0.8544755478092618,0.1493241488933563,-0.8535242080688477,-0.4991981089115143,21.25114822387695,-34.00996017456055,-11.99309062957764,2,10.3.35.51,10.83.46.32,1,0
2015-02-27 16:59:49.191,42,1425085185.020329,37.78767636913688,-122.3967090609179,12.84107,-1,-1,10,65,-9999,1425085189.182546,23.65119171142578,-35.69546508789062,-9.593727111816406,260.1706237792969,246.3973693847656,10,136833.4109090417,0.1519622802734375,-0.8464508056640625,-0.5010986328125,136833.3838149583,0.02708781039552296,-0.01534593314936359,-0.04125050107256435,136833.3838149583,0.1584697721732092,0.2919376529240493,1.023532294822901,0.02407393418252468,-0.002941248705610633,-0.00185472599696368,0.003024329664185643,0.002251555910333991,-0.001160820014774799,XTrueNorthZVertical,0.4729520872635596,0.1647680283037891,0.1392837052625736,0.8542645267965916,0.1497619301080704,-0.8539513945579529,-0.4983356297016144,21.26175880432129,-34.0161018371582,-11.95682430267334,2,10.3.35.51,10.83.46.32,1,0
2015-02-27 16:59:49.236,43,1425085185.020329,37.78767636913688,-122.3967090609179,12.84107,-1,-1,10,65,-9999,1425085189.182546,23.65119171142578,-35.69546508789062,-9.593727111816406,260.1706237792969,246.3973693847656,10,136833.4598450833,0.153717041015625,-0.851959228515625,-0.4969024658203125,136833.4355965417,0.03319417245896564,-0.01043506409925748,-0.04872466267187173,136833.4355965417,0.1564754737991478,0.2936601152288286,1.024365145347189,0.03017674759030342,0.001970586134120822,-0.009332196786999702,0.005927404388785362,0.01022247783839703,-0.002268305048346519,XTrueNorthZVertical,0.4733571118734207,0.1650304330818597,0.1388763948387399,0.85405582958318,0.1504141539335251,-0.8543844819068909,-0.4973959922790527,21.27343940734863,-34.01557159423828,-11.93752861022949,2,10.3.35.51,10.83.46.32,1,0
2015-02-27 16:59:49.289,44,1425085185.020329,37.78767636913688,-122.3967090609179,12.84107,-1,-1,10,65,-9999,1425085189.234188,23.68529510498047,-35.55952453613281,-9.926567077636719,260.1868896484375,246.4136352539062,10,136833.5089243333,0.156646728515625,-0.8465423583984375,-0.5006256103515625,136833.4873790417,0.05034572882740296,-0.004387824212014553,-0.05747075000780096,136833.4873790417,0.1546262380786712,0.2955860049064534,1.025854276730555,0.04732540249824524,0.008018308319151402,-0.01808052882552147,0.003784144064411521,0.008172468282282352,-0.001228354754857719,XTrueNorthZVertical,0.4740203569295026,0.1654111065187695,0.1386099317381419,0.8536575227648162,0.1510010063648224,-0.8551573157310486,-0.4958877265453339,21.30465507507324,-34.02081298828125,-11.86672592163086,2,10.3.35.51,10.83.46.32,1,0
2015-02-27 16:59:49.337,45,1425085185.020329,37.78767636913688,-122.3967090609179,12.84107,-1,-1,10,65,-9999,1425085189.286399,23.63414001464844,-35.78042602539062,-9.710220336914062,260.2027282714844,246.4294738769531,10,136833.55795875,0.167449951171875,-0.8498382568359375,-0.4949951171875,136833.5391605417,0.03935646090529999,-0.0141059653458227,-0.04986635983118869,136833.5391605417,0.1516400909735905,0.2984556809864201,1.026799650248649,0.03628358617424965,-0.001582919503562152,-0.01052395720034838,0.00806216336786747,0.005000028759241104,-0.004084593616425991,XTrueNorthZVertical,0.4744779269530681,0.1659246052312765,0.1380592248994525,0.8533928666950986,0.1521856337785721,-0.8556470274925232,-0.4946794509887695,21.34129524230957,-34.01944351196289,-11.80463600158691,2,10.3.35.51,10.83.46.32,1,0
2015-02-27 16:59:49.388,46,1425085185.020329,37.78767636913688,-122.3967090609179,12.84107,-1,-1,10,65,-9999,1425085189.337706,23.39540863037109,-35.71244812011719,-9.676933288574219,260.2078552246094,246.4346160888672,10,136833.6071411667,0.1504364013671875,-0.8516693115234375,-0.4926910400390625,136833.5909424583,0.04690838680843769,-0.04229978654205557,-0.03326634412450679,136833.5909424583,0.1496397662881126,0.2996589971677615,1.028254490881954,0.04383372887969017,-0.02977389469742775,0.006070181261748075,0.007895681075751781,0.002624038141220808,-8.686520595801994e-05,XTrueNorthZVertical,0.4751896543471337,0.1659570813108777,0.1375590487405996,0.8530712514008197,0.1524131596088409,-0.8563990592956543,-0.4933060705661774,21.36709594726562,-34.01335525512695,-11.77548599243164,2,10.3.35.51,10.83.46.32,1,0
2015-02-27 16:59:49.436,47,1425085185.020329,37.78767636913688,-122.3967090609179,12.84107,-1,-1,10,65,-9999,1425085189.390686,23.4636116027832,-35.848388671875,-9.277534484863281,260.2022399902344,246.4289855957031,10,136833.6560749167,0.158294677734375,-0.8570556640625,-0.4978790283203125,136833.642724625,0.04065874667834874,-0.02517938915837217,-0.0398036056523243,136833.5909424583,0.1496397662881126,0.2996589971677615,1.028254490881954,0.04383372887969017,-0.02977389469742775,0.006070181261748075,0.007895681075751781,0.002624038141220808,-8.686520595801994e-05,XTrueNorthZVertical,0.4751896543471337,0.1659570813108777,0.1375590487405996,0.8530712514008197,0.1524131596088409,-0.8563990592956543,-0.4933060705661774,21.36709594726562,-34.01335525512695,-11.77548599243164,2,10.3.35.51,10.83.46.32,1,0
2015-02-27 16:59:49.486,48,1425085185.020329,37.78767636913688,-122.3967090609179,12.84107,-1,-1,10,65,-9999,1425085189.442058,23.70233535766602,-35.71244812011719,-9.244239807128906,260.2008056640625,246.4275512695312,10,136833.705281875,0.1526641845703125,-0.856719970703125,-0.489654541015625,136833.6945065,0.03831969229293214,-0.043457196351804,-0.03199867944562907,136833.6945065,0.1473512932075734,0.2995996605841302,1.031879226587588,0.03517420589923859,-0.03078777343034744,0.007289770059287548,0.009406699799001217,0.0002021919644903392,0.0004472642613109201,XTrueNorthZVertical,0.4769484618651946,0.1653698635509247,0.1367385165885169,0.8523353584871967,0.1514667123556137,-0.8582649230957031,-0.4903459548950195,21.35600280761719,-34.0565299987793,-11.67034912109375,2,10.3.35.51,10.83.46.32,1,0
2015-02-27 16:59:49.538,49,1425085185.020329,37.78767636913688,-122.3967090609179,12.84107,-1,-1,10,65,-9999,1425085189.493339,23.70233917236328,-35.848388671875,-9.077827453613281,260.2044982910156,246.4312438964844,10,136833.754173125,0.155731201171875,-0.85797119140625,-0.4906005859375,136833.746288125,0.02229518569781636,-0.03472043007969005,-0.03952983269226415,136833.6945065,0.1473512932075734,0.2995996605841302,1.031879226587588,0.03517420589923859,-0.03078777343034744,0.007289770059287548,0.009406699799001217,0.0002021919644903392,0.0004472642613109201,XTrueNorthZVertical,0.4769484618651946,0.1653698635509247,0.1367385165885169,0.8523353584871967,0.1514667123556137,-0.8582649230957031,-0.4903459548950195,21.35600280761719,-34.0565299987793,-11.67034912109375,2,10.3.35.51,10.83.46.32,1,0
2015-02-27 16:59:49.584,50,1425085185.020329,37.78767636913688,-122.3967090609179,12.84107,-1,-1,10,65,-9999,1425085189.54584,23.46361923217773,-35.98432922363281,-9.344093322753906,260.2052001953125,246.4319458007812,10,136833.8033474583,0.151153564453125,-0.8621673583984375,-0.4915771484375,136833.7980705833,-0.002213086865855847,-0.04517413630657809,-0.05512343982300511,136833.746288125,0.1464375786250917,0.2992704637399634,1.033220115224894,0.01914921775460243,-0.02205057628452778,-0.0002429386368021369,0.007756068371236324,0.003544602775946259,-0.003639524569734931,XTrueNorthZVertical,0.4776250093901106,0.1650046130552407,0.1363333355274269,0.8520921675454519,0.1509658545255661,-0.8589523434638977,-0.4892956614494324,21.34858131408691,-34.06827163696289,-11.6496410369873,2,10.3.35.51,10.83.46.32,1,0
2015-02-27 16:59:49.634,51,1425085185.020329,37.78767636913688,-122.3967090609179,12.84107,-1,-1,10,65,-9999,1425085189.597596,23.25899887084961,-35.848388671875,-9.044532775878906,260.1947326660156,246.4214935302734,10,136833.8522805417,0.149322509765625,-0.854278564453125,-0.49151611328125,136833.8498522083,-0.003519900012757729,-0.03190413722693126,-0.05056330908846243,136833.7980705833,0.1449697440890322,0.2991625298494143,1.033622084789047,-0.005358561407774687,-0.03250370919704437,-0.01583796553313732,0.002982062986120582,-0.005206544883549213,-0.003297081450000405,XTrueNorthZVertical,0.4779267161007598,0.1646057971068852,0.1357010135130185,0.8521010696039785,0.1508112698793411,-0.8591580986976624,-0.4889819622039795,21.34035110473633,-34.08049011230469,-11.62895011901855,2,10.3.35.51,10.83.46.32,1,0
2015-02-27 16:59:49.682,52,1425085185.020329,37.78767636913688,-122.3967090609179,12.84107,-1,-1,10,65,-9999,1425085189.650579,23.17373657226562,-35.96733093261719,-9.227592468261719,260.1855163574219,246.4122619628906,10,136833.9014690417,0.1485443115234375,-0.8597564697265625,-0.488525390625,136833.901634125,-0.01083400563055135,-0.03934287878374058,-0.03568396176208072,136833.8498522083,0.1439854962209033,0.2983839224464228,1.032940873010429,-0.006666250992566347,-0.01923406310379505,-0.01127808354794979,-0.001218976452946663,0.002150360960513353,-0.004466826561838388,XTrueNorthZVertical,0.4777663925028406,0.1640426910484185,0.1350636193882498,0.8524007864372929,0.1506025195121765,-0.8588092923164368,-0.489658534526825,21.34696388244629,-34.06816864013672,-11.65289688110352,2,10.3.35.51,10.83.46.32,1,0
2015-02-27 16:59:49.737,53,1425085185.020329,37.78767636913688,-122.3967090609179,12.84107,-1,-1,10,65,-9999,1425085189.700646,23.39540863037109,-36.2562255859375,-9.210952758789062,260.1680603027344,246.3948059082031,10,136833.95040925,0.136199951171875,-0.8523712158203125,-0.491058349609375,136833.901634125,-0.01083400563055135,-0.03934287878374058,-0.03568396176208072,136833.901634125,0.1445033723934939,0.296762780217797,1.032057360222993,-0.01398179959505796,-0.02667334489524364,0.003601028118282557,-0.001486031454987824,-0.001400127774104476,0.002102063735947013,XTrueNorthZVertical,0.4774521007244043,0.1634801648407744,0.1348559800795741,0.8527177752029204,0.1500303447246552,-0.8583563566207886,-0.4906274676322937,21.34940338134766,-34.0511474609375,-11.69809341430664,2,10.3.35.51,10.83.46.32,1,0
2015-02-27 16:59:49.779,54,1425085185.020329,37.78767636913688,-122.3967090609179,12.84107,-1,-1,10,65,-9999,1425085189.753468,23.80465316772461,-35.678466796875,-8.977973937988281,260.1633911132812,246.3901519775391,10,136833.9994934583,0.1537628173828125,-0.8543548583984375,-0.495269775390625,136834.00519825,-0.01461995543620799,-0.0234560576169819,-0.04219432536288843,136833.9534163333,0.1460323748671194,0.2940200615019907,1.031500717501807,-0.01037652418017387,-0.01344671286642551,0.008155250921845436,-0.01262261997908354,0.005699405446648598,0.0004359677259344608,XTrueNorthZVertical,0.4772720448167092,0.1626783223867229,0.1348276699944491,0.8529763597887926,0.1488225758075714,-0.8580706119537354,-0.4914943277835846,21.31894683837891,-34.04010391235352,-11.78545379638672,2,10.3.35.51,10.83.46.32,1,0
2015-02-27 16:59:49.834,55,1425085185.020329,37.78767636913688,-122.3967090609179,12.84107,-1,-1,10,65,-9999,1425085189.804377,23.70233917236328,-35.7464599609375,-8.977973937988281,260.1600036621094,246.3867492675781,10,136834.0485375834,0.152099609375,-0.8526458740234375,-0.5030364990234375,136834.00519825,-0.01461995543620799,-0.0234560576169819,-0.04219432536288843,136834.00519825,0.1466203851192252,0.29301811688225,1.030150545924208,-0.01777086593210697,-0.01078907493501902,-0.002907156478613615,0.005098269321024418,0.003021624870598316,-0.002517879940569401,XTrueNorthZVertical,0.476708717382148,0.1623972014743665,0.1347779419067477,0.8533527209737457,0.1486645489931107,-0.8573764562606812,-0.4927518963813782,21.28976440429688,-34.04518127441406,-11.82348251342773,2,10.3.35.51,10.83.46.32,1,0
2015-02-27 16:59:49.878,56,1425085189.86202,37.7876262265869,-122.3965819179631,12.58486,-1,-1,10,65,-9999,1425085189.856483,23.54887390136719,-36.10331726074219,-9.061172485351562,260.140625,246.3673858642578,10,136834.0976187917,0.1426239013671875,-0.84771728515625,-0.4938507080078125,136834.0569798333,-0.009482717693445143,-0.06092833205105083,-0.05104321071689471,136834.0569798333,0.1458311846625435,0.2921072623940609,1.02834685557666,-0.01263772416859865,-0.04826043918728828,-0.01175947114825249,0.003438859712332487,0.00380087411031127,-0.008669265545904636,XTrueNorthZVertical,0.4760546205389129,0.1618282472623091,0.1341420963609185,0.8539259493236001,0.1486607491970062,-0.8564467430114746,-0.494367241859436,23.83047866821289,-35.78774261474609,-8.877391815185547,2,10.3.35.51,10.83.46.32,1,0
2015-02-27 16:59:49.935,57,1425085189.86202,37.7876262265869,-122.3965819179631,12.58486,-1,-1,10,65,-9999,1425085189.907924,23.31014633178711,-35.93338012695312,-9.294151306152344,260.1201477050781,246.3468933105469,10,136834.1466605,0.1387176513671875,-0.8495330810546875,-0.498565673828125,136834.108762375,-0.02179317983233642,-0.05601187036265554,-0.04869883000929796,136834.108762375,0.145948451650177,0.2898451708510278,1.026967451556339,-0.0249512754380703,-0.04334472492337227,-0.00941548403352499,-0.001044243457727134,0.007696116808801889,0.002471462823450565,XTrueNorthZVertical,0.4756002728344212,0.1608957292228068,0.1335915963096374,0.854441479848609,0.14787957072258,-0.8557338118553162,-0.4958339035511017,23.8375415802002,-35.74526596069336,-9.028278350830078,2,10.3.35.51,10.83.46.32,1,0
2015-02-27 16:59:49.975,58,1425085189.86202,37.7876262265869,-122.3965819179631,12.58486,-1,-1,10,65,-9999,1425085189.959824,23.6170768737793,-35.79743957519531,-9.593704223632812,260.125,246.3517608642578,10,136834.1957425,0.1543121337890625,-0.847442626953125,-0.4985198974609375,136834.1605439583,-0.02685318590348697,-0.03176139179250301,-0.04685538990274511,136834.1605439583,0.1463906129010503,0.2878737517358844,1.025973707140607,-0.03001305274665356,-0.01909582316875458,-0.007570560090243816,-0.001543784746900201,0.00152050401084125,0.0004643809224944562,XTrueNorthZVertical,0.4752665365598751,0.160162164377069,0.1332673937726649,0.8548155440668045,0.14714315533638,-0.8552192449569702,-0.4969395995140076,23.82173728942871,-35.73587799072266,-9.106827735900879,2,10.3.35.51,10.83.46.32,1,0
2015-02-27 16:59:50.033,59,1425085189.86202,37.7876262265869,-122.3965819179631,12.58486,-1,-1,10,65,-9999,1425085190.011507,23.80464935302734,-36.05232238769531,-9.543777465820312,260.1224975585938,246.3492584228516,10,136834.244797875,0.1456146240234375,-0.845123291015625,-0.5022735595703125,136834.2123257083,-0.01950126339821423,-0.02934270889049305,-0.0505992617631785,136834.2123257083,0.1459530254821725,0.2875227057831124,1.024182122085066,-0.02266448177397251,-0.01667672581970692,-0.01131668407469988,0.005062867421656847,0.006160071585327387,-0.002196402056142688,XTrueNorthZVertical,0.4745497550127016,0.1599145619190512,0.132917084396226,0.8553145175150374,0.1474029570817947,-0.8542893528938293,-0.4984597265720367,23.82387161254883,-35.72328948974609,-9.150518417358398,2,10.3.35.51,10.83.46.32,1,0
2015-02-27 16:59:50.074,60,1425085189.86202,37.7876262265869,-122.3965819179631,12.58486,-1,-1,10,65,-9999,1425085190.063514,23.73644256591797,-35.7464599609375,-9.676918029785156,260.1330261230469,246.3597717285156,10,136834.2939844167,0.1422119140625,-0.8491363525390625,-0.505157470703125,136834.264108125,-0.009685650568509181,-0.02815760220540778,-0.05431650201271111,136834.264108125,0.1456461940365761,0.2866939469776397,1.022736205684654,-0.0128518408164382,-0.01549212913960218,-0.01503458246588707,-0.0005493969656527042,0.008611940778791904,-0.003926618490368128,XTrueNorthZVertical,0.47400335844715,0.1594923573577026,0.1325248825472206,0.8557570752987688,0.147338941693306,-0.85353684425354,-0.4997660219669342,23.84421157836914,-35.68039703369141,-9.264193534851074,2,10.3.35.51,10.83.46.32,1,0
2015-02-27 16:59:50.134,61,1425085189.86202,37.7876262265869,-122.3965819179631,12.58486,-1,-1,10,65,-9999,1425085190.114981,23.87285995483398,-35.338623046875,-9.277511596679688,260.1378784179688,246.3646240234375,10,136834.3429265417,0.14422607421875,-0.8453369140625,-0.51263427734375,136834.31589,-0.003541205301478363,-0.02724440426761961,-0.03844912192191,136834.31589,0.146265929425388,0.2849522979952088,1.021539164606271,-0.006713707465678453,-0.01458112802356482,0.0008338851621374488,-0.006038866937160492,0.008124960586428642,-0.008809379301965237,XTrueNorthZVertical,0.4735509620319679,0.1588976878755255,0.1323245108507557,0.8561490800481362,0.1467554271221161,-0.8529125452041626,-0.5010020136833191,23.84965515136719,-35.66521835327148,-9.308516502380371,2,10.3.35.51,10.83.46.32,1,0
2015-02-27 16:59:50.172,62,1425085189.86202,37.7876262265869,-122.3965819179631,12.58486,-1,-1,10,65,-9999,1425085190.166993,24.07748413085938,-35.5765380859375,-8.711700439453125,260.1236572265625,246.3504028320312,10,136834.39209525,0.1475830078125,-0.8396759033203125,-0.5064697265625,136834.3676716667,-0.003446396766671542,-0.04190670396515987,-0.03073980319834861,136834.3676716667,0.1478876654056581,0.2822889647041497,1.020477539635914,-0.00662639643996954,-0.02924526482820511,0.008543450385332108,0.003878684248775244,0.008836735039949417,-0.01081632636487484,XTrueNorthZVertical,0.4731387081395161,0.1581440324244469,0.1323421297286053,0.8565137482027093,0.1456727087497711,-0.8523578643798828,-0.5022604465484619,23.83148574829102,-35.66066741943359,-9.372279167175293,2,10.3.35.51,10.83.46.32,1,0
2015-02-27 16:59:50.232,63,1425085189.86202,37.7876262265869,-122.3965819179631,12.58486,-1,-1,10,65,-9999,1425085190.217887,24.36736679077148,-35.55953979492188,-8.661773681640625,260.1014709472656,246.3282165527344,10,136834.4410651667,0.1452178955078125,-0.837493896484375,-0.511138916015625,136834.4194541667,0.01001082253760786,-0.03351694758308325,-0.03219894915960303,136834.3676716667,0.1478876654056581,0.2822889647041497,1.020477539635914,-0.00662639643996954,-0.02924526482820511,0.008543450385332108,0.003878684248775244,0.008836735039949417,-0.01081632636487484,XTrueNorthZVertical,0.4731387081395161,0.1581440324244469,0.1323421297286053,0.8565137482027093,0.1456727087497711,-0.8523578643798828,-0.5022604465484619,23.83148574829102,-35.66066741943359,-9.372279167175293,2,10.3.35.51,10.83.46.32,1,0
2015-02-27 16:59:50.271,64,1425085189.86202,37.7876262265869,-122.3965819179631,12.58486,-1,-1,10,65,-9999,1425085190.217887,24.36736679077148,-35.55953979492188,-8.661773681640625,260.1014709472656,246.3282165527344,10,136834.4902602917,0.1416778564453125,-0.83526611328125,-0.5186767578125,136834.471236,0.007599596486650114,-0.03972850450958406,-0.02102885259948368,136834.471236,0.1504842680750972,0.2774639192968429,1.01834119425023,0.004400087986141443,-0.02706892229616642,0.01825064048171043,-0.0003744669375009835,0.01282926369458437,-0.01540346350520849,XTrueNorthZVertical,0.4723273326136344,0.1566942261631466,0.1322229097110371,0.8572461284797502,0.1437460482120514,-0.8512386679649353,-0.5047076344490051,23.77878570556641,-35.65410614013672,-9.529766082763672,2,10.3.35.51,10.83.46.32,1,0
2015-02-27 16:59:50.334,65,1425085189.86202,37.7876262265869,-122.3965819179631,12.58486,-1,-1,10,65,-9999,1425085190.322226,24.43557357788086,-35.35563659667969,-9.194313049316406,260.1060180664062,246.3327789306641,10,136834.5392081667,0.1454315185546875,-0.8369903564453125,-0.5222015380859375,136834.5230177917,0.00650849938804465,-0.06161596024450929,-0.0155813565897266,136834.5230177917,0.1523746073036959,0.2737573402710158,1.016919673023289,0.003296015784144402,-0.04895764961838722,0.023695919662714,-0.001606840174645185,0.02094777673482895,-0.01528129819780588,XTrueNorthZVertical,0.4718080273545485,0.1555521283441861,0.1320994353954219,0.8577589825541702,0.1422013193368912,-0.8504918217658997,-0.5064014196395874,23.75288963317871,-35.65222549438477,-9.60112190246582,2,10.3.35.51,10.83.46.32,1,0
2015-02-27 16:59:50.368,66,1425085189.86202,37.7876262265869,-122.3965819179631,12.58486,-1,-1,10,65,-9999,1425085190.322226,24.43557357788086,-35.35563659667969,-9.194313049316406,260.1060180664062,246.3327789306641,10,136834.5883047917,0.1469268798828125,-0.830596923828125,-0.5207366943359375,136834.5747999584,0.01277917849074522,-0.08233508720921676,-0.01139966104608418,136834.5747999584,0.1553427171913005,0.2679446631497568,1.015908743960459,0.009553852491080761,-0.06967847049236298,0.02787616476416588,0.003583460114896297,0.01466304156929255,-0.01674723252654076,XTrueNorthZVertical,0.47152343673228,0.1537579220840664,0.1319612370757745,0.8582600970630943,0.1394829452037811,-0.849959671497345,-0.5080482959747314,23.66430473327637,-35.66085815429688,-9.78602409362793,2,10.3.35.51,10.83.46.32,1,0
2015-02-27 16:59:50.434,67,1425085189.86202,37.7876262265869,-122.3965819179631,12.58486,-1,-1,10,65,-9999,1425085190.42609,24.12863922119141,-35.52558898925781,-9.094459533691406,260.1045227050781,246.3312683105469,10,136834.6373529167,0.138946533203125,-0.8295135498046875,-0.5174560546875,136834.6265819583,0.008141816084590248,-0.1260892260225646,-0.0005014732332619205,136834.5747999584,0.1553427171913005,0.2679446631497568,1.015908743960459,0.009553852491080761,-0.06967847049236298,0.02787616476416588,0.003583460114896297,0.01466304156929255,-0.01674723252654076,XTrueNorthZVertical,0.47152343673228,0.1537579220840664,0.1319612370757745,0.8582600970630943,0.1394829452037811,-0.849959671497345,-0.5080482959747314,23.66430473327637,-35.66085815429688,-9.78602409362793,2,10.3.35.51,10.83.46.32,1,0
2015-02-27 16:59:50.466,68,1425085189.86202,37.7876262265869,-122.3965819179631,12.58486,-1,-1,10,65,-9999,1425085190.42609,24.12863922119141,-35.52558898925781,-9.094459533691406,260.1045227050781,246.3312683105469,10,136834.6864415417,0.13970947265625,-0.8221282958984375,-0.518829345703125,136834.67836375,0.03144767141609168,-0.1203791423293257,0.009098157232037701,136834.67836375,0.1607893706831265,0.253392190404664,1.014751361598245,0.02819836139678955,-0.1077207550406456,0.04836356267333031,0.003741021500900388,0.02323849871754646,-0.00739535316824913,XTrueNorthZVertical,0.4715647717467998,0.148790294019635,0.1308254041982414,0.8592862388995046,0.1323215961456299,-0.849349319934845,-0.510976254940033,23.54459381103516,-35.67801666259766,-10.00967502593994,2,10.3.35.51,10.83.46.32,1,0
2015-02-27 16:59:50.531,69,1425085189.86202,37.7876262265869,-122.3965819179631,12.58486,-1,-1,10,65,-9999,1425085190.478084,24.14569091796875,-35.27067565917969,-9.144386291503906,260.1058044433594,246.3325653076172,10,136834.7354891667,0.1460723876953125,-0.8148956298828125,-0.5086212158203125,136834.67836375,0.03144767141609168,-0.1203791423293257,0.009098157232037701,136834.67836375,0.1607893706831265,0.253392190404664,1.014751361598245,0.02819836139678955,-0.1077207550406456,0.04836356267333031,0.003741021500900388,0.02323849871754646,-0.00739535316824913,XTrueNorthZVertical,0.4715647717467998,0.148790294019635,0.1308254041982414,0.8592862388995046,0.1323215961456299,-0.849349319934845,-0.510976254940033,23.54459381103516,-35.67801666259766,-10.00967502593994,2,10.3.35.51,10.83.46.32,1,0
2015-02-27 16:59:50.565,70,1425085189.86202,37.7876262265869,-122.3965819179631,12.58486,-1,-1,10,65,-9999,1425085190.52976,23.70234680175781,-34.86283874511719,-9.277519226074219,260.1118774414062,246.338623046875,10,136834.7846921667,0.1502685546875,-0.83380126953125,-0.4970245361328125,136834.7819279167,0.07257619971073039,-0.2093630775160343,0.09811831140957136,136834.7301459167,0.164186997442625,0.2443345461554815,1.015374975026442,0.02985197119414806,-0.176054060459137,0.07820810377597809,0.02125913091003895,0.02736693434417248,-0.003405425231903791,XTrueNorthZVertical,0.472176659206446,0.1457028898003037,0.1301699092856232,0.8595787790620494,0.1275598406791687,-0.8496783375740051,-0.5116397142410278,23.36202621459961,-35.74325942993164,-10.20281314849854,2,10.3.35.51,10.83.46.32,1,0
2015-02-27 16:59:50.636,71,1425085189.86202,37.7876262265869,-122.3965819179631,12.58486,-1,-1,10,65,-9999,1425085190.581133,23.34425735473633,-34.743896484375,-9.360725402832031,260.6740417480469,246.9008026123047,10,136834.8336392917,0.1282196044921875,-0.8702850341796875,-0.5057830810546875,136834.8337095417,0.140420228480499,-0.2551587956210368,0.1223938236939706,136834.7819279167,0.1711580934276632,0.2298834744774167,1.018132744289449,0.06919734925031662,-0.1964786052703857,0.1373025625944138,0.02501941844820976,0.02767346799373627,0.008780994452536106,XTrueNorthZVertical,0.4738145643330083,0.1411619817421204,0.1298343768047604,0.8594859512691462,0.1196186393499374,-0.8511292934417725,-0.5111461281776428,23.19186401367188,-35.81291961669922,-10.34575080871582,2,10.3.35.51,10.83.46.32,1,0
2015-02-27 16:59:50.663,72,1425085189.86202,37.7876262265869,-122.3965819179631,12.58486,-1,-1,10,65,-9999,1425085190.632143,23.12258529663086,-35.10075378417969,-9.577064514160156,260.9456787109375,247.1724395751953,10,136834.8827244167,0.098724365234375,-0.8595428466796875,-0.4665069580078125,136834.8854921667,0.1651876266182359,-0.2860381484605056,0.146369730355736,136834.8337095417,0.1786378520771178,0.2136574205883434,1.025929934725499,0.1370473057031631,-0.2422643750905991,0.1615648418664932,0.01832075417041779,-0.01508848648518324,0.0007355457055382431,XTrueNorthZVertical,0.4777329669984836,0.1360584391428596,0.1293957727385183,0.8582051384552453,0.1098988503217697,-0.8551965355873108,-0.5065186023712158,23.03226470947266,-35.90076446533203,-10.39771747589111,2,10.3.35.51,10.83.46.32,1,0
2015-02-27 16:59:50.708,73,1425085189.86202,37.7876262265869,-122.3965819179631,12.58486,-1,-1,10,65,-9999,1425085190.684461,23.12258529663086,-36.01838684082031,-9.41064453125,260.2460632324219,246.4728088378906,10,136834.9317689167,0.0972442626953125,-0.8862762451171875,-0.418975830078125,136834.8854921667,0.1651876266182359,-0.2860381484605056,0.146369730355736,136834.8854921667,0.1904593977870783,0.1903766487363762,1.035620747029242,0.1617759317159653,-0.2730589210987091,0.1855166554450989,0.002219198504462838,0.0006362515850923955,0.03427112102508545,XTrueNorthZVertical,0.4826527806960438,0.1290629845567374,0.1290784555815492,0.8565791288031225,0.09650516510009766,-0.8601791262626648,-0.5007780790328979,22.50421524047852,-36.2435417175293,-10.36477375030518,2,10.3.35.51,10.83.46.32,1,0
2015-02-27 16:59:50.760,74,1425085189.86202,37.7876262265869,-122.3965819179631,12.58486,-1,-1,10,65,-9999,1425085190.735471,22.67923355102539,-36.2222900390625,-9.510482788085938,260.3838500976562,246.610595703125,10,136834.9808541667,0.0894775390625,-0.9335174560546875,-0.4137115478515625,136834.9890555833,0.2188519204799866,-0.02476100655112072,0.1470168785006253,136834.93727375,0.2060018234138068,0.1656270801507213,1.047054567035488,0.1588963717222214,-0.2005416005849838,0.199592649936676,0.01478841528296471,-0.02032234147191048,0.07430389523506165,XTrueNorthZVertical,0.4882182985117982,0.1224868653910014,0.1298774258809505,0.8542667776193922,0.08245585113763809,-0.8659539222717285,-0.4932797253131866,22.07105445861816,-36.51638031005859,-10.33852291107178,2,10.3.35.51,10.83.46.32,1,0
2015-02-27 16:59:50.808,75,1425085189.86202,37.7876262265869,-122.3965819179631,12.58486,-1,-1,10,65,-9999,1425085190.787519,22.26998901367188,-36.3922119140625,-9.344070434570312,260.718994140625,246.9457397460938,10,136835.02990875,0.1038360595703125,-0.9173431396484375,-0.4302520751953125,136834.9890555833,0.2188519204799866,-0.02476100655112072,0.1470168785006253,136834.9890555833,0.2214220870872894,0.1471693564743152,1.059719469137939,0.2154659330844879,-0.01177703589200974,0.1861636340618134,0.01775409840047359,-0.0612991526722908,0.07011795789003372,XTrueNorthZVertical,0.4939498566409313,0.1187383106940651,0.1320066629581007,0.8511691993518913,0.07172343879938126,-0.8722183108329773,-0.4838294982910156,21.80001068115234,-36.7064094543457,-10.24019145965576,2,10.3.35.51,10.83.46.32,1,0
2015-02-27 16:59:50.860,76,1425085189.86202,37.7876262265869,-122.3965819179631,12.58486,-1,-1,10,65,-9999,1425085190.840164,21.40034484863281,-36.40921020507812,-9.094444274902344,260.7077331542969,246.9344940185547,10,136835.078993,0.08685302734375,-0.9410858154296875,-0.41375732421875,136835.040838,0.187071087611526,-0.04358449545190979,0.206263158007182,136835.040838,0.2384981332016003,0.1316680779082217,1.072853492514924,0.183631956577301,-0.03044489584863186,0.245385155081749,0.03492007777094841,-0.03438164666295052,0.0531206838786602,XTrueNorthZVertical,0.499612066037791,0.1168128877317936,0.1354177029057928,0.8475875121553393,0.06270565092563629,-0.8785669803619385,-0.4734850525856018,21.24760437011719,-37.19419479370117,-9.622550010681152,2,10.3.35.51,10.83.46.32,1,0
2015-02-27 16:59:50.906,77,1425085189.86202,37.7876262265869,-122.3965819179631,12.58486,-1,-1,10,65,-9999,1425085190.892444,21.17866897583008,-36.630126953125,-8.678413391113281,260.7098083496094,246.9365539550781,10,136835.1280410833,0.0391387939453125,-0.92999267578125,-0.3867340087890625,136835.09261975,0.1810182550859939,-0.0591024688076925,0.1944339290772681,136835.09261975,0.25962300799775,0.1116337143774846,1.08512634003291,0.1775971204042435,-0.04595706984400749,0.2335512787103653,0.02192627266049385,-0.05411416664719582,0.05199959874153137,XTrueNorthZVertical,0.5050066554041471,0.1141078531009094,0.1392471699915682,0.8441314552842505,0.05200256034731865,-0.8843623995780945,-0.4638953506946564,20.98932266235352,-37.40056228637695,-9.386636734008789,2,10.3.35.51,10.83.46.32,1,0
2015-02-27 16:59:50.957,78,1425085189.86202,37.7876262265869,-122.3965819179631,12.58486,-1,-1,10,65,-9999,1425085190.951351,20.63301467895508,-36.52815246582031,-8.378860473632812,260.6908569335938,246.9176177978516,10,136835.1771201667,0.0115509033203125,-0.920196533203125,-0.3721466064453125,136835.144401625,0.14905845779228,-0.04987141983725984,0.2419633650519122,136835.144401625,0.2848601458928202,0.08736162777958237,1.096112692677951,0.1456487476825714,-0.03672508522868156,0.2810821831226349,-0.001960390247404575,-0.03910572826862335,0.07468356937170029,XTrueNorthZVertical,0.5099706737284722,0.1107830312580153,0.143564770482885,0.8408603932230123,0.0398784801363945,-0.8894373774528503,-0.4553140699863434,20.58096313476562,-37.69958114624023,-9.089987754821777,2,10.3.35.51,10.83.46.32,1,0
2015-02-27 16:59:51.008,79,1425085189.86202,37.7876262265869,-122.3965819179631,12.58486,-1,-1,10,65,-9999,1425085190.951351,20.63301467895508,-36.52815246582031,-8.378860473632812,260.6908569335938,246.9176177978516,10,136835.2261656667,-0.0027618408203125,-0.9170379638671875,-0.3951873779296875,136835.1961840417,0.1790768106513262,0.07295037384388653,0.3537905644887755,136835.1961840417,0.3201722476190688,0.05692691233528133,1.10798202785145,0.1756795197725296,0.08609741181135178,0.3929113447666168,-0.02064158394932747,-0.02480189315974712,0.07149256765842438,XTrueNorthZVertical,0.515290327208323,0.1077192422366106,0.1502873935013405,0.8368310194924846,0.02540232613682747,-0.894799530506134,-0.4457449018955231,19.75223922729492,-38.27329254150391,-8.512720108032227,2,10.3.35.51,10.83.46.32,1,0
2015-02-27 16:59:51.055,80,1425085189.86202,37.7876262265869,-122.3965819179631,12.58486,-1,-1,10,65,-9999,1425085191.021608,19.54170227050781,-37.03793334960938,-8.012741088867188,259.3562316894531,245.5829772949219,10,136835.2752482083,0.0604248046875,-0.9663848876953125,-0.5218963623046875,136835.2479658333,0.2103817366329896,0.1996960690751556,0.6025156955483989,136835.2479658333,0.3791584898840366,0.0128668238528088,1.117705662298999,0.2069935202598572,0.2128423005342484,0.6416400671005249,0.03162971138954163,-0.077418252825737,-0.01802404038608074,XTrueNorthZVertical,0.5196757033922462,0.1052713488482953,0.1631229428382367,0.8320132356086507,0.005632251035422087,-0.8990984559059143,-0.4377102255821228,19.28548240661621,-38.57576751708984,-8.212352752685547,2,10.3.35.51,10.83.46.32,1,0
2015-02-27 16:59:51.095,81,1425085189.86202,37.7876262265869,-122.3965819179631,12.58486,-1,-1,10,65,-9999,1425085191.074848,18.41627502441406,-37.85360717773438,-8.046028137207031,258.4168090820312,244.6435546875,10,136835.32440625,-0.0367279052734375,-0.8556671142578125,-0.383758544921875,136835.2997477917,0.2946084671644896,-0.2931019169358318,0.842322699065674,136835.2997477917,0.4697466476255537,-0.06881904185973539,1.132091197102654,0.2912198901176453,-0.2799557149410248,0.8814464211463928,0.05315006896853447,0.007429515942931175,-0.06995125859975815,XTrueNorthZVertical,0.5280226212884848,0.09649378082533336,0.1783622492548729,0.8246623442374225,-0.02920902892947197,-0.9053024649620056,-0.4237621128559113,18.34460830688477,-39.12924957275391,-7.735617637634277,2,10.3.35.51,10.83.46.32,1,0
2015-02-27 16:59:51.153,82,1425085189.86202,37.7876262265869,-122.3965819179631,12.58486,-1,-1,10,65,-9999,1425085191.12547,16.88160705566406,-38.43136596679688,-7.480216979980469,256.1796264648438,242.4063873291016,10,136835.3733869167,-0.0757293701171875,-0.8853912353515625,-0.40777587890625,136835.3515300833,0.1828430530649162,-0.2827728466479595,0.9413422241881282,136835.3515300833,0.5843540009441353,-0.1908827704264585,1.135229914970616,0.179454505443573,-0.2696267664432526,0.9804655313491821,0.03080971911549568,0.04640171304345131,0.03775004297494888,XTrueNorthZVertical,0.5356391393735213,0.07720350236197113,0.1927016334293482,0.8185330930149669,-0.08004982769489288,-0.9066312313079834,-0.4142606556415558,15.65044021606445,-40.38047027587891,-7.207218170166016,2,10.3.35.51,10.83.46.32,1,0
2015-02-27 16:59:51.193,83,1425085189.86202,37.7876262265869,-122.3965819179631,12.58486,-1,-1,10,65,-9999,1425085191.177365,15.26168441772461,-38.89021301269531,-7.263870239257812,254.54248046875,240.7692260742188,10,136835.422433375,-0.1305389404296875,-0.8304901123046875,-0.4363861083984375,136835.4033120833,0.2570725431803678,-0.1738479601670646,0.9091019960316289,136835.4033120833,0.7009767300908761,-0.3050114011039442,1.134814901429045,0.2536839842796326,-0.1607019603252411,0.9482247233390808,0.01159935630857944,0.05161288380622864,-0.04009325802326202,XTrueNorthZVertical,0.542902165879364,0.06207303980435274,0.2095081281053591,0.8108702316422027,-0.1268184781074524,-0.9064559936523438,-0.4028083384037018,14.40896701812744,-40.85971832275391,-7.094192504882812,2,10.3.35.51,10.83.46.32,1,0
2015-02-27 16:59:51.252,84,1425085189.86202,37.7876262265869,-122.3965819179631,12.58486,-1,-1,10,65,-9999,1425085191.229278,13.09609985351562,-39.38301086425781,-6.914398193359375,251.8885040283203,238.1152496337891,10,136835.4717157084,-0.1427001953125,-0.8192901611328125,-0.4516143798828125,136835.45509375,0.2894709631056178,-0.05878555263797308,0.816845035865213,136835.45509375,0.8116222878251882,-0.4103292657018384,1.132074015655208,0.286081999540329,-0.04563973471522331,0.8559673428535461,0.0210285484790802,0.09062839299440384,-0.05006876215338707,XTrueNorthZVertical,0.5502822566885295,0.04928073856280273,0.2258219077671602,0.8023498769524635,-0.1694507896900177,-0.9052951335906982,-0.3895216882228851,12.60806465148926,-41.511474609375,-6.730298042297363,2,10.3.35.51,10.83.46.32,1,0
2015-02-27 16:59:51.291,85,1425085189.86202,37.7876262265869,-122.3965819179631,12.58486,-1,-1,10,65,-9999,1425085191.283161,11.20334625244141,-40.01174926757812,-6.198806762695312,248.8191528320312,235.0458984375,10,136835.520611375,-0.182159423828125,-0.8707122802734375,-0.439117431640625,136835.5068762917,0.2474132579066504,-0.2193318221084189,0.7218934893078548,136835.45509375,0.8116222878251882,-0.4103292657018384,1.132074015655208,0.286081999540329,-0.04563973471522331,0.8559673428535461,0.0210285484790802,0.09062839299440384,-0.05006876215338707,XTrueNorthZVertical,0.5502822566885295,0.04928073856280273,0.2258219077671602,0.8023498769524635,-0.1694507896900177,-0.9052951335906982,-0.3895216882228851,12.60806465148926,-41.511474609375,-6.730298042297363,2,10.3.35.51,10.83.46.32,1,0
2015-02-27 16:59:51.350,86,1425085189.86202,37.7876262265869,-122.3965819179631,12.58486,-1,-1,10,65,-9999,1425085191.333213,9.668678283691406,-39.87580871582031,-5.333442687988281,246.2946166992188,232.5213623046875,10,136835.56963625,-0.200225830078125,-0.8382415771484375,-0.4297637939453125,136835.558658,0.2498577734712341,-0.2285162657597752,0.6095853229781233,136835.558658,0.9935769557456611,-0.5921586721030139,1.118206064228373,0.2464656829833984,-0.215370312333107,0.6487056612968445,0.02531328424811363,0.08310952037572861,-0.062787264585495,XTrueNorthZVertical,0.5639024426430035,0.0243584911323577,0.2503968420977037,0.7865889224056342,-0.2440785467624664,-0.8993173837661743,-0.36284139752388,8.863858222961426,-42.62422561645508,-5.663025856018066,2,10.3.35.51,10.83.46.32,1,0
2015-02-27 16:59:51.389,87,1425085189.86202,37.7876262265869,-122.3965819179631,12.58486,-1,-1,10,65,-9999,1425085191.385025,8.202217102050781,-40.04574584960938,-4.634490966796875,244.2276153564453,230.4543609619141,10,136835.6186859167,-0.233551025390625,-0.8518829345703125,-0.4358062744140625,136835.61044,0.2675723220941142,-0.3166131019873784,0.57630459778373,136835.558658,0.9935769557456611,-0.5921586721030139,1.118206064228373,0.2464656829833984,-0.215370312333107,0.6487056612968445,0.02531328424811363,0.08310952037572861,-0.062787264585495,XTrueNorthZVertical,0.5639024426430035,0.0243584911323577,0.2503968420977037,0.7865889224056342,-0.2440785467624664,-0.8993173837661743,-0.36284139752388,8.863858222961426,-42.62422561645508,-5.663025856018066,2,10.3.35.51,10.83.46.32,1,0
2015-02-27 16:59:51.450,88,1425085189.86202,37.7876262265869,-122.3965819179631,12.58486,-1,-1,10,65,-9999,1425085191.436806,6.61639404296875,-39.89279174804688,-4.451431274414062,242.5920715332031,228.8188171386719,10,136835.6677610417,-0.2258758544921875,-0.87066650390625,-0.397125244140625,136835.6622222917,0.2095779946160037,-0.2819041235003756,0.4801221381705373,136835.61044,1.063797564964022,-0.6659317805507986,1.10885376628408,0.2641644775867462,-0.303464412689209,0.6154166460037231,0.06478644907474518,0.03001507185399532,-0.0959787517786026,XTrueNorthZVertical,0.5697399400041114,0.01284330733958737,0.2592165809140624,0.7797680595489058,-0.2753424644470215,-0.8951883912086487,-0.3504629135131836,7.512677192687988,-42.93064498901367,-5.289779663085938,2,10.3.35.51,10.83.46.32,1,0
2015-02-27 16:59:51.487,89,1425085189.86202,37.7876262265869,-122.3965819179631,12.58486,-1,-1,10,65,-9999,1425085191.436806,6.61639404296875,-39.89279174804688,-4.451431274414062,242.5920715332031,228.8188171386719,10,136835.71682025,-0.2539825439453125,-0.809906005859375,-0.3882904052734375,136835.71400425,0.1564388761212166,-0.4344201633359055,0.4204612044822552,136835.6622222917,1.125763399546996,-0.7361943497128886,1.09952146016644,0.206163689494133,-0.2687540054321289,0.5192300081253052,0.07994920015335083,0.02914327010512352,-0.06791388243436813,XTrueNorthZVertical,0.5760013554797699,0.0006515011890605853,0.2655125142434779,0.7731268531777469,-0.3048637509346008,-0.8909901976585388,-0.3364440202713013,5.512613296508789,-43.30121231079102,-4.698762893676758,2,10.3.35.51,10.83.46.32,1,0
2015-02-27 16:59:51.545,90,1425085189.86202,37.7876262265869,-122.3965819179631,12.58486,-1,-1,10,65,-9999,1425085191.488428,5.456871032714844,-40.02873229980469,-3.719200134277344,240.7957763671875,227.0225219726562,10,136835.7658793333,-0.2873077392578125,-0.8150177001953125,-0.3531036376953125,136835.7657859167,0.1306160672434813,-0.6356038741959794,0.3583094162264219,136835.71400425,1.173968672604957,-0.795931828131048,1.088767800869908,0.1530167311429977,-0.4212664663791656,0.4595606327056885,0.08797787874937057,0.05739730969071388,-0.06689231842756271,XTrueNorthZVertical,0.5811207151404001,-0.01161153591783831,0.2696546651369475,0.7677566414763012,-0.3312335014343262,-0.8860563635826111,-0.3243277668952942,4.823990821838379,-43.40243911743164,-4.518841743469238,2,10.3.35.51,10.83.46.32,1,0
2015-02-27 16:59:51.585,91,1425085189.86202,37.7876262265869,-122.3965819179631,12.58486,-1,-1,10,65,-9999,1425085191.545684,4.365562438964844,-39.65487670898438,-4.085319519042969,240.8650512695312,227.091796875,10,136835.8150300834,-0.3347015380859375,-0.7698822021484375,-0.317138671875,136835.7657859167,0.1306160672434813,-0.6356038741959794,0.3583094162264219,136835.7657859167,1.215250868325723,-0.8579451240826502,1.077526599088995,0.1271107643842697,-0.6222075223922729,0.3973750174045563,0.09623107314109802,0.06218580901622772,-0.05635649710893631,XTrueNorthZVertical,0.5868985276926889,-0.02672922856083819,0.2704358857314259,0.7626926710898079,-0.3582092225551605,-0.8807893395423889,-0.3096713423728943,3.870413780212402,-43.51815414428711,-4.318853378295898,2,10.3.35.51,10.83.46.32,1,0
2015-02-27 16:59:51.644,92,1425085189.86202,37.7876262265869,-122.3965819179631,12.58486,-1,-1,10,65,-9999,1425085191.617294,3.001426696777344,-39.8248291015625,-3.952186584472656,240.9259338378906,227.1526794433594,10,136835.86400325,-0.36126708984375,-0.8027801513671875,-0.27862548828125,136835.869350375,0.09642986727846112,-0.6827548749797233,0.2139993746577532,136835.8175685,1.245956096325731,-0.9168204103303258,1.068432957545944,0.1220101565122604,-0.6033689379692078,0.2794795036315918,0.04744983837008476,0.106564849615097,-0.02422075346112251,XTrueNorthZVertical,0.5930426570297364,-0.0429120897257339,0.267326662653409,0.7582845292011579,-0.3821513652801514,-0.8764470815658569,-0.2929179072380066,2.427966117858887,-43.64693450927734,-4.063560485839844,2,10.3.35.51,10.83.46.32,1,0
2015-02-27 16:59:51.683,93,1425085189.86202,37.7876262265869,-122.3965819179631,12.58486,-1,-1,10,65,-9999,1425085191.669263,2.353446960449219,-40.19865417480469,-3.25323486328125,240.0011901855469,226.2279357910156,10,136835.9130444167,-0.395172119140625,-0.84344482421875,-0.212005615234375,136835.869350375,0.09642986727846112,-0.6827548749797233,0.2139993746577532,136835.869350375,1.271951172521078,-0.9714260133181141,1.060889591230582,0.09292315691709518,-0.6693583726882935,0.2530632615089417,0.04174927249550819,0.07000987976789474,-0.0032795500010252,XTrueNorthZVertical,0.5991141373064012,-0.05821753489453655,0.2630787945360801,0.7539645411215323,-0.4030163586139679,-0.8727900385856628,-0.2753459513187408,1.986671447753906,-43.68077850341797,-3.937653541564941,2,10.3.35.51,10.83.46.32,1,0
2015-02-27 16:59:51.745,94,1425085189.86202,37.7876262265869,-122.3965819179631,12.58486,-1,-1,10,65,-9999,1425085191.720669,1.44970703125,-40.317626953125,-3.136749267578125,239.9544982910156,226.1812438964844,10,136835.9621232917,-0.419464111328125,-0.79510498046875,-0.20416259765625,136835.9211321667,0.05430478410391475,-0.6261360702046387,0.1808422201379397,136835.9211321667,1.290513352538536,-1.01982928698739,1.053030685593818,0.0507986955344677,-0.6127396821975708,0.2199056446552277,0.02652591094374657,0.02548239752650261,0.04710106924176216,XTrueNorthZVertical,0.6042038064735074,-0.07337859622701506,0.2578386004026121,0.7503816430949312,-0.4216980338096619,-0.8689272403717041,-0.2591066956520081,1.354851722717285,-43.71837615966797,-3.785531997680664,2,10.3.35.51,10.83.46.32,1,0
2015-02-27 16:59:51.782,95,1425085189.86202,37.7876262265869,-122.3965819179631,12.58486,-1,-1,10,65,-9999,1425085191.772372,0.3583908081054688,-40.62353515625,-2.7706298828125,239.4904632568359,225.7172088623047,10,136836.01116525,-0.3659515380859375,-0.823486328125,-0.2242584228515625,136835.9729144583,0.08488453132074961,-0.4068817460839411,0.1691360292503874,136835.9729144583,1.30823542611491,-1.060382131360541,1.045630843089758,0.08138199895620346,-0.3934861421585083,0.2082001119852066,0.0332186296582222,0.06890004128217697,0.0349251963198185,XTrueNorthZVertical,0.6084461593111403,-0.08559974841181711,0.2544182215507961,0.746818140598523,-0.4374544620513916,-0.8652409911155701,-0.2449319064617157,0.4602317810058594,-43.75152587890625,-3.613061904907227,2,10.3.35.51,10.83.46.32,1,0
2015-02-27 16:59:51.841,96,1425085189.86202,37.7876262265869,-122.3965819179631,12.58486,-1,-1,10,65,-9999,1425085191.823726,-0.2384262084960938,-40.6405029296875,-2.953689575195312,240.24755859375,226.4743041992188,10,136836.0602376667,-0.3065643310546875,-0.815582275390625,-0.229034423828125,136836.0246964583,0.178768682913204,-0.288772149635581,0.2369318548044256,136836.0246964583,1.329182261229982,-1.093215038105958,1.039072827011865,0.1752675771713257,-0.2753719687461853,0.2759852111339569,0.09010512381792068,0.03167327120900154,0.001215900527313352,XTrueNorthZVertical,0.6121429049662767,-0.09359338927990456,0.2542119918189363,0.7428981201286935,-0.4502888321876526,-0.8619344830513,-0.2330426871776581,-0.04757308959960938,-43.769775390625,-3.415639400482178,2,10.3.35.51,10.83.46.32,1,0
2015-02-27 16:59:51.880,97,1425085189.86202,37.7876262265869,-122.3965819179631,12.58486,-1,-1,10,65,-9999,1425085191.875939,-0.6988296508789062,-40.7254638671875,-2.704063415527344,240.7966918945312,227.0234375,10,136836.1092849583,-0.353424072265625,-0.7933807373046875,-0.12811279296875,136836.0764781667,0.1415219782234648,-0.6282274506086779,0.1893006860761403,136836.0764781667,1.355547570025285,-1.13699776359056,1.034193564684449,0.1380206644535065,-0.6148219704627991,0.2283418625593185,0.1648871600627899,0.05995085835456848,-0.01449417788535357,XTrueNorthZVertical,0.6179719036389567,-0.1033090348674411,0.2520217357812699,0.7375113738879877,-0.4638678729534149,-0.8594503998756409,-0.2148759365081787,-0.3516254425048828,-43.78578186035156,-3.184976577758789,2,10.3.35.51,10.83.46.32,1,0
2015-02-27 16:59:51.938,98,1425085189.86202,37.7876262265869,-122.3965819179631,12.58486,-1,-1,10,65,-9999,1425085191.927556,-0.8352432250976562,-40.5555419921875,-2.704063415527344,241.8713073730469,228.0980529785156,10,136836.1583645,-0.405914306640625,-0.9145660400390625,-0.13873291015625,136836.1282605834,0.01317918528647513,-0.7298683251920971,0.1725259670019492,136836.1282605834,1.367244644175285,-1.184255115739247,1.025222661858836,0.009677905589342117,-0.7164629101753235,0.211566761136055,0.1135725677013397,0.02504154294729233,0.07098804414272308,XTrueNorthZVertical,0.6227162243489425,-0.1200566035366702,0.2444914923290852,0.7335085809663602,-0.4806227385997772,-0.854829728603363,-0.1956218332052231,-1.143613815307617,-43.80335235595703,-2.72412109375,2,10.3.35.51,10.83.46.32,1,0
2015-02-27 16:59:51.978,99,1425085189.86202,37.7876262265869,-122.3965819179631,12.58486,-1,-1,10,65,-9999,1425085191.927556,-0.8352432250976562,-40.5555419921875,-2.704063415527344,241.8713073730469,228.0980529785156,10,136836.2074188333,-0.3899993896484375,-0.85650634765625,-0.1385040283203125,136836.1800425833,0.2076221691114495,-0.5913839485079767,0.1992609085530367,136836.1800425833,1.385207004980291,-1.231751729074436,1.018463349252723,0.2041288763284683,-0.5779766440391541,0.2382950335741043,0.08889219909906387,-0.03298981860280037,0.02235420979559422,XTrueNorthZVertical,0.6283130231240274,-0.1340632212837692,0.2383584273380051,0.7283097349901815,-0.4948064982891083,-0.8513028025627136,-0.1744996011257172,-1.475915908813477,-43.796630859375,-2.671914100646973,2,10.3.35.51,10.83.46.32,1,0
2015-02-27 16:59:52.047,100,1425085189.86202,37.7876262265869,-122.3965819179631,12.58486,-1,-1,10,65,-9999,1425085192.032759,-2.131172180175781,-40.3856201171875,-2.138252258300781,243.1494598388672,229.3762054443359,10,136836.256500875,-0.4374237060546875,-0.8387298583984375,-0.134002685546875,136836.2318244167,0.1437193524388891,-0.7680436741539469,0.3738614780441576,136836.2318244167,1.410058697642648,-1.285452534552998,1.007299757965302,0.1402309089899063,-0.7546325325965881,0.412884920835495,0.1206862851977348,-0.01108322385698557,0.00550350733101368,XTrueNorthZVertical,0.6344209951086519,-0.1494403056531579,0.2340213247822691,0.7213956111950927,-0.5125472545623779,-0.8453925848007202,-0.150355190038681,-1.86332893371582,-43.80486679077148,-2.263656616210938,2,10.3.35.51,10.83.46.32,1,0
2015-02-27 16:59:52.076,101,1425085189.86202,37.7876262265869,-122.3965819179631,12.58486,-1,-1,10,65,-9999,1425085192.032759,-2.131172180175781,-40.3856201171875,-2.138252258300781,243.1494598388672,229.3762054443359,10,136836.3055434584,-0.44476318359375,-0.8065032958984375,-0.0709991455078125,136836.2836069583,0.1185985528244987,-0.8821777037270369,0.3241897952886538,136836.2836069583,1.432609928740135,-1.345147266247036,0.9898971570792751,0.115110270678997,-0.8687665462493896,0.3632126450538635,0.08070129156112671,0.02302704006433487,0.003519874531775713,XTrueNorthZVertical,0.6402059456133341,-0.1695436883284266,0.2287798621994258,0.7134781509577519,-0.5348638892173767,-0.8359695672988892,-0.1227825731039047,-3.206472396850586,-43.75660705566406,-1.593842029571533,2,10.3.35.51,10.83.46.32,1,0
2015-02-27 16:59:52.146,102,1425085189.86202,37.7876262265869,-122.3965819179631,12.58486,-1,-1,10,65,-9999,1425085192.134522,-3.7510986328125,-40.50459289550781,-1.589065551757812,244.5228729248047,230.7496185302734,10,136836.35462325,-0.4686737060546875,-0.8124847412109375,-0.07415771484375,136836.3353885417,0.08260699595651384,-0.8086835123885561,0.4496129647225895,136836.3353885417,1.446367995351542,-1.39890760077947,0.9697887801471069,0.07911891490221024,-0.7952724695205688,0.4886352121829987,0.1094020009040833,0.005430354736745358,0.03431219235062599,XTrueNorthZVertical,0.6443324479217535,-0.190985280016848,0.223037950068328,0.7061263374879286,-0.5571406483650208,-0.8247662782669067,-0.09672063589096069,-3.736467361450195,-43.72248077392578,-1.358730316162109,2,10.3.35.51,10.83.46.32,1,0
2015-02-27 16:59:52.175,103,1425085189.86202,37.7876262265869,-122.3965819179631,12.58486,-1,-1,10,65,-9999,1425085192.134522,-3.7510986328125,-40.50459289550781,-1.589065551757812,244.5228729248047,230.7496185302734,10,136836.4037817917,-0.552154541015625,-0.7826080322265625,-0.0435333251953125,136836.3871705833,0.1770296387213822,-0.7789415956506602,0.5110763258366373,136836.3871705833,1.464802488361297,-1.452181582659733,0.9444867876675772,0.1735420525074005,-0.7655304670333862,0.550097644329071,0.05809910222887993,0.001098926528356969,0.01464613620191813,XTrueNorthZVertical,0.64829214547794,-0.2122150262704286,0.2207052761183561,0.697116396395123,-0.5820401310920715,-0.8101962208747864,-0.06936415284872055,-4.677497863769531,-43.63999938964844,-1.064747095108032,2,10.3.35.51,10.83.46.32,1,0
2015-02-27 16:59:52.239,104,1425085189.86202,37.7876262265869,-122.3965819179631,12.58486,-1,-1,10,65,-9999,1425085192.186652,-4.774192810058594,-40.19869995117188,-0.9899673461914062,244.4284362792969,230.6551818847656,10,136836.4527548333,-0.5275115966796875,-0.736541748046875,-0.09368896484375,136836.4389529167,0.2274206412873165,-0.5822471754401328,0.5366008606722837,136836.4389529167,1.485057989911639,-1.501534052686165,0.9174640994005493,0.2239329963922501,-0.5688361525535583,0.5756215453147888,0.06511863321065903,0.02656093239784241,-0.04390158131718636,XTrueNorthZVertical,0.652123072445824,-0.2317375242417601,0.2207034132788518,0.6872577637989505,-0.6063783764839172,-0.7940627932548523,-0.04206643626093864,-6.501588821411133,-43.41818237304688,-0.2308626174926758,2,10.3.35.51,10.83.46.32,1,0
2015-02-27 16:59:52.272,105,1425085189.86202,37.7876262265869,-122.3965819179631,12.58486,-1,-1,10,65,-9999,1425085192.238603,-5.882568359375,-39.977783203125,-1.006614685058594,244.9815216064453,231.2082672119141,10,136836.50190675,-0.526458740234375,-0.7050018310546875,-0.019866943359375,136836.4907349167,0.1988371996236051,-0.520141992503376,0.6109232951097791,136836.4389529167,1.485057989911639,-1.501534052686165,0.9174640994005493,0.2239329963922501,-0.5688361525535583,0.5756215453147888,0.06511863321065903,0.02656093239784241,-0.04390158131718636,XTrueNorthZVertical,0.652123072445824,-0.2317375242417601,0.2207034132788518,0.6872577637989505,-0.6063783764839172,-0.7940627932548523,-0.04206643626093864,-6.501588821411133,-43.41818237304688,-0.2308626174926758,2,10.3.35.51,10.83.46.32,1,0
2015-02-27 16:59:52.344,106,1425085189.86202,37.7876262265869,-122.3965819179631,12.58486,-1,-1,10,65,-9999,1425085192.292562,-6.871574401855469,-39.5699462890625,-0.4408035278320312,244.3298950195312,230.556640625,10,136836.5508775833,-0.5494537353515625,-0.6434326171875,0.0242462158203125,136836.5425165417,-0.01735848398513647,-0.7207563195223909,0.5393135565586384,136836.5425165417,1.511993082485706,-1.579127412225337,0.8558893772728449,-0.0208460595458746,-0.7073454856872559,0.5783334970474243,0.112433597445488,0.09945356100797653,0.01564154960215092,XTrueNorthZVertical,0.6557950352229909,-0.2695617738681299,0.2250995944437128,0.6682810087979241,-0.6555244326591492,-0.7551542520523071,0.00546135613694787,-8.489389419555664,-43.06748580932617,0.7644127607345581,2,10.3.35.51,10.83.46.32,1,0
2015-02-27 16:59:52.371,107,1425085189.86202,37.7876262265869,-122.3965819179631,12.58486,-1,-1,10,65,-9999,1425085192.344723,-8.150459289550781,-39.2470703125,0.1749496459960938,243.3261260986328,229.5528717041016,10,136836.5999284167,-0.6878204345703125,-0.761627197265625,0.0708465576171875,136836.5425165417,-0.01735848398513647,-0.7207563195223909,0.5393135565586384,136836.5425165417,1.511993082485706,-1.579127412225337,0.8558893772728449,-0.0208460595458746,-0.7073454856872559,0.5783334970474243,0.112433597445488,0.09945356100797653,0.01564154960215092,XTrueNorthZVertical,0.6557950352229909,-0.2695617738681299,0.2250995944437128,0.6682810087979241,-0.6555244326591492,-0.7551542520523071,0.00546135613694787,-8.489389419555664,-43.06748580932617,0.7644127607345581,2,10.3.35.51,10.83.46.32,1,0
2015-02-27 16:59:52.440,108,1425085189.86202,37.7876262265869,-122.3965819179631,12.58486,-1,-1,10,65,-9999,1425085192.420263,-10.04319763183594,-39.46798706054688,0.890533447265625,243.5515289306641,229.7782745361328,10,136836.649005125,-0.759063720703125,-0.686309814453125,0.1420440673828125,136836.6460809167,-0.3378281095470586,-1.160916660271853,0.2659922686193702,136836.5942991667,1.504774593063799,-1.618595505868769,0.8278355947454855,-0.1397708356380463,-1.147629261016846,0.5138222575187683,0.02041004225611687,0.02334943227469921,-0.001484452397562563,XTrueNorthZVertical,0.6554704203026926,-0.2941424156313949,0.2191890528619411,0.6601476644153007,-0.6756987571716309,-0.7364689111709595,0.0323224663734436,-10.35462188720703,-42.64530181884766,1.273706793785095,2,10.3.35.51,10.83.46.32,1,0
2015-02-27 16:59:52.468,109,1425085189.86202,37.7876262265869,-122.3965819179631,12.58486,-1,-1,10,65,-9999,1425085192.420263,-10.04319763183594,-39.46798706054688,0.890533447265625,243.5515289306641,229.7782745361328,10,136836.698054375,-0.7242584228515625,-0.66046142578125,0.25537109375,136836.697862875,-0.5454915576554042,-0.9570633967350839,0.1291121801759135,136836.6460809167,1.485200236154346,-1.663487406916908,0.8094185402639144,-0.3413155674934387,-1.147506237030029,0.3050115406513214,-0.06299639493227005,0.008126858621835709,0.06057757511734962,XTrueNorthZVertical,0.6548095858991634,-0.3211749226201072,0.2042871608357593,0.6529455134273845,-0.686957836151123,-0.7238861322402954,0.06385784596204758,-10.95129776000977,-42.49057388305664,1.44311511516571,2,10.3.35.51,10.83.46.32,1,0
2015-02-27 16:59:52.539,110,1425085189.86202,37.7876262265869,-122.3965819179631,12.58486,-1,-1,10,65,-9999,1425085192.528947,-10.75937652587891,-38.65229797363281,1.356498718261719,245.9279022216797,232.1546478271484,10,136836.7471274167,-0.743438720703125,-0.70867919921875,0.243927001953125,136836.7496452083,-0.6187071823438627,-0.6612951229158648,-0.1485521908690559,136836.697862875,1.450738542340386,-1.691381281184911,0.800127658483614,-0.5489789843559265,-0.9436530470848083,0.168131098151207,-0.02995520830154419,0.06027949973940849,0.152774378657341,XTrueNorthZVertical,0.6505892555610505,-0.3444307777205104,0.1871282190881443,0.6504491539090616,-0.6915566325187683,-0.7174450159072876,0.0837978795170784,-11.51144027709961,-42.3410530090332,1.477984666824341,2,10.3.35.51,10.83.46.32,1,0
2015-02-27 16:59:52.567,111,1425085189.86202,37.7876262265869,-122.3965819179631,12.58486,-1,-1,10,65,-9999,1425085192.528947,-10.75937652587891,-38.65229797363281,1.356498718261719,245.9279022216797,232.1546478271484,10,136836.7962870417,-0.78985595703125,-0.7303619384765625,0.1957244873046875,136836.7496452083,-0.6187071823438627,-0.6612951229158648,-0.1485521908690559,136836.7496452083,1.407411842545838,-1.699189818232642,0.8029811737419347,-0.6221945881843567,-0.6478849053382874,-0.1095337197184563,-0.05459070205688477,0.01075070444494486,0.1549941748380661,XTrueNorthZVertical,0.6440370494582619,-0.3601148292835203,0.1694927958954686,0.6533037525435517,-0.6888480186462402,-0.7194299101829529,0.0889328196644783,-11.89840126037598,-42.25536727905273,0.6120157241821289,2,10.3.35.51,10.83.46.32,1,0
2015-02-27 16:59:52.635,112,1425085189.86202,37.7876262265869,-122.3965819179631,12.58486,-1,-1,10,65,-9999,1425085192.601756,-9.753326416015625,-39.62092590332031,0.5077743530273438,249.5742645263672,235.8010101318359,10,136836.8452612917,-0.7672576904296875,-0.7384490966796875,0.22039794921875,136836.853208875,-0.8461422047010656,-0.4535725526313193,-0.4457354021754342,136836.801427125,1.361667844371185,-1.695850553953491,0.8204392165827623,-0.7148223519325256,-0.6036838889122009,-0.395511120557785,-0.1132809519767761,0.001083463546819985,0.1106720939278603,XTrueNorthZVertical,0.6378698214208582,-0.3683046124488783,0.1494601227880621,0.6596480026183157,-0.6765750050544739,-0.7314454317092896,0.08505239337682724,-11.72680377960205,-42.30770874023438,0.04644346237182617,2,10.3.35.51,10.83.46.32,1,0
2015-02-27 16:59:52.665,113,1425085189.86202,37.7876262265869,-122.3965819179631,12.58486,-1,-1,10,65,-9999,1425085192.65397,-9.088294982910156,-40.52157592773438,-0.9067611694335938,254.0553588867188,240.2821044921875,10,136836.894413375,-0.688873291015625,-0.7520751953125,0.233612060546875,136836.853208875,-0.8461422047010656,-0.4535725526313193,-0.4457354021754342,136836.853208875,1.307907582507438,-1.682270125606542,0.8440496133439861,-0.8497021198272705,-0.4399711489677429,-0.4067413508892059,-0.1069398671388626,0.008890876546502113,0.1464833915233612,XTrueNorthZVertical,0.6303810481353523,-0.373600068732854,0.1276131108894402,0.668399303572687,-0.6603178381919861,-0.7473399639129639,0.07391455769538879,-11.12294101715088,-42.45928192138672,-0.9755973815917969,2,10.3.35.51,10.83.46.32,1,0
2015-02-27 16:59:52.740,114,1425085189.86202,37.7876262265869,-122.3965819179631,12.58486,-1,-1,10,65,-9999,1425085192.705361,-8.167503356933594,-41.16731262207031,-2.104957580566406,256.738037109375,242.9647827148438,10,136836.9433822084,-0.79541015625,-0.7616729736328125,0.1938323974609375,136836.9049914167,-0.9613915661386807,-0.484313953726322,-0.4312970743255696,136836.9049914167,1.241480952995889,-1.65214601387821,0.8685207407015775,-0.9649514555931091,-0.4707127213478088,-0.392303466796875,-0.06783437728881836,0.01650228723883629,0.1669920086860657,XTrueNorthZVertical,0.6199348161744108,-0.3767307175123534,0.105977293485086,0.6800908878493779,-0.6438202857971191,-0.7633742094039917,0.05249042063951492,-9.934079170227051,-42.63764953613281,-3.287411451339722,2,10.3.35.51,10.83.46.32,1,0
2015-02-27 16:59:52.762,115,1425085189.86202,37.7876262265869,-122.3965819179631,12.58486,-1,-1,10,65,-9999,1425085192.758029,-6.922714233398438,-42.37382507324219,-3.7857666015625,260.0974731445312,246.32421875,10,136836.9924269583,-0.8072967529296875,-0.829986572265625,0.146759033203125,136836.9567731667,-0.7691230533437561,-0.1960560604972353,-0.4499277503634369,136836.9567731667,1.173613080087794,-1.616598390705699,0.8918916757611292,-0.7726829051971436,-0.1824549436569214,-0.4109345376491547,-0.1660067737102509,-0.01394481025636196,0.157803013920784,XTrueNorthZVertical,0.6093156526317268,-0.3782986966148794,0.08534414642714731,0.6916219491606888,-0.627282440662384,-0.7782610058784485,0.0287509374320507,-9.481290817260742,-42.64218902587891,-4.383055686950684,2,10.3.35.51,10.83.46.32,1,0
2015-02-27 16:59:52.838,116,1425085189.86202,37.7876262265869,-122.3965819179631,12.58486,-1,-1,10,65,-9999,1425085192.810288,-5.950752258300781,-43.20649719238281,-5.167022705078125,262.4048461914062,248.631591796875,10,136837.0415038333,-0.6737518310546875,-0.8531494140625,0.097930908203125,136837.008555125,-0.4937806924532267,0.1652299708795682,-0.4570959147534941,136837.008555125,1.125931644393805,-1.579287692328354,0.9136782173496804,-0.4973405599594116,0.1788309663534164,-0.4181030690670013,-0.17104472219944,-0.05608347058296204,0.1374981552362442,XTrueNorthZVertical,0.6027717353263472,-0.3731750619274041,0.07234361942970415,0.701550441000292,-0.6108156442642212,-0.7917558550834656,0.005186783615499735,-8.742659568786621,-42.62041091918945,-5.87612247467041,2,10.3.35.51,10.83.46.32,1,0
2015-02-27 16:59:52.861,117,1425085189.86202,37.7876262265869,-122.3965819179631,12.58486,-1,-1,10,65,-9999,1425085192.810288,-5.950752258300781,-43.20649719238281,-5.167022705078125,262.4048461914062,248.631591796875,10,136837.0906570833,-0.631561279296875,-0.81744384765625,0.05291748046875,136837.0603374167,-0.342277452780254,0.09362103127675454,-0.4555603360689545,136837.0603374167,1.091664658065714,-1.543993311827346,0.9345601686314199,-0.345837265253067,0.1072218790650368,-0.416567862033844,-0.08974169939756393,-0.03289667516946793,0.1061946973204613,XTrueNorthZVertical,0.5991706844806705,-0.3647363979923388,0.06352298001538777,0.7098779431291379,-0.593958854675293,-0.8043377995491028,-0.01592370122671127,-7.339668273925781,-42.62056350708008,-7.555089950561523,2,10.3.35.51,10.83.46.32,1,0
2015-02-27 16:59:52.936,118,1425085189.86202,37.7876262265869,-122.3965819179631,12.58486,-1,-1,10,65,-9999,1425085192.912871,-3.716957092285156,-44.61691284179688,-7.546768188476562,266.0443115234375,252.2710571289062,10,136837.1396520833,-0.506256103515625,-0.828826904296875,0.022735595703125,136837.1121194167,-0.2821786954087628,0.1064795719679841,-0.4584389468912211,136837.1121194167,1.064357313274504,-1.517059783108329,0.9548103769513628,-0.285738468170166,0.1200802698731422,-0.4194468855857849,0.03409815952181816,-0.007205836474895477,0.07889889925718307,XTrueNorthZVertical,0.5973879257620434,-0.3572276972365752,0.05477995544140572,0.7159016742928921,-0.5769295692443848,-0.8162041902542114,-0.03103207610547543,-6.785396575927734,-42.6287841796875,-8.012967109680176,2,10.3.35.51,10.83.46.32,1,0
2015-02-27 16:59:52.959,119,1425085189.86202,37.7876262265869,-122.3965819179631,12.58486,-1,-1,10,65,-9999,1425085192.912871,-3.716957092285156,-44.61691284179688,-7.546768188476562,266.0443115234375,252.2710571289062,10,136837.1887914167,-0.64447021484375,-0.783782958984375,0.0002593994140625,136837.1639010833,-0.2307325484189391,-0.06258322035242607,-0.3686390191465123,136837.1639010833,1.037887755223847,-1.493237707668269,0.9726736112301138,-0.234292283654213,-0.0489826574921608,-0.3296473622322083,0.009809398092329502,0.008935048244893551,0.03978366032242775,XTrueNorthZVertical,0.5956764303326731,-0.3512195220161191,0.04618145425602155,0.7208895361124641,-0.5613993406295776,-0.8263941407203674,-0.04362887516617775,-5.944740295410156,-42.63962936401367,-8.601426124572754,2,10.3.35.51,10.83.46.32,1,0
2015-02-27 16:59:53.040,120,1425085189.86202,37.7876262265869,-122.3965819179631,12.58486,-1,-1,10,65,-9999,1425085193.016331,-2.796150207519531,-45.7724609375,-8.27899169921875,268.5015258789062,254.7282867431641,10,136837.2377689584,-0.61151123046875,-0.872283935546875,-0.000823974609375,136837.2156836667,0.1619721259180742,-0.008496549141788802,-0.3230038896552415,136837.2156836667,1.032484437148289,-1.490301259974605,0.9879779004517285,0.1584124118089676,0.005103894043713808,-0.2840125858783722,-0.09590356051921844,0.02403219603002071,0.01234886236488819,XTrueNorthZVertical,0.5977693765536647,-0.3471948696133492,0.03981863904330846,0.7214859549889401,-0.5485971570014954,-0.8349147439002991,-0.04425498843193054,-4.857742309570312,-42.64775848388672,-9.221342086791992,2,10.3.35.51,10.83.46.32,1,0
2015-02-27 16:59:53.057,121,1425085189.86202,37.7876262265869,-122.3965819179631,12.58486,-1,-1,10,65,-9999,1425085193.016331,-2.796150207519531,-45.7724609375,-8.27899169921875,268.5015258789062,254.7282867431641,10,136837.28681625,-0.6728363037109375,-0.6977691650390625,0.1750335693359375,136837.267465375,0.2727574967364985,-0.4106455916525501,0.0734838050102294,136837.267465375,1.062602647698557,-1.526469441979501,0.985883277297547,0.269194096326828,-0.397062748670578,0.1125281453132629,-0.07220998406410217,0.004963709972798824,0.08293773233890533,XTrueNorthZVertical,0.6033468068064223,-0.3517664064600863,0.04049884241559965,0.7145578227536242,-0.5515845417976379,-0.8337600827217102,-0.02446605265140533,-4.722160339355469,-42.71100616455078,-8.996291160583496,2,10.3.35.51,10.83.46.32,1,0
2015-02-27 16:59:53.136,122,1425085189.86202,37.7876262265869,-122.3965819179631,12.58486,-1,-1,10,65,-9999,1425085193.120267,-2.642692565917969,-47.11491394042969,-8.062644958496094,269.459228515625,255.6859741210938,10,136837.3359244167,-1.039810180664062,-1.532806396484375,0.0485382080078125,136837.319247375,0.2151708992212791,-0.02062085632048354,0.1946243450952087,136837.319247375,1.096367860210138,-1.569426333414792,0.9712003938695756,0.2116075307130814,-0.00703815184533596,0.2336682975292206,-0.04137394577264786,-0.2819649875164032,0.04220071062445641,XTrueNorthZVertical,0.6075446884435978,-0.3612518538310978,0.04464068266752255,0.7059700924198535,-0.5643084049224854,-0.8255637288093567,-0.0007730993092991412,-5.029348373413086,-42.83091354370117,-8.226833343505859,2,10.3.35.51,10.83.46.32,1,0
2015-02-27 16:59:53.155,123,1425085189.86202,37.7876262265869,-122.3965819179631,12.58486,-1,-1,10,65,-9999,1425085193.120267,-2.642692565917969,-47.11491394042969,-8.062644958496094,269.459228515625,255.6859741210938,10,136837.3850617917,0.0263671875,-1.133346557617188,-0.2434539794921875,136837.371029625,0.3701176061837242,0.78105428134342,0.5337318372299413,136837.319247375,1.096367860210138,-1.569426333414792,0.9712003938695756,0.2116075307130814,-0.00703815184533596,0.2336682975292206,-0.04137394577264786,-0.2819649875164032,0.04220071062445641,XTrueNorthZVertical,0.6075446884435978,-0.3612518538310978,0.04464068266752255,0.7059700924198535,-0.5643084049224854,-0.8255637288093567,-0.0007730993092991412,-5.029348373413086,-42.83091354370117,-8.226833343505859,2,10.3.35.51,10.83.46.32,1,0
2015-02-27 16:59:53.233,124,1425085189.86202,37.7876262265869,-122.3965819179631,12.58486,-1,-1,10,65,-9999,1425085193.224417,-3.154243469238281,-46.36721801757812,-6.465057373046875,267.4418334960938,253.6685943603516,10,136837.434032,-0.6520538330078125,-0.6897125244140625,0.2653961181640625,136837.422811625,0.5910609070677501,-0.0575261437584746,-0.05587631546317051,136837.422811625,1.173067013949381,-1.636252113908789,0.9488101833431185,0.5874975919723511,-0.04394369944930077,-0.0168331041932106,-0.227267250418663,0.0857788622379303,0.180395245552063,XTrueNorthZVertical,0.6194311519745875,-0.3679135200463462,0.05888320547391923,0.6909974458248095,-0.5814027786254883,-0.8127228617668152,0.03811062127351761,-6.349815368652344,-42.98108291625977,-6.306247711181641,2,10.3.35.51,10.83.46.32,1,0
2015-02-27 16:59:53.253,125,1425085189.86202,37.7876262265869,-122.3965819179631,12.58486,-1,-1,10,65,-9999,1425085193.224417,-3.154243469238281,-46.36721801757812,-6.465057373046875,267.4418334960938,253.6685943603516,10,136837.483087125,-0.605072021484375,-0.71441650390625,0.102142333984375,136837.4745935417,0.8212690790680526,0.4365171363782339,-0.2375643555633194,136837.422811625,1.173067013949381,-1.636252113908789,0.9488101833431185,0.5874975919723511,-0.04394369944930077,-0.0168331041932106,-0.227267250418663,0.0857788622379303,0.180395245552063,XTrueNorthZVertical,0.6194311519745875,-0.3679135200463462,0.05888320547391923,0.6909974458248095,-0.5814027786254883,-0.8127228617668152,0.03811062127351761,-6.349815368652344,-42.98108291625977,-6.306247711181641,2,10.3.35.51,10.83.46.32,1,0
2015-02-27 16:59:53.338,126,1425085189.86202,37.7876262265869,-122.3965819179631,12.58486,-1,-1,10,65,-9999,1425085193.32726,-2.06292724609375,-45.85739135742188,-3.303146362304688,264.7352600097656,250.9620208740234,10,136837.53218725,-0.5657806396484375,-0.794769287109375,0.14556884765625,136837.5263758333,0.8834216662722129,0.7189919753002135,-0.201994909728112,136837.4745935417,1.243285198929463,-1.677608846975514,0.9539806881620998,0.8177058100700378,0.4500994086265564,-0.1985215693712234,-0.01201419811695814,0.09380072355270386,0.05808369815349579,XTrueNorthZVertical,0.6342828575827436,-0.3584953216314564,0.06816688100822406,0.6815567838202408,-0.5751439929008484,-0.8157245516777039,0.06166727840900421,-6.540927886962891,-43.08997344970703,-5.285164833068848,2,10.3.35.51,10.83.46.32,1,0
2015-02-27 16:59:53.352,127,1425085189.86202,37.7876262265869,-122.3965819179631,12.58486,-1,-1,10,65,-9999,1425085193.32726,-2.06292724609375,-45.85739135742188,-3.303146362304688,264.7352600097656,250.9620208740234,10,136837.5812514167,-0.571868896484375,-0.80841064453125,0.26397705078125,136837.5781576667,0.8783310338485264,0.7501935706315819,-0.1795322111977297,136837.5263758333,1.318070446220238,-1.709176172947137,0.9577282386392723,0.8798584342002869,0.7325741648674011,-0.1629525274038315,-0.006094156298786402,0.02877827920019627,0.06647644191980362,XTrueNorthZVertical,0.6491035968568495,-0.3440175183764156,0.08203273818803314,0.673488759932754,-0.5698793530464172,-0.8178865313529968,0.07936706393957138,-5.793014526367188,-43.42984008789062,-2.784326791763306,2,10.3.35.51,10.83.46.32,1,0
2015-02-27 16:59:53.434,128,1425085189.86202,37.7876262265869,-122.3965819179631,12.58486,-1,-1,10,65,-9999,1425085193.380187,-1.807151794433594,-45.67048645019531,-1.023246765136719,261.5900573730469,247.8168029785156,10,136837.630339,-0.56317138671875,-0.82025146484375,0.2725982666015625,136837.6299395417,0.7944547753164808,0.6070316178088463,-0.2002318970864796,136837.5781576667,1.395768096650562,-1.736440089950493,0.9598656280659612,0.8747677803039551,0.7637755870819092,-0.1404901742935181,-0.034731175750494,0.03604869917035103,0.1448413282632828,XTrueNorthZVertical,0.663615333761495,-0.3269661315654329,0.09833556582576208,0.6656109722594983,-0.5657784938812256,-0.8191145062446594,0.09458432346582413,-5.521800994873047,-43.51829147338867,-1.769317150115967,2,10.3.35.51,10.83.46.32,1,0
2015-02-27 16:59:53.450,129,1425085189.86202,37.7876262265869,-122.3965819179631,12.58486,-1,-1,10,65,-9999,1425085193.430914,-1.994728088378906,-45.17765808105469,0.6908416748046875,259.0042724609375,245.2310333251953,10,136837.6793854584,-0.5465850830078125,-0.84259033203125,0.3545074462890625,136837.6299395417,0.7944547753164808,0.6070316178088463,-0.2002318970864796,136837.6299395417,1.469619047901892,-1.763129457387768,0.9590408781288947,0.7908919453620911,0.6206132769584656,-0.1611901819705963,0.006541109643876553,-0.03720910474658012,0.1693660765886307,XTrueNorthZVertical,0.6767385705921793,-0.3113101564796177,0.1141101204216678,0.6573353681763928,-0.5637158155441284,-0.8186411261558533,0.1097782105207443,-5.163967132568359,-43.59746170043945,-0.2389168739318848,2,10.3.35.51,10.83.46.32,1,0
2015-02-27 16:59:53.538,130,1425085189.86202,37.7876262265869,-122.3965819179631,12.58486,-1,-1,10,65,-9999,1425085193.535206,-1.653694152832031,-44.63386535644531,3.886039733886719,253.6979370117188,239.9246826171875,10,136837.7284664583,-0.5064544677734375,-0.8353118896484375,0.223907470703125,136837.7335038334,0.4071334148069536,0.4796307849494177,-0.2097758674849965,136837.6817222083,1.534558131574245,-1.785828290310961,0.9596699135994144,0.6581425070762634,0.6365625262260437,-0.1784798502922058,0.01399066299200058,-0.02358811907470226,0.2320728302001953,XTrueNorthZVertical,0.6880280137535796,-0.2963693010276138,0.1273701837736668,0.6500457970611927,-0.5605757236480713,-0.8190022110939026,0.1224346235394478,-4.723188400268555,-43.59640502929688,2.12311053276062,2,10.3.35.51,10.83.46.32,1,0
2015-02-27 16:59:53.548,131,1425085189.86202,37.7876262265869,-122.3965819179631,12.58486,-1,-1,10,65,-9999,1425085193.535206,-1.653694152832031,-44.63386535644531,3.886039733886719,253.6979370117188,239.9246826171875,10,136837.7775084584,-0.4788055419921875,-0.8577117919921875,0.2144012451171875,136837.7335038334,0.4071334148069536,0.4796307849494177,-0.2097758674849965,136837.7335038334,1.582086055234852,-1.794592002292872,0.9627929090415422,0.403570681810379,0.4932121634483337,-0.1707349717617035,0.05053010582923889,-0.01452172920107841,0.09713315218687057,XTrueNorthZVertical,0.6957009171820496,-0.2817576823550496,0.1386530932043888,0.6460558600489372,-0.556984543800354,-0.82079017162323,0.1267743110656738,-4.548412322998047,-43.57114028930664,2.886201143264771,2,10.3.35.51,10.83.46.32,1,0
2015-02-27 16:59:53.608,132,1425085189.86202,37.7876262265869,-122.3965819179631,12.58486,-1,-1,10,65,-9999,1425085193.58699,-1.466117858886719,-44.54887390136719,4.834609985351562,252.7802124023438,239.0069580078125,10,136837.8265837083,-0.57574462890625,-0.8411102294921875,0.2159881591796875,136837.78528575,0.2812239521579694,0.3879115170070887,-0.1644222341209471,136837.78528575,1.621043400793761,-1.809473003137806,0.970265053715205,0.2776201367378235,0.4016360938549042,-0.1254174709320068,0.07025626301765442,-0.03267627209424973,0.08080650120973587,XTrueNorthZVertical,0.7025820392183978,-0.270510351368473,0.1434201371307714,0.6423653979849516,-0.5490617752075195,-0.8250355124473572,0.1335947513580322,-4.265996932983398,-43.54110717773438,3.665453672409058,2,10.3.35.51,10.83.46.32,1,0
2015-02-27 16:59:53.646,133,1425085189.86202,37.7876262265869,-122.3965819179631,12.58486,-1,-1,10,65,-9999,1425085193.58699,-1.466117858886719,-44.54887390136719,4.834609985351562,252.7802124023438,239.0069580078125,10,136837.875636875,-0.519378662109375,-0.8206787109375,0.1619415283203125,136837.83706825,0.2108469908754264,0.4500736915911732,-0.1487402100420155,136837.83706825,1.642887136185671,-1.808877973650193,0.9724880907250866,0.2072432190179825,0.4637981057167053,-0.1097358763217926,-0.008550708182156086,-0.02257202006876469,0.06925226747989655,XTrueNorthZVertical,0.7055650282534102,-0.2619075380980323,0.1498760116587304,0.6411861085638213,-0.5473574995994568,-0.8262896537780762,0.1328351348638535,-3.761697769165039,-43.49655151367188,4.621908187866211,2,10.3.35.51,10.83.46.32,1,0
2015-02-27 16:59:53.709,134,1425085189.86202,37.7876262265869,-122.3965819179631,12.58486,-1,-1,10,65,-9999,1425085193.664247,-1.568428039550781,-44.17501831054688,5.367141723632812,251.5077514648438,237.7344970703125,10,136837.9247219583,-0.5558929443359375,-0.819580078125,0.2143096923828125,136837.88885025,0.2100874573325358,0.3768689858631841,-0.1163106311320116,136837.88885025,1.664995044797061,-1.80512222788867,0.9757665921195262,0.2064837068319321,0.3905932903289795,-0.07730669528245926,0.01867959648370743,0.01355663686990738,0.02828323468565941,XTrueNorthZVertical,0.7082796794736026,-0.2518219246936851,0.1571675310509788,0.6404873092922536,-0.5452146530151367,-0.8281318545341492,0.1301487684249878,-3.676721572875977,-43.47826766967773,4.856388568878174,2,10.3.35.51,10.83.46.32,1,0
2015-02-27 16:59:53.744,135,1425085189.86202,37.7876262265869,-122.3965819179631,12.58486,-1,-1,10,65,-9999,1425085193.715796,-1.210342407226562,-44.1920166015625,5.916313171386719,250.160888671875,236.3876342773438,10,136837.9737843333,-0.5587005615234375,-0.79022216796875,0.20135498046875,136837.9406319583,0.1178446119198973,0.4055951729613239,-0.04225451280352422,136837.9406319583,1.68413846936333,-1.805221143734406,0.9732065874533882,0.1142676919698715,0.4193035066127777,-0.003243621904402971,-0.03425044938921928,0.04190411418676376,0.07911363244056702,XTrueNorthZVertical,0.7105499288134569,-0.2458986764994771,0.1641238560889763,0.6385264377566795,-0.5472620129585266,-0.826694130897522,0.130694717168808,-3.564924240112305,-43.4467658996582,5.208860397338867,2,10.3.35.51,10.83.46.32,1,0
2015-02-27 16:59:53.806,136,1425085189.86202,37.7876262265869,-122.3965819179631,12.58486,-1,-1,10,65,-9999,1425085193.767793,-0.9886703491210938,-44.03909301757812,6.432212829589844,248.7299041748047,234.9566497802734,10,136838.0228674167,-0.5029449462890625,-0.845367431640625,0.2266693115234375,136837.9924145833,0.1239219455274581,0.6100782740958969,-0.1036952370483063,136837.9924145833,1.70497369305717,-1.797606435496714,0.9698188489544266,0.1203697547316551,0.6237697005271912,-0.06466832756996155,-0.002041961764916778,0.01062008738517761,0.08907952159643173,XTrueNorthZVertical,0.7122699308246616,-0.2371664744320981,0.1746225841503584,0.6371268119031603,-0.5509670972824097,-0.8247832655906677,0.1271527856588364,-3.807500839233398,-43.3300666809082,5.955742835998535,2,10.3.35.51,10.83.46.32,1,0
2015-02-27 16:59:53.844,137,1425085189.86202,37.7876262265869,-122.3965819179631,12.58486,-1,-1,10,65,-9999,1425085193.819245,-0.9204635620117188,-43.59725952148438,6.964744567871094,246.3719940185547,232.5987396240234,10,136838.0719200833,-0.4173583984375,-0.89227294921875,0.09295654296875,136838.0441963333,0.176717516241625,0.6152509318811579,-0.07578664040482092,136838.0441963333,1.727198433263769,-1.789132660912488,0.9771285076046761,0.1731930524110794,0.6289330720901489,-0.03679131716489792,0.08056338131427765,-0.03400531783699989,0.04080169647932053,XTrueNorthZVertical,0.7143851297426089,-0.2241407183789692,0.1822685316568907,0.6373327383930548,-0.546124279499054,-0.8288944363594055,0.121170349419117,-3.730419158935547,-43.30615234375,6.174406051635742,2,10.3.35.51,10.83.46.32,1,0
2015-02-27 16:59:53.912,138,1425085189.86202,37.7876262265869,-122.3965819179631,12.58486,-1,-1,10,65,-9999,1425085193.871484,-1.755996704101562,-43.41035461425781,7.414070129394531,244.7202758789062,230.947021484375,10,136838.1209945417,-0.4951934814453125,-0.78558349609375,0.124847412109375,136838.095978375,0.2535521105353921,0.512512568612517,0.02085601344473754,136838.095978375,1.749379653945002,-1.779230142430243,0.9781421414193311,0.250021755695343,0.5262022018432617,0.05982428789138794,0.04226367175579071,-0.008307485841214657,-0.03086577542126179,XTrueNorthZVertical,0.7159196346878343,-0.2127213271473949,0.1925345535666629,0.6365054372279381,-0.5464751124382019,-0.8294610977172852,0.1155825704336166,-3.598236083984375,-43.27860260009766,6.440317630767822,2,10.3.35.51,10.83.46.32,1,0
2015-02-27 16:59:53.945,139,1425085189.86202,37.7876262265869,-122.3965819179631,12.58486,-1,-1,10,65,-9999,1425085193.925001,-2.352806091308594,-43.05351257324219,7.696975708007812,243.2993316650391,229.5260772705078,10,136838.1700295417,-0.566986083984375,-0.766021728515625,0.210906982421875,136838.1477607084,0.1747118896246863,0.3623691389921387,0.134876858671499,136838.1477607084,1.762663217397111,-1.766038670485047,0.9704604907585064,0.1711835265159607,0.3760581016540527,0.1738423109054565,-0.01374557334929705,0.03257391974329948,0.01554050017148256,XTrueNorthZVertical,0.7157046117573633,-0.2063136520359392,0.2040335689314854,0.6352730914612003,-0.5541865825653076,-0.825145959854126,0.1095968261361122,-3.865184783935547,-43.17023086547852,6.989572048187256,2,10.3.35.51,10.83.46.32,1,0
2015-02-27 16:59:54.009,140,1425085189.86202,37.7876262265869,-122.3965819179631,12.58486,-1,-1,10,65,-9999,1425085193.975089,-2.69384765625,-42.88357543945312,8.196220397949219,241.0082550048828,227.2350006103516,10,136838.2191070833,-0.5420684814453125,-0.6342620849609375,0.1834869384765625,136838.1995427083,0.4571052358173094,0.3924681856322143,0.3036363169437492,136838.1995427083,1.790995211511341,-1.774394092121521,0.9499559502729209,0.4536051750183105,0.4061387777328491,0.3426242172718048,-0.03841996565461159,0.1155291646718979,0.1014655604958534,XTrueNorthZVertical,0.7187142291351837,-0.2055721823053188,0.2167497674688741,0.6278610397976538,-0.5697038173675537,-0.8133898973464966,0.1176201328635216,-4.293115615844727,-43.06943511962891,7.352250576019287,2,10.3.35.51,10.83.46.32,1,0
2015-02-27 16:59:54.045,141,1425085189.86202,37.7876262265869,-122.3965819179631,12.58486,-1,-1,10,65,-9999,1425085194.025964,-3.836318969726562,-41.94894409179688,9.244651794433594,237.6765747070312,223.9033203125,10,136838.268160375,-0.46923828125,-0.7725677490234375,0.003936767578125,136838.2513244583,0.4656976587583411,0.6322759880978164,0.6975567243183837,136838.2513244583,1.823221761174836,-1.772651529572833,0.9171604836122941,0.4621976315975189,0.6459464430809021,0.7365442514419556,0.06156622990965843,0.1335998624563217,-0.01571046002209187,XTrueNorthZVertical,0.7205839789722117,-0.2042413905735151,0.2381035886805472,0.6183452732700161,-0.5957306623458862,-0.7938781976699829,0.1219116300344467,-5.053489685058594,-42.86117553710938,8.052597045898438,2,10.3.35.51,10.83.46.32,1,0
2015-02-27 16:59:54.144,142,1425085189.86202,37.7876262265869,-122.3965819179631,12.58486,-1,-1,10,65,-9999,1425085194.129811,-7.741188049316406,-39.58694458007812,10.79232025146484,227.7329711914062,213.959716796875,10,136838.3172519583,-0.5694580078125,-0.7364501953125,0.0569000244140625,136838.303107125,0.3862518350157513,0.5824711472878085,0.8273938169430168,136838.303107125,1.846709214283395,-1.75944151043913,0.8742119773824155,0.382751852273941,0.5961414575576782,0.8663809895515442,0.0532994456589222,0.01848772913217545,0.0004243636794853956,XTrueNorthZVertical,0.7195706461953232,-0.2058574803585502,0.2638415509707795,0.6084639933377837,-0.6302189826965332,-0.7670381665229797,0.1203184351325035,-7.633039474487305,-42.21091079711914,9.35084056854248,2,10.3.35.51,10.83.46.32,1,0
2015-02-27 16:59:54.146,143,1425085189.86202,37.7876262265869,-122.3965819179631,12.58486,-1,-1,10,65,-9999,1425085194.129811,-7.741188049316406,-39.58694458007812,10.79232025146484,227.7329711914062,213.959716796875,10,136838.3662976667,-0.5565338134765625,-0.5455169677734375,0.11077880859375,136838.3548888333,0.181793234963207,0.5393814671664354,1.452685398765991,136838.303107125,1.846709214283395,-1.75944151043913,0.8742119773824155,0.382751852273941,0.5961414575576782,0.8663809895515442,0.0532994456589222,0.01848772913217545,0.0004243636794853956,XTrueNorthZVertical,0.7195706461953232,-0.2058574803585502,0.2638415509707795,0.6084639933377837,-0.6302189826965332,-0.7670381665229797,0.1203184351325035,-7.633039474487305,-42.21091079711914,9.35084056854248,2,10.3.35.51,10.83.46.32,1,0
2015-02-27 16:59:54.209,144,1425085189.86202,37.7876262265869,-122.3965819179631,12.58486,-1,-1,10,65,-9999,1425085194.182262,-11.15155792236328,-38.29545593261719,11.39142608642578,220.0299682617188,206.2567138671875,10,136838.415376375,-0.61163330078125,-0.655487060546875,0.1213836669921875,136838.406670875,0.1278692828951735,0.5655105395695299,1.907156235632995,136838.406670875,1.844183248283118,-1.699740643901207,0.7231838357246571,0.1243693828582764,0.5791805386543274,1.946142554283142,0.1486300528049469,0.01811345294117928,0.02038854546844959,XTrueNorthZVertical,0.7009713527398095,-0.2384119869074703,0.3314314472770564,0.5847667015020126,-0.7434786558151245,-0.6617749333381653,0.09640222787857056,-11.77084064483643,-41.14845657348633,9.783378601074219,2,10.3.35.51,10.83.46.32,1,0
2015-02-27 16:59:54.240,145,1425085189.86202,37.7876262265869,-122.3965819179631,12.58486,-1,-1,10,65,-9999,1425085194.234283,-15.60208892822266,-36.51115417480469,11.14180755615234,213.36181640625,199.5885620117188,10,136838.4644218333,-0.6339569091796875,-0.6074676513671875,-0.018890380859375,136838.45845325,-0.2555763792799613,1.057867772420109,2.407940242804802,136838.406670875,1.844183248283118,-1.699740643901207,0.7231838357246571,0.1243693828582764,0.5791805386543274,1.946142554283142,0.1486300528049469,0.01811345294117928,0.02038854546844959,XTrueNorthZVertical,0.7009713527398095,-0.2384119869074703,0.3314314472770564,0.5847667015020126,-0.7434786558151245,-0.6617749333381653,0.09640222787857056,-11.77084064483643,-41.14845657348633,9.783378601074219,2,10.3.35.51,10.83.46.32,1,0
2015-02-27 16:59:54.294,146,1425085189.86202,37.7876262265869,-122.3965819179631,12.58486,-1,-1,10,65,-9999,1425085194.285747,-20.87110137939453,-33.7752685546875,10.15995025634766,203.0664825439453,189.2932281494141,10,136838.51351275,-0.758453369140625,-0.6602020263671875,0.01715087890625,136838.51023525,-0.3898915772775626,0.7619988311116851,2.728792031983151,136838.45845325,1.82652508097623,-1.643244782184515,0.6120953322151826,-0.2590762376785278,1.071537733078003,2.446926116943359,0.1779627203941345,-0.03547801077365875,-0.04619701951742172,XTrueNorthZVertical,0.6780521567461005,-0.2643235028145171,0.3791548940134433,0.5715067254461972,-0.8162989020347595,-0.5745836496353149,0.05924328416585922,-18.23226165771484,-38.84046173095703,9.298686981201172,2,10.3.35.51,10.83.46.32,1,0
2015-02-27 16:59:54.336,147,1425085189.86202,37.7876262265869,-122.3965819179631,12.58486,-1,-1,10,65,-9999,1425085194.285747,-20.87110137939453,-33.7752685546875,10.15995025634766,203.0664825439453,189.2932281494141,10,136838.5625505833,-1.082382202148438,-0.384918212890625,-0.0004730224609375,136838.562017,-0.3373857584899964,0.619692019314974,2.811798768419286,136838.51023525,1.799203486815906,-1.582738826167683,0.4816011179984364,-0.3933914005756378,0.7756686210632324,2.767777442932129,0.1902989000082016,-0.1751221567392349,0.04610256105661392,XTrueNorthZVertical,0.645192943788979,-0.2983588209208675,0.4290241717524788,0.5573565749217251,-0.8861912488937378,-0.4631987810134888,0.01058384124189615,-21.3428897857666,-37.44609069824219,8.350655555725098,2,10.3.35.51,10.83.46.32,1,0
