loggingTime,loggingSample,locationTimestamp_since1970,locationLatitude,locationLongitude,locationAltitude,locationSpeed,locationCourse,locationVerticalAccuracy,locationHorizontalAccuracy,locationFloor,locationHeadingTimestamp_since1970,locationHeadingX,locationHeadingY,locationHeadingZ,locationTrueHeading,locationMagneticHeading,locationHeadingAccuracy,accelerometerTimestamp_sinceReboot,accelerometerAccelerationX,accelerometerAccelerationY,accelerometerAccelerationZ,gyroTimestamp_sinceReboot,gyroRotationX,gyroRotationY,gyroRotationZ,motionTimestamp_sinceReboot,motionYaw,motionRoll,motionPitch,motionRotationRateX,motionRotationRateY,motionRotationRateZ,motionUserAccelerationX,motionUserAccelerationY,motionUserAccelerationZ,motionAttitudeReferenceFrame,motionQuaternionX,motionQuaternionY,motionQuaternionZ,motionQuaternionW,motionGravityX,motionGravityY,motionGravityZ,motionMagneticFieldX,motionMagneticFieldY,motionMagneticFieldZ,motionMagneticFieldCalibrationAccuracy,IP_en0,IP_pdp_ip0,deviceOrientation,state
2015-03-08 12:34:58.815,1,1425843297.342567,33.32732561647595,-111.9424029294046,355.9891,-1,-1,10,374.3674753105935,-9999,1425843298.755051,-2.009506225585938,-16.65380859375,-39.59163665771484,62.62308120727539,52.09999084472656,25,323903.3692413333,0.4175262451171875,-0.6658172607421875,-0.7456512451171875,323903.348232125,-0.08442327181994788,0.5463581502741161,-0.02098091569986225,323903.348232125,-2.620287588219207,0.4441448650312028,0.7128507102868968,-0.1012297421693802,0.5630911588668823,0.01252037845551968,-0.0128780622035265,0.01269660238176584,-0.001451305812224746,XTrueNorthZVertical,-0.2871507808578705,0.2756674719601693,0.8634533977840245,-0.3098388908085984,0.3250576257705688,-0.6539930105209351,-0.6831037402153015,-2.443353652954102,-16.80947113037109,-40.40467071533203,1,0.0.0.0,10.26.35.92,1,0
2015-03-08 12:34:58.867,2,1425843297.342567,33.32732561647595,-111.9424029294046,355.9891,-1,-1,10,374.3674753105935,-9999,1425843298.857101,-1.429737091064453,-16.17800903320312,-39.82461929321289,60.64987182617188,50.12678146362305,25,323903.4183084167,0.316680908203125,-0.6437835693359375,-0.669525146484375,323903.400005125,0.06946110018366471,-0.09945628354122717,0.1234833228959221,323903.400005125,-2.615864488631069,0.4514888592003254,0.712343196827386,0.05265481397509575,-0.08272348344326019,0.1569842547178268,0.04225674271583557,0.003584556980058551,-0.02369996346533298,XTrueNorthZVertical,-0.2908847602395355,0.2736561903068849,0.8618007308919282,-0.3127265266134669,0.3302102982997894,-0.6536089777946472,-0.6809967160224915,-1.283975601196289,-16.51708793640137,-40.5783576965332,1,0.0.0.0,10.26.35.92,1,0
2015-03-08 12:34:58.870,3,1425843297.342567,33.32732561647595,-111.9424029294046,355.9891,-1,-1,10,374.3674753105935,-9999,1425843298.857101,-1.429737091064453,-16.17800903320312,-39.82461929321289,60.64987182617188,50.12678146362305,25,323903.4673963333,0.2990264892578125,-0.6287078857421875,-0.6593170166015625,323903.45177575,0.03957723695966756,-0.04935876132741959,-0.04286064826762625,323903.400005125,-2.615864488631069,0.4514888592003254,0.712343196827386,0.05265481397509575,-0.08272348344326019,0.1569842547178268,0.04225674271583557,0.003584556980058551,-0.02369996346533298,XTrueNorthZVertical,-0.2908847602395355,0.2736561903068849,0.8618007308919282,-0.3127265266134669,0.3302102982997894,-0.6536089777946472,-0.6809967160224915,-1.283975601196289,-16.51708793640137,-40.5783576965332,1,0.0.0.0,10.26.35.92,1,0
2015-03-08 12:34:58.896,4,1425843297.342567,33.32732561647595,-111.9424029294046,355.9891,-1,-1,10,374.3674753105935,-9999,1425843298.857101,-1.429737091064453,-16.17800903320312,-39.82461929321289,60.64987182617188,50.12678146362305,25,323903.5164745834,0.3287506103515625,-0.6309051513671875,-0.6715087890625,323903.50354875,0.02247894381303183,0.1391989028045887,-0.002331863850473381,323903.50354875,-2.612311489655025,0.4467712093850081,0.7163375181417465,0.005672979168593884,0.1559313833713531,0.03116842545568943,-0.0006527759833261371,0.01841267012059689,0.007900024764239788,XTrueNorthZVertical,-0.2896660719263701,0.275681085063859,0.8611630851193405,-0.313833843597174,0.3258633613586426,-0.6566267609596252,-0.6801869869232178,-1.637706756591797,-16.62927436828613,-40.51976013183594,1,0.0.0.0,10.26.35.92,1,0
2015-03-08 12:34:58.951,5,1425843297.342567,33.32732561647595,-111.9424029294046,355.9891,-1,-1,10,374.3674753105935,-9999,1425843298.910037,-1.685512542724609,-16.22900390625,-39.80797958374023,61.06405639648438,50.54096603393555,25,323903.5654680834,0.329315185546875,-0.674041748046875,-0.6621856689453125,323903.5553217917,0.03293051951104779,0.239367315621303,0.01836169676776932,323903.5553217917,-2.610317125730503,0.4548386372097916,0.7179363479938162,0.01612472347915173,0.2560996413230896,0.05186165124177933,-0.01764598675072193,0.02053321897983551,0.02098293043673038,XTrueNorthZVertical,-0.2935413102538881,0.2748408050324836,0.8593651293089185,-0.3158918169846572,0.3308784067630768,-0.6578317880630493,-0.6765920519828796,-1.323631286621094,-16.63657379150391,-40.52823638916016,1,0.0.0.0,10.26.35.92,1,0
2015-03-08 12:34:59.000,6,1425843297.342567,33.32732561647595,-111.9424029294046,355.9891,-1,-1,10,374.3674753105935,-9999,1425843298.960947,-1.225116729736328,-16.14404296875,-40.02431869506836,60.42971038818359,49.90662002563477,25,323903.614541875,0.34954833984375,-0.649871826171875,-0.6676177978515625,323903.607092625,0.01494539372141568,0.1690766407580786,0.02873124710421085,323903.5553217917,-2.610317125730503,0.4548386372097916,0.7179363479938162,0.01612472347915173,0.2560996413230896,0.05186165124177933,-0.01764598675072193,0.02053321897983551,0.02098293043673038,XTrueNorthZVertical,-0.2935413102538881,0.2748408050324836,0.8593651293089185,-0.3158918169846572,0.3308784067630768,-0.6578317880630493,-0.6765920519828796,-1.323631286621094,-16.63657379150391,-40.52823638916016,1,0.0.0.0,10.26.35.92,1,0
2015-03-08 12:34:59.084,7,1425843297.342567,33.32732561647595,-111.9424029294046,355.9891,-1,-1,10,374.3674753105935,-9999,1425843299.073529,-0.2702217102050781,-16.48388671875,-39.75805282592773,59.48445129394531,48.96136093139648,25,323903.6635992083,0.2660980224609375,-0.6319732666015625,-0.5982818603515625,323903.6588655417,0.08476921644554918,0.208177171882622,0.1254753673913013,323903.607092625,-2.607657921624037,0.4662701871976589,0.7187618120581105,-0.001854294678196311,0.185820683836937,0.06222251802682877,0.01927335374057293,0.0029662293381989,0.006752860266715288,XTrueNorthZVertical,-0.2988780310811087,0.2730051656618254,0.8570907338534399,-0.3186465290068071,0.3383468985557556,-0.6584532856941223,-0.6722801923751831,-0.9049367904663086,-16.63914108276367,-40.5386962890625,1,0.0.0.0,10.26.35.92,1,0
2015-03-08 12:34:59.096,8,1425843297.342567,33.32732561647595,-111.9424029294046,355.9891,-1,-1,10,374.3674753105935,-9999,1425843299.073529,-0.2702217102050781,-16.48388671875,-39.75805282592773,59.48445129394531,48.96136093139648,25,323903.712674125,0.2462310791015625,-0.632843017578125,-0.5531768798828125,323903.7106385833,-0.02378442537938867,1.296906187646787,0.2290688716859666,323903.7106385833,-2.592128741196147,0.5010468523126459,0.727190341104484,-0.04058388993144035,1.313650250434875,0.2625592052936554,-0.1032844409346581,0.03199133649468422,0.1006530746817589,XTrueNorthZVertical,-0.316482801266993,0.2687552490261318,0.847573262026419,-0.3304978858744335,0.3588386476039886,-0.6647733449935913,-0.6552184820175171,0.08762168884277344,-16.74766540527344,-40.50399780273438,1,0.0.0.0,10.26.35.92,1,0
2015-03-08 12:34:59.141,9,1425843297.342567,33.32732561647595,-111.9424029294046,355.9891,-1,-1,10,374.3674753105935,-9999,1425843299.073529,-0.2702217102050781,-16.48388671875,-39.75805282592773,59.48445129394531,48.96136093139648,25,323903.7617277083,0.3296356201171875,-0.802276611328125,-0.4362640380859375,323903.7106385833,-0.02378442537938867,1.296906187646787,0.2290688716859666,323903.7106385833,-2.592128741196147,0.5010468523126459,0.727190341104484,-0.04058388993144035,1.313650250434875,0.2625592052936554,-0.1032844409346581,0.03199133649468422,0.1006530746817589,XTrueNorthZVertical,-0.316482801266993,0.2687552490261318,0.847573262026419,-0.3304978858744335,0.3588386476039886,-0.6647733449935913,-0.6552184820175171,0.08762168884277344,-16.74766540527344,-40.50399780273438,1,0.0.0.0,10.26.35.92,1,0
2015-03-08 12:34:59.189,10,1425843297.342567,33.32732561647595,-111.9424029294046,355.9891,-1,-1,10,374.3674753105935,-9999,1425843299.141676,3.106029510498047,-16.34796142578125,-39.92446517944336,56.1844596862793,45.66136932373047,25,323903.810799875,0.4074249267578125,-0.6318817138671875,-0.5164337158203125,323903.8141825,-0.3850803104522255,4.216139004968742,1.052634927194213,323903.76240925,-2.558233975570744,0.581537057350535,0.73233699359496,-0.306178092956543,2.821862936019897,0.8304502367973328,-0.07883818447589874,-0.1336673349142075,0.1851141154766083,XTrueNorthZVertical,-0.355013260077759,0.2515482227720406,0.8272134721662162,-0.3555375967494545,0.408473789691925,-0.6686092615127563,-0.6213781833648682,2.446231842041016,-16.63973236083984,-40.47469711303711,1,0.0.0.0,10.26.35.92,1,0
2015-03-08 12:34:59.234,11,1425843297.342567,33.32732561647595,-111.9424029294046,355.9891,-1,-1,10,374.3674753105935,-9999,1425843299.193713,7.675926208496094,-16.07608032226562,-39.65819931030273,50.39500045776367,39.87191009521484,25,323903.8598475833,0.7368621826171875,-0.6531524658203125,-0.6561126708984375,323903.8141825,-0.3850803104522255,4.216139004968742,1.052634927194213,323903.8141825,-2.471459922397854,0.7155417651209252,0.7569871905650153,-0.4018712341785431,4.232884407043457,1.086126685142517,-0.0694461315870285,0.05485281348228455,0.03219157829880714,XTrueNorthZVertical,-0.4211218686761208,0.2198720642894485,0.7794290737404471,-0.4084152305220923,0.4768710434436798,-0.6867345571517944,-0.5486252903938293,6.997112274169922,-16.32006645202637,-40.07195663452148,1,0.0.0.0,10.26.35.92,1,0
2015-03-08 12:34:59.297,12,1425843297.342567,33.32732561647595,-111.9424029294046,355.9891,-1,-1,10,374.3674753105935,-9999,1425843299.246634,13.69521713256836,-16.02511596679688,-38.44335556030273,43.00819396972656,32.48510360717773,25,323903.9089349583,0.5966033935546875,-0.653961181640625,-0.5740814208984375,323903.8659554584,-0.1540835764531505,1.957934461821426,0.6529708802966041,323903.8659554584,-2.424103480053114,0.8433594688538465,0.7716881902931355,-0.1708743572235107,1.974679946899414,0.6864622831344604,0.2015466690063477,0.04419374838471413,-0.1795147508382797,XTrueNorthZVertical,-0.4756206863168134,0.1883772784373697,0.7374279505324665,-0.4410204257582816,0.5353155136108398,-0.6973462104797363,-0.476597934961319,15.25060272216797,-16.13359069824219,-37.79142761230469,1,0.0.0.0,10.26.35.92,1,0
2015-03-08 12:34:59.547,13,1425843299.340419,33.32523870097949,-111.9417238315119,355.7778,-1,-1,10,65,-9999,1425843299.41785,17.66829299926758,-17.19760131835938,-36.59613418579102,33.64817810058594,23.12508773803711,25,323903.957976375,0.3390350341796875,-0.69769287109375,-0.3966827392578125,323903.9177262083,0.1532731765334394,-0.4574122982909956,1.044883796841537,323903.9177262083,-2.381363972733285,0.8365529467289287,0.8054921111271852,0.1364825665950775,-0.4406670331954956,1.078374981880188,0.08234401047229767,0.06721045821905136,-0.1099168136715889,XTrueNorthZVertical,-0.4798991559141629,0.1939445663591009,0.7216021424063526,-0.4597528551881906,0.514259397983551,-0.7211716175079346,-0.4641646146774292,17.52388000488281,-16.45805740356445,-36.64849090576172,1,0.0.0.0,10.26.35.92,1,0
2015-03-08 12:34:59.689,14,1425843299.340419,33.32523870097949,-111.9417238315119,355.7778,-1,-1,10,65,-9999,1425843299.47751,20.3795280456543,-19.76358032226562,-34.18309783935547,17.29934692382812,6.776257991790771,25,323904.0070445,0.325958251953125,-0.8078460693359375,-0.323944091796875,323903.96949925,0.1620613418145919,0.1288083134955355,1.214774033312635,323903.96949925,-2.330699545482493,0.7829273855605346,0.8530191807644782,0.1452709138393402,0.1455534100532532,1.248264789581299,-0.1530242264270782,0.03870049491524696,0.08345350623130798,XTrueNorthZVertical,-0.4700293855149746,0.2143881130719391,0.7110592417774977,-0.4769747402694985,0.4639220535755157,-0.7532696127891541,-0.4662202298641205,16.20033836364746,-17.46465873718262,-36.79130935668945,1,0.0.0.0,10.26.35.92,1,0
2015-03-08 12:34:59.782,15,1425843299.340419,33.32523870097949,-111.9417238315119,355.7778,-1,-1,10,65,-9999,1425843299.662535,23.07372283935547,-23.77398681640625,-30.65507125854492,348.851318359375,338.3282165527344,25,323904.0560931667,0.4557037353515625,-0.8190765380859375,-0.3381195068359375,323904.0212723333,-0.109028749763408,2.12218838416148,1.678686308876187,323904.0212723333,-2.248280389846143,0.7802254582261384,0.9059036105370334,-0.1258190125226974,2.138933181762695,1.71217668056488,-0.1060015857219696,-0.00876286905258894,0.1165421456098557,XTrueNorthZVertical,-0.483226725038757,0.2173315553575189,0.6781316520388416,-0.5093097527082585,0.4340045154094696,-0.7869829535484314,-0.4385178685188293,15.47352886199951,-18.92773056030273,-36.37825012207031,1,0.0.0.0,10.26.35.92,1,0
2015-03-08 12:34:59.799,16,1425843299.340419,33.32523870097949,-111.9417238315119,355.7778,-1,-1,10,65,-9999,1425843299.789731,20.72056579589844,-27.54649353027344,-29.05746841430664,335.5010681152344,324.9779663085938,25,323904.1051756667,0.6038055419921875,-0.85345458984375,-0.4100494384765625,323904.0730431667,-0.3983833327293893,2.849524842105239,1.744022438847428,323904.0730431667,-2.127411937201154,0.8164259993572949,0.9585727358574736,-0.4151734113693237,2.866269588470459,1.777512431144714,0.07418841868638992,-0.01472719572484493,0.04152847826480865,XTrueNorthZVertical,-0.5134628803224741,0.1989318252100382,0.6230284126834809,-0.5555336451423356,0.4187772870063782,-0.8183721899986267,-0.393563985824585,17.54048538208008,-19.92815017700195,-34.87500762939453,1,0.0.0.0,10.26.35.92,1,0
2015-03-08 12:34:59.875,17,1425843299.340419,33.32523870097949,-111.9417238315119,355.7778,-1,-1,10,65,-9999,1425843299.789731,20.72056579589844,-27.54649353027344,-29.05746841430664,335.5010681152344,324.9779663085938,25,323904.154223375,0.56829833984375,-0.8742828369140625,-0.363250732421875,323904.124816375,-0.5262355713935863,2.062741302308732,1.679712424844194,323904.124816375,-1.984143941533819,0.8284865855724498,1.005453648525391,-0.5430254936218262,2.079485893249512,1.713202118873596,0.2068726867437363,-0.01612959243357182,-0.06490012258291245,XTrueNorthZVertical,-0.5365078022679236,0.1763326554529187,0.5654641390133338,-0.6010960943667421,0.394766092300415,-0.8444050550460815,-0.362132340669632,20.24025344848633,-20.80055236816406,-32.84410095214844,1,0.0.0.0,10.26.35.92,1,0
2015-03-08 12:34:59.881,18,1425843299.340419,33.32523870097949,-111.9417238315119,355.7778,-1,-1,10,65,-9999,1425843299.864594,20.94224166870117,-29.50074768066406,-27.47651290893555,327.3407287597656,316.817626953125,25,323904.2032911667,0.4539337158203125,-0.81207275390625,-0.3789825439453125,323904.1765895,-0.3903845283953363,0.9456624041084547,1.748034757345741,323904.1765895,-1.83576833697132,0.7680167789912864,1.052172022546223,-0.407174289226532,0.9624068140983582,1.781524062156677,0.208528995513916,0.002855551894754171,-0.002421207958832383,XTrueNorthZVertical,-0.5401851650437752,0.1730002461130395,0.5225951176966682,-0.6365259458321709,0.344357967376709,-0.8685019016265869,-0.3565418124198914,21.82964324951172,-22.03341102600098,-30.96871566772461,1,0.0.0.0,10.26.35.92,1,0
2015-03-08 12:34:59.885,19,1425843299.340419,33.32523870097949,-111.9417238315119,355.7778,-1,-1,10,65,-9999,1425843299.864594,20.94224166870117,-29.50074768066406,-27.47651290893555,327.3407287597656,316.817626953125,25,323904.2523374167,0.2739410400390625,-0.920989990234375,-0.2931365966796875,323904.2283602917,-0.2278126585997762,0.2642841170961934,1.680542798472081,323904.2283602917,-1.669707816782392,0.6523932967443764,1.100945960111114,-0.2446022629737854,0.2810283899307251,1.714031934738159,0.06605012714862823,0.04494109749794006,0.03202893957495689,XTrueNorthZVertical,-0.5350523963949464,0.1839366684862732,0.4858741347009526,-0.6661926108666125,0.274861752986908,-0.891636073589325,-0.3597724735736847,21.24077796936035,-23.27714538574219,-30.46423530578613,1,0.0.0.0,10.26.35.92,1,0
2015-03-08 12:34:59.888,20,1425843299.340419,33.32523870097949,-111.9417238315119,355.7778,-1,-1,10,65,-9999,1425843299.864594,20.94224166870117,-29.50074768066406,-27.47651290893555,327.3407287597656,316.817626953125,25,323904.301426125,0.127227783203125,-0.9044342041015625,-0.2648468017578125,323904.2801334584,-0.02155962060473647,0.4728109620299428,1.638212385577489,323904.2801334584,-1.503568586924678,0.5176921202787825,1.140141950848002,-0.03834905475378036,0.4895550608634949,1.671701073646545,-0.01149481255561113,-0.01890428178012371,0.07365411520004272,XTrueNorthZVertical,-0.5282618583824779,0.1988924703209634,0.454881679667931,-0.6888133899517883,0.2065936923027039,-0.9086927771568298,-0.3627623915672302,19.84078216552734,-24.55167007446289,-30.40764045715332,1,0.0.0.0,10.26.35.92,1,0
2015-03-08 12:34:59.900,21,1425843299.340419,33.32523870097949,-111.9417238315119,355.7778,-1,-1,10,65,-9999,1425843299.864594,20.94224166870117,-29.50074768066406,-27.47651290893555,327.3407287597656,316.817626953125,25,323904.3504700417,0.1223602294921875,-0.945037841796875,-0.2938385009765625,323904.331906625,0.01772653284778542,1.057061367242033,1.449696533074595,323904.331906625,-1.326878458240181,0.3958694233683334,1.174779816365074,0.000876041071023792,1.073726773262024,1.483001947402954,-0.006871603429317474,0.02245844155550003,0.07020773738622665,XTrueNorthZVertical,-0.5289117134006899,0.2056592998666301,0.416740092774075,-0.7101298341339045,0.1487478166818619,-0.9226049184799194,-0.3559133112430573,18.28622245788574,-26.31684494018555,-29.90156173706055,1,0.0.0.0,10.26.35.92,1,0
2015-03-08 12:34:59.950,22,1425843299.340419,33.32523870097949,-111.9417238315119,355.7778,-1,-1,10,65,-9999,1425843299.915391,20.78877639770508,-30.23146057128906,-26.42808532714844,322.3569946289062,311.8338928222656,25,323904.3995470834,0.1418304443359375,-1.1044921875,-0.2862701416015625,323904.3836775,0.1169809487783846,1.263408414823553,1.138506692331055,323904.3836775,-1.166927541888699,0.3091948040676247,1.199389194998781,0.1001306250691414,1.280073761940002,1.171811699867249,0.01258066203445196,-0.1480621844530106,0.06216256320476532,XTrueNorthZVertical,-0.535428937357972,0.2011405790729179,0.3768348858944763,-0.7285971614749114,0.1104356944561005,-0.9318175911903381,-0.345716655254364,18.00050163269043,-27.49698257446289,-28.99937438964844,1,0.0.0.0,10.26.35.92,1,0
2015-03-08 12:34:59.963,23,1425843299.340419,33.32523870097949,-111.9417238315119,355.7778,-1,-1,10,65,-9999,1425843299.915391,20.78877639770508,-30.23146057128906,-26.42808532714844,322.3569946289062,311.8338928222656,25,323904.4485845834,0.1570587158203125,-0.9572906494140625,-0.3335723876953125,323904.4354506667,0.1443036499820525,1.209362756293703,1.092117089302964,323904.3836775,-1.166927541888699,0.3091948040676247,1.199389194998781,0.1001306250691414,1.280073761940002,1.171811699867249,0.01258066203445196,-0.1480621844530106,0.06216256320476532,XTrueNorthZVertical,-0.535428937357972,0.2011405790729179,0.3768348858944763,-0.7285971614749114,0.1104356944561005,-0.9318175911903381,-0.345716655254364,18.00050163269043,-27.49698257446289,-28.99937438964844,1,0.0.0.0,10.26.35.92,1,0
2015-03-08 12:34:59.971,24,1425843299.340419,33.32523870097949,-111.9417238315119,355.7778,-1,-1,10,65,-9999,1425843299.915391,20.78877639770508,-30.23146057128906,-26.42808532714844,322.3569946289062,311.8338928222656,25,323904.4976548334,0.0981597900390625,-0.9962158203125,-0.3264617919921875,323904.487223875,0.09222473591722601,0.6668912233144483,0.8600399108496442,323904.487223875,-0.8726184391089207,0.1431398659411135,1.2331756925627,0.0753735676407814,0.6835561990737915,0.8933435082435608,0.0932200700044632,-0.04345402866601944,-0.003626504680141807,XTrueNorthZVertical,-0.547395423421813,0.1908678494164226,0.3064195143625286,-0.7550065099986309,0.0472523421049118,-0.9435454607009888,-0.3278554379940033,18.10146141052246,-29.92665100097656,-26.41587829589844,1,0.0.0.0,10.26.35.92,1,0
2015-03-08 12:34:59.976,25,1425843299.340419,33.32523870097949,-111.9417238315119,355.7778,-1,-1,10,65,-9999,1425843299.971442,19.88503265380859,-30.99615478515625,-25.74578094482422,319.9992370605469,309.4761352539062,25,323904.5467039167,0.0863037109375,-0.970062255859375,-0.2978363037109375,323904.5389947917,0.2140750084327115,0.2120470112626161,0.7416434919518824,323904.487223875,-0.8726184391089207,0.1431398659411135,1.2331756925627,0.0753735676407814,0.6835561990737915,0.8933435082435608,0.0932200700044632,-0.04345402866601944,-0.003626504680141807,XTrueNorthZVertical,-0.547395423421813,0.1908678494164226,0.3064195143625286,-0.7550065099986309,0.0472523421049118,-0.9435454607009888,-0.3278554379940033,18.10146141052246,-29.92665100097656,-26.41587829589844,1,0.0.0.0,10.26.35.92,1,0
2015-03-08 12:34:59.980,26,1425843299.340419,33.32523870097949,-111.9417238315119,355.7778,-1,-1,10,65,-9999,1425843299.971442,19.88503265380859,-30.99615478515625,-25.74578094482422,319.9992370605469,309.4761352539062,25,323904.5957847083,-0.0474395751953125,-0.9585418701171875,-0.2580413818359375,323904.5907680417,0.3356810690762367,0.01597896654047543,0.8148745629746633,323904.5389947917,-0.755982571921905,0.05474831133672967,1.242718128379893,0.1972204148769379,0.2287118583917618,0.774944007396698,0.08098512142896652,-0.01099351793527603,0.009912990964949131,XTrueNorthZVertical,-0.549056673697723,0.1940772187451604,0.2851523744973097,-0.7612876985720692,0.01763243041932583,-0.9466633200645447,-0.3217416107654572,17.69383811950684,-30.70891761779785,-25.78675079345703,1,0.0.0.0,10.26.35.92,1,0
2015-03-08 12:35:00.120,27,1425843299.340419,33.32523870097949,-111.9417238315119,355.7778,-1,-1,10,65,-9999,1425843300.046779,18.43563079833984,-32.71249389648438,-25.13004684448242,316.1866455078125,305.6635437011719,25,323904.6448383334,-0.1128082275390625,-0.9347686767578125,-0.1989898681640625,323904.6425412084,0.2408893121842833,0.2153336183638829,0.4369331221405043,323904.5907680417,-0.620895661106814,-0.07019879991534295,1.256424042963447,0.3188257813453674,0.0326446034014225,0.8481727838516235,0.002585021313279867,-0.01974297501146793,0.04051373526453972,XTrueNorthZVertical,-0.5505870752197461,0.2064578319409427,0.2666472810077868,-0.7636283770322069,-0.02168902568519115,-0.9509906768798828,-0.3084580600261688,16.86868858337402,-31.54012298583984,-25.33246994018555,1,0.0.0.0,10.26.35.92,1,0
2015-03-08 12:35:00.157,28,1425843299.340419,33.32523870097949,-111.9417238315119,355.7778,-1,-1,10,65,-9999,1425843300.149039,17.80471420288086,-33.64707946777344,-24.34788513183594,314.1253967285156,303.602294921875,25,323904.6939208333,-0.0775146484375,-0.94378662109375,-0.188873291015625,323904.69431225,0.1191085481732489,0.2194740349106291,0.1593784733324461,323904.6425412084,-0.5068070511247443,-0.1704675783747693,1.267006630854536,0.2240341603755951,0.2319990992546082,0.4702311158180237,-0.05685816332697868,0.02768076956272125,0.08413989841938019,XTrueNorthZVertical,-0.5537857916203629,0.2142893493601069,0.250106061825119,-0.7647537930831314,-0.05074681714177132,-0.9542096853256226,-0.2948027551174164,15.43039989471436,-32.78704452514648,-24.6572151184082,1,0.0.0.0,10.26.35.92,1,0
2015-03-08 12:35:00.215,29,1425843299.340419,33.32523870097949,-111.9417238315119,355.7778,-1,-1,10,65,-9999,1425843300.200962,17.4295768737793,-33.54513549804688,-24.41445159912109,313.7835693359375,303.2604675292969,25,323904.742971875,-0.04498291015625,-0.9775848388671875,-0.1368865966796875,323904.69431225,0.1191085481732489,0.2194740349106291,0.1593784733324461,323904.69431225,-0.4574419399342263,-0.2077322335705564,1.270588527150925,0.1022535860538483,0.2361393421888351,0.1926760822534561,-0.01652518287301064,0.01148843858391047,0.1004878953099251,XTrueNorthZVertical,-0.5559243425354762,0.2150988922357707,0.2414349943039178,-0.7657609091011289,-0.06098946556448936,-0.9552750587463379,-0.2893611788749695,14.97990989685059,-33.38438034057617,-24.12781524658203,1,0.0.0.0,10.26.35.92,1,0
2015-03-08 12:35:00.296,30,1425843299.340419,33.32523870097949,-111.9417238315119,355.7778,-1,-1,10,65,-9999,1425843300.252684,17.37841796875,-33.90199279785156,-24.13154602050781,313.4514465332031,302.9283447265625,25,323904.7920536667,-0.1294097900390625,-1.033599853515625,-0.160736083984375,323904.7978587084,0.2197294320591677,0.03326847465337885,0.1553360611138148,323904.7460855,-0.415799864501517,-0.2347105191738484,1.271146748913181,0.01531805563718081,0.2037316858768463,0.2988458573818207,0.02366585843265057,-0.02214485220611095,0.1502054184675217,XTrueNorthZVertical,-0.557412520045391,0.2138814481173209,0.2329686425886595,-0.7676403159454038,-0.06864877045154572,-0.9554399847984314,-0.2870920300483704,14.96124839782715,-33.54788208007812,-23.91163635253906,1,0.0.0.0,10.26.35.92,1,0
2015-03-08 12:35:00.300,31,1425843299.340419,33.32523870097949,-111.9417238315119,355.7778,-1,-1,10,65,-9999,1425843300.252684,17.37841796875,-33.90199279785156,-24.13154602050781,313.4514465332031,302.9283447265625,25,323904.8411121667,-0.056854248046875,-1.016357421875,-0.186798095703125,323904.7978587084,0.2197294320591677,0.03326847465337885,0.1553360611138148,323904.7978587084,-0.3515815742172498,-0.292579260549877,1.280145289997356,0.2029366195201874,0.04999814927577972,0.1885908246040344,-0.04675469920039177,-0.07554234564304352,0.1136614382266998,XTrueNorthZVertical,-0.5613213322855591,0.218448167371271,0.2244890903404296,-0.7660309672969512,-0.08265509456396103,-0.9580575227737427,-0.2743975222110748,14.66140270233154,-33.88231658935547,-23.62409400939941,1,0.0.0.0,10.26.35.92,1,0
2015-03-08 12:35:00.355,32,1425843299.340419,33.32523870097949,-111.9417238315119,355.7778,-1,-1,10,65,-9999,1425843300.305832,16.78160858154297,-34.15689086914062,-23.78206825256348,313.0783996582031,302.5552978515625,25,323904.8902182917,-0.0597991943359375,-0.9827423095703125,-0.1597442626953125,323904.8496297083,0.2154918101326336,0.1293175098959586,0.215302725695238,323904.8496297083,-0.3047807681064653,-0.3315987490718283,1.292613451175822,0.1987107545137405,0.1460856944322586,0.2485060840845108,0.03254608809947968,-0.05480139702558517,0.07285097986459732,XTrueNorthZVertical,-0.5670992806457491,0.2203947980024803,0.217765756997203,-0.7631530963249989,-0.08940033614635468,-0.9615560173988342,-0.2596490681171417,14.32771587371826,-34.42774963378906,-23.03285598754883,1,0.0.0.0,10.26.35.92,1,0
2015-03-08 12:35:00.358,33,1425843299.340419,33.32523870097949,-111.9417238315119,355.7778,-1,-1,10,65,-9999,1425843300.305832,16.78160858154297,-34.15689086914062,-23.78206825256348,313.0783996582031,302.5552978515625,25,323904.939275125,-0.0807647705078125,-0.9661712646484375,-0.146728515625,323904.901403,0.07555467907387502,-0.08799377189341712,0.1623255273947277,323904.901403,-0.2593504226176662,-0.3748032578984224,1.300131977873201,0.05876845493912697,-0.0711946040391922,0.1954705715179443,0.03014821372926235,-0.009505273774266243,0.09593290835618973,XTrueNorthZVertical,-0.5704714686931668,0.2239574611922279,0.2129490889093726,-0.7609586578537232,-0.097881980240345,-0.9635934829711914,-0.2488107234239578,14.11730098724365,-34.88280487060547,-22.47126197814941,1,0.0.0.0,10.26.35.92,1,0
2015-03-08 12:35:00.366,34,1425843299.340419,33.32523870097949,-111.9417238315119,355.7778,-1,-1,10,65,-9999,1425843300.356625,16.42351913452148,-34.98956298828125,-23.39931106567383,312.4096984863281,301.8865966796875,25,323904.9883564167,-0.1212158203125,-0.9478912353515625,-0.0775604248046875,323904.95317625,0.002982740420888747,-0.07556906014376144,0.1046515781957537,323904.95317625,-0.2218444140618917,-0.4141293504678636,1.30775355129344,-0.01376405823975801,-0.05869188904762268,0.1377000659704208,0.01641916297376156,0.007397090550512075,0.1075770556926727,XTrueNorthZVertical,-0.5735529052077013,0.2280728270618523,0.2102693527536772,-0.7581600650409177,-0.1046302244067192,-0.9656032919883728,-0.2380397021770477,13.7856559753418,-35.2833251953125,-22.04786682128906,1,0.0.0.0,10.26.35.92,1,0
2015-03-08 12:35:00.415,35,1425843299.340419,33.32523870097949,-111.9417238315119,355.7778,-1,-1,10,65,-9999,1425843300.408459,16.37236022949219,-35.27842712402344,-23.11640357971191,311.8255920410156,301.302490234375,25,323905.037405125,-0.1506805419921875,-0.967864990234375,-0.043670654296875,323905.0049472917,0.01567083880235326,0.0629541986922741,0.1512835288830412,323905.0049472917,-0.1826981765210257,-0.45439005689822,1.310302243478422,-0.001023425720632076,0.07988982647657394,0.1842818111181259,-0.0208346713334322,0.01098635140806437,0.1549616008996964,XTrueNorthZVertical,-0.5748535988817247,0.2320164659468086,0.2071413846520727,-0.7568382790221329,-0.113045945763588,-0.9662628173828125,-0.2314233928918839,13.52288436889648,-35.46861267089844,-21.91289520263672,1,0.0.0.0,10.26.35.92,1,0
2015-03-08 12:35:00.465,36,1425843299.340419,33.32523870097949,-111.9417238315119,355.7778,-1,-1,10,65,-9999,1425843300.408459,16.37236022949219,-35.27842712402344,-23.11640357971191,311.8255920410156,301.302490234375,25,323905.0864723334,-0.1361846923828125,-0.9566497802734375,-0.09222412109375,323905.0567206667,0.04194771664594709,0.5828317392994052,0.1356654206702715,323905.0567206667,-0.1257895764571608,-0.4920224806600878,1.3141756974598,0.02531863003969193,0.59982830286026,0.1686208546161652,-0.01954622752964497,-0.001069525140337646,0.1838193833827972,XTrueNorthZVertical,-0.5791318460609087,0.2296810261857871,0.196729012308125,-0.757067144479984,-0.1199038475751877,-0.9672532081604004,-0.2237058579921722,13.28854751586914,-35.74957656860352,-21.597412109375,1,0.0.0.0,10.26.35.92,1,0
2015-03-08 12:35:00.514,37,1425843299.340419,33.32523870097949,-111.9417238315119,355.7778,-1,-1,10,65,-9999,1425843300.460174,16.21889495849609,-35.19345092773438,-22.60051727294922,310.9158020019531,300.3927001953125,25,323905.135517625,-0.1224517822265625,-1.00408935546875,-0.0652618408203125,323905.1084939584,0.06395288410105382,0.7869917989937517,0.008151137148405525,323905.1084939584,-0.104295414973329,-0.4754316665500866,1.312241379003714,0.04732398316264153,0.8039881587028503,0.0411062128841877,-0.01986963488161564,-0.009420566260814667,0.1492786258459091,XTrueNorthZVertical,-0.5823603381908805,0.2172389649400983,0.1836005413721955,-0.7615474668517218,-0.1170322224497795,-0.9667604565620422,-0.2273273319005966,13.59242916107178,-36.11318588256836,-20.78820610046387,1,0.0.0.0,10.26.35.92,1,0
2015-03-08 12:35:00.564,38,1425843299.340419,33.32523870097949,-111.9417238315119,355.7778,-1,-1,10,65,-9999,1425843300.51185,16.5087776184082,-35.31240844726562,-22.05134582519531,309.4765319824219,298.9534301757812,25,323905.184604875,-0.1045684814453125,-1.009201049804688,-0.0702362060546875,323905.1602650417,0.0911892988854032,0.9547325981490465,0.03811729205008612,323905.1602650417,-0.0782810375304413,-0.4568751073052315,1.319606712638382,0.07460340857505798,0.971772313117981,0.07102753221988678,-0.006088229827582836,-0.04227735474705696,0.1551770716905594,XTrueNorthZVertical,-0.5895788570062113,0.2021510784227349,0.168816766286578,-0.7635657448647094,-0.1096496880054474,-0.9686174392700195,-0.2230634242296219,14.24800586700439,-36.31674194335938,-19.97884368896484,1,0.0.0.0,10.26.35.92,1,0
2015-03-08 12:35:00.613,39,1425843299.340419,33.32523870097949,-111.9417238315119,355.7778,-1,-1,10,65,-9999,1425843300.563969,17.54894256591797,-35.15948486328125,-21.66858863830566,308.4722900390625,297.9491882324219,25,323905.23365175,-0.12078857421875,-1.129470825195312,-0.16845703125,323905.212038375,0.03074699373329183,1.204955491005731,0.1114178715773181,323905.212038375,-0.05394294804026049,-0.4249309950815161,1.31901063674908,0.0141623904928565,1.221996307373047,0.1443260163068771,0.0009312775800935924,-0.05832534283399582,0.1117280423641205,XTrueNorthZVertical,-0.5942360847202249,0.1827420013643533,0.1499924803819661,-0.7687594726759953,-0.1027074009180069,-0.9684690833091736,-0.226977676153183,16.35212898254395,-28.07194900512695,-14.22512531280518,1,0.0.0.0,10.26.35.92,1,0
2015-03-08 12:35:00.661,40,1425843299.340419,33.32523870097949,-111.9417238315119,355.7778,-1,-1,10,65,-9999,1425843300.616156,18.75962448120117,-35.75424194335938,-20.68672943115234,305.350341796875,294.8272399902344,25,323905.2827379167,0.0924530029296875,-1.25714111328125,-0.3340301513671875,323905.2638117084,0.1295281659381839,1.324425430138903,0.166938655034963,323905.2638117084,-0.02549447266705228,-0.3864448873228795,1.319137134270855,0.1129437461495399,1.341466069221497,0.1998464316129684,0.1262004673480988,-0.2977958023548126,-0.05655297636985779,XTrueNorthZVertical,-0.5993893443645554,0.159400244238567,0.127542961268196,-0.7739875990455749,-0.09385184198617935,-0.9685006141662598,-0.2306479513645172,17.14569282531738,-28.22256088256836,-12.93417644500732,1,0.0.0.0,10.26.35.92,1,0
2015-03-08 12:35:00.700,41,1425843299.340419,33.32523870097949,-111.9417238315119,355.7778,-1,-1,10,65,-9999,1425843300.667015,20.44775390625,-35.87319946289062,-19.77143287658691,302.3035888671875,291.7804870605469,25,323905.331783625,-0.054412841796875,-0.968597412109375,-0.2952728271484375,323905.3155830417,0.1891739196082526,0.8479140057742953,0.542154350493426,323905.2638117084,-0.02549447266705228,-0.3864448873228795,1.319137134270855,0.1129437461495399,1.341466069221497,0.1998464316129684,0.1262004673480988,-0.2977958023548126,-0.05655297636985779,XTrueNorthZVertical,-0.5993893443645554,0.159400244238567,0.127542961268196,-0.7739875990455749,-0.09385184198617935,-0.9685006141662598,-0.2306479513645172,17.14569282531738,-28.22256088256836,-12.93417644500732,1,0.0.0.0,10.26.35.92,1,0
2015-03-08 12:35:00.762,42,1425843299.340419,33.32523870097949,-111.9417238315119,355.7778,-1,-1,10,65,-9999,1425843300.722841,21.02751922607422,-36.31500244140625,-18.80621719360352,299.4974365234375,288.9743347167969,25,323905.3808625417,-0.1981353759765625,-0.823760986328125,-0.2697906494140625,323905.36735625,-0.05520386728792551,0.2209792535587419,0.3150010905795534,323905.36735625,0.1597064870271728,-0.4869784746274756,1.310060361633899,-0.07187510281801224,0.237902969121933,0.3478561341762543,-0.04722626134753227,0.118818923830986,-0.06279516220092773,XTrueNorthZVertical,-0.6045809767340276,0.1434223712291092,0.08500744624219131,-0.7789002725203084,-0.1206356808543205,-0.9662005305290222,-0.2278237342834473,17.2619686126709,-29.01379776000977,-10.86299324035645,1,0.0.0.0,10.26.35.92,1,0
2015-03-08 12:35:00.800,43,1425843299.340419,33.32523870097949,-111.9417238315119,355.7778,-1,-1,10,65,-9999,1425843300.774878,21.01046371459961,-36.63787841796875,-17.89092826843262,295.969970703125,285.4468688964844,25,323905.4299017917,-0.1561737060546875,-0.8466033935546875,-0.3213653564453125,323905.41912975,0.06697583825440276,0.3189630753332642,0.2584869480353089,323905.36735625,0.1597064870271728,-0.4869784746274756,1.310060361633899,-0.07187510281801224,0.237902969121933,0.3478561341762543,-0.04722626134753227,0.118818923830986,-0.06279516220092773,XTrueNorthZVertical,-0.6045809767340276,0.1434223712291092,0.08500744624219131,-0.7789002725203084,-0.1206356808543205,-0.9662005305290222,-0.2278237342834473,17.2619686126709,-29.01379776000977,-10.86299324035645,1,0.0.0.0,10.26.35.92,1,0
2015-03-08 12:35:00.857,44,1425843299.340419,33.32523870097949,-111.9417238315119,355.7778,-1,-1,10,65,-9999,1425843300.774878,21.01046371459961,-36.63787841796875,-17.89092826843262,295.969970703125,285.4468688964844,25,323905.478973875,-0.1005401611328125,-0.934051513671875,-0.3670501708984375,323905.4709007917,0.2066067057878023,0.1734532796935148,0.1872937278786566,323905.41912975,0.2034181068671503,-0.515021031772355,1.302683098799171,0.05030477046966553,0.3358866274356842,0.2913416624069214,-0.05546004325151443,0.1493615508079529,-0.04267507418990135,XTrueNorthZVertical,-0.6037981633095166,0.1419625855613623,0.07551469906469516,-0.7807508994272353,-0.13048355281353,-0.9642724394798279,-0.2305487990379333,16.82922744750977,-29.34813499450684,-10.64165687561035,1,0.0.0.0,10.26.35.92,1,0
2015-03-08 12:35:00.896,45,1425843299.340419,33.32523870097949,-111.9417238315119,355.7778,-1,-1,10,65,-9999,1425843300.850152,19.95325088500977,-37.01173400878906,-17.55809020996094,294.0650329589844,283.5419311523438,25,323905.5280193334,-0.075927734375,-1.005264282226562,-0.345672607421875,323905.5226743334,0.2228567821272477,-0.0821486659329112,0.09463729354872878,323905.4709007917,0.2525229431614206,-0.5472960673544887,1.301911164714218,0.1899063140153885,0.1903615146875381,0.2201479375362396,0.01949869282543659,0.05845852941274643,-0.1282641291618347,XTrueNorthZVertical,-0.6058281510692846,0.1398049246046394,0.06600322824401555,-0.7804296526504567,-0.1382425874471664,-0.9640676379203796,-0.2268536686897278,16.67086029052734,-29.54388809204102,-10.34513568878174,1,0.0.0.0,10.26.35.92,1,0
2015-03-08 12:35:00.956,46,1425843299.340419,33.32523870097949,-111.9417238315119,355.7778,-1,-1,10,65,-9999,1425843300.900927,19.44169616699219,-37.45352172851562,-17.4582405090332,293.1727294921875,282.6496276855469,25,323905.577098625,-0.11224365234375,-0.90631103515625,-0.2826995849609375,323905.5744475833,-0.07126592445441141,0.2169384392367647,0.1157484378258959,323905.5744475833,0.2667928960872349,-0.5538978400632336,1.29452183528786,-0.08809734880924225,0.2337702512741089,0.1486636102199554,0.02815459482371807,0.02795052342116833,-0.05257263034582138,XTrueNorthZVertical,-0.6038827085027082,0.1390374467459965,0.06135260961798525,-0.7824513751750528,-0.1434805244207382,-0.962078332901001,-0.2319885194301605,16.39043807983398,-29.79741477966309,-10.06222057342529,1,0.0.0.0,10.26.35.92,1,0
2015-03-08 12:35:00.995,47,1425843299.340419,33.32523870097949,-111.9417238315119,355.7778,-1,-1,10,65,-9999,1425843300.953104,19.52695846557617,-37.74240112304688,-16.70936584472656,291.6870422363281,281.1639404296875,25,323905.626144375,-0.0343170166015625,-0.858306884765625,-0.4028167724609375,323905.5744475833,-0.07126592445441141,0.2169384392367647,0.1157484378258959,323905.5744475833,0.2667928960872349,-0.5538978400632336,1.29452183528786,-0.08809734880924225,0.2337702512741089,0.1486636102199554,0.02815459482371807,0.02795052342116833,-0.05257263034582138,XTrueNorthZVertical,-0.6038827085027082,0.1390374467459965,0.06135260961798525,-0.7824513751750528,-0.1434805244207382,-0.962078332901001,-0.2319885194301605,16.39043807983398,-29.79741477966309,-10.06222057342529,1,0.0.0.0,10.26.35.92,1,0
2015-03-08 12:35:01.055,48,1425843299.340419,33.32523870097949,-111.9417238315119,355.7778,-1,-1,10,65,-9999,1425843301.004471,19.40758895874023,-38.33717346191406,-16.3931770324707,289.7354736328125,279.2123718261719,25,323905.675205125,0.11175537109375,-0.85919189453125,-0.3896026611328125,323905.677992375,-0.08636524888683367,-0.3162394604864402,0.2014052858627685,323905.6262189167,0.2970707963923749,-0.5499566074685677,1.280973169980411,-0.1219513341784477,0.7654011249542236,0.3456979393959045,0.115047462284565,0.09998754411935806,-0.1591733992099762,XTrueNorthZVertical,-0.6010211114010056,0.1301996076913069,0.046272293357935,-0.7871979389716466,-0.1493644714355469,-0.9582944512367249,-0.2436433732509613,16.37314605712891,-29.82484245300293,-10.00897312164307,1,0.0.0.0,10.26.35.92,1,0
2015-03-08 12:35:01.093,49,1425843299.340419,33.32523870097949,-111.9417238315119,355.7778,-1,-1,10,65,-9999,1425843301.057859,19.42464447021484,-38.18423461914062,-16.24340057373047,288.1783142089844,277.6552124023438,25,323905.724241375,-0.107513427734375,-0.8301544189453125,-0.3148040771484375,323905.677992375,-0.08636524888683367,-0.3162394604864402,0.2014052858627685,323905.677992375,0.2734105162180718,-0.5127234007865731,1.269715727924786,-0.10334213078022,-0.2994610369205475,0.2342904955148697,0.2572298645973206,0.09582469612360001,-0.1311833560466766,XTrueNorthZVertical,-0.5961514493803122,0.1240717502944573,0.04283520129073994,-0.7920699654433858,-0.1454744786024094,-0.9550166130065918,-0.2584193050861359,16.24714469909668,-30.0024356842041,-9.678062438964844,1,0.0.0.0,10.26.35.92,1,0
2015-03-08 12:35:01.154,50,1425843299.340419,33.32523870097949,-111.9417238315119,355.7778,-1,-1,10,65,-9999,1425843301.133091,18.23101425170898,-38.49009704589844,-16.64280128479004,286.1828002929688,275.6596984863281,25,323905.77330825,-0.0479736328125,-0.8079681396484375,-0.2950286865234375,323905.729765625,-0.1397698845423016,0.4417486500235855,0.8159882969425345,323905.729765625,0.3444372535230251,-0.5827624530741372,1.247842073029414,-0.1567466109991074,0.4585269093513489,0.8488731980323792,0.06714535504579544,0.1181475520133972,-0.04981778189539909,XTrueNorthZVertical,-0.5912724369885455,0.1338049217120114,0.0321307542796648,-0.7946450762819656,-0.174658790230751,-0.9483019709587097,-0.2649863064289093,16.2575740814209,-29.86146545410156,-10.08785820007324,1,0.0.0.0,10.26.35.92,1,0
2015-03-08 12:35:01.191,51,1425843299.340419,33.32523870097949,-111.9417238315119,355.7778,-1,-1,10,65,-9999,1425843301.186153,17.70240783691406,-38.88095092773438,-16.69272613525391,284.40087890625,273.8777770996094,25,323905.822350875,-0.0352783203125,-0.8278656005859375,-0.363311767578125,323905.781536875,-0.2250624121420514,0.668156491148345,0.1731334340465963,323905.781536875,0.3833778050712005,-0.5890685499706977,1.227738090967236,-0.2420389801263809,0.6849346160888672,0.2060180157423019,0.1389084160327911,0.1337622404098511,-0.01535200141370296,XTrueNorthZVertical,-0.5863410463614935,0.1279290225385113,0.01512936022268511,-0.7997558874117676,-0.1868820488452911,-0.9417303800582886,-0.2796766757965088,15.20669841766357,-30.40374565124512,-10.10688877105713,1,0.0.0.0,10.26.35.92,1,0
2015-03-08 12:35:01.250,52,1425843299.340419,33.32523870097949,-111.9417238315119,355.7778,-1,-1,10,65,-9999,1425843301.240088,17.34432220458984,-38.59205627441406,-16.80921936035156,283.0749206542969,272.5518188476562,25,323905.8714201667,-0.047576904296875,-0.814605712890625,-0.314361572265625,323905.8850838334,-0.0642716644835363,-1.098216793463682,0.3691146597172004,323905.8333104583,0.3964377174666002,-0.5924943229105457,1.211641620997152,-0.1089473143219948,-0.382474958896637,0.2767608165740967,0.1491297036409378,0.1154697760939598,-0.08557858318090439,XTrueNorthZVertical,-0.5812246081523352,0.1280293061567221,0.008155961677370947,-0.8035670266871278,-0.1962793618440628,-0.9361942410469055,-0.2915728986263275,15.14999771118164,-30.46240043640137,-10.01500701904297,1,0.0.0.0,10.26.35.92,1,0
2015-03-08 12:35:01.289,53,1425843299.340419,33.32523870097949,-111.9417238315119,355.7778,-1,-1,10,65,-9999,1425843301.240088,17.34432220458984,-38.59205627441406,-16.80921936035156,283.0749206542969,272.5518188476562,25,323905.9204720834,-0.2001495361328125,-0.856109619140625,-0.261322021484375,323905.8850838334,-0.0642716644835363,-1.098216793463682,0.3691146597172004,323905.8850838334,0.4282397079818573,-0.6644828281606948,1.199251399092755,-0.08124787360429764,-1.081439018249512,0.4019985496997833,0.1568165123462677,0.1208392158150673,-0.01820586621761322,XTrueNorthZVertical,-0.5785045924213338,0.149757515121371,0.0140358017051003,-0.8016908094328355,-0.2238788902759552,-0.9317675828933716,-0.2858102321624756,15.09870147705078,-31.31852149963379,-11.85337066650391,1,0.0.0.0,10.26.35.92,1,0
2015-03-08 12:35:01.348,54,1425843299.340419,33.32523870097949,-111.9417238315119,355.7778,-1,-1,10,65,-9999,1425843301.314028,15.33220672607422,-38.55807495117188,-17.80771827697754,284.0009155273438,273.4778137207031,25,323905.969548,-0.165374755859375,-0.81756591796875,-0.1864471435546875,323905.936855125,-0.08692025165800618,-1.242042938662283,0.04496561079322488,323905.936855125,0.4466040774196378,-0.7414059057790783,1.187957524259301,-0.1038963049650192,-1.225265264511108,0.07784920930862427,0.05721832811832428,0.05256214737892151,0.038718581199646,XTrueNorthZVertical,-0.5751790027360923,0.1772480722983723,0.02666060348882055,-0.79814878459227,-0.2522714138031006,-0.9276079535484314,-0.275504469871521,13.97312927246094,-31.51588439941406,-12.6816234588623,1,0.0.0.0,10.26.35.92,1,0
2015-03-08 12:35:01.387,55,1425843299.340419,33.32523870097949,-111.9417238315119,355.7778,-1,-1,10,65,-9999,1425843301.366419,13.69523239135742,-38.79598999023438,-18.83949661254883,286.1650085449219,275.6419067382812,25,323906.018602875,-0.3555755615234375,-0.6632537841796875,-0.1649932861328125,323905.9886285417,-0.1113891094375452,-1.02303176114911,0.3917651111044334,323905.9886285417,0.4558009027073229,-0.8046907561268205,1.17642867163567,-0.1283649951219559,-1.006254315376282,0.4246484041213989,0.09572610259056091,0.1497869491577148,0.08541147410869598,XTrueNorthZVertical,-0.5709662301984826,0.2019890551567403,0.03870763327905473,-0.7947954070968429,-0.2768784463405609,-0.9232397079467773,-0.2663959562778473,13.09064292907715,-31.53010559082031,-13.55767250061035,1,0.0.0.0,10.26.35.92,1,0
2015-03-08 12:35:01.448,56,1425843299.340419,33.32523870097949,-111.9417238315119,355.7778,-1,-1,10,65,-9999,1425843301.420539,11.9559440612793,-39.16983032226562,-19.37203216552734,287.0523986816406,276.529296875,25,323906.0676930417,-0.31494140625,-0.7126922607421875,-0.1112060546875,323906.0404020834,-0.1544614790118328,-1.242752671092789,0.0499976536729296,323906.0404020834,0.4703161874368049,-0.872393268067421,1.157531054188053,-0.1714371740818024,-1.225975394248962,0.08288056403398514,-0.08977927267551422,0.2402314841747284,0.1102332100272179,XTrueNorthZVertical,-0.5645364967286681,0.2284391418431507,0.04795358834115212,-0.7917162308219879,-0.3075748383998871,-0.9158143401145935,-0.258228212594986,11.50188827514648,-31.6882381439209,-14.59057903289795,1,0.0.0.0,10.26.35.92,1,0
2015-03-08 12:35:01.485,57,1425843299.340419,33.32523870097949,-111.9417238315119,355.7778,-1,-1,10,65,-9999,1425843301.420539,11.9559440612793,-39.16983032226562,-19.37203216552734,287.0523986816406,276.529296875,25,323906.1167590834,-0.4027099609375,-0.756317138671875,-0.0780792236328125,323906.0921734167,-0.1662054867868642,-1.332056451926416,0.032702286605628,323906.0921734167,0.4527250180719984,-0.9219041081643508,1.153171457432999,-0.1831810027360916,-1.315279364585876,0.06558486819267273,0.03043126314878464,0.2006912082433701,0.150617703795433,XTrueNorthZVertical,-0.5594988195403447,0.2537932441753785,0.06779126337300088,-0.7861007818344098,-0.3231558799743652,-0.9140548706054688,-0.245100125670433,10.56779193878174,-31.6068000793457,-15.44845771789551,1,0.0.0.0,10.26.35.92,1,0
2015-03-08 12:35:01.548,58,1425843299.340419,33.32523870097949,-111.9417238315119,355.7778,-1,-1,10,65,-9999,1425843301.496821,9.329967498779297,-39.20382690429688,-20.33725357055664,289.8411865234375,279.3180847167969,25,323906.1658517917,-0.4337005615234375,-0.7504730224609375,-0.098785400390625,323906.143946875,-0.1213860835374847,-1.254732102308184,-0.2115258306372876,323906.143946875,0.4339245842617411,-0.9688634262833139,1.147625128717658,-0.1383614540100098,-1.237955212593079,-0.1786435395479202,-0.1170725524425507,0.1171898245811462,0.1408983618021011,XTrueNorthZVertical,-0.5533102188713567,0.2785392310930844,0.08689036349079628,-0.7802011263857048,-0.3384785950183868,-0.9117912650108337,-0.2325273901224136,9.569488525390625,-31.4912109375,-16.31108474731445,1,0.0.0.0,10.26.35.92,1,0
2015-03-08 12:35:01.584,59,1425843299.340419,33.32523870097949,-111.9417238315119,355.7778,-1,-1,10,65,-9999,1425843301.547792,7.914665222167969,-38.77902221679688,-20.88642692565918,292.5369873046875,282.0138854980469,25,323906.2150314584,-0.4687652587890625,-0.8203887939453125,-0.048828125,323906.1957204167,-0.0279330977255141,-0.684188188278404,-0.3276228762498749,323906.1957204167,0.4078364427029448,-0.9956895224501106,1.158668225917326,-0.04490828514099121,-0.6674114465713501,-0.2947409451007843,-0.07156054675579071,0.1526138484477997,0.162042573094368,XTrueNorthZVertical,-0.5519703614705322,0.2939242740414383,0.1071231712286027,-0.772956597629978,-0.3361237943172455,-0.9162704944610596,-0.2178744822740555,8.680524826049805,-31.27450561523438,-17.20106887817383,1,0.0.0.0,10.26.35.92,1,0
2015-03-08 12:35:01.645,60,1425843299.340419,33.32523870097949,-111.9417238315119,355.7778,-1,-1,10,65,-9999,1425843301.600161,7.351951599121094,-38.69406127929688,-21.06948661804199,294.9811401367188,284.4580383300781,25,323906.2639957084,-0.480804443359375,-0.7968597412109375,-0.002838134765625,323906.2474918333,-0.1161830657157968,-0.3513694847417845,-0.7199544417181681,323906.2474918333,0.3888919381288666,-1.002340647149508,1.169778473874825,-0.13308285176754,-0.3345876038074493,-0.6870027184486389,-0.203886404633522,0.1214240342378616,0.2135128676891327,XTrueNorthZVertical,-0.5524872418175885,0.2994787295682224,0.118970471318144,-0.7687108686403599,-0.3289657831192017,-0.9206641316413879,-0.2101406753063202,8.642084121704102,-31.09339141845703,-17.54532051086426,1,0.0.0.0,10.26.35.92,1,0
2015-03-08 12:35:01.681,61,1425843299.340419,33.32523870097949,-111.9417238315119,355.7778,-1,-1,10,65,-9999,1425843301.653394,6.411678314208984,-37.9776611328125,-22.00505447387695,299.2422790527344,288.7191772460938,25,323906.3130542084,-0.304779052734375,-0.7667388916015625,-0.0735015869140625,323906.299265375,-0.08879112232378684,-0.2027824064624485,-0.62712090717575,323906.2474918333,0.3888919381288666,-1.002340647149508,1.169778473874825,-0.13308285176754,-0.3345876038074493,-0.6870027184486389,-0.203886404633522,0.1214240342378616,0.2135128676891327,XTrueNorthZVertical,-0.5524872418175885,0.2994787295682224,0.118970471318144,-0.7687108686403599,-0.3289657831192017,-0.9206641316413879,-0.2101406753063202,8.642084121704102,-31.09339141845703,-17.54532051086426,1,0.0.0.0,10.26.35.92,1,0
2015-03-08 12:35:01.745,62,1425843299.340419,33.32523870097949,-111.9417238315119,355.7778,-1,-1,10,65,-9999,1425843301.70621,7.110786437988281,-37.65480041503906,-22.42111587524414,301.9461669921875,291.4230651855469,25,323906.3621456667,-0.4178619384765625,-0.8370208740234375,-0.0758819580078125,323906.351038875,0.1236998378925455,0.1846731773660187,-0.7241316098879574,323906.351038875,0.2769595385609155,-0.9089383912192552,1.219113217598132,0.1069651171565056,0.2012806534767151,-0.6911553740501404,-0.2343153059482574,0.07378875464200974,0.2231243699789047,XTrueNorthZVertical,-0.5591503768921994,0.2854740915684803,0.1472258517610219,-0.764316676570769,-0.2717424333095551,-0.9387942552566528,-0.2117107957601547,9.671384811401367,-31.5340404510498,-18.67717361450195,1,0.0.0.0,10.26.35.92,1,0
2015-03-08 12:35:01.780,63,1425843299.340419,33.32523870097949,-111.9417238315119,355.7778,-1,-1,10,65,-9999,1425843301.70621,7.110786437988281,-37.65480041503906,-22.42111587524414,301.9461669921875,291.4230651855469,25,323906.4112052917,-0.412841796875,-0.956573486328125,-0.1501007080078125,323906.4028105,0.3728558684165437,0.4125108696800416,-0.7070895094403223,323906.351038875,0.2769595385609155,-0.9089383912192552,1.219113217598132,0.1069651171565056,0.2012806534767151,-0.6911553740501404,-0.2343153059482574,0.07378875464200974,0.2231243699789047,XTrueNorthZVertical,-0.5591503768921994,0.2854740915684803,0.1472258517610219,-0.764316676570769,-0.2717424333095551,-0.9387942552566528,-0.2117107957601547,9.671384811401367,-31.5340404510498,-18.67717361450195,1,0.0.0.0,10.26.35.92,1,0
2015-03-08 12:35:01.847,64,1425843299.340419,33.32523870097949,-111.9417238315119,355.7778,-1,-1,10,65,-9999,1425843301.833314,11.03835678100586,-37.54420471191406,-21.01542472839355,303.5299682617188,293.0068664550781,25,323906.4602945,-0.2697601318359375,-1.225616455078125,-0.095855712890625,323906.4545839167,0.5077031659999429,1.05675616898111,-0.675890310953935,323906.4028105,0.2293346426023787,-0.8477158098269502,1.251263499773162,0.3561213314533234,0.4291181564331055,-0.6741136312484741,-0.149321511387825,0.04178949818015099,0.0927269384264946,XTrueNorthZVertical,-0.5684270467310568,0.2701174570435207,0.1547298518187704,-0.761568092390676,-0.2355204075574875,-0.9493822455406189,-0.2078545093536377,10.82955360412598,-31.32294845581055,-18.39461517333984,1,0.0.0.0,10.26.35.92,1,0
2015-03-08 12:35:01.879,65,1425843299.340419,33.32523870097949,-111.9417238315119,355.7778,-1,-1,10,65,-9999,1425843301.833314,11.03835678100586,-37.54420471191406,-21.01542472839355,303.5299682617188,293.0068664550781,25,323906.5094528333,-0.18182373046875,-1.12237548828125,-0.345550537109375,323906.5063576667,0.2107138328209225,0.6393911555821811,-0.4788928230113567,323906.4545839167,0.215609721198342,-0.7984416983021824,1.294635030012698,0.4909688234329224,1.073363304138184,-0.6429147720336914,-0.1534383296966553,-0.2141450643539429,0.0908607542514801,XTrueNorthZVertical,-0.5857640042505124,0.2484847026513564,0.1539639464244893,-0.7559305666002341,-0.1953012943267822,-0.9621092081069946,-0.1902717649936676,12.15452194213867,-31.26385307312012,-17.65240478515625,1,0.0.0.0,10.26.35.92,1,0
2015-03-08 12:35:01.944,66,1425843299.340419,33.32523870097949,-111.9417238315119,355.7778,-1,-1,10,65,-9999,1425843301.937234,14.87490844726562,-37.18739318847656,-19.53423309326172,304.0519104003906,293.52880859375,25,323906.5584355,-0.1326141357421875,-1.131072998046875,-0.2357330322265625,323906.5581289583,-0.3099352255540047,-0.7470342626304208,-0.1824148167616315,323906.5063576667,0.1823859340153359,-0.7133800846672682,1.318566041212453,0.1939796209335327,0.6559981107711792,-0.4459176063537598,-0.01217804104089737,-0.1936748474836349,-0.1597099900245667,XTrueNorthZVertical,-0.5967441302201646,0.2225799733153162,0.1455469483629653,-0.7570803912369165,-0.1633132994174957,-0.9683582186698914,-0.1887091994285583,14.28767871856689,-31.21982574462891,-16.06091117858887,1,0.0.0.0,10.26.35.92,1,0
2015-03-08 12:35:01.977,67,1425843299.340419,33.32523870097949,-111.9417238315119,355.7778,-1,-1,10,65,-9999,1425843301.937234,14.87490844726562,-37.18739318847656,-19.53423309326172,304.0519104003906,293.52880859375,25,323906.6075976667,-0.22308349609375,-1.209716796875,-0.1781768798828125,323906.5581289583,-0.3099352255540047,-0.7470342626304208,-0.1824148167616315,323906.5581289583,0.1157711521821437,-0.6604616055889846,1.324138833670824,-0.3266692757606506,-0.7304274439811707,-0.1494399160146713,0.02710948325693607,-0.1367418766021729,-0.05493833869695663,XTrueNorthZVertical,-0.595355917618056,0.221679998402131,0.1558412702793235,-0.7563880238275875,-0.1497901529073715,-0.9697339534759521,-0.1928186267614365,15.2020320892334,-31.01053619384766,-15.62092018127441,1,0.0.0.0,10.26.35.92,1,0
2015-03-08 12:35:02.043,68,1425843299.340419,33.32523870097949,-111.9417238315119,355.7778,-1,-1,10,65,-9999,1425843301.98916,15.50580596923828,-36.89851379394531,-19.41773414611816,303.8062438964844,293.2831420898438,25,323906.6565729583,-0.1136474609375,-1.121856689453125,-0.2692413330078125,323906.6616762084,-0.1831658281890338,0.6134477055070652,-0.1509341221480228,323906.60990275,0.06521988573900711,-0.6324726794738049,1.324577215564582,-0.04033346846699715,0.03521014004945755,-0.2157647013664246,-0.07899941504001617,-0.2398758977651596,0.01841523498296738,XTrueNorthZVertical,-0.592116016815547,0.2260587651726394,0.1666980700564335,-0.7553196973501055,-0.1440840810537338,-0.9698408842086792,-0.1965921074151993,15.01525783538818,-30.69066047668457,-16.41321563720703,1,0.0.0.0,10.26.35.92,1,0
2015-03-08 12:35:02.074,69,1425843299.340419,33.32523870097949,-111.9417238315119,355.7778,-1,-1,10,65,-9999,1425843302.041663,15.65926361083984,-36.43971252441406,-19.80051422119141,304.913818359375,294.3907165527344,25,323906.7056225417,-0.076751708984375,-1.160202026367188,-0.2631072998046875,323906.6616762084,-0.1831658281890338,0.6134477055070652,-0.1509341221480228,323906.6616762084,0.01890034921158759,-0.5642238072619643,1.321684128961748,-0.1998995244503021,0.6300541758537292,-0.1179599016904831,0.01819430850446224,-0.1527250111103058,-0.06091087684035301,XTrueNorthZVertical,-0.5915694029849133,0.214197138106803,0.1636941547113546,-0.7598483306810286,-0.1318417638540268,-0.9691317081451416,-0.2083304524421692,15.43339157104492,-30.39777374267578,-16.56966781616211,1,0.0.0.0,10.26.35.92,1,0
2015-03-08 12:35:02.143,70,1425843299.340419,33.32523870097949,-111.9417238315119,355.7778,-1,-1,10,65,-9999,1425843302.093188,16.00028991699219,-36.23580932617188,-20.16665077209473,304.8873596191406,294.3642578125,25,323906.7547205,-0.1466064453125,-1.1414794921875,-0.27203369140625,323906.7134478334,-0.3718254913907921,-0.03438460546623106,0.1568825587588238,323906.7134478334,-0.003314297780988994,-0.5299030936829177,1.306874731671285,-0.3885590434074402,-0.01777829229831696,0.1898564696311951,0.05510418117046356,-0.1948276460170746,-0.03801536932587624,XTrueNorthZVertical,-0.5863606386715079,0.2088904906160737,0.1604608712418226,-0.7660276154250016,-0.1318558901548386,-0.9653744101524353,-0.2250919342041016,15.92982482910156,-30.17749977111816,-16.50234413146973,1,0.0.0.0,10.26.35.92,1,0
2015-03-08 12:35:02.174,71,1425843299.340419,33.32523870097949,-111.9417238315119,355.7778,-1,-1,10,65,-9999,1425843302.144346,16.00028991699219,-35.6580810546875,-20.66593170166016,304.5400390625,294.0169372558594,25,323906.8037735834,-0.3869171142578125,-1.3974609375,-0.4584503173828125,323906.7652213334,-0.5872720277848944,0.07715923363064775,0.4284520193330379,323906.7652213334,0.002742403627314475,-0.5348949814040277,1.278090155532747,-0.6040053963661194,0.09376536309719086,0.4614255726337433,0.004538118839263916,-0.186927393078804,-0.03815103694796562,XTrueNorthZVertical,-0.5755156204028228,0.211331926399101,0.1565570096434899,-0.7743452232271915,-0.1470857262611389,-0.9574665427207947,-0.2482411712408066,15.69910621643066,-30.0169620513916,-17.00847244262695,1,0.0.0.0,10.26.35.92,1,0
2015-03-08 12:35:02.243,72,1425843299.340419,33.32523870097949,-111.9417238315119,355.7778,-1,-1,10,65,-9999,1425843302.196279,15.19887924194336,-34.99537658691406,-21.88083648681641,303.3357849121094,292.8126831054688,25,323906.8528585833,-0.237213134765625,-0.740447998046875,-0.042633056640625,323906.8169950834,-1.420762885727539,-0.1438772778915308,0.9211421473198771,323906.8169950834,0.01592530859615203,-0.5450252591912557,1.221531159108236,-1.437496066093445,-0.1272713243961334,0.9541153907775879,-0.3218994140625,-0.526180624961853,-0.1977909803390503,XTrueNorthZVertical,-0.5540696451887227,0.2160869748564765,0.1480701699638392,-0.7901825781369652,-0.1774139553308487,-0.9396244287490845,-0.2926265001296997,14.94721794128418,-29.76177787780762,-18.09931945800781,1,0.0.0.0,10.26.35.92,1,0
2015-03-08 12:35:02.271,73,1425843299.340419,33.32523870097949,-111.9417238315119,355.7778,-1,-1,10,65,-9999,1425843302.248179,12.77606964111328,-33.49324035644531,-23.07621383666992,299.7197570800781,289.1966552734375,25,323906.901908375,-0.4488372802734375,-1.168914794921875,-0.2433929443359375,323906.8687664584,-0.2235167134453694,-1.661130218338166,1.435571392968924,323906.8687664584,0.06205308127614013,-0.6299873556527567,1.140381058211762,-0.2402497678995132,-1.644524335861206,1.468544363975525,0.1096764579415321,0.2198887467384338,0.3836905062198639,XTrueNorthZVertical,-0.5210770880021069,0.2447510322135238,0.142323793462899,-0.8051829437155708,-0.2458153814077377,-0.9087925553321838,-0.3371511995792389,13.42557525634766,-29.10222053527832,-20.23815536499023,1,0.0.0.0,10.26.35.92,1,0
2015-03-08 12:35:02.356,74,1425843299.340419,33.32523870097949,-111.9417238315119,355.7778,-1,-1,10,65,-9999,1425843302.299879,9.996707916259766,-33.40827941894531,-24.45754623413086,299.2849731445312,288.7618713378906,25,323906.9509947083,-0.144775390625,-1.180877685546875,-0.218475341796875,323906.92054025,-0.2208612755224514,1.061869704590171,0.9594967270230893,323906.92054025,0.1654553520245122,-0.745404226642884,1.096912529257763,-0.2375941425561905,1.07847535610199,0.992469310760498,-0.1929621696472168,-0.3208754360675812,0.02145573496818542,XTrueNorthZVertical,-0.5095924420523906,0.2695385503803462,0.1235265439271342,-0.8077163736447608,-0.3095250129699707,-0.8898026347160339,-0.3353290259838104,10.38418292999268,-29.49612045288086,-21.42231750488281,1,0.0.0.0,10.26.35.92,1,0
2015-03-08 12:35:02.374,75,1425843299.340419,33.32523870097949,-111.9417238315119,355.7778,-1,-1,10,65,-9999,1425843302.35124,8.820171356201172,-33.66314697265625,-25.10660934448242,296.9840087890625,286.4609069824219,25,323907.0000313334,0.0745697021484375,-1.016464233398438,-0.6654205322265625,323906.9723138334,-0.4107739560170919,2.730559838314746,0.3587046293321897,323906.9723138334,0.2136194932504485,-0.6544326352103449,1.059212612464414,-0.4275066554546356,2.747165203094482,0.3916768729686737,0.279276430606842,-0.2865075170993805,-0.004592598881572485,XTrueNorthZVertical,-0.5052324776298525,0.2247971471492805,0.07432736876917957,-0.8298685816922329,-0.2979989647865295,-0.8719702959060669,-0.3884127736091614,10.17802429199219,-29.90387344360352,-20.95075798034668,1,0.0.0.0,10.26.35.92,1,0
2015-03-08 12:35:02.448,76,1425843299.340419,33.32523870097949,-111.9417238315119,355.7778,-1,-1,10,65,-9999,1425843302.403503,9.331707000732422,-33.52720642089844,-25.07332229614258,291.6528015136719,281.1296997070312,25,323907.0490968333,-0.133209228515625,-0.9813690185546875,-0.47607421875,323907.0240855417,-0.7308441074155021,-0.5013768268304597,0.8530901256689734,323907.0240855417,0.2238070404985483,-0.6134006864654303,1.015825724099104,-0.7475765943527222,-0.4847715198993683,0.8860620260238647,0.2832560241222382,-0.08907943218946457,-0.2036018669605255,XTrueNorthZVertical,-0.4902175753288578,0.2103745255512138,0.05289934182023243,-0.8441747342341309,-0.3033213317394257,-0.8499159216880798,-0.4308585822582245,11.71371746063232,-29.71661567687988,-20.40783500671387,1,0.0.0.0,10.26.35.92,1,0
2015-03-08 12:35:02.469,77,1425843299.340419,33.32523870097949,-111.9417238315119,355.7778,-1,-1,10,65,-9999,1425843302.45416,8.32568359375,-32.4566650390625,-26.32151794433594,290.8342590332031,280.3111572265625,25,323907.0981383334,-0.4606475830078125,-0.9095611572265625,-0.24200439453125,323907.0758590417,-0.7060207828948736,-1.749070194377564,0.8099277412498411,323907.0758590417,0.2419467080794681,-0.7117375161294929,0.9574023938595783,-0.7227531671524048,-1.732465028762817,0.8428993821144104,0.09558795392513275,-0.2079662531614304,0.05373900383710861,XTrueNorthZVertical,-0.4659291519063621,0.2548771022768828,0.05890947071883099,-0.8452676480528913,-0.3759834468364716,-0.8176990151405334,-0.4358953833580017,10.17634296417236,-29.41027069091797,-21.63899803161621,1,0.0.0.0,10.26.35.92,1,0
2015-03-08 12:35:02.558,78,1425843299.340419,33.32523870097949,-111.9417238315119,355.7778,-1,-1,10,65,-9999,1425843302.507757,6.415935516357422,-31.50505065917969,-27.35335540771484,289.12841796875,278.6053161621094,25,323907.1472085417,-0.2147064208984375,-0.793365478515625,-0.3062744140625,323907.1276329167,-0.2183350009124022,1.748165252239155,-0.08410635565022845,323907.1276329167,0.2527625740618453,-0.7152019400249358,0.9187894278090115,-0.2350671887397766,1.764770269393921,-0.0511351116001606,0.004935084842145443,-0.02034841664135456,0.1416910588741302,XTrueNorthZVertical,-0.4515878809497514,0.2588816981405416,0.0481366506344879,-0.8524855127562921,-0.397909939289093,-0.7948676347732544,-0.4580973088741302,6.960940361022949,-28.89366912841797,-23.52592849731445,1,0.0.0.0,10.26.35.92,1,0
2015-03-08 12:35:02.565,79,1425843299.340419,33.32523870097949,-111.9417238315119,355.7778,-1,-1,10,65,-9999,1425843302.507757,6.415935516357422,-31.50505065917969,-27.35335540771484,289.12841796875,278.6053161621094,25,323907.196253875,0.0235748291015625,-0.805267333984375,-0.4577789306640625,323907.1794043334,0.4722522308332441,2.359993755803452,-1.394947267384747,323907.1276329167,0.2527625740618453,-0.7152019400249358,0.9187894278090115,-0.2350671887397766,1.764770269393921,-0.0511351116001606,0.004935084842145443,-0.02034841664135456,0.1416910588741302,XTrueNorthZVertical,-0.4515878809497514,0.2588816981405416,0.0481366506344879,-0.8524855127562921,-0.397909939289093,-0.7948676347732544,-0.4580973088741302,6.960940361022949,-28.89366912841797,-23.52592849731445,1,0.0.0.0,10.26.35.92,1,0
2015-03-08 12:35:02.647,80,1425843299.340419,33.32523870097949,-111.9417238315119,355.7778,-1,-1,10,65,-9999,1425843302.610329,11.17324447631836,-31.42007446289062,-26.80415344238281,289.9885559082031,279.4654541015625,25,323907.2453287084,-0.03704833984375,-0.79052734375,-0.4697723388671875,323907.2311782084,1.148320440947997,0.4888724865642106,-1.137309335104955,323907.2311782084,0.1271071816629916,-0.4214752403291121,1.020499875779187,1.131588578224182,0.5054771304130554,-1.104338645935059,0.1988169550895691,0.02551101334393024,-0.03913603350520134,XTrueNorthZVertical,-0.4882193649314103,0.1518355847825076,0.04776201545836974,-0.8580831144041703,-0.2139384150505066,-0.8523695468902588,-0.4771756231784821,13.18622207641602,-29.62271308898926,-22.75448036193848,1,0.0.0.0,10.26.35.92,1,0
2015-03-08 12:35:02.664,81,1425843299.340419,33.32523870097949,-111.9417238315119,355.7778,-1,-1,10,65,-9999,1425843302.610329,11.17324447631836,-31.42007446289062,-26.80415344238281,289.9885559082031,279.4654541015625,25,323907.29442175,-0.1171417236328125,-0.9622650146484375,-0.3936004638671875,323907.2829517917,0.9728322398655521,-0.1704114170964263,-1.504438608229501,323907.2829517917,0.0435270963743962,-0.3496987532477432,1.095744853618373,0.9561005234718323,-0.1538069397211075,-1.471468329429626,0.1006153151392937,0.01472694333642721,-0.00875977985560894,XTrueNorthZVertical,-0.5160404730430292,0.1373006489204983,0.07229596024323079,-0.8423918865744892,-0.1567066162824631,-0.8892691731452942,-0.4297015368938446,15.9863862991333,-29.96270942687988,-20.39165306091309,1,0.0.0.0,10.26.35.92,1,0
2015-03-08 12:35:02.745,82,1425843299.340419,33.32523870097949,-111.9417238315119,355.7778,-1,-1,10,65,-9999,1425843302.740671,19.63068389892578,-32.13380432128906,-22.94308471679688,295.5440979003906,285.02099609375,25,323907.343439,-0.112335205078125,-0.810638427734375,-0.4002532958984375,323907.334723375,0.7168494622032447,0.1468062224584,-1.189059881407375,323907.2829517917,0.0435270963743962,-0.3496987532477432,1.095744853618373,0.9561005234718323,-0.1538069397211075,-1.471468329429626,0.1006153151392937,0.01472694333642721,-0.00875977985560894,XTrueNorthZVertical,-0.5160404730430292,0.1373006489204983,0.07229596024323079,-0.8423918865744892,-0.1567066162824631,-0.8892691731452942,-0.4297015368938446,15.9863862991333,-29.96270942687988,-20.39165306091309,1,0.0.0.0,10.26.35.92,1,0
2015-03-08 12:35:02.761,83,1425843299.340419,33.32523870097949,-111.9417238315119,355.7778,-1,-1,10,65,-9999,1425843302.740671,19.63068389892578,-32.13380432128906,-22.94308471679688,295.5440979003906,285.02099609375,25,323907.3924843334,0.0409088134765625,-0.9261932373046875,-0.39117431640625,323907.38649725,0.3669854624256821,0.1374827617981416,-1.019393616783953,323907.334723375,-0.08046026354319132,-0.2343758575107936,1.154682139840698,0.700059711933136,0.1633612215518951,-1.156111598014832,-0.005630621686577797,0.05614601448178291,-0.01469412446022034,XTrueNorthZVertical,-0.5376756102863809,0.1196909100231406,0.09723226101807089,-0.8289300006784627,-0.09387194365262985,-0.9146665334701538,-0.3931580483913422,17.85984802246094,-29.68933486938477,-19.20201110839844,1,0.0.0.0,10.26.35.92,1,0
2015-03-08 12:35:02.851,84,1425843299.340419,33.32523870097949,-111.9417238315119,355.7778,-1,-1,10,65,-9999,1425843302.792204,21.79619598388672,-31.87889099121094,-21.79474639892578,298.6015319824219,288.0784301757812,25,323907.441561625,0.0389862060546875,-0.82763671875,-0.3415374755859375,323907.4382710417,-0.3205401993308092,-0.8699692406578956,-0.6881477761871337,323907.4382710417,-0.3064369444928697,-0.03206406714162117,1.193321898574427,-0.3373332917690277,-0.8534137010574341,-0.6552050709724426,0.05199234560132027,0.08073676377534866,0.02973092347383499,XTrueNorthZVertical,-0.553205689610525,0.09884948456409517,0.1351354957259807,-0.8160457564532347,-0.01181595493108034,-0.9295984506607056,-0.3683844804763794,21.26862144470215,-28.4562873840332,-17.52236938476562,1,0.0.0.0,10.26.35.92,1,0
2015-03-08 12:35:02.859,85,1425843299.340419,33.32523870097949,-111.9417238315119,355.7778,-1,-1,10,65,-9999,1425843302.843537,22.57819366455078,-31.36802673339844,-22.47003936767578,301.7051086425781,291.1820068359375,25,323907.490610125,-0.042816162109375,-0.9076995849609375,-0.2301483154296875,323907.4382710417,-0.3205401993308092,-0.8699692406578956,-0.6881477761871337,323907.4382710417,-0.3064369444928697,-0.03206406714162117,1.193321898574427,-0.3373332917690277,-0.8534137010574341,-0.6552050709724426,0.05199234560132027,0.08073676377534866,0.02973092347383499,XTrueNorthZVertical,-0.553205689610525,0.09884948456409517,0.1351354957259807,-0.8160457564532347,-0.01181595493108034,-0.9295984506607056,-0.3683844804763794,21.26862144470215,-28.4562873840332,-17.52236938476562,1,0.0.0.0,10.26.35.92,1,0
2015-03-08 12:35:02.950,86,1425843299.340419,33.32523870097949,-111.9417238315119,355.7778,-1,-1,10,65,-9999,1425843302.896022,22.25422286987305,-30.67131042480469,-22.98595428466797,304.0357360839844,293.5126342773438,25,323907.5397485417,-0.2020721435546875,-0.923004150390625,-0.2700653076171875,323907.5418162917,0.676961434344365,-0.07440792190848688,-0.3430588242440832,323907.4900425417,-0.3801586828155959,-0.02921988435013578,1.187550739107737,0.1099152266979218,-1.449583411216736,-0.2801108658313751,0.01916445977985859,0.03405379131436348,0.1247800886631012,XTrueNorthZVertical,-0.5470707928827293,0.1175884459237852,0.164607254113654,-0.8122751943150399,-0.01092471368610859,-0.9274559020996094,-0.3737730085849762,21.28542900085449,-28.41169548034668,-19.88144302368164,1,0.0.0.0,10.26.35.92,1,0
2015-03-08 12:35:02.958,87,1425843299.340419,33.32523870097949,-111.9417238315119,355.7778,-1,-1,10,65,-9999,1425843302.947023,22.11781311035156,-30.8072509765625,-23.31880569458008,306.0484924316406,295.525390625,25,323907.58873925,-0.016082763671875,-0.9853668212890625,-0.392181396484375,323907.5418162917,0.676961434344365,-0.07440792190848688,-0.3430588242440832,323907.5418162917,-0.4119917402912638,-0.04062957725848489,1.204606308892013,0.6601687073707581,-0.05785270407795906,-0.3101167976856232,-0.1875282824039459,0.0106941731646657,0.08769992738962173,XTrueNorthZVertical,-0.5510256310304128,0.13224272495744,0.1797797005575751,-0.8040907345301755,-0.01454385370016098,-0.933698296546936,-0.3577652275562286,20.43132209777832,-28.18217849731445,-21.06873321533203,1,0.0.0.0,10.26.35.92,1,0
2015-03-08 12:35:03.018,88,1425843299.340419,33.32523870097949,-111.9417238315119,355.7778,-1,-1,10,65,-9999,1425843302.998587,22.50999069213867,-31.84379577636719,-22.13719177246094,306.8662719726562,296.3431701660156,25,323907.6378173333,-0.01190185546875,-0.9356689453125,-0.40496826171875,323907.5935900834,0.9334619305225837,0.7863118939674545,-0.03865045690031998,323907.5935900834,-0.4270936869018,0.003540691163338611,1.249498401868292,0.9166693091392517,0.8028669357299805,-0.005708758253604174,-0.01720090582966805,-0.03654048591852188,-0.07638496905565262,XTrueNorthZVertical,-0.5719116214247372,0.1225515561061334,0.1708842615771198,-0.7929040402009673,0.001118142274208367,-0.9488263130187988,-0.315796434879303,20.77590560913086,-28.7053050994873,-19.99832153320312,1,0.0.0.0,10.26.35.92,1,0
2015-03-08 12:35:03.055,89,1425843299.340419,33.32523870097949,-111.9417238315119,355.7778,-1,-1,10,65,-9999,1425843302.998587,22.50999069213867,-31.84379577636719,-22.13719177246094,306.8662719726562,296.3431701660156,25,323907.686860875,-0.3214874267578125,-1.001220703125,-0.2807464599609375,323907.6453617917,0.5586779334768226,-0.7718117807803001,0.07474854021190802,323907.6453617917,-0.4261320101349987,-0.0007683692414712739,1.285514052101291,0.5418854951858521,-0.7552568912506104,0.1076899394392967,-0.01168561447411776,0.02391330525279045,-0.1235399320721626,XTrueNorthZVertical,-0.585785236861201,0.1270491625033517,0.1694854615068759,-0.7822971809785241,-0.000216240921872668,-0.9595822691917419,-0.281428337097168,21.30050086975098,-29.43538284301758,-18.31426811218262,1,0.0.0.0,10.26.35.92,1,0
2015-03-08 12:35:03.147,90,1425843299.340419,33.32523870097949,-111.9417238315119,355.7778,-1,-1,10,65,-9999,1425843303.101404,21.14849472045898,-34.10821533203125,-20.26816368103027,306.8361511230469,296.3130493164062,25,323907.7359301667,-0.697601318359375,-1.357192993164062,-0.368927001953125,323907.7489093334,0.4611215490572579,2.001659838495001,0.9308781316329888,323907.6971357084,-0.3444627798546094,-0.1299589666193785,1.31822009590984,1.071988224983215,-1.214895486831665,0.7752058506011963,-0.4220519363880157,0.07239781320095062,0.01179960090667009,XTrueNorthZVertical,-0.5932819703811107,0.1553077177961548,0.1743752605291787,-0.7703825798754268,-0.03238532319664955,-0.9682718515396118,-0.2477920353412628,20.61095237731934,-29.99946212768555,-18.18753814697266,1,0.0.0.0,10.26.35.92,1,0
2015-03-08 12:35:03.155,91,1425843299.340419,33.32523870097949,-111.9417238315119,355.7778,-1,-1,10,65,-9999,1425843303.101404,21.14849472045898,-34.10821533203125,-20.26816368103027,306.8361511230469,296.3130493164062,25,323907.7849772084,-0.1421051025390625,-1.125686645507812,-0.2122039794921875,323907.7489093334,0.4611215490572579,2.001659838495001,0.9308781316329888,323907.7489093334,-0.1085347023836679,-0.3533657682367912,1.346054668061758,0.4443295001983643,2.018214464187622,0.9638187885284424,-0.5085880756378174,-0.5468920469284058,-0.1592009365558624,XTrueNorthZVertical,-0.6052935986532434,0.1705199830390129,0.1511555075430757,-0.7626890859319133,-0.07712053507566452,-0.9748517274856567,-0.2090851962566376,18.25173950195312,-31.80684661865234,-17.62850570678711,1,0.0.0.0,10.26.35.92,1,0
2015-03-08 12:35:03.222,92,1425843299.340419,33.32523870097949,-111.9417238315119,355.7778,-1,-1,10,65,-9999,1425843303.208065,20.04016494750977,-36.70809936523438,-17.0561580657959,298.2725219726562,287.7494201660156,25,323907.834044125,0.644439697265625,-0.8728179931640625,-0.0682830810546875,323907.8006810833,0.4765987760483624,2.224909969515254,0.3576449575344472,323907.8006810833,0.08742035890615252,-0.4134523708338759,1.342942903171768,0.4598068594932556,2.241464376449585,0.3905853629112244,0.1069296821951866,-0.1309947967529297,0.195852056145668,XTrueNorthZVertical,-0.6153324168694378,0.1339372696303146,0.0940945419994161,-0.7710856477499723,-0.09075536578893661,-0.9741535186767578,-0.2068536430597305,18.32669067382812,-32.90392303466797,-15.39577865600586,1,0.0.0.0,10.26.35.92,1,0
2015-03-08 12:35:03.254,93,1425843299.340419,33.32523870097949,-111.9417238315119,355.7778,-1,-1,10,65,-9999,1425843303.208065,20.04016494750977,-36.70809936523438,-17.0561580657959,298.2725219726562,287.7494201660156,25,323907.883089625,-0.3710174560546875,-1.145416259765625,-0.0510406494140625,323907.8524549167,0.5299855685245269,-1.385739121599689,1.232776469649352,323907.8524549167,0.2719399837520449,-0.5822171663771987,1.332119605630181,0.5131937861442566,-1.369184851646423,1.265716433525085,0.5371354222297668,0.2076746225357056,-0.07217166572809219,XTrueNorthZVertical,-0.6170223615089419,0.1433534321219753,0.07361242066985636,-0.7702690730299282,-0.1300004124641418,-0.9716516733169556,-0.1974664032459259,18.80678749084473,-33.57199478149414,-13.22087097167969,1,0.0.0.0,10.26.35.92,1,0
2015-03-08 12:35:03.323,94,1425843299.340419,33.32523870097949,-111.9417238315119,355.7778,-1,-1,10,65,-9999,1425843303.312666,16.10133361816406,-38.18644714355469,-16.47367095947266,295.042724609375,284.5196228027344,25,323907.9321646667,-0.4575958251953125,-0.7053375244140625,0.1349334716796875,323907.904228875,0.1259169195000365,-2.246396086873904,0.6154900837470469,323907.904228875,0.4593116028430962,-0.8916937396669039,1.315903087226128,0.1091253533959389,-2.229841947555542,0.648429811000824,-0.3515588939189911,-0.09647298604249954,0.07775707542896271,XTrueNorthZVertical,-0.6149075632143051,0.2066496089626939,0.09425423273139284,-0.7551826281609695,-0.1962011158466339,-0.9676902294158936,-0.1583692580461502,15.39042472839355,-34.97732162475586,-13.97453212738037,1,0.0.0.0,10.26.35.92,1,0
2015-03-08 12:35:03.358,95,1425843299.340419,33.32523870097949,-111.9417238315119,355.7778,-1,-1,10,65,-9999,1425843303.312666,16.10133361816406,-38.18644714355469,-16.47367095947266,295.042724609375,284.5196228027344,25,323907.9812139584,-0.272796630859375,-1.062103271484375,0.0177001953125,323907.9560005,0.2717689313398611,1.386993470473116,0.4293170140550956,323907.9560005,0.5622994566302074,-0.996895711952604,1.301315580363128,0.2549775242805481,1.403547286987305,0.4622564017772675,-0.2310727685689926,0.02627193927764893,0.294930636882782,XTrueNorthZVertical,-0.6166647653474239,0.2178406839921316,0.0842890553040764,-0.75177482877473,-0.2235781103372574,-0.9639092683792114,-0.144540011882782,13.22051239013672,-35.50784683227539,-14.83160400390625,1,0.0.0.0,10.26.35.92,1,0
2015-03-08 12:35:03.415,96,1425843299.340419,33.32523870097949,-111.9417238315119,355.7778,-1,-1,10,65,-9999,1425843303.362679,14.00403213500977,-38.91712951660156,-16.49031639099121,295.3013000488281,284.7781982421875,25,323908.030292,-0.1099853515625,-0.9788665771484375,-0.0424957275390625,323908.0077742917,0.2916286562208,0.1582612772551578,0.4945506123243686,323908.0077742917,0.6417668860902895,-1.026684454087778,1.291470589414047,0.2748374044895172,0.1748150140047073,0.5274897217750549,0.1006075963377953,0.03456003591418266,0.08151940256357193,XTrueNorthZVertical,-0.6211689737882184,0.2068523677491495,0.06101441310574332,-0.7534178653305916,-0.2358920127153397,-0.9612415432929993,-0.14272241294384,13.20128059387207,-35.95524597167969,-13.7299747467041,1,0.0.0.0,10.26.35.92,1,0
2015-03-08 12:35:03.451,97,1425843299.340419,33.32523870097949,-111.9417238315119,355.7778,-1,-1,10,65,-9999,1425843303.41328,13.16852188110352,-39.71577453613281,-15.94111251831055,292.38330078125,281.8601989746094,25,323908.0793388333,-0.41290283203125,-0.9143829345703125,-0.1777801513671875,323908.0595481667,0.3418465533158791,-0.644226923489547,0.2505057205644504,323908.0595481667,0.7312983226927042,-1.126980418396438,1.278666885885926,0.3250554800033569,-0.627673327922821,0.2834444940090179,0.1480614095926285,-0.07015346735715866,0.0003848714113701135,XTrueNorthZVertical,-0.6243326729285936,0.2199509022292959,0.05505699177357257,-0.7475286457559218,-0.2600914537906647,-0.9576327800750732,-0.1236606314778328,12.34030532836914,-36.55551147460938,-12.92197513580322,1,0.0.0.0,10.26.35.92,1,0
2015-03-08 12:35:03.547,98,1425843299.340419,33.32523870097949,-111.9417238315119,355.7778,-1,-1,10,65,-9999,1425843303.517891,11.53160095214844,-40.599365234375,-14.80941963195801,291.4581604003906,280.93505859375,25,323908.128495,-0.3584747314453125,-0.9024810791015625,0.1150970458984375,323908.111320125,-0.0678541487819109,-0.7308614179625876,0.2032761565285492,323908.111320125,0.7565065455346266,-1.193631335993446,1.272316660037444,-0.08464504033327103,-0.7143080234527588,0.2362145632505417,-0.099740169942379,0.02168738469481468,0.1968019902706146,XTrueNorthZVertical,-0.6236182301218429,0.2386415579289191,0.06458884362901947,-0.7416055728041061,-0.2733982503414154,-0.9557846784591675,-0.1083010211586952,11.49922943115234,-36.84276580810547,-12.88192176818848,1,0.0.0.0,10.26.35.92,1,0
2015-03-08 12:35:03.551,99,1425843299.340419,33.32523870097949,-111.9417238315119,355.7778,-1,-1,10,65,-9999,1425843303.517891,11.53160095214844,-40.599365234375,-14.80941963195801,291.4581604003906,280.93505859375,25,323908.1774576667,-0.31048583984375,-1.009689331054688,0.0114288330078125,323908.1630938334,0.3353484402560858,-0.003877562547155371,0.06432572665366491,323908.111320125,0.7565065455346266,-1.193631335993446,1.272316660037444,-0.08464504033327103,-0.7143080234527588,0.2362145632505417,-0.099740169942379,0.02168738469481468,0.1968019902706146,XTrueNorthZVertical,-0.6236182301218429,0.2386415579289191,0.06458884362901947,-0.7416055728041061,-0.2733982503414154,-0.9557846784591675,-0.1083010211586952,11.49922943115234,-36.84276580810547,-12.88192176818848,1,0.0.0.0,10.26.35.92,1,0
2015-03-08 12:35:03.615,100,1425843299.340419,33.32523870097949,-111.9417238315119,355.7778,-1,-1,10,65,-9999,1425843303.569339,10.73019790649414,-40.92222595214844,-14.39335632324219,290.775146484375,280.2520446777344,25,323908.226536375,-0.2752227783203125,-0.9182891845703125,-0.0898590087890625,323908.2148678334,-0.009919742428327147,0.2293684773086005,0.1397885266699322,323908.2148678334,0.806167261307315,-1.242251868331606,1.255685990973767,-0.02671031281352043,0.2459215521812439,0.1727263033390045,0.05558225512504578,-0.06730421632528305,0.002421068260446191,XTrueNorthZVertical,-0.6241455830114534,0.2458490980268002,0.05628253526966166,-0.7394814553974988,-0.2933447062969208,-0.9507622122764587,-0.1000010222196579,10.34224414825439,-37.18746948242188,-12.87228202819824,1,0.0.0.0,10.26.35.92,1,0
2015-03-08 12:35:03.651,101,1425843299.340419,33.32523870097949,-111.9417238315119,355.7778,-1,-1,10,65,-9999,1425843303.623407,10.18455505371094,-41.16014099121094,-14.45992851257324,290.6629028320312,280.1398010253906,25,323908.275576,-0.2537994384765625,-1.00323486328125,-0.0840911865234375,323908.2666395,-0.08187782245005015,-0.4440030158863376,0.2327562845312903,323908.2148678334,0.806167261307315,-1.242251868331606,1.255685990973767,-0.02671031281352043,0.2459215521812439,0.1727263033390045,0.05558225512504578,-0.06730421632528305,0.002421068260446191,XTrueNorthZVertical,-0.6241455830114534,0.2458490980268002,0.05628253526966166,-0.7394814553974988,-0.2933447062969208,-0.9507622122764587,-0.1000010222196579,10.34224414825439,-37.18746948242188,-12.87228202819824,1,0.0.0.0,10.26.35.92,1,0
2015-03-08 12:35:03.717,102,1425843299.340419,33.32523870097949,-111.9417238315119,355.7778,-1,-1,10,65,-9999,1425843303.673742,9.690067291259766,-40.83726501464844,-14.54314041137695,292.2093200683594,281.6862182617188,25,323908.3246634167,-0.4112091064453125,-0.952850341796875,0.0459747314453125,323908.3184135417,-0.06678595486868011,-0.7084802121615618,0.1660132065561605,323908.2666395,0.8107033463026816,-1.261413929578416,1.247890366953728,-0.09866820275783539,-0.4274501204490662,0.2656936943531036,0.07999828457832336,-0.04657101258635521,0.07635203003883362,XTrueNorthZVertical,-0.6223362900250539,0.2537512418739321,0.05814877564172799,-0.7381914410931216,-0.3022578060626984,-0.948317289352417,-0.09661570191383362,10.79850006103516,-38.72946166992188,-13.6193733215332,1,0.0.0.0,10.26.35.92,1,0
2015-03-08 12:35:03.752,103,1425843299.340419,33.32523870097949,-111.9417238315119,355.7778,-1,-1,10,65,-9999,1425843303.724045,9.383148193359375,-40.56538391113281,-14.80941963195801,292.63427734375,282.1111755371094,25,323908.3737055833,-0.348968505859375,-0.805419921875,-0.08563232421875,323908.37018725,-0.06139518419014172,0.02216602238494752,0.245415354456873,323908.3184135417,0.8216193452263301,-1.303523764892433,1.235590695745246,-0.08357617259025574,-0.691927433013916,0.1989502906799316,-0.1010971888899803,0.009329867549240589,0.08924496173858643,XTrueNorthZVertical,-0.6196551340278568,0.269420842571691,0.06332049847156627,-0.734459306824193,-0.3172835409641266,-0.9443426728248596,-0.08687984943389893,10.1020975112915,-38.80988693237305,-13.92144012451172,1,0.0.0.0,10.26.35.92,1,0
2015-03-08 12:35:03.801,104,1425843299.340419,33.32523870097949,-111.9417238315119,355.7778,-1,-1,10,65,-9999,1425843303.776707,8.530590057373047,-40.19154357910156,-15.04241371154785,293.1652221679688,282.6421203613281,25,323908.4227854167,-0.24310302734375,-0.98406982421875,0.0187835693359375,323908.4219590417,-0.2784505361987609,-0.4180049710088751,0.3841306272075032,323908.37018725,0.8152537292608677,-1.302414315770477,1.226475826650526,-0.07807064056396484,0.0385943278670311,0.2783959209918976,0.02150275185704231,0.1004542112350464,0.02250928804278374,XTrueNorthZVertical,-0.6167460779407746,0.2736219288016226,0.06241418250077043,-0.7354317233386078,-0.3254730999469757,-0.9413050413131714,-0.08951063454151154,9.255863189697266,-38.87516021728516,-14.32192039489746,1,0.0.0.0,10.26.35.92,1,0
2015-03-08 12:35:03.848,105,1425843299.340419,33.32523870097949,-111.9417238315119,355.7778,-1,-1,10,65,-9999,1425843303.82809,7.592769622802734,-40.27650451660156,-15.72475624084473,292.6106567382812,282.0875549316406,25,323908.47182875,-0.4717254638671875,-1.128860473632812,0.0311737060546875,323908.4219590417,-0.2784505361987609,-0.4180049710088751,0.3841306272075032,323908.4219590417,0.8104391187850771,-1.308581640142222,1.203864772259184,-0.2950921058654785,-0.4015799164772034,0.4171148836612701,0.02442296035587788,-0.1120539009571075,0.1339811235666275,XTrueNorthZVertical,-0.6106645251717646,0.2838852363925736,0.05887342874882381,-0.7369070254034188,-0.3464902341365814,-0.9334325790405273,-0.0929960235953331,8.713142395019531,-38.91337966918945,-14.55666255950928,1,0.0.0.0,10.26.35.92,1,0
2015-03-08 12:35:03.900,106,1425843299.340419,33.32523870097949,-111.9417238315119,355.7778,-1,-1,10,65,-9999,1425843303.880389,6.228664398193359,-40.48042297363281,-16.32388687133789,292.642822265625,282.1197204589844,25,323908.52091525,-0.4366912841796875,-0.7705841064453125,-0.150421142578125,323908.5255070417,-0.05647925513396445,0.05766356287072269,0.610250314302316,323908.473733,0.7985303518196323,-1.322281326914399,1.175789014658165,-0.06837008893489838,-0.529632031917572,0.3441013097763062,-0.09873244166374207,-0.2058667242527008,0.1258246749639511,XTrueNorthZVertical,-0.6019390256745022,0.3005726614244094,0.05843893499494913,-0.7375028202640423,-0.3729930222034454,-0.9229937791824341,-0.09465096890926361,7.60029125213623,-38.95643997192383,-15.05648708343506,1,0.0.0.0,10.26.35.92,1,0
2015-03-08 12:35:03.945,107,1425843299.340419,33.32523870097949,-111.9417238315119,355.7778,-1,-1,10,65,-9999,1425843303.931445,4.523536682128906,-40.44644165039062,-16.69002151489258,292.6086730957031,282.0855712890625,25,323908.5699605417,-0.5150909423828125,-0.896209716796875,-0.040771484375,323908.5255070417,-0.05647925513396445,0.05766356287072269,0.610250314302316,323908.5255070417,0.8258167805181196,-1.361414322385759,1.165332605554984,-0.0730350986123085,0.07409244775772095,0.6431602239608765,-0.05086113139986992,0.1483354717493057,-0.06843360513448715,XTrueNorthZVertical,-0.6025485459556725,0.3097442161368456,0.05680601500430675,-0.7333259039760478,-0.3858301639556885,-0.918919563293457,-0.08198753744363785,6.510741233825684,-39.14166641235352,-15.08663654327393,1,0.0.0.0,10.26.35.92,1,0
2015-03-08 12:35:03.998,108,1425843299.340419,33.32523870097949,-111.9417238315119,355.7778,-1,-1,10,65,-9999,1425843303.983709,3.483413696289062,-40.39546203613281,-16.90637588500977,287.9747009277344,277.4515991210938,25,323908.619025625,-0.384368896484375,-1.071365356445312,-0.1929779052734375,323908.5772789167,-0.4818771613288995,0.7724181825605111,1.014977030432165,323908.5772789167,0.8240626908204356,-1.352804306033739,1.117414546052428,-0.4984329044818878,0.7888448238372803,1.047903180122375,-0.08744876086711884,0.0027612813282758,0.05395638197660446,XTrueNorthZVertical,-0.5913560968897446,0.3208333431487345,0.03924903457055424,-0.7387986737448122,-0.4276421964168549,-0.8989710211753845,-0.09472786635160446,5.204668045043945,-39.27639770507812,-15.24278259277344,1,0.0.0.0,10.26.35.92,1,0
2015-03-08 12:35:04.047,109,1425843299.340419,33.32523870097949,-111.9417238315119,355.7778,-1,-1,10,65,-9999,1425843304.039405,4.574687957763672,-40.22552490234375,-17.83835792541504,281.3108825683594,270.7877807617188,25,323908.6680642917,0.2557830810546875,-0.68316650390625,-0.48114013671875,323908.6290528334,-0.9047296181539368,4.793705941109169,0.5888456896730222,323908.6290528334,0.7759171611712936,-1.157438418716205,1.068985341282783,-0.921286404132843,4.81013298034668,0.6217692494392395,0.1215625181794167,-0.07577124238014221,-0.0394337996840477,XTrueNorthZVertical,-0.5728154648816391,0.2743610112053775,-0.01461404744140504,-0.7722661087906522,-0.4405017197132111,-0.8767129182815552,-0.1932169646024704,4.174240112304688,-39.15026473999023,-15.87131881713867,1,0.0.0.0,10.26.35.92,1,0
2015-03-08 12:35:04.096,110,1425843299.340419,33.32523870097949,-111.9417238315119,355.7778,-1,-1,10,65,-9999,1425843304.039405,4.574687957763672,-40.22552490234375,-17.83835792541504,281.3108825683594,270.7877807617188,25,323908.7171448334,0.172393798828125,-0.7592620849609375,-0.282958984375,323908.680826625,-0.08829470909659608,2.427779461345348,-1.548553871686664,323908.680826625,0.6658236956773322,-0.8404899098098996,1.072437491937399,-0.1048517748713493,2.444206237792969,-1.515632152557373,0.7328237891197205,0.219875156879425,-0.1842044144868851,XTrueNorthZVertical,-0.5554410838964615,0.1790360398488349,-0.05949499443178796,-0.8098713964816957,-0.3560842573642731,-0.8783681988716125,-0.3188625872135162,7.869585990905762,-38.31938552856445,-16.48516273498535,1,0.0.0.0,10.26.35.92,1,0
2015-03-08 12:35:04.145,111,1425843299.340419,33.32523870097949,-111.9417238315119,355.7778,-1,-1,10,65,-9999,1425843304.112786,9.673007965087891,-39.01905822753906,-18.7869815826416,278.744873046875,268.2217712402344,25,323908.7661884167,-0.1790924072265625,-1.201400756835938,0.0838470458984375,323908.7325985,0.1730974813718802,-2.356516200052027,-1.685118641857055,323908.7325985,0.5534615837899557,-0.7716885084759894,1.133997630925541,0.1565405577421188,-2.340089321136475,-1.652197360992432,0.3823016285896301,0.05134373903274536,-0.02458137646317482,XTrueNorthZVertical,-0.5654145734310682,0.1694178120104902,-0.01907237535321667,-0.8069945749942854,-0.2950060963630676,-0.9061105847358704,-0.3032079339027405,11.68534374237061,-37.57432174682617,-15.92762565612793,1,0.0.0.0,10.26.35.92,1,0
2015-03-08 12:35:04.193,112,1425843299.340419,33.32523870097949,-111.9417238315119,355.7778,-1,-1,10,65,-9999,1425843304.164932,11.80442047119141,-38.1524658203125,-19.20304679870605,285.6473999023438,275.1242980957031,25,323908.815259125,-1.48333740234375,-1.6285400390625,-0.4306640625,323908.784372625,-0.08104878040270848,-2.136561997196856,-1.350162485229538,323908.784372625,0.4136286263576326,-0.7807505706942076,1.197705215433915,-0.09760552644729614,-2.120135307312012,-1.317241430282593,-0.01258252095431089,-0.1491171717643738,0.3129332959651947,XTrueNorthZVertical,-0.5747202451448196,0.2005752100637636,0.05308530829006209,-0.7916111478616157,-0.2565367519855499,-0.9312050938606262,-0.2589324414730072,12.81644725799561,-36.79300689697266,-16.85465621948242,1,0.0.0.0,10.26.35.92,1,0
2015-03-08 12:35:04.253,113,1425843299.340419,33.32523870097949,-111.9417238315119,355.7778,-1,-1,10,65,-9999,1425843304.216052,10.96890640258789,-37.69366455078125,-20.65094375610352,294.5453186035156,284.022216796875,25,323908.8643103333,-0.6843109130859375,-0.7774505615234375,0.2494049072265625,323908.8361465834,-0.0438401589165574,-2.133346230180585,1.311393783976818,323908.8361465834,0.4694690154119341,-0.9746909915370303,1.181588336822346,-0.06039672717452049,-2.116919994354248,1.344314455986023,-1.027801632881165,0.2719963788986206,0.06577295809984207,XTrueNorthZVertical,-0.5691285652356699,0.2637705639233922,0.08301618968268931,-0.7743552883123945,-0.3140105009078979,-0.9252098798751831,-0.2130355387926102,11.98723697662354,-36.26468276977539,-18.52687644958496,1,0.0.0.0,10.26.35.92,1,0
2015-03-08 12:35:04.292,114,1425843299.340419,33.32523870097949,-111.9417238315119,355.7778,-1,-1,10,65,-9999,1425843304.267894,11.92377471923828,-37.86357116699219,-19.85210037231445,292.8499450683594,282.3268432617188,25,323908.91340075,0.065277099609375,-1.041244506835938,-0.2161102294921875,323908.887918375,1.18039315627193,5.218989331377231,-1.654320781746943,323908.887918375,0.4817968245765827,-0.8395580747503666,1.243616043212765,1.163836717605591,5.235415458679199,-1.621400356292725,-0.07070695608854294,-0.2297597378492355,0.4194450974464417,XTrueNorthZVertical,-0.5956058087530802,0.1948028949691001,0.05346601543409923,-0.7774618783781805,-0.2392143160104752,-0.9469522833824158,-0.2146110981702805,10.35085391998291,-36.7924690246582,-18.47269058227539,1,0.0.0.0,10.26.35.92,1,0
2015-03-08 12:35:04.375,115,1425843304.312197,33.32508947703366,-111.9415923302173,359.0836,0,-1,3,10,-9999,1425843304.320586,14.97594451904297,-38.49229431152344,-16.73995018005371,289.8494262695312,279.3263244628906,25,323908.9624544583,0.5431365966796875,-0.743682861328125,-0.584014892578125,323908.9396923333,0.6626586613939853,2.271810366840421,-0.1906474466393934,323908.9396923333,0.501950481420152,-0.6578440799517347,1.299059668175829,0.6461023688316345,2.288236379623413,-0.1577274054288864,0.6092201471328735,-0.01997014507651329,-0.08793142437934875,XTrueNorthZVertical,-0.6183427066186016,0.1070339544393542,0.002072992152632317,-0.7785831791906838,-0.1641060411930084,-0.9633062481880188,-0.2123920619487762,16.24475288391113,-36.74584579467773,-13.70829105377197,1,0.0.0.0,10.26.35.92,1,0
2015-03-08 12:35:04.390,116,1425843304.312197,33.32508947703366,-111.9415923302173,359.0836,0,-1,3,10,-9999,1425843304.371128,18.48850250244141,-38.86610412597656,-13.61116027832031,284.3969421386719,273.8738403320312,25,323909.0115409584,-0.190338134765625,-0.9722137451171875,0.02484130859375,323908.9914663333,0.822490937376181,-2.354653585185625,-0.1340776440283663,323908.9914663333,0.5643787125094356,-0.7182968775039746,1.327328469602213,0.8059348464012146,-2.33822774887085,-0.1011579260230064,0.4543183743953705,0.1617462188005447,-0.2565107047557831,XTrueNorthZVertical,-0.6309919352427021,0.1053334244496092,0.002591097258008419,-0.7686009159595565,-0.1586488038301468,-0.970507800579071,-0.1815080940723419,18.32563781738281,-36.96210479736328,-10.0019998550415,1,0.0.0.0,10.26.35.92,1,0
2015-03-08 12:35:04.456,117,1425843304.312197,33.32508947703366,-111.9415923302173,359.0836,0,-1,3,10,-9999,1425843304.424529,18.16453552246094,-39.05300903320312,-12.96210289001465,287.8747253417969,277.3516235351562,25,323909.0605872917,-0.852081298828125,-1.032180786132812,0.2255706787109375,323909.04323825,0.4646009690214465,-2.850864412133549,0.1017154430939414,323908.9914663333,0.5643787125094356,-0.7182968775039746,1.327328469602213,0.8059348464012146,-2.33822774887085,-0.1011579260230064,0.4543183743953705,0.1617462188005447,-0.2565107047557831,XTrueNorthZVertical,-0.6309919352427021,0.1053334244496092,0.002591097258008419,-0.7686009159595565,-0.1586488038301468,-0.970507800579071,-0.1815080940723419,18.32563781738281,-36.96210479736328,-10.0019998550415,1,0.0.0.0,10.26.35.92,1,0
2015-03-08 12:35:04.488,118,1425843304.312197,33.32508947703366,-111.9415923302173,359.0836,0,-1,3,10,-9999,1425843304.475491,17.41428756713867,-39.56277465820312,-13.12852668762207,291.2877502441406,280.7646484375,25,323909.1096535417,-0.18994140625,-0.898773193359375,-0.045806884765625,323909.0950122917,0.1114010936624506,2.842431778857922,-0.1893848419665868,323909.0950122917,0.7122479895304907,-1.020473359754346,1.351592823717271,0.09484535455703735,2.858857393264771,-0.1564658284187317,-0.2516191601753235,0.009350378066301346,0.3788866996765137,XTrueNorthZVertical,-0.6444446930612375,0.1668271838787356,0.04895675548462221,-0.7446227224864939,-0.185346782207489,-0.9760709404945374,-0.1137194558978081,15.77260398864746,-37.50624847412109,-12.10671806335449,1,0.0.0.0,10.26.35.92,1,0
2015-03-08 12:35:04.559,119,1425843304.312197,33.32508947703366,-111.9415923302173,359.0836,0,-1,3,10,-9999,1425843304.527322,17.90876770019531,-39.95361328125,-12.37961578369141,287.85107421875,277.3279724121094,25,323909.1586836667,0.4148101806640625,-1.048843383789062,-0.1859130859375,323909.1467862084,0.4700015933960182,1.880139797954686,0.1669772708707691,323909.1467862084,0.757642206484798,-0.9076814319446473,1.369287136016063,0.4534460008144379,1.896565318107605,0.1998959928750992,0.4073664247989655,-0.1913464218378067,0.01555549446493387,XTrueNorthZVertical,-0.6536820828547535,0.1053404427618042,0.0001162680032425449,-0.7494018592195049,-0.1577326357364655,-0.9797656536102295,-0.1232062503695488,17.7037467956543,-37.52128601074219,-8.988707542419434,1,0.0.0.0,10.26.35.92,1,0
2015-03-08 12:35:04.586,120,1425843304.312197,33.32508947703366,-111.9415923302173,359.0836,0,-1,3,10,-9999,1425843304.579267,18.74428176879883,-39.69873046875,-10.79857635498047,283.9327697753906,273.40966796875,25,323909.207752,-0.2942657470703125,-1.065887451171875,0.1006011962890625,323909.19855825,-0.03070864421359469,-2.210932634850082,-0.09947838777827482,323909.1467862084,0.757642206484798,-0.9076814319446473,1.369287136016063,0.4534460008144379,1.896565318107605,0.1998959928750992,0.4073664247989655,-0.1913464218378067,0.01555549446493387,XTrueNorthZVertical,-0.6536820828547535,0.1053404427618042,0.0001162680032425449,-0.7494018592195049,-0.1577326357364655,-0.9797656536102295,-0.1232062503695488,17.7037467956543,-37.52128601074219,-8.988707542419434,1,0.0.0.0,10.26.35.92,1,0
2015-03-08 12:35:04.655,121,1425843304.312197,33.32508947703366,-111.9415923302173,359.0836,0,-1,3,10,-9999,1425843304.630886,18.45441055297852,-39.74971008300781,-10.64879417419434,285.2884826660156,274.765380859375,25,323909.2567930833,-0.4311065673828125,-0.884674072265625,0.1009674072265625,323909.25033225,0.2063822013079086,0.3930721905674442,0.01294695763942022,323909.19855825,0.8158916121771014,-0.9936325539901369,1.360504888676294,-0.04726405441761017,-2.194507360458374,-0.06656002998352051,-0.03350384905934334,0.09079360961914062,0.04297875985503197,XTrueNorthZVertical,-0.6545727188675454,0.1207631996324677,0.004060048748965862,-0.746280346638926,-0.174931213259697,-0.9779701232910156,-0.1139016076922417,17.79500961303711,-37.84223175048828,-7.30543041229248,1,0.0.0.0,10.26.35.92,1,0
2015-03-08 12:35:04.684,122,1425843304.312197,33.32508947703366,-111.9415923302173,359.0836,0,-1,3,10,-9999,1425843304.682235,18.42030715942383,-39.91963195800781,-10.38251304626465,284.3520202636719,273.8289184570312,25,323909.3058685417,0.0234832763671875,-0.9947357177734375,0.127105712890625,323909.30210625,-0.05310156792341696,1.252764825210942,0.04430807632008432,323909.30210625,0.8270179272363567,-1.006350013833979,1.364771589761665,-0.06965666264295578,1.269189715385437,0.07722581177949905,0.08445961028337479,-0.02076666243374348,0.2924790382385254,XTrueNorthZVertical,-0.6562907289671867,0.1206863037001162,0.005279452293304687,-0.744774769310082,-0.1728385239839554,-0.978851854801178,-0.1094345897436142,17.26393699645996,-37.87873077392578,-8.32012939453125,1,0.0.0.0,10.26.35.92,1,0
2015-03-08 12:35:04.754,123,1425843304.312197,33.32508947703366,-111.9415923302173,359.0836,0,-1,3,10,-9999,1425843304.734203,18.24979019165039,-39.85166931152344,-9.98309326171875,281.7264709472656,271.203369140625,25,323909.3549230417,0.0068817138671875,-1.068801879882812,0.0033416748046875,323909.30210625,-0.05310156792341696,1.252764825210942,0.04430807632008432,323909.30210625,0.8270179272363567,-1.006350013833979,1.364771589761665,-0.06965666264295578,1.269189715385437,0.07722581177949905,0.08445961028337479,-0.02076666243374348,0.2924790382385254,XTrueNorthZVertical,-0.6562907289671867,0.1206863037001162,0.005279452293304687,-0.744774769310082,-0.1728385239839554,-0.978851854801178,-0.1094345897436142,17.26393699645996,-37.87873077392578,-8.32012939453125,1,0.0.0.0,10.26.35.92,1,0
2015-03-08 12:35:04.782,124,1425843304.312197,33.32508947703366,-111.9415923302173,359.0836,0,-1,3,10,-9999,1425843304.734203,18.24979019165039,-39.85166931152344,-9.98309326171875,281.7264709472656,271.203369140625,25,323909.4039991667,-0.349395751953125,-0.9630584716796875,-0.1074981689453125,323909.4056522917,-0.2196575267097356,-0.6285198656963686,0.0174836525563702,323909.3538782917,0.8230311461341353,-0.9686525582934089,1.350282122798145,-0.1306514739990234,-0.1806095689535141,0.136001318693161,0.1780034452676773,-0.130934864282608,0.1236629635095596,XTrueNorthZVertical,-0.6523331631752931,0.1118727969466966,-0.009618571937149285,-0.7495688354283486,-0.1802617460489273,-0.9757850766181946,-0.1238918453454971,17.42927742004395,-37.94873046875,-7.627616405487061,1,0.0.0.0,10.26.35.92,1,0
2015-03-08 12:35:04.843,125,1425843304.312197,33.32508947703366,-111.9415923302173,359.0836,0,-1,3,10,-9999,1425843304.838329,17.72119522094727,-40.07255554199219,-11.0981388092041,282.9218139648438,272.3987121582031,25,323909.453042625,-0.1683502197265625,-1.023635864257812,0.0553131103515625,323909.4056522917,-0.2196575267097356,-0.6285198656963686,0.0174836525563702,323909.4056522917,0.8049035289104453,-0.9766137747760648,1.343557005203022,-0.2361326962709427,-0.6121997237205505,0.05045222863554955,-0.1627199947834015,0.01123358495533466,0.01862562634050846,XTrueNorthZVertical,-0.6495480659677331,0.1225781875510958,-0.002091738163267041,-0.7503716126108472,-0.1866757571697235,-0.9742920398712158,-0.1261238008737564,17.14302444458008,-38.02001190185547,-7.915902137756348,1,0.0.0.0,10.26.35.92,1,0
2015-03-08 12:35:04.880,126,1425843304.312197,33.32508947703366,-111.9415923302173,359.0836,0,-1,3,10,-9999,1425843304.838329,17.72119522094727,-40.07255554199219,-11.0981388092041,282.9218139648438,272.3987121582031,25,323909.5021088333,-0.1611328125,-0.99530029296875,-0.20703125,323909.4574262917,-0.2860053915790977,0.3745581609853224,-0.005273325274465899,323909.4574262917,0.75014639958639,-0.9340327085367532,1.327980443648834,-0.3024803996086121,0.3908780813217163,0.02769492007791996,0.02496695518493652,-0.05297108367085457,0.1982760727405548,XTrueNorthZVertical,-0.6419105552988431,0.1283329838833124,0.0005553707679476448,-0.7559637625265692,-0.193317174911499,-0.9706647992134094,-0.1429629623889923,16.66942405700684,-37.96794128417969,-9.090216636657715,1,0.0.0.0,10.26.35.92,1,0
2015-03-08 12:35:04.943,127,1425843304.312197,33.32508947703366,-111.9415923302173,359.0836,0,-1,3,10,-9999,1425843304.888827,17.77234649658203,-39.5457763671875,-11.84705352783203,283.4928894042969,272.9697875976562,25,323909.5511480417,-0.202911376953125,-0.920257568359375,-0.1762542724609375,323909.509198375,-0.4536585727345289,-0.0972189619094516,0.2687041655573979,323909.509198375,0.7169581389092803,-0.886146118968414,1.309341141004434,-0.4701334536075592,-0.0808991864323616,0.3016721308231354,0.03910137712955475,-0.02928543835878372,-0.04356374219059944,XTrueNorthZVertical,-0.6344497884631085,0.1254580083789551,-0.006986267997794296,-0.7626827522362404,-0.2002341896295547,-0.9660148620605469,-0.1634675115346909,16.67815589904785,-37.89372253417969,-9.379291534423828,1,0.0.0.0,10.26.35.92,1,0
2015-03-08 12:35:04.978,128,1425843304.312197,33.32508947703366,-111.9415923302173,359.0836,0,-1,3,10,-9999,1425843304.940894,17.20965576171875,-39.42684936523438,-12.96210289001465,283.6178894042969,273.0947875976562,25,323909.6002113334,-0.57525634765625,-0.8972320556640625,-0.187591552734375,323909.6127464167,-0.2294297300136723,-1.02748509912394,0.119313611577185,323909.560972375,0.6883193580291559,-0.8878597539855156,1.285984818120015,-0.3894389569759369,-0.8167960047721863,0.3568010926246643,0.01504864450544119,0.03945706412196159,0.001062709838151932,XTrueNorthZVertical,-0.6256970019866516,0.1408714681180525,-0.001434966651333141,-0.7672395105130931,-0.2179600149393082,-0.9597146511077881,-0.1773169785737991,16.17865943908691,-37.90396881103516,-10.17872619628906,1,0.0.0.0,10.26.35.92,1,0
2015-03-08 12:35:05.049,129,1425843304.312197,33.32508947703366,-111.9415923302173,359.0836,0,-1,3,10,-9999,1425843304.994672,15.86260604858398,-39.30790710449219,-14.34343147277832,284.9581604003906,274.43505859375,25,323909.6492576667,-0.3570709228515625,-1.086013793945312,-0.312225341796875,323909.6127464167,-0.2294297300136723,-1.02748509912394,0.119313611577185,323909.6127464167,0.6699964964222023,-0.9196469920433445,1.269880713139208,-0.2459042370319366,-1.011165738105774,0.152280867099762,-0.3914941847324371,0.05087544396519661,0.03422897681593895,XTrueNorthZVertical,-0.6194429048788856,0.1626894891538329,0.01139282882222459,-0.7679146147925439,-0.2357488572597504,-0.9550654888153076,-0.1796452403068542,15.0247049331665,-37.90988159179688,-11.79684066772461,1,0.0.0.0,10.26.35.92,1,0
2015-03-08 12:35:05.078,130,1425843304.312197,33.32508947703366,-111.9415923302173,359.0836,0,-1,3,10,-9999,1425843305.07137,13.61184310913086,-39.74971008300781,-15.4085521697998,280.9277648925781,270.4046630859375,25,323909.6983486667,0.21832275390625,-0.9777374267578125,-0.34490966796875,323909.6645185833,-1.270157397658032,2.24290468268481,2.038569120674627,323909.6645185833,0.6593688162022368,-0.8722881805499229,1.1943719110375,-1.28663170337677,2.259223937988281,2.071536064147949,0.09991232305765152,-0.1943894326686859,-0.04850364103913307,XTrueNorthZVertical,-0.5953226649921087,0.1655122958027407,-0.01789357638868257,-0.7860511808115948,-0.2815071642398834,-0.9299849271774292,-0.2363932132720947,14.06603813171387,-37.88091278076172,-13.00958824157715,1,0.0.0.0,10.26.35.92,1,0
2015-03-08 12:35:05.150,131,1425843304.312197,33.32508947703366,-111.9415923302173,359.0836,0,-1,3,10,-9999,1425843305.123901,11.75325775146484,-39.80068969726562,-16.19075012207031,275.4900207519531,264.9669189453125,25,323909.74737075,-0.1129608154296875,-0.5631256103515625,-0.5881500244140625,323909.71629275,-0.1924378898402537,0.2180625595328871,0.8131672103998135,323909.71629275,0.7177793467976769,-0.8350329993209307,1.123634088659514,-0.2089120894670486,0.234381690621376,0.846133828163147,0.5585286021232605,0.1424157172441483,-0.1922399699687958,XTrueNorthZVertical,-0.5764681578758987,0.1502606228036865,-0.06945975631883652,-0.8001759712016004,-0.3205525577068329,-0.9016777873039246,-0.2902124226093292,12.21312522888184,-38.22936248779297,-13.83551979064941,1,0.0.0.0,10.26.35.92,1,0
2015-03-08 12:35:05.176,132,1425843304.312197,33.32508947703366,-111.9415923302173,359.0836,0,-1,3,10,-9999,1425843305.123901,11.75325775146484,-39.80068969726562,-16.19075012207031,275.4900207519531,264.9669189453125,25,323909.796426375,-0.304351806640625,-0.796142578125,-0.3504180908203125,323909.7680667083,0.02406059518442989,-2.873531375119541,0.4786036037169741,323909.7680667083,0.7554425027454184,-0.9712736850935201,1.078818871934718,0.007586571387946606,-2.85721230506897,0.5115698575973511,0.1869116723537445,-0.2302633225917816,0.2090082764625549,XTrueNorthZVertical,-0.5699258914040672,0.2047376893940387,-0.05700332512547569,-0.7937364878975828,-0.389990895986557,-0.881400465965271,-0.2665339112281799,9.839419364929199,-38.62516021728516,-14.60647010803223,1,0.0.0.0,10.26.35.92,1,0
2015-03-08 12:35:05.247,133,1425843304.312197,33.32508947703366,-111.9415923302173,359.0836,0,-1,3,10,-9999,1425843305.226024,6.791343688964844,-40.46340942382812,-17.6053638458252,277.4064331054688,266.8833312988281,25,323909.845471875,-0.54278564453125,-1.204086303710938,-0.3832550048828125,323909.8198389583,0.2306132388021035,-0.5095921461611361,0.4601452342016349,323909.8198389583,0.7785327683440979,-1.069976107797494,1.063502478657785,0.2141393721103668,-0.4932733476161957,0.4931111633777618,0.08371274173259735,0.3461082875728607,0.05775453522801399,XTrueNorthZVertical,-0.5703331915444173,0.2410176065859786,-0.0422351600491542,-0.784121667625904,-0.4261504709720612,-0.8740624189376831,-0.2332611232995987,7.306552886962891,-38.78510665893555,-15.63317584991455,1,0.0.0.0,10.26.35.92,1,0
2015-03-08 12:35:05.273,134,1425843304.312197,33.32508947703366,-111.9415923302173,359.0836,0,-1,3,10,-9999,1425843305.226024,6.791343688964844,-40.46340942382812,-17.6053638458252,277.4064331054688,266.8833312988281,25,323909.8945461667,-0.5556640625,-0.7179412841796875,-0.24969482421875,323909.8716129167,0.2825326295176343,-0.9027580799989512,-0.9391605626231353,323909.8716129167,0.783977510893321,-1.082221735617366,1.100249319191527,0.2660589218139648,-0.8864394426345825,-0.9061948657035828,0.02446073479950428,-0.2170627564191818,0.1429748982191086,XTrueNorthZVertical,-0.5818623664690776,0.2345988735467487,-0.03027750174325889,-0.7781277930727505,-0.4003304839134216,-0.8913204073905945,-0.2127991169691086,6.426495552062988,-38.99673080444336,-15.49262237548828,1,0.0.0.0,10.26.35.92,1,0
2015-03-08 12:35:05.359,135,1425843305.312551,33.32521746869509,-111.9415846188664,359.161,0,-1,3,10,-9999,1425843305.278647,6.143398284912109,-40.42941284179688,-17.50550842285156,280.6170043945312,270.0939025878906,25,323909.9435915,-0.55023193359375,-0.950775146484375,-0.0612335205078125,323909.923387125,0.5057891521245029,-0.1729086632505936,-0.06993567548991683,323909.923387125,0.8193260812369888,-1.135970748432922,1.110336285060344,0.4893155992031097,-0.1565901935100555,-0.0369703583419323,-0.2156120836734772,0.1010788828134537,0.02895413711667061,XTrueNorthZVertical,-0.5896410688983176,0.2423417415240359,-0.02525760352080381,-0.7700363485540238,-0.4030097424983978,-0.8958481550216675,-0.1871877759695053,7.387524604797363,-39.08682632446289,-14.82263946533203,1,0.0.0.0,10.26.35.92,1,0
2015-03-08 12:35:05.378,136,1425843305.312551,33.32521746869509,-111.9415846188664,359.161,0,-1,3,10,-9999,1425843305.329436,6.706092834472656,-40.48042297363281,-16.75659561157227,281.0273742675781,270.5042724609375,25,323909.9926768334,-0.313720703125,-0.8798370361328125,-0.148406982421875,323909.9751591667,0.2751900280761769,0.9499154723693113,-0.3779824535149463,323909.9751591667,0.8441348932099323,-1.131550063489134,1.128821777398112,0.2587175071239471,0.9662336111068726,-0.34501713514328,-0.06722342967987061,-0.0473850853741169,0.05268187075853348,XTrueNorthZVertical,-0.5974769018360229,0.2281988248447567,-0.030589747013053,-0.7681217025550432,-0.3871222734451294,-0.9039088487625122,-0.1818932890892029,7.516865730285645,-39.36186599731445,-14.00736904144287,1,0.0.0.0,10.26.35.92,1,0
2015-03-08 12:35:05.418,137,1425843305.312551,33.32521746869509,-111.9415846188664,359.161,0,-1,3,10,-9999,1425843305.381412,7.660957336425781,-40.684326171875,-16.02432250976562,280.3939514160156,269.870849609375,25,323910.0417185417,-0.2457275390625,-0.9420623779296875,0.0007476806640625,323910.026933375,0.1386135399969892,0.02466912749351299,-0.02655917291914223,323909.9751591667,0.8441348932099323,-1.131550063489134,1.128821777398112,0.2587175071239471,0.9662336111068726,-0.34501713514328,-0.06722342967987061,-0.0473850853741169,0.05268187075853348,XTrueNorthZVertical,-0.5974769018360229,0.2281988248447567,-0.030589747013053,-0.7681217025550432,-0.3871222734451294,-0.9039088487625122,-0.1818932890892029,7.516865730285645,-39.36186599731445,-14.00736904144287,1,0.0.0.0,10.26.35.92,1,0
2015-03-08 12:35:05.474,138,1425843305.312551,33.32521746869509,-111.9415846188664,359.161,0,-1,3,10,-9999,1425843305.434311,8.462368011474609,-40.5313720703125,-15.10898399353027,278.8472900390625,268.3241882324219,25,323910.090906625,-0.48492431640625,-1.002426147460938,-0.1005096435546875,323910.078707375,0.1904184147856466,-0.2120336954571657,-0.02923911192408896,323910.078707375,0.8935337559050146,-1.157716393109636,1.172661436768936,0.174052432179451,-0.1957044899463654,0.00352339749224484,-0.002698131604120135,-0.05033649131655693,-0.006947226356714964,XTrueNorthZVertical,-0.6145911788028405,0.2108556317492195,-0.02827148505725534,-0.7596172345836493,-0.3550899624824524,-0.9217857122421265,-0.1556351780891418,9.641952514648438,-39.55569458007812,-12.01856422424316,1,0.0.0.0,10.26.35.92,1,0
2015-03-08 12:35:05.548,139,1425843305.312551,33.32521746869509,-111.9415846188664,359.161,0,-1,3,10,-9999,1425843305.491444,8.956851959228516,-40.58235168457031,-14.45992660522461,280.4678039550781,269.9447021484375,25,323910.1398453334,-0.5318756103515625,-0.8377227783203125,-0.0803375244140625,323910.1304797084,-0.01971404996931156,-0.4005016110604383,-0.1060593251479696,323910.078707375,0.8935337559050146,-1.157716393109636,1.172661436768936,0.174052432179451,-0.1957044899463654,0.00352339749224484,-0.002698131604120135,-0.05033649131655693,-0.006947226356714964,XTrueNorthZVertical,-0.6145911788028405,0.2108556317492195,-0.02827148505725534,-0.7596172345836493,-0.3550899624824524,-0.9217857122421265,-0.1556351780891418,9.641952514648438,-39.55569458007812,-12.01856422424316,1,0.0.0.0,10.26.35.92,1,0
2015-03-08 12:35:05.568,140,1425843305.312551,33.32521746869509,-111.9415846188664,359.161,0,-1,3,10,-9999,1425843305.563686,9.331985473632812,-41.2960205078125,-14.39335632324219,281.4848327636719,270.9617309570312,25,323910.1889102084,-0.2402801513671875,-0.8738861083984375,-0.1291961669921875,323910.1822536667,0.200345347748917,0.5363390719371289,-0.3918713712319275,323910.1822536667,0.9022946024626614,-1.176239342326497,1.197703968660384,0.183979719877243,0.5526679158210754,-0.3591095507144928,0.13444983959198,-0.04081073403358459,0.1853851526975632,XTrueNorthZVertical,-0.6218602152614333,0.2079271775076985,-0.01817435081123269,-0.7548018872179346,-0.3364914655685425,-0.931204617023468,-0.1401123255491257,9.775262832641602,-39.56044769287109,-11.8946008682251,1,0.0.0.0,10.26.35.92,1,0
2015-03-08 12:35:05.619,141,1425843305.312551,33.32521746869509,-111.9415846188664,359.161,0,-1,3,10,-9999,1425843305.615626,9.962879180908203,-41.14309692382812,-14.31014442443848,283.71337890625,273.1902770996094,25,323910.237959125,-0.2652740478515625,-1.0130615234375,-0.06866455078125,323910.2340279167,0.1506004280634359,0.4425846162897614,-0.3355937173924821,323910.1822536667,0.9022946024626614,-1.176239342326497,1.197703968660384,0.183979719877243,0.5526679158210754,-0.3591095507144928,0.13444983959198,-0.04081073403358459,0.1853851526975632,XTrueNorthZVertical,-0.6218602152614333,0.2079271775076985,-0.01817435081123269,-0.7548018872179346,-0.3364914655685425,-0.931204617023468,-0.1401123255491257,9.775262832641602,-39.56044769287109,-11.8946008682251,1,0.0.0.0,10.26.35.92,1,0
2015-03-08 12:35:05.666,142,1425843305.312551,33.32521746869509,-111.9415846188664,359.161,0,-1,3,10,-9999,1425843305.615626,9.962879180908203,-41.14309692382812,-14.31014442443848,283.71337890625,273.1902770996094,25,323910.2870315834,-0.3678741455078125,-1.010040283203125,-0.1609954833984375,323910.2858,0.1160656203117243,0.284841856498842,-0.1468451046103151,323910.2340279167,0.9141667703236488,-1.162629960847795,1.206313094888941,0.1342349499464035,0.4589132964611053,-0.3028321862220764,-0.09054166823625565,-0.07242102921009064,-0.007571892347186804,XTrueNorthZVertical,-0.6249875568615684,0.1965831751075956,-0.02424670980301183,-0.75508790252727,-0.327182948589325,-0.9343081116676331,-0.1414912194013596,10.64074802398682,-39.53488922119141,-11.21753692626953,1,0.0.0.0,10.26.35.92,1,0
2015-03-08 12:35:05.720,143,1425843305.312551,33.32521746869509,-111.9415846188664,359.161,0,-1,3,10,-9999,1425843305.668009,10.73018264770508,-41.36398315429688,-13.49466323852539,282.0362548828125,271.5131530761719,25,323910.336071125,-0.37554931640625,-0.8403472900390625,-0.300567626953125,323910.2858,0.1160656203117243,0.284841856498842,-0.1468451046103151,323910.2858,0.9086281696348374,-1.132349038348705,1.215760896283788,0.09970029443502426,0.3011704087257385,-0.1140839010477066,-0.009018366225063801,-0.0191376768052578,-0.04019654542207718,XTrueNorthZVertical,-0.6263462656607445,0.1841230526259111,-0.02873905379089575,-0.7569432992095507,-0.3147426247596741,-0.9376341700553894,-0.1475781202316284,11.32472705841064,-39.46530151367188,-10.78456115722656,1,0.0.0.0,10.26.35.92,1,0
2015-03-08 12:35:05.765,144,1425843305.312551,33.32521746869509,-111.9415846188664,359.161,0,-1,3,10,-9999,1425843305.719798,11.12236404418945,-41.55087280273438,-13.14517211914062,281.7110595703125,271.1879577636719,25,323910.3851809584,-0.10552978515625,-0.9216156005859375,-0.0171661376953125,323910.3893483334,-0.0837620089212812,0.4353741076383719,-0.05365337490128137,323910.3375743334,0.9118832030042245,-1.135269451626591,1.227981392259409,0.08555601537227631,0.01387434639036655,-0.1055152639746666,-0.07078901678323746,0.1014648973941803,-0.158754289150238,XTrueNorthZVertical,-0.6296474281325679,0.1806583767832592,-0.02533863517887518,-0.7551586953467678,-0.3047603070735931,-0.9418121576309204,-0.141813337802887,11.74196338653564,-39.41888046264648,-10.50449275970459,1,0.0.0.0,10.26.35.92,1,0
2015-03-08 12:35:05.818,145,1425843305.312551,33.32521746869509,-111.9415846188664,359.161,0,-1,3,10,-9999,1425843305.774137,11.70210266113281,-41.48291015625,-12.91217613220215,282.1490783691406,271.6259765625,25,323910.4341903334,-0.2104644775390625,-0.997650146484375,-0.07904052734375,323910.3893483334,-0.0837620089212812,0.4353741076383719,-0.05365337490128137,323910.3893483334,0.9014919821605466,-1.115195181051975,1.237295669873771,-0.1000728011131287,0.4516115784645081,-0.02082281373441219,0.1884320229291916,0.02328658476471901,0.1268698573112488,XTrueNorthZVertical,-0.6307357188180627,0.173650374393661,-0.02491880336142816,-0.7559081215104898,-0.2939618229866028,-0.9449021816253662,-0.1440359950065613,12.24226760864258,-39.33123016357422,-10.2590274810791,1,0.0.0.0,10.26.35.92,1,0
2015-03-08 12:35:05.863,146,1425843305.312551,33.32521746869509,-111.9415846188664,359.161,0,-1,3,10,-9999,1425843305.849607,12.94684600830078,-41.12608337402344,-12.62925338745117,281.911376953125,271.3882751464844,25,323910.4832829167,-0.317535400390625,-1.016616821289062,-0.05279541015625,323910.4411205417,0.1381179257181255,0.07753154355104083,-0.3092310857617877,323910.4411205417,0.9076247006262288,-1.100678561849775,1.241881539393739,0.1218072697520256,0.09376887232065201,-0.2764008045196533,0.07750935852527618,-0.0512567050755024,0.0672830268740654,XTrueNorthZVertical,-0.6321753805606422,0.1649015202445873,-0.03044274128705431,-0.7564621938890538,-0.2879738211631775,-0.9463934302330017,-0.1463235467672348,12.48777484893799,-39.30245590209961,-10.07169151306152,1,0.0.0.0,10.26.35.92,1,0
2015-03-08 12:35:05.917,147,1425843305.312551,33.32521746869509,-111.9415846188664,359.161,0,-1,3,10,-9999,1425843305.905911,13.20261764526367,-41.10908508300781,-12.57932472229004,281.7248229980469,271.2017211914062,25,323910.5324374167,-0.1780242919921875,-0.983367919921875,-0.1696014404296875,323910.4928948333,-0.085570028985336,0.1435680848889727,0.08826967538234932,323910.4928948333,0.9035627587476007,-1.09621845044918,1.239599380808667,-0.1018805205821991,0.1598052531480789,0.1210996136069298,-0.02829666808247566,-0.07096301764249802,0.09579765051603317,XTrueNorthZVertical,-0.6312110947215913,0.1651545430640476,-0.03099772068990836,-0.7571893465733557,-0.2892387211322784,-0.9456537961959839,-0.1485930681228638,12.78310775756836,-39.25906372070312,-9.86834716796875,1,0.0.0.0,10.26.35.92,1,0
2015-03-08 12:35:05.962,148,1425843305.312551,33.32521746869509,-111.9415846188664,359.161,0,-1,3,10,-9999,1425843305.905911,13.20261764526367,-41.10908508300781,-12.57932472229004,281.7248229980469,271.2017211914062,25,323910.581413375,-0.28448486328125,-0.957489013671875,-0.200408935546875,323910.544668875,-0.02681590164822586,0.1558777480795369,-0.1127531805478838,323910.544668875,0.8875623475123845,-1.061179642827963,1.240553800791175,-0.04312621057033539,0.1721147447824478,-0.0799236074090004,0.08816723525524139,-0.01561464183032513,-0.04067381098866463,XTrueNorthZVertical,-0.629578367910725,0.1566336016003337,-0.03568948497348363,-0.7601468862117254,-0.2830677330493927,-0.9459637403488159,-0.1581939905881882,12.88979434967041,-39.22745513916016,-9.855264663696289,1,0.0.0.0,10.26.35.92,1,0
