loggingTime,loggingSample,locationTimestamp_since1970,locationLatitude,locationLongitude,locationAltitude,locationSpeed,locationCourse,locationVerticalAccuracy,locationHorizontalAccuracy,locationFloor,locationHeadingTimestamp_since1970,locationHeadingX,locationHeadingY,locationHeadingZ,locationTrueHeading,locationMagneticHeading,locationHeadingAccuracy,accelerometerTimestamp_sinceReboot,accelerometerAccelerationX,accelerometerAccelerationY,accelerometerAccelerationZ,gyroTimestamp_sinceReboot,gyroRotationX,gyroRotationY,gyroRotationZ,motionTimestamp_sinceReboot,motionYaw,motionRoll,motionPitch,motionRotationRateX,motionRotationRateY,motionRotationRateZ,motionUserAccelerationX,motionUserAccelerationY,motionUserAccelerationZ,motionAttitudeReferenceFrame,motionQuaternionX,motionQuaternionY,motionQuaternionZ,motionQuaternionW,motionGravityX,motionGravityY,motionGravityZ,motionMagneticFieldX,motionMagneticFieldY,motionMagneticFieldZ,motionMagneticFieldCalibrationAccuracy,IP_en0,IP_pdp_ip0,deviceOrientation,state
2015-02-27 17:07:32.213,1,1425085650.725004,37.78705913492154,-122.3964673984165,14.88741,-1,-1,10,165,-9999,1425085652.196468,23.70542907714844,-24.73829650878906,-21.47319793701172,324.8418579101562,311.068603515625,10,137296.4231633334,0.181640625,-0.930633544921875,-0.3164215087890625,137296.398137125,-0.01102362270016499,-0.01106037432320808,-0.06208494291247224,137296.398137125,-1.134743254621577,0.4764369505340996,1.2225883246858,-0.01459099911153316,-0.0023830805439502,-0.02483704127371311,0.009865217842161655,0.004652424249798059,-0.02994591183960438,XTrueNorthZVertical,0.5741842365142916,-0.1367670225739556,-0.3134549884208397,0.7438771487481642,0.1564860939979553,-0.9399856925010681,-0.3032144904136658,23.22233200073242,-24.59843826293945,-23.46141242980957,2,10.3.35.51,10.83.46.32,1,0
2015-02-27 17:07:32.244,2,1425085650.725004,37.78705913492154,-122.3964673984165,14.88741,-1,-1,10,165,-9999,1425085652.196468,23.70542907714844,-24.73829650878906,-21.47319793701172,324.8418579101562,311.068603515625,10,137296.472181,0.148590087890625,-0.9459991455078125,-0.301300048828125,137296.449920375,-0.01618562784106558,-0.1709219450773945,-0.06537927318090025,137296.449920375,-1.136055382458709,0.4718335532632211,1.220512963848352,-0.01976386085152626,-0.1622403860092163,-0.02815094776451588,0.0255893524736166,0.001729734241962433,-0.001887510530650616,XTrueNorthZVertical,0.572748363200747,-0.1382931363233592,-0.3157422856155212,0.7437345817506759,0.1559749841690063,-0.9392755031585693,-0.3056686520576477,23.20719146728516,-24.52287673950195,-23.55530738830566,2,10.3.35.51,10.83.46.32,1,0
2015-02-27 17:07:32.313,3,1425085650.725004,37.78705913492154,-122.3964673984165,14.88741,-1,-1,10,165,-9999,1425085652.301485,23.36439514160156,-24.84025573730469,-21.93917846679688,326.0645751953125,312.2913208007812,10,137296.5212247084,0.1544342041015625,-0.9363250732421875,-0.3118133544921875,137296.5017047917,-0.004975051232377025,0.007695470285892967,-0.02464968641755541,137296.5017047917,-1.136920918854681,0.4681703548260346,1.221251117800981,-0.008486276492476463,0.01637236587703228,0.0127311535179615,-0.001434610108844936,-0.01037683337926865,0.01393213775008917,XTrueNorthZVertical,0.5723300875217092,-0.1401024495489392,-0.3169426234440504,0.7432072026783881,0.1545412987470627,-0.9395285844802856,-0.3056191504001617,23.0738639831543,-24.49335479736328,-23.71645355224609,2,10.3.35.51,10.83.46.32,1,0
2015-02-27 17:07:32.342,4,1425085650.725004,37.78705913492154,-122.3964673984165,14.88741,-1,-1,10,165,-9999,1425085652.301485,23.36439514160156,-24.84025573730469,-21.93917846679688,326.0645751953125,312.2913208007812,10,137296.570236125,0.1585693359375,-0.933319091796875,-0.3011932373046875,137296.553487875,0.01810976172864783,0.05075985037691028,-0.001314269997954104,137296.553487875,-1.134872982384376,0.4700368519872497,1.220935482575233,0.01459260936826468,0.05944137647747993,0.03604830801486969,0.01139546371996403,0.0009591162670403719,-0.005013371352106333,XTrueNorthZVertical,0.5726733551143051,-0.1387370133907659,-0.3157197239946936,0.7437192504292883,0.155245766043663,-0.9394204020500183,-0.3055945336818695,23.08699035644531,-24.52421379089355,-23.67174530029297,2,10.3.35.51,10.83.46.32,1,0
2015-02-27 17:07:32.399,5,1425085650.725004,37.78705913492154,-122.3964673984165,14.88741,-1,-1,10,165,-9999,1425085652.35185,23.75658416748047,-24.959228515625,-21.78939819335938,325.306640625,311.5333862304688,10,137296.619262,0.167388916015625,-0.94061279296875,-0.30804443359375,137296.6052710833,0.02527952401535915,0.08128979648136066,-0.02044588663686533,137296.6052710833,-1.134636158848317,0.4731606163421968,1.222127207125804,0.02176541648805141,0.08997631072998047,0.01690242253243923,0.00300207082182169,0.0110257463529706,0.0005835187621414661,XTrueNorthZVertical,0.5735392201977842,-0.1378299224040879,-0.3144617938598534,0.7437536243328813,0.1556893289089203,-0.9398282170295715,-0.3041113615036011,23.13996505737305,-24.5443229675293,-23.59906768798828,2,10.3.35.51,10.83.46.32,1,0
2015-02-27 17:07:32.475,6,1425085650.725004,37.78705913492154,-122.3964673984165,14.88741,-1,-1,10,165,-9999,1425085652.455494,23.41555023193359,-24.89125061035156,-21.58969879150391,325.4429321289062,311.669677734375,10,137296.6682689583,0.170074462890625,-0.944732666015625,-0.3010406494140625,137296.6570554167,0.01983069642505703,-0.03242664943280481,-0.02979757680467858,137296.6052710833,-1.134636158848317,0.4731606163421968,1.222127207125804,0.02176541648805141,0.08997631072998047,0.01690242253243923,0.00300207082182169,0.0110257463529706,0.0005835187621414661,XTrueNorthZVertical,0.5735392201977842,-0.1378299224040879,-0.3144617938598534,0.7437536243328813,0.1556893289089203,-0.9398282170295715,-0.3041113615036011,23.13996505737305,-24.5443229675293,-23.59906768798828,2,10.3.35.51,10.83.46.32,1,0
2015-02-27 17:07:32.497,7,1425085650.725004,37.78705913492154,-122.3964673984165,14.88741,-1,-1,10,165,-9999,1425085652.455494,23.41555023193359,-24.89125061035156,-21.58969879150391,325.4429321289062,311.669677734375,10,137296.71728825,0.1655731201171875,-0.9139251708984375,-0.2939910888671875,137296.7088386667,0.06140770104726509,0.0005912217619975908,0.005990514556024239,137296.7088386667,-1.13566069362676,0.4753222157427324,1.223726862809798,0.05790918692946434,0.00936308316886425,0.04334362223744392,0.0008817727793939412,0.02400697581470013,-0.002647256478667259,XTrueNorthZVertical,0.574286961939927,-0.137753400506711,-0.3138527824777583,0.7434479908147371,0.1556581407785416,-0.9403735399246216,-0.3024369776248932,23.20914077758789,-24.57882308959961,-23.49499893188477,2,10.3.35.51,10.83.46.32,1,0
2015-02-27 17:07:32.553,8,1425085650.725004,37.78705913492154,-122.3964673984165,14.88741,-1,-1,10,165,-9999,1425085652.505794,23.07451248168945,-24.75531005859375,-21.85596466064453,325.46728515625,311.6940307617188,10,137296.766293625,0.14434814453125,-0.925933837890625,-0.29248046875,137296.7606218334,0.04594139301662992,0.120491794043436,0.01889326372134914,137296.7088386667,-1.13566069362676,0.4753222157427324,1.223726862809798,0.05790918692946434,0.00936308316886425,0.04334362223744392,0.0008817727793939412,0.02400697581470013,-0.002647256478667259,XTrueNorthZVertical,0.574286961939927,-0.137753400506711,-0.3138527824777583,0.7434479908147371,0.1556581407785416,-0.9403735399246216,-0.3024369776248932,23.20914077758789,-24.57882308959961,-23.49499893188477,2,10.3.35.51,10.83.46.32,1,0
2015-02-27 17:07:32.596,9,1425085650.725004,37.78705913492154,-122.3964673984165,14.88741,-1,-1,10,165,-9999,1425085652.55714,23.17682647705078,-24.82328796386719,-22.12222290039062,325.5112915039062,311.738037109375,10,137296.8154390417,0.1873931884765625,-0.93695068359375,-0.307281494140625,137296.812406125,0.08684115577363083,0.05962285048469398,0.0142401886647627,137296.7606218334,-1.132649893999619,0.4764676453787865,1.227273306813722,0.04245411977171898,0.1292627900838852,0.05625478178262711,-0.0342041440308094,-0.01318375486880541,0.01360274199396372,XTrueNorthZVertical,0.575733145490294,-0.1374220515391375,-0.3115835749557349,0.7433452756783244,0.1544739156961441,-0.9415739178657532,-0.299293041229248,23.23501586914062,-24.63302612304688,-23.41251373291016,2,10.3.35.51,10.83.46.32,1,0
2015-02-27 17:07:32.666,10,1425085650.725004,37.78705913492154,-122.3964673984165,14.88741,-1,-1,10,165,-9999,1425085652.609183,23.58606719970703,-25.09518432617188,-22.28864288330078,326.7769165039062,313.003662109375,10,137296.8643394583,0.14788818359375,-0.9469451904296875,-0.2938079833984375,137296.812406125,0.08684115577363083,0.05962285048469398,0.0142401886647627,137296.812406125,-1.132946026157281,0.4837469229926672,1.229770186141891,0.08334013074636459,0.06839907914400101,0.05157752707600594,0.0237667802721262,0.000837867904920131,-0.0119659285992384,XTrueNorthZVertical,0.5775867421708334,-0.1354780526577208,-0.3090150838064665,0.7433363495871106,0.1555545032024384,-0.9424119591712952,-0.2960785031318665,23.30191040039062,-24.75184631347656,-23.21992111206055,2,10.3.35.51,10.83.46.32,1,0
2015-02-27 17:07:32.693,11,1425085650.725004,37.78705913492154,-122.3964673984165,14.88741,-1,-1,10,165,-9999,1425085652.659941,23.85890197753906,-25.0272216796875,-22.18878936767578,326.4345703125,312.6613159179688,10,137296.9133654583,0.1544647216796875,-0.9572906494140625,-0.2990264892578125,137296.9159726667,0.05638790870857473,0.0197454752701745,0.02386405389598204,137296.8641894167,-1.132814329812594,0.4833901004454155,1.233896542190261,0.07421271502971649,-0.006634541321545839,0.05356078594923019,-0.002745951758697629,-0.0008113217772915959,-0.005315843969583511,XTrueNorthZVertical,0.5787672057533357,-0.1366907765674887,-0.3081080561416915,0.7425722705617915,0.1536401212215424,-0.9437839984893799,-0.2926883101463318,23.33782958984375,-24.8839111328125,-23.04201126098633,2,10.3.35.51,10.83.46.32,1,0
2015-02-27 17:07:32.758,12,1425085650.725004,37.78705913492154,-122.3964673984165,14.88741,-1,-1,10,165,-9999,1425085652.712501,23.85890197753906,-25.46900939941406,-21.58969116210938,325.9747314453125,312.2014770507812,10,137296.9623752917,0.14398193359375,-0.9394989013671875,-0.2855224609375,137296.9159726667,0.05638790870857473,0.0197454752701745,0.02386405389598204,137296.9159726667,-1.127417134536443,0.4799807133659733,1.238418880645646,0.05312294140458107,0.02857067994773388,0.06126567721366882,0.003795789554715157,-0.01202137395739555,-0.009604882448911667,XTrueNorthZVertical,0.5799579741434444,-0.1376152056817536,-0.3060395258094875,0.7423278319959169,0.1506689339876175,-0.9452692866325378,-0.2894216179847717,23.27619743347168,-25.02835464477539,-22.94771957397461,2,10.3.35.51,10.83.46.32,1,0
2015-02-27 17:07:32.792,13,1425085650.725004,37.78705913492154,-122.3964673984165,14.88741,-1,-1,10,165,-9999,1425085652.767235,23.51786804199219,-25.57096862792969,-21.12372589111328,325.9330444335938,312.1597900390625,10,137297.0113932917,0.1042633056640625,-0.9406890869140625,-0.2724456787109375,137297.0195402083,0.09221701275006478,0.1875270207901476,0.04647455786686377,137296.9677569583,-1.124907709062766,0.4772866021119442,1.241952139920965,0.082671158015728,0.01287730783224106,0.0408189631998539,-0.004371542483568192,0.006917343474924564,0.001335579087026417,XTrueNorthZVertical,0.5807710268701224,-0.1388380146948752,-0.3050696291067929,0.7418635585748279,0.1483534723520279,-0.9464162588119507,-0.2868580520153046,23.22442245483398,-25.13465118408203,-22.88390350341797,2,10.3.35.51,10.83.46.32,1,0
2015-02-27 17:07:32.849,14,1425085650.725004,37.78705913492154,-122.3964673984165,14.88741,-1,-1,10,165,-9999,1425085652.767235,23.51786804199219,-25.57096862792969,-21.12372589111328,325.9330444335938,312.1597900390625,10,137297.0604,0.1183624267578125,-0.96380615234375,-0.267425537109375,137297.0195402083,0.09221701275006478,0.1875270207901476,0.04647455786686377,137297.0195402083,-1.118812824614249,0.4778197185787084,1.248557916236792,0.08909633010625839,0.1964974850416183,0.08394943922758102,-0.04136499762535095,0.007839825004339218,0.008775405585765839,XTrueNorthZVertical,0.583239754396973,-0.1386392681507011,-0.3011212013479971,0.7415770778801011,0.1456283032894135,-0.9485288858413696,-0.2812210917472839,23.17488288879395,-25.29780197143555,-22.75398254394531,2,10.3.35.51,10.83.46.32,1,0
2015-02-27 17:07:32.890,15,1425085650.725004,37.78705913492154,-122.3964673984165,14.88741,-1,-1,10,165,-9999,1425085652.840836,23.43260955810547,-25.58795166015625,-20.60785675048828,324.3908081054688,310.6175537109375,10,137297.1095278334,0.0077362060546875,-0.981109619140625,-0.20709228515625,137297.0713234167,0.08831015543091852,0.2301764803833306,0.1114580853097783,137297.0713234167,-1.105343050019493,0.4769227064026414,1.256864255249413,0.08520285785198212,0.2391425371170044,0.1489532142877579,-0.03805553913116455,-0.02481019124388695,0.01808625087141991,XTrueNorthZVertical,0.5865082810409069,-0.1372474359628874,-0.2944635874955162,0.74193151392307,0.1417542695999146,-0.9511266946792603,-0.2743423581123352,23.27328872680664,-25.59327507019043,-22.3189640045166,2,10.3.35.51,10.83.46.32,1,0
2015-02-27 17:07:32.944,16,1425085650.725004,37.78705913492154,-122.3964673984165,14.88741,-1,-1,10,165,-9999,1425085652.893159,23.68838882446289,-25.74090576171875,-20.59121704101562,323.4832153320312,309.7099609375,10,137297.158440875,-0.0531158447265625,-0.9397735595703125,-0.1573028564453125,137297.1231079167,0.1562732275014137,0.3785843279213042,0.2714999520697631,137297.1231079167,-1.075159745647928,0.462180213057695,1.269151329846985,0.1531912088394165,0.387540727853775,0.309038519859314,-0.1647302955389023,-0.01576250605285168,0.08586752414703369,XTrueNorthZVertical,0.5901296300027508,-0.1370634917774036,-0.2847804968703331,0.7428732635771342,0.1324732154607773,-0.9548490643501282,-0.2659212350845337,23.30306053161621,-25.88346481323242,-21.95020294189453,2,10.3.35.51,10.83.46.32,1,0
2015-02-27 17:07:32.988,17,1425085650.725004,37.78705913492154,-122.3964673984165,14.88741,-1,-1,10,165,-9999,1425085652.944477,23.89301300048828,-26.21672058105469,-19.99210357666016,321.5970458984375,307.8237915039062,10,137297.2075676667,0.3065338134765625,-1.063125610351562,-0.2605133056640625,137297.174891,0.4083470173157027,1.551031943080982,0.4811985878831473,137297.174891,-1.030882700398718,0.4672042315210918,1.291761342752396,0.4053853154182434,1.560214519500732,0.5187575817108154,-0.1158108338713646,0.007037010509520769,0.09097297489643097,XTrueNorthZVertical,0.6005945434408431,-0.1277921529999242,-0.2617110092623728,0.7446225256950354,0.1240505799651146,-0.9613216519355774,-0.245910719037056,23.28412818908691,-26.45449447631836,-21.27925872802734,2,10.3.35.51,10.83.46.32,1,0
2015-02-27 17:07:33.044,18,1425085650.725004,37.78705913492154,-122.3964673984165,14.88741,-1,-1,10,165,-9999,1425085652.996757,24.18289566040039,-27.25331115722656,-18.21144104003906,318.0133361816406,304.2400817871094,10,137297.2564813333,0.1651153564453125,-1.072341918945312,-0.2690887451171875,137297.2266744583,0.03115392474785594,1.389632663113384,0.6266194339424881,137297.2266744583,-0.9466549279176344,0.4693585365348032,1.316234081790556,0.02819226868450642,1.398815155029297,0.6641781330108643,0.1719555705785751,-0.08917217701673508,-0.08316509425640106,XTrueNorthZVertical,0.6133224283907535,-0.1074285214887224,-0.2241722082900409,0.7496942915314464,0.1139025911688805,-0.9677736163139343,-0.2245894223451614,24.19919967651367,-27.61371803283691,-18.61931610107422,2,10.3.35.51,10.83.46.32,1,0
2015-02-27 17:07:33.086,19,1425085650.725004,37.78705913492154,-122.3964673984165,14.88741,-1,-1,10,165,-9999,1425085653.04836,24.66034317016602,-27.89906311035156,-16.88011169433594,314.0647583007812,300.29150390625,10,137297.3056085417,0.0642852783203125,-1.070098876953125,-0.176605224609375,137297.2784587083,-0.2078650494028647,0.7224072130821311,0.7282935980395332,137297.2784587083,-0.8025449738118905,0.3783614815838288,1.324542124286353,-0.2108266651630402,0.7315895557403564,0.7658518552780151,0.04044386744499207,-0.09193523228168488,-0.001389431301504374,XTrueNorthZVertical,0.6138887363994683,-0.09937338115978619,-0.1960722245610049,0.7581696586617598,0.09004929661750793,-0.9698323607444763,-0.2265311032533646,24.40293502807617,-28.34869766235352,-17.19435501098633,2,10.3.35.51,10.83.46.32,1,0
2015-02-27 17:07:33.142,20,1425085650.725004,37.78705913492154,-122.3964673984165,14.88741,-1,-1,10,165,-9999,1425085653.101416,24.54098129272461,-28.2899169921875,-15.33244323730469,308.9733276367188,295.2000732421875,10,137297.3545350417,-0.123199462890625,-0.9896697998046875,-0.1570892333984375,137297.3302419583,-0.1600075119819228,0.949100811391856,0.9304304542537465,137297.3302419583,-0.6174332660244639,0.2408507795787327,1.329173760336923,-0.162969097495079,0.9582830667495728,0.9679883122444153,-0.08524253964424133,-0.07333000004291534,0.04966295138001442,XTrueNorthZVertical,0.6120547173903677,-0.09593319336679981,-0.1668507250679964,0.7670375994667946,0.05707481503486633,-0.9709510207176208,-0.2323716878890991,23.99813461303711,-29.04531860351562,-16.59085845947266,2,10.3.35.51,10.83.46.32,1,0
2015-02-27 17:07:33.184,21,1425085650.725004,37.78705913492154,-122.3964673984165,14.88741,-1,-1,10,165,-9999,1425085653.152706,23.82480621337891,-29.07157897949219,-14.53363800048828,303.9927673339844,290.2195129394531,10,137297.40356125,0.1219482421875,-1.009521484375,-0.15771484375,137297.3820250834,-0.1328810857505937,1.750626812034715,1.115646650166032,137297.3820250834,-0.3908768532823155,0.08796018326379672,1.330835905704893,-0.1358426511287689,1.759809017181396,1.153204083442688,-0.08197423070669174,-0.01595730520784855,0.1112723425030708,XTrueNorthZVertical,0.6117654167815733,-0.08585098849797025,-0.1259914976144685,0.7762079768037087,0.02087803743779659,-0.9713473916053772,-0.2367453724145889,23.24632835388184,-30.27358627319336,-15.42452430725098,2,10.3.35.51,10.83.46.32,1,0
2015-02-27 17:07:33.241,22,1425085650.725004,37.78705913492154,-122.3964673984165,14.88741,-1,-1,10,165,-9999,1425085653.204097,22.92105865478516,-30.10816955566406,-13.1856689453125,298.8249206542969,285.0516662597656,10,137297.45257125,0.1250457763671875,-0.9796600341796875,-0.253875732421875,137297.433809375,-0.3669417865838048,1.667619276650253,1.127948057557217,137297.3820250834,-0.3908768532823155,0.08796018326379672,1.330835905704893,-0.1358426511287689,1.759809017181396,1.153204083442688,-0.08197423070669174,-0.01595730520784855,0.1112723425030708,XTrueNorthZVertical,0.6117654167815733,-0.08585098849797025,-0.1259914976144685,0.7762079768037087,0.02087803743779659,-0.9713473916053772,-0.2367453724145889,23.24632835388184,-30.27358627319336,-15.42452430725098,2,10.3.35.51,10.83.46.32,1,0
2015-02-27 17:07:33.282,23,1425085650.725004,37.78705913492154,-122.3964673984165,14.88741,-1,-1,10,165,-9999,1425085653.257646,21.81269073486328,-30.94084167480469,-12.37023162841797,293.8576049804688,280.0843505859375,10,137297.501707875,0.0535125732421875,-0.9429931640625,-0.1387786865234375,137297.4855927917,-0.5333102588293818,0.7328406792847345,0.8607208811403774,137297.4855927917,0.03596792655986176,-0.1771738388418992,1.288743609683067,-0.5362717509269714,0.7420226335525513,0.8982775807380676,0.1446053683757782,-0.008706371299922466,0.08546373248100281,XTrueNorthZVertical,0.5995160399523322,-0.05995923580259305,-0.03881505162877354,0.7971692403559939,-0.0490548238158226,-0.960486114025116,-0.2739708125591278,22.11846923828125,-32.31573867797852,-12.69897747039795,2,10.3.35.51,10.83.46.32,1,0
2015-02-27 17:07:33.342,24,1425085650.725004,37.78705913492154,-122.3964673984165,14.88741,-1,-1,10,165,-9999,1425085653.333825,20.20982360839844,-32.23231506347656,-11.87097930908203,286.0332946777344,272.2600402832031,10,137297.5506080833,-0.0420684814453125,-0.924102783203125,-0.1108551025390625,137297.5373760833,-0.2968316740424878,0.8041284416600846,0.6652296771103479,137297.5373760833,0.1528743967810985,-0.2541116714979959,1.260190796336073,-0.299793154001236,0.8133103251457214,0.7027860879898071,0.06218389421701431,0.01560997683554888,0.1983167082071304,XTrueNorthZVertical,0.5905838122170239,-0.05745061263013886,-0.01324320249094899,0.8048197335827854,-0.07683233171701431,-0.9521486759185791,-0.2958203852176666,20.96588706970215,-33.09970474243164,-12.63482856750488,2,10.3.35.51,10.83.46.32,1,0
2015-02-27 17:07:33.380,25,1425085650.725004,37.78705913492154,-122.3964673984165,14.88741,-1,-1,10,165,-9999,1425085653.333825,20.20982360839844,-32.23231506347656,-11.87097930908203,286.0332946777344,272.2600402832031,10,137297.599632875,-0.07305908203125,-0.9651031494140625,-0.1709136962890625,137297.5891602083,-0.01489213049961409,1.085085545076828,0.5989169659673749,137297.5373760833,0.1528743967810985,-0.2541116714979959,1.260190796336073,-0.299793154001236,0.8133103251457214,0.7027860879898071,0.06218389421701431,0.01560997683554888,0.1983167082071304,XTrueNorthZVertical,0.5905838122170239,-0.05745061263013886,-0.01324320249094899,0.8048197335827854,-0.07683233171701431,-0.9521486759185791,-0.2958203852176666,20.96588706970215,-33.09970474243164,-12.63482856750488,2,10.3.35.51,10.83.46.32,1,0
2015-02-27 17:07:33.444,26,1425085650.725004,37.78705913492154,-122.3964673984165,14.88741,-1,-1,10,165,-9999,1425085653.385776,20.07341003417969,-33.04798889160156,-11.60471343994141,281.9025573730469,268.1293029785156,10,137297.6486439584,-0.1606903076171875,-0.96588134765625,-0.1409912109375,137297.6409434583,0.2459751509180076,1.007178762128195,0.633442186339162,137297.5891602083,0.2487475710486887,-0.2936067900999472,1.243317677267621,-0.01785357855260372,1.09426736831665,0.6364730000495911,0.03612849116325378,0.04098783060908318,0.1498870402574539,XTrueNorthZVertical,0.5864211725831686,-0.04652210280074846,0.01522873854771348,0.8085258103117529,-0.09308955073356628,-0.9468563795089722,-0.3078918159008026,20.3960018157959,-33.59910583496094,-12.24339866638184,2,10.3.35.51,10.83.46.32,1,0
2015-02-27 17:07:33.477,27,1425085650.725004,37.78705913492154,-122.3964673984165,14.88741,-1,-1,10,165,-9999,1425085653.438011,19.44248962402344,-33.84669494628906,-10.98896789550781,278.9468078613281,265.1735534667969,10,137297.697673625,-0.1707763671875,-1.034561157226562,-0.111907958984375,137297.6927269167,0.3303472900450259,1.493248537961206,0.8901261743164873,137297.6927269167,0.4826592745181043,-0.3999028559946309,1.239519056846596,0.3273859024047852,1.502430200576782,0.9276813864707947,-0.04654235020279884,-0.05644751340150833,0.170758455991745,XTrueNorthZVertical,0.5914111095603524,-0.02094498169285293,0.07864522240148676,0.8022525377614907,-0.126629650592804,-0.9456276893615723,-0.2995884120464325,19.19856834411621,-35.15380477905273,-9.509084701538086,2,10.3.35.51,10.83.46.32,1,0
2015-02-27 17:07:33.518,28,1425085650.725004,37.78705913492154,-122.3964673984165,14.88741,-1,-1,10,165,-9999,1425085653.490753,18.72631454467773,-34.86630249023438,-9.158393859863281,273.8122253417969,260.0389709472656,10,137297.7466756667,-0.26873779296875,-1.072509765625,-0.083221435546875,137297.6927269167,0.3303472900450259,1.493248537961206,0.8901261743164873,137297.6927269167,0.4826592745181043,-0.3999028559946309,1.239519056846596,0.3273859024047852,1.502430200576782,0.9276813864707947,-0.04654235020279884,-0.05644751340150833,0.170758455991745,XTrueNorthZVertical,0.5914111095603524,-0.02094498169285293,0.07864522240148676,0.8022525377614907,-0.126629650592804,-0.9456276893615723,-0.2995884120464325,19.19856834411621,-35.15380477905273,-9.509084701538086,2,10.3.35.51,10.83.46.32,1,0
2015-02-27 17:07:33.576,29,1425085650.725004,37.78705913492154,-122.3964673984165,14.88741,-1,-1,10,165,-9999,1425085653.543503,17.61794281005859,-35.80094909667969,-7.411018371582031,267.5489196777344,253.7756805419922,10,137297.795699875,-0.25836181640625,-1.107818603515625,-0.0098876953125,137297.7962943334,0.07486358877099945,2.085210126109621,0.7582128813060285,137297.744511125,0.639295260949621,-0.4629000139516674,1.230802803549948,0.2409298568964005,1.769495010375977,0.9699835181236267,-0.09267821162939072,-0.1209486201405525,0.1865847259759903,XTrueNorthZVertical,0.5922883543977012,-0.001253285116180029,0.1240262971953136,0.7961221076230408,-0.1489142030477524,-0.9427568316459656,-0.2983858585357666,18.27630996704102,-36.07263565063477,-7.716156005859375,2,10.3.35.51,10.83.46.32,1,0
2015-02-27 17:07:33.647,30,1425085650.725004,37.78705913492154,-122.3964673984165,14.88741,-1,-1,10,165,-9999,1425085653.618735,15.92980575561523,-36.63360595703125,-5.064552307128906,259.12744140625,245.3542022705078,10,137297.844705375,-0.164825439453125,-1.141616821289062,0.0570220947265625,137297.8480775833,0.01665967051509968,2.570594670594155,0.8255722147574026,137297.7962943334,0.7574431652313321,-0.4797156090002775,1.217851658698973,0.07179945707321167,2.09477710723877,0.7957186102867126,-0.09882929176092148,-0.1694596856832504,0.2967585325241089,XTrueNorthZVertical,0.5882881398807333,0.02437114412212251,0.1683411486436406,0.7905595281849672,-0.1595325171947479,-0.9383589029312134,-0.3066462278366089,16.96444511413574,-37.12023162841797,-5.393859386444092,2,10.3.35.51,10.83.46.32,1,0
2015-02-27 17:07:33.674,31,1425085650.725004,37.78705913492154,-122.3964673984165,14.88741,-1,-1,10,165,-9999,1425085653.618735,15.92980575561523,-36.63360595703125,-5.064552307128906,259.12744140625,245.3542022705078,10,137297.8937440834,-0.108734130859375,-1.04180908203125,-0.01898193359375,137297.8480775833,0.01665967051509968,2.570594670594155,0.8255722147574026,137297.8480775833,0.8651852987603956,-0.4608719871596414,1.200437969862512,0.0135955698788166,2.580161571502686,0.8630775809288025,-0.003855892457067966,-0.2094191163778305,0.3812076151371002,XTrueNorthZVertical,0.5782538075599959,0.05941188731806817,0.2196828911672398,0.7834744329822942,-0.160969540476799,-0.9321976900100708,-0.3241855204105377,16.03506469726562,-37.73947143554688,-3.661511898040771,2,10.3.35.51,10.83.46.32,1,0
2015-02-27 17:07:33.715,32,1425085650.725004,37.78705913492154,-122.3964673984165,14.88741,-1,-1,10,165,-9999,1425085653.671101,14.56565856933594,-37.245361328125,-3.733222961425781,251.7779693603516,238.0047149658203,10,137297.9427602917,-0.0586395263671875,-1.1683349609375,-0.1446533203125,137297.899862,0.003562244274089989,2.519671302126314,0.9907912666765014,137297.899862,0.9804836895949366,-0.4390717950148606,1.179041627362257,0.0004981723031960428,2.529237985610962,1.0282963514328,0.05357342958450317,-0.1175685599446297,0.326612800359726,XTrueNorthZVertical,0.5639388898493699,0.0957891707610941,0.2751563674392563,0.7727136176222388,-0.1623075604438782,-0.9242405295372009,-0.345594733953476,14.83602523803711,-38.35579681396484,-1.876933097839355,2,10.3.35.51,10.83.46.32,1,0
2015-02-27 17:07:33.772,33,1425085650.725004,37.78705913492154,-122.3964673984165,14.88741,-1,-1,10,165,-9999,1425085653.724511,13.28676986694336,-37.36431884765625,-2.118972778320312,243.72216796875,229.9489135742188,10,137297.9917947083,0.06756591796875,-0.9932708740234375,-0.4670867919921875,137298.0034285417,0.6932722307566642,2.0422165861036,1.390587672680287,137297.9516452917,1.10513027416978,-0.4285354493408543,1.157337411219789,0.1652746349573135,2.498372316360474,1.052020668983459,0.1083154454827309,-0.252598375082016,0.2207950949668884,XTrueNorthZVertical,0.5483083922635382,0.1289716958144001,0.33038592419447,0.7573436128120113,-0.1669549643993378,-0.9157365560531616,-0.3654484152793884,12.53044509887695,-39.2142219543457,0.1746244430541992,2,10.3.35.51,10.83.46.32,1,0
2015-02-27 17:07:33.815,34,1425085650.725004,37.78705913492154,-122.3964673984165,14.88741,-1,-1,10,165,-9999,1425085653.775562,11.22350692749023,-37.68719482421875,-0.0054931640625,236.0347442626953,222.2614898681641,10,137298.0408016667,-0.028656005859375,-0.8120269775390625,-0.3719024658203125,137298.0034285417,0.6932722307566642,2.0422165861036,1.390587672680287,137298.0034285417,1.271563031218811,-0.4645882686502962,1.155121093503842,0.6902081966400146,2.051783323287964,1.428092002868652,0.1896712630987167,0.006976433098316193,-0.09826768934726715,XTrueNorthZVertical,0.5420293222667845,0.160315042624936,0.382995356264551,0.7306283981011256,-0.1809279769659042,-0.9148438572883606,-0.3610065877437592,10.44314384460449,-39.76924896240234,2.036053657531738,2,10.3.35.51,10.83.46.32,1,0
2015-02-27 17:07:33.871,35,1425085650.725004,37.78705913492154,-122.3964673984165,14.88741,-1,-1,10,165,-9999,1425085653.832039,7.932502746582031,-37.94207763671875,1.409049987792969,228.3071441650391,214.5338897705078,10,137298.0899365,-0.0915985107421875,-0.95367431640625,-0.4266357421875,137298.0552129583,0.08475776485286184,1.719267557566814,1.2200207269762,137298.0552129583,1.433593327963239,-0.5216578801187597,1.138832793727596,0.08169379085302353,1.72883403301239,1.257524609565735,0.2085317373275757,0.09512665867805481,-0.03215507045388222,XTrueNorthZVertical,0.5354068555896008,0.1784765032472994,0.4297780557359112,0.7048237068267391,-0.2086232900619507,-0.9081454873085022,-0.3629712760448456,7.683319091796875,-40.25398254394531,3.921890258789062,2,10.3.35.51,10.83.46.32,1,0
2015-02-27 17:07:33.917,36,1425085650.725004,37.78705913492154,-122.3964673984165,14.88741,-1,-1,10,165,-9999,1425085653.904638,3.7718505859375,-38.41789245605469,2.507408142089844,217.2393646240234,203.4661102294922,10,137298.1388331667,-0.3653106689453125,-0.8368988037109375,-0.35528564453125,137298.1069961667,0.1333681779139692,1.391106989092852,1.099780601655776,137298.1069961667,1.55986432641191,-0.556854248608692,1.110304443370297,0.1303032487630844,1.400673508644104,1.13728404045105,0.07529120892286301,-0.05037875100970268,-0.03816914558410645,XTrueNorthZVertical,0.5245491590658349,0.1903220605576872,0.4716133997520195,0.6827931548306525,-0.2348676174879074,-0.8958340287208557,-0.3772513866424561,4.182464599609375,-40.67638397216797,4.768285751342773,2,10.3.35.51,10.83.46.32,1,0
2015-02-27 17:07:33.969,37,1425085650.725004,37.78705913492154,-122.3964673984165,14.88741,-1,-1,10,165,-9999,1425085653.95585,1.725631713867188,-38.11199951171875,2.673820495605469,211.5886535644531,197.8153991699219,10,137298.1878793333,-0.3726959228515625,-0.747161865234375,-0.2253570556640625,137298.1587795,0.297713180363304,1.584438369478828,0.6542497302520601,137298.1587795,1.657049904872309,-0.5718608994233252,1.097085845682692,0.294651985168457,1.59400463104248,0.6917535066604614,-0.1619389951229095,0.1028028726577759,0.07890637218952179,XTrueNorthZVertical,0.5155243851459167,0.2059855390910766,0.5038693170811417,0.6617554498682414,-0.246889740228653,-0.8898817300796509,-0.3836091458797455,1.960179328918457,-40.77851104736328,5.29798412322998,2,10.3.35.51,10.83.46.32,1,0
2015-02-27 17:07:34.053,38,1425085650.725004,37.78705913492154,-122.3964673984165,14.88741,-1,-1,10,165,-9999,1425085654.009414,-0.5763626098632812,-37.85710144042969,3.788810729980469,205.3269653320312,191.5537109375,10,137298.2369159167,-0.2185211181640625,-0.78466796875,-0.1830291748046875,137298.210564,0.3773800464763704,2.216710895467227,0.7066447615382792,137298.210564,1.737458393200026,-0.5469612403338304,1.092859334198729,0.3743188679218292,2.226277112960815,0.7441481947898865,-0.09002243727445602,0.1399140655994415,0.2150505483150482,XTrueNorthZVertical,0.4992951550677192,0.2329836316225527,0.5374524425476384,0.6384104053368007,-0.2392164468765259,-0.8879457116127014,-0.3928459584712982,0.2786140441894531,-40.73946762084961,5.917435646057129,2,10.3.35.51,10.83.46.32,1,0
2015-02-27 17:07:34.066,39,1425085650.725004,37.78705913492154,-122.3964673984165,14.88741,-1,-1,10,165,-9999,1425085654.059821,-3.185295104980469,-37.500244140625,4.071723937988281,198.3191528320312,184.5458984375,10,137298.2859280834,-0.1013336181640625,-0.9049224853515625,-0.236358642578125,137298.2623471667,0.6593331721408034,2.72772117490883,0.9647910912701668,137298.2623471667,1.852186902101605,-0.5208085727342066,1.094103437370379,0.6562719941139221,2.737287282943726,1.002294182777405,0.08292625844478607,0.03675635904073715,0.2089826315641403,XTrueNorthZVertical,0.4778220581690565,0.2695956733438807,0.5791326155823118,0.6030005516838181,-0.2283120006322861,-0.8885172009468079,-0.3980084955692291,-2.539064884185791,-40.51523590087891,6.845914840698242,2,10.3.35.51,10.83.46.32,1,0
2015-02-27 17:07:34.117,40,1425085650.725004,37.78705913492154,-122.3964673984165,14.88741,-1,-1,10,165,-9999,1425085654.110995,-6.050003051757812,-36.92245483398438,4.604255676269531,189.1284484863281,175.3551940917969,10,137298.33494975,-0.115997314453125,-0.98492431640625,-0.23297119140625,137298.314130625,0.7005336057848743,2.414130760758692,0.9249286297577518,137298.314130625,1.984752976648412,-0.5082685093278912,1.098167009012935,0.6974725127220154,2.423696756362915,0.9624313116073608,0.1132067516446114,-0.05396151170134544,0.1711355000734329,XTrueNorthZVertical,0.455728421308519,0.3057290181865576,0.6195692801116096,0.5612265841112327,-0.221544161438942,-0.8903744220733643,-0.3976827561855316,-5.260890960693359,-40.1231689453125,7.566498756408691,2,10.3.35.51,10.83.46.32,1,0
2015-02-27 17:07:34.164,41,1425085650.725004,37.78705913492154,-122.3964673984165,14.88741,-1,-1,10,165,-9999,1425085654.110995,-6.050003051757812,-36.92245483398438,4.604255676269531,189.1284484863281,175.3551940917969,10,137298.3839809167,-0.05035400390625,-0.934661865234375,-0.2646942138671875,137298.365914875,0.8123613378539556,2.188833457808495,0.7787373311950511,137298.365914875,2.109395715864844,-0.507465934892082,1.111205401100126,0.8093003034591675,2.198399305343628,0.816239595413208,0.1274909526109695,-0.06467295438051224,0.1448372006416321,XTrueNorthZVertical,0.4374446578960155,0.33882407852421,0.6499278645537672,0.5209934587764902,-0.2155646830797195,-0.8962340354919434,-0.3876808285713196,-7.77837085723877,-39.59762191772461,8.143902778625488,2,10.3.35.51,10.83.46.32,1,0
2015-02-27 17:07:34.214,42,1425085650.725004,37.78705913492154,-122.3964673984165,14.88741,-1,-1,10,165,-9999,1425085654.162631,-8.539573669433594,-36.14076232910156,4.737396240234375,180.8140258789062,167.040771484375,10,137298.4330012084,-0.0306854248046875,-0.9147186279296875,-0.315765380859375,137298.4176982917,0.6419690955173778,2.154712771606291,0.963386007479041,137298.365914875,2.109395715864844,-0.507465934892082,1.111205401100126,0.8093003034591675,2.198399305343628,0.816239595413208,0.1274909526109695,-0.06467295438051224,0.1448372006416321,XTrueNorthZVertical,0.4374446578960155,0.33882407852421,0.6499278645537672,0.5209934587764902,-0.2155646830797195,-0.8962340354919434,-0.3876808285713196,-7.77837085723877,-39.59762191772461,8.143902778625488,2,10.3.35.51,10.83.46.32,1,0
2015-02-27 17:07:34.262,43,1425085650.725004,37.78705913492154,-122.3964673984165,14.88741,-1,-1,10,165,-9999,1425085654.214368,-11.23375701904297,-35.22314453125,5.170074462890625,173.3273315429688,159.5540771484375,10,137298.48214325,-0.0276336669921875,-0.866424560546875,-0.3154144287109375,137298.4694814583,0.4814784861137146,1.494810215624429,1.018252718572963,137298.4694814583,2.375321403794244,-0.5435055849519731,1.118497117607516,0.4784120917320251,1.504376292228699,1.055753111839294,0.1764626652002335,0.001770085887983441,0.04076073318719864,XTrueNorthZVertical,0.4020881788588173,0.3889676914000749,0.7041073410942543,0.4373352053138734,-0.226007953286171,-0.8994446396827698,-0.3740584552288055,-13.47288799285889,-37.92329025268555,8.66619873046875,2,10.3.35.51,10.83.46.32,1,0
2015-02-27 17:07:34.317,44,1425085650.725004,37.78705913492154,-122.3964673984165,14.88741,-1,-1,10,165,-9999,1425085654.268273,-13.99614715576172,-34.10157775878906,4.90380859375,165.1480865478516,151.3748321533203,10,137298.5310324584,-0.1578826904296875,-1.023956298828125,-0.2032470703125,137298.5212657917,0.4454323344433831,1.176893229967348,1.143770962857814,137298.4694814583,2.375321403794244,-0.5435055849519731,1.118497117607516,0.4784120917320251,1.504376292228699,1.055753111839294,0.1764626652002335,0.001770085887983441,0.04076073318719864,XTrueNorthZVertical,0.4020881788588173,0.3889676914000749,0.7041073410942543,0.4373352053138734,-0.226007953286171,-0.8994446396827698,-0.3740584552288055,-13.47288799285889,-37.92329025268555,8.66619873046875,2,10.3.35.51,10.83.46.32,1,0
2015-02-27 17:07:34.361,45,1425085650.725004,37.78705913492154,-122.3964673984165,14.88741,-1,-1,10,165,-9999,1425085654.318353,-16.758544921875,-32.50421142578125,4.570976257324219,158.2765502929688,144.5032958984375,10,137298.580057875,-0.203887939453125,-1.169723510742188,-0.2441558837890625,137298.573049125,0.445596118850423,0.9167399420379762,0.8066166330665456,137298.573049125,2.62946656135771,-0.6530738359749668,1.094692849150009,0.4425288140773773,0.9263058304786682,0.8441162109375,0.07688980549573898,-0.2800662517547607,0.1358722448348999,XTrueNorthZVertical,0.3898177568048549,0.4074787284079917,0.74013628530611,0.3663352012416529,-0.2784889340400696,-0.8887875080108643,-0.3640064001083374,-18.86225509643555,-35.65156173706055,8.244950294494629,2,10.3.35.51,10.83.46.32,1,0
2015-02-27 17:07:34.399,46,1425085650.725004,37.78705913492154,-122.3964673984165,14.88741,-1,-1,10,165,-9999,1425085654.370329,-19.04347991943359,-31.24674987792969,4.803962707519531,152.8667755126953,139.0935211181641,10,137298.6290630417,-0.3626708984375,-1.135986328125,-0.2742919921875,137298.6248325833,0.5797792240579565,0.6459827455962363,0.6101579026124903,137298.573049125,2.62946656135771,-0.6530738359749668,1.094692849150009,0.4425288140773773,0.9263058304786682,0.8441162109375,0.07688980549573898,-0.2800662517547607,0.1358722448348999,XTrueNorthZVertical,0.3898177568048549,0.4074787284079917,0.74013628530611,0.3663352012416529,-0.2784889340400696,-0.8887875080108643,-0.3640064001083374,-18.86225509643555,-35.65156173706055,8.244950294494629,2,10.3.35.51,10.83.46.32,1,0
2015-02-27 17:07:34.458,47,1425085650.725004,37.78705913492154,-122.3964673984165,14.88741,-1,-1,10,165,-9999,1425085654.421859,-20.68045806884766,-29.68336486816406,4.637542724609375,147.5807647705078,133.8075103759766,10,137298.6780928333,-0.37274169921875,-1.018402099609375,-0.2513427734375,137298.676617,0.4228588484116535,0.5832714271953773,0.4432197802097453,137298.6248325833,2.728850060699021,-0.7017356825761371,1.09143020387693,0.5767119526863098,0.6555485725402832,0.6476572155952454,-0.04407626390457153,-0.2504688799381256,0.06317935138940811,XTrueNorthZVertical,0.3874312630211314,0.4168645970479861,0.7490927144055604,0.3390885245879509,-0.297735869884491,-0.887287437915802,-0.3522418439388275,-20.48930168151855,-34.75082397460938,8.207711219787598,2,10.3.35.51,10.83.46.32,1,0
2015-02-27 17:07:34.498,48,1425085650.725004,37.78705913492154,-122.3964673984165,14.88741,-1,-1,10,165,-9999,1425085654.474516,-22.26628112792969,-28.6807861328125,4.687469482421875,143.2564239501953,129.4831695556641,10,137298.7272149583,-0.3725433349609375,-0.870758056640625,-0.2255706787109375,137298.676617,0.4228588484116535,0.5832714271953773,0.4432197802097453,137298.676617,2.809744050311537,-0.7462574839233658,1.092954428274288,0.419791579246521,0.5928371548652649,0.4807187020778656,-0.05492688715457916,-0.1605182737112045,0.08986057341098785,XTrueNorthZVertical,0.3870898646744469,0.4258373056468686,0.7533582657865056,0.3182378784458809,-0.3121995627880096,-0.8879894018173218,-0.3376480638980865,-21.69346237182617,-33.94454193115234,8.482894897460938,2,10.3.35.51,10.83.46.32,1,0
2015-02-27 17:07:34.556,49,1425085650.725004,37.78705913492154,-122.3964673984165,14.88741,-1,-1,10,165,-9999,1425085654.525539,-23.17003631591797,-28.25592041015625,4.471122741699219,140.48779296875,126.7145462036133,10,137298.7761415833,-0.223663330078125,-0.990081787109375,-0.1934967041015625,137298.7801835,0.2404466948111121,0.8701026650285085,0.2552714473351472,137298.7284002917,2.869212339003021,-0.7623864345047047,1.088516379963879,0.2401700764894485,0.7908861041069031,0.413584291934967,-0.05222002416849136,0.01518172957003117,0.109844982624054,XTrueNorthZVertical,0.3805807197013404,0.432955521562602,0.7605978232738727,0.2986616505210605,-0.3203233182430267,-0.8859397768974304,-0.3354156613349915,-22.99383354187012,-33.09612655639648,8.409977912902832,2,10.3.35.51,10.83.46.32,1,0
2015-02-27 17:07:34.596,50,1425085650.725004,37.78705913492154,-122.3964673984165,14.88741,-1,-1,10,165,-9999,1425085654.577424,-23.93737030029297,-27.5592041015625,4.22149658203125,137.4263000488281,123.6530456542969,10,137298.8252504584,-0.150177001953125,-0.9741058349609375,-0.1991119384765625,137298.7801835,0.2404466948111121,0.8701026650285085,0.2552714473351472,137298.7801835,2.913279721898947,-0.7581365449381617,1.086020510464923,0.2370875924825668,0.8800383806228638,0.2926843762397766,0.09675096720457077,-0.1053023412823677,0.1448817998170853,XTrueNorthZVertical,0.369443142070993,0.4408202718974839,0.7684205899695783,0.2805691495738578,-0.3204143047332764,-0.8847794532775879,-0.338378518819809,-23.87259483337402,-32.59725189208984,7.894060134887695,2,10.3.35.51,10.83.46.32,1,0
2015-02-27 17:07:34.655,51,1425085650.725004,37.78705913492154,-122.3964673984165,14.88741,-1,-1,10,165,-9999,1425085654.629338,-24.72175598144531,-27.01539611816406,4.188224792480469,135.1989288330078,121.4256820678711,10,137298.874271875,-0.1558380126953125,-0.8934783935546875,-0.1907806396484375,137298.831967875,0.2824641862776193,0.6106457937241928,0.0843798622941796,137298.831967875,2.949115767009945,-0.7517265130362464,1.089240384325161,0.2791018784046173,0.6205816864967346,0.1217915341258049,0.1661145687103271,-0.08783048391342163,0.1392305642366409,XTrueNorthZVertical,0.3588240496921013,0.4495264703339651,0.7736589617313028,0.2657500007250064,-0.3162915706634521,-0.8862753510475159,-0.3383425176143646,-24.53900909423828,-32.22665405273438,7.353740692138672,2,10.3.35.51,10.83.46.32,1,0
2015-02-27 17:07:34.694,52,1425085650.725004,37.78705913492154,-122.3964673984165,14.88741,-1,-1,10,165,-9999,1425085654.681537,-25.11395263671875,-26.62455749511719,3.605766296386719,133.0199279785156,119.2466735839844,10,137298.9232745,-0.1004638671875,-0.914093017578125,-0.171539306640625,137298.883751375,0.1596866010705682,0.3803707763805294,-0.157897489450253,137298.883751375,2.964354861246555,-0.7408895255387445,1.100838471033668,0.1563038378953934,0.3903081715106964,-0.1204917430877686,0.1498097479343414,-0.001891019637696445,0.1433621495962143,XTrueNorthZVertical,0.3505002357811167,0.4583428771987168,0.774614017601866,0.2589295531493657,-0.3056477606296539,-0.8915873765945435,-0.3341427743434906,-24.88076782226562,-32.03250503540039,7.047253608703613,2,10.3.35.51,10.83.46.32,1,0
2015-02-27 17:07:34.752,53,1425085650.725004,37.78705913492154,-122.3964673984165,14.88741,-1,-1,10,165,-9999,1425085654.732851,-25.11394500732422,-26.55657958984375,3.039939880371094,131.4542388916016,117.6809844970703,10,137298.9722997083,-0.08978271484375,-0.9380340576171875,-0.215423583984375,137298.9355347083,0.1374177806675436,0.3987868016345363,-0.2390543941932187,137298.9355347083,2.952817621566828,-0.7110791087071269,1.131696750035721,0.1339200139045715,0.408733606338501,-0.2016852796077728,0.1839829832315445,-0.007661198265850544,0.1533979177474976,XTrueNorthZVertical,0.339900871116101,0.4726709763314139,0.7702295168636661,0.2603767182780318,-0.2774583399295807,-0.9051347970962524,-0.3220990896224976,-24.57590103149414,-32.2708740234375,7.029479026794434,2,10.3.35.51,10.83.46.32,1,0
2015-02-27 17:07:34.792,54,1425085650.725004,37.78705913492154,-122.3964673984165,14.88741,-1,-1,10,165,-9999,1425085654.785076,-24.56827545166016,-27.06637573242188,2.740394592285156,131.0621948242188,117.288948059082,10,137299.0212020417,-0.115692138671875,-0.9404449462890625,-0.198333740234375,137298.9873189167,0.07535867041764518,0.3058403490618988,-0.2280339672863618,137298.9873189167,2.943951968818016,-0.6823836747538292,1.140774608057766,0.07186093181371689,0.3157870471477509,-0.1906651854515076,0.1683510988950729,-0.02494223043322563,0.0933275893330574,XTrueNorthZVertical,0.3304661281331758,0.4785641737397932,0.7714787838598217,0.2580483558258735,-0.2629098296165466,-0.9089567065238953,-0.3235369324684143,-24.16740226745605,-32.59389495849609,6.95504093170166,2,10.3.35.51,10.83.46.32,1,0
2015-02-27 17:07:34.851,55,1425085650.725004,37.78705913492154,-122.3964673984165,14.88741,-1,-1,10,165,-9999,1425085654.837036,-24.48301696777344,-27.21932983398438,2.390922546386719,125.2652969360352,111.4920425415039,10,137299.0702389583,-0.0589752197265625,-0.93896484375,-0.150726318359375,137299.0391022917,0.1319345982991795,0.09108756613176217,-0.2422856075438118,137299.0391022917,2.932806573997233,-0.6648824502311403,1.152300138236171,0.1284368932247162,0.1010341793298721,-0.2049172073602676,0.1323342025279999,-0.03173346817493439,0.1527231335639954,XTrueNorthZVertical,0.3258393672622815,0.4836503305883564,0.7698113025027774,0.2594255598889916,-0.2507271468639374,-0.9137011170387268,-0.3198221325874329,-24.63649749755859,-26.89650344848633,2.573958396911621,2,10.3.35.51,10.83.46.32,1,0
2015-02-27 17:07:34.890,56,1425085650.725004,37.78705913492154,-122.3964673984165,14.88741,-1,-1,10,165,-9999,1425085654.837036,-24.48301696777344,-27.21932983398438,2.390922546386719,125.2652969360352,111.4920425415039,10,137299.1192282917,-0.1137237548828125,-0.876678466796875,-0.169189453125,137299.0908858333,0.0121429493063253,0.2196964088616507,-0.03003246761282357,137299.0908858333,2.91710246777906,-0.6376460858071904,1.181642543928652,0.008522840216755867,0.2296549081802368,0.007276298478245735,0.154649555683136,0.01989597827196121,0.1237913370132446,XTrueNorthZVertical,0.3179260108703149,0.4964846296280109,0.7641111016514601,0.2618401928831162,-0.2258623242378235,-0.9252304434776306,-0.3048521280288696,-24.20352935791016,-27.26604270935059,2.784982681274414,2,10.3.35.51,10.83.46.32,1,0
2015-02-27 17:07:34.949,57,1425085650.725004,37.78705913492154,-122.3964673984165,14.88741,-1,-1,10,165,-9999,1425085654.940437,-24.26134490966797,-27.74613952636719,2.141288757324219,123.6812973022461,109.9080429077148,10,137299.168354375,-0.07574462890625,-0.881683349609375,-0.164886474609375,137299.1426700834,0.01503460961793333,0.1597734201221048,0.0815638357575298,137299.1426700834,2.926250425176674,-0.6371463836714908,1.179293909630499,0.01141453720629215,0.1697318255901337,0.118872232735157,0.1386231780052185,0.05241908878087997,0.1366668343544006,XTrueNorthZVertical,0.3155645137961692,0.4970549724151724,0.7660295292483613,0.2579809110580158,-0.2270020842552185,-0.9243367910385132,-0.3067107796669006,-24.02313232421875,-27.43270111083984,2.709271430969238,2,10.3.35.51,10.83.46.32,1,0
2015-02-27 17:07:34.988,58,1425085650.725004,37.78705913492154,-122.3964673984165,14.88741,-1,-1,10,165,-9999,1425085654.940437,-24.26134490966797,-27.74613952636719,2.141288757324219,123.6812973022461,109.9080429077148,10,137299.2173484167,-0.1821746826171875,-0.8089141845703125,-0.1883087158203125,137299.1944535417,-0.08813332153453728,0.1784174119654225,0.2647594913507725,137299.1944535417,2.944624915541053,-0.6468983701133343,1.172708707422912,-0.09175335615873337,0.1883757263422012,0.3020675480365753,0.1118045225739479,0.0809837132692337,0.1446448862552643,XTrueNorthZVertical,0.3150498212288526,0.4960616005466486,0.7686507317209036,0.2526708320177361,-0.233645960688591,-0.9218040108680725,-0.3093329966068268,-24.2699089050293,-27.23477554321289,2.49851131439209,2,10.3.35.51,10.83.46.32,1,0
2015-02-27 17:07:35.047,59,1425085650.725004,37.78705913492154,-122.3964673984165,14.88741,-1,-1,10,165,-9999,1425085654.992097,-24.87521362304688,-27.44024658203125,1.775169372558594,122.2885589599609,108.5153045654297,10,137299.2662542083,-0.1800079345703125,-0.8498992919921875,-0.207183837890625,137299.2462367083,-0.04400394332359727,0.3893544176856936,0.2348916070933158,137299.2462367083,2.973070508442501,-0.6546489603437388,1.159018962144597,-0.04762394726276398,0.3993126153945923,0.2721993029117584,0.02629047073423862,0.0975174680352211,0.07214801013469696,XTrueNorthZVertical,0.3117045912127834,0.4940578990085869,0.7746771422802013,0.2421205559086698,-0.2436977028846741,-0.9164109230041504,-0.3174940943717957,-24.69973373413086,-26.8795337677002,2.101863861083984,2,10.3.35.51,10.83.46.32,1,0
2015-02-27 17:07:35.086,60,1425085650.725004,37.78705913492154,-122.3964673984165,14.88741,-1,-1,10,165,-9999,1425085655.044461,-25.01162719726562,-26.76054382324219,1.275932312011719,120.7938766479492,107.020622253418,10,137299.315257875,-0.047149658203125,-0.81195068359375,-0.3512420654296875,137299.298021375,0.02017957052785741,0.3577134007744622,0.4422972612081419,137299.2462367083,2.973070508442501,-0.6546489603437388,1.159018962144597,-0.04762394726276398,0.3993126153945923,0.2721993029117584,0.02629047073423862,0.0975174680352211,0.07214801013469696,XTrueNorthZVertical,0.3117045912127834,0.4940578990085869,0.7746771422802013,0.2421205559086698,-0.2436977028846741,-0.9164109230041504,-0.3174940943717957,-24.69973373413086,-26.8795337677002,2.101863861083984,2,10.3.35.51,10.83.46.32,1,0
2015-02-27 17:07:35.149,61,1425085650.725004,37.78705913492154,-122.3964673984165,14.88741,-1,-1,10,165,-9999,1425085655.096544,-25.59138488769531,-26.45465087890625,1.109519958496094,119.5063552856445,105.7331008911133,10,137299.3642717917,-0.0732269287109375,-1.079635620117188,-0.355133056640625,137299.3498045417,-0.1284740867787305,-0.03276726773622594,0.464653965927139,137299.3498045417,3.050611141228083,-0.6965078817418272,1.13170129833408,-0.1321018636226654,-0.02280954457819462,0.5019641518592834,0.1611607521772385,-0.1164086535573006,0.003762586740776896,XTrueNorthZVertical,0.3106854601333863,0.4903287591254579,0.7843185949366069,0.2188529017255912,-0.2727330327033997,-0.90513676404953,-0.3261044919490814,-25.82587051391602,-25.85995292663574,1.136303901672363,2,10.3.35.51,10.83.46.32,1,0
2015-02-27 17:07:35.184,62,1425085650.725004,37.78705913492154,-122.3964673984165,14.88741,-1,-1,10,165,-9999,1425085655.147376,-26.392822265625,-25.48605346679688,0.5270614624023438,116.8554916381836,103.0822372436523,10,137299.413398875,-0.22259521484375,-1.0096435546875,-0.3513641357421875,137299.401588,-0.1114010936624506,-0.8301259539053291,0.298824517486194,137299.401588,3.072344965450397,-0.7406606443359378,1.113002252563315,-0.1150288432836533,-0.8201683163642883,0.3361344039440155,0.1787240207195282,-0.1726725101470947,-0.02662942931056023,XTrueNorthZVertical,0.3241737254227219,0.4814761158868615,0.7844532918850774,0.2184609268211839,-0.2982308566570282,-0.8970296382904053,-0.3261843025684357,-26.34108352661133,-25.33189392089844,1.202717781066895,2,10.3.35.51,10.83.46.32,1,0
2015-02-27 17:07:35.243,63,1425085650.725004,37.78705913492154,-122.3964673984165,14.88741,-1,-1,10,165,-9999,1425085655.200118,-26.97259521484375,-24.6024169921875,0.9597396850585938,116.2432250976562,102.469970703125,10,137299.4623034167,-0.2635955810546875,-0.9094085693359375,-0.2893524169921875,137299.4533723333,-0.2888682897509328,-1.127224210372934,0.332330279792699,137299.401588,3.072344965450397,-0.7406606443359378,1.113002252563315,-0.1150288432836533,-0.8201683163642883,0.3361344039440155,0.1787240207195282,-0.1726725101470947,-0.02662942931056023,XTrueNorthZVertical,0.3241737254227219,0.4814761158868615,0.7844532918850774,0.2184609268211839,-0.2982308566570282,-0.8970296382904053,-0.3261843025684357,-26.34108352661133,-25.33189392089844,1.202717781066895,2,10.3.35.51,10.83.46.32,1,0
2015-02-27 17:07:35.282,64,1425085650.725004,37.78705913492154,-122.3964673984165,14.88741,-1,-1,10,165,-9999,1425085655.250729,-27.41593170166016,-23.65077209472656,1.725250244140625,116.102165222168,102.3289108276367,10,137299.5114035417,-0.44140625,-0.708251953125,-0.2122650146484375,137299.5051557917,-0.4250745984385994,-1.128849803902318,0.5124278800898525,137299.4533723333,3.084427248217252,-0.8021155249954091,1.096007546862111,-0.2924967408180237,-1.117266654968262,0.36963951587677,0.08096268028020859,-0.07102940231561661,0.01963341422379017,XTrueNorthZVertical,0.346797289678515,0.4699243918481313,0.7797009427338047,0.225763468786839,-0.3286128342151642,-0.8893892765045166,-0.3178054094314575,-26.64018821716309,-24.95903587341309,2.085883140563965,2,10.3.35.51,10.83.46.32,1,0
2015-02-27 17:07:35.345,65,1425085650.725004,37.78705913492154,-122.3964673984165,14.88741,-1,-1,10,165,-9999,1425085655.303987,-27.84222412109375,-23.29391479492188,2.806953430175781,117.2762985229492,103.503044128418,10,137299.5603102084,-0.2820892333984375,-0.70477294921875,-0.2479095458984375,137299.5569390417,-0.368628100186043,-0.5230264622800408,0.4860237031461529,137299.5569390417,3.088813765639087,-0.9058187302094763,1.034149332763223,-0.3722564876079559,-0.5130690932273865,0.5233321785926819,0.06959078460931778,0.1422646790742874,0.08310607075691223,XTrueNorthZVertical,0.3919739826244348,0.4343074265587635,0.7756474960868998,0.2368637078921461,-0.4023239314556122,-0.8594277501106262,-0.3154669106006622,-27.40668487548828,-23.82135963439941,4.291912078857422,2,10.3.35.51,10.83.46.32,1,0
2015-02-27 17:07:35.380,66,1425085650.725004,37.78705913492154,-122.3964673984165,14.88741,-1,-1,10,165,-9999,1425085655.355534,-28.55840301513672,-22.92008972167969,3.738883972167969,118.1098785400391,104.3366241455078,10,137299.6094211667,-0.169647216796875,-0.4318084716796875,-0.2355804443359375,137299.5569390417,-0.368628100186043,-0.5230264622800408,0.4860237031461529,137299.5569390417,3.088813765639087,-0.9058187302094763,1.034149332763223,-0.3722564876079559,-0.5130690932273865,0.5233321785926819,0.06959078460931778,0.1422646790742874,0.08310607075691223,XTrueNorthZVertical,0.3919739826244348,0.4343074265587635,0.7756474960868998,0.2368637078921461,-0.4023239314556122,-0.8594277501106262,-0.3154669106006622,-27.40668487548828,-23.82135963439941,4.291912078857422,2,10.3.35.51,10.83.46.32,1,0
2015-02-27 17:07:35.442,67,1425085650.725004,37.78705913492154,-122.3964673984165,14.88741,-1,-1,10,165,-9999,1425085655.407462,-29.39394378662109,-22.563232421875,4.254783630371094,118.5158843994141,104.7426300048828,10,137299.658335125,-0.401519775390625,-0.569000244140625,-0.173309326171875,137299.6605068333,-0.662444276926234,-1.289255991099426,0.3603320870743371,137299.6087234583,3.087712943067402,-0.9354743099426633,0.994531151708283,-0.5817939639091492,-0.7775442004203796,0.6588215231895447,0.2767721116542816,0.3631923198699951,0.0799378827214241,XTrueNorthZVertical,0.4075886454597692,0.4149588204408592,0.7784113101534149,0.2361281511736691,-0.4385763108730316,-0.8385035991668701,-0.323361337184906,-27.87592697143555,-23.22091293334961,4.552576065063477,2,10.3.35.51,10.83.46.32,1,0
2015-02-27 17:07:35.478,68,1425085650.725004,37.78705913492154,-122.3964673984165,14.88741,-1,-1,10,165,-9999,1425085655.459353,-29.7861328125,-21.52665710449219,5.003654479980469,118.7690124511719,104.9957580566406,10,137299.7074508333,-0.4183349609375,-0.558380126953125,-0.218414306640625,137299.6605068333,-0.662444276926234,-1.289255991099426,0.3603320870743371,137299.6605068333,3.069271699805665,-0.9734557325155102,0.954013892298351,-0.6660726070404053,-1.279298782348633,0.3976398110389709,0.07673230767250061,0.2467435151338577,0.1520167589187622,XTrueNorthZVertical,0.4299235192429808,0.3905159725918315,0.7769276013958053,0.2429949445206559,-0.4782520830631256,-0.8157437443733215,-0.3253260850906372,-28.46752548217773,-22.35190010070801,5.195836067199707,2,10.3.35.51,10.83.46.32,1,0
2015-02-27 17:07:35.545,69,1425085650.725004,37.78705913492154,-122.3964673984165,14.88741,-1,-1,10,165,-9999,1425085655.510376,-30.04190826416016,-20.69398498535156,5.885673522949219,119.5100173950195,105.7367630004883,10,137299.756358875,-0.62738037109375,-0.5845184326171875,-0.1710357666015625,137299.7122903334,-0.2837899078682607,-1.158160022227512,0.2927362649181639,137299.7122903334,3.046946447576144,-1.018316482945929,0.9258401488684621,-0.2874181866645813,-1.148202896118164,0.330043613910675,0.09339080005884171,0.2407459914684296,0.09707610309123993,XTrueNorthZVertical,0.4540972455466707,0.3688502226803316,0.7700857825994327,0.2543876773247197,-0.5117257833480835,-0.7991260886192322,-0.3154903948307037,-28.50492858886719,-22.04389762878418,6.208027839660645,2,10.3.35.51,10.83.46.32,1,0
2015-02-27 17:07:35.576,70,1425085650.725004,37.78705913492154,-122.3964673984165,14.88741,-1,-1,10,165,-9999,1425085655.562991,-30.16127777099609,-20.50704956054688,7.033943176269531,120.4854965209961,106.7122421264648,10,137299.8053599167,-0.55389404296875,-0.61456298828125,-0.2811279296875,137299.7640746667,-0.2175315252115253,-1.171939217707582,0.05076970407294357,137299.7640746667,3.043226684579039,-1.071706636532606,0.9127792509305916,-0.2211577445268631,-1.161806583404541,0.08809058368206024,-0.09042882919311523,0.2066880017518997,0.1216678470373154,XTrueNorthZVertical,0.4763928589835456,0.3559466797839059,0.7598330696677768,0.2626889975244314,-0.5369515419006348,-0.791206419467926,-0.2927035987377167,-28.44766998291016,-21.74084854125977,7.420897483825684,2,10.3.35.51,10.83.46.32,1,0
2015-02-27 17:07:35.643,71,1425085650.725004,37.78705913492154,-122.3964673984165,14.88741,-1,-1,10,165,-9999,1425085655.615131,-29.92254638671875,-20.67697143554688,8.797950744628906,123.0111236572266,109.2378692626953,10,137299.8543745417,-0.8751220703125,-0.7731475830078125,-0.0661468505859375,137299.867641375,-0.1171748269057424,-1.518767213842455,0.01164014449251833,137299.815858125,3.030689060680632,-1.130336090422493,0.9037576947026283,-0.05045254901051521,-1.550269961357117,0.1942237913608551,-0.04667851701378822,0.1730320751667023,-5.428434087662026e-05,XTrueNorthZVertical,0.501500025383032,0.3414859224991604,0.7456060538932509,0.2756024306756023,-0.5596141815185547,-0.7856571674346924,-0.263770192861557,-27.9406852722168,-21.70968055725098,9.220192909240723,2,10.3.35.51,10.83.46.32,1,0
2015-02-27 17:07:35.674,72,1425085650.725004,37.78705913492154,-122.3964673984165,14.88741,-1,-1,10,165,-9999,1425085655.666769,-29.42804718017578,-20.79591369628906,11.04457855224609,125.7710342407227,111.9977798461914,10,137299.903494125,-0.5911712646484375,-0.67291259765625,-0.1203765869140625,137299.867641375,-0.1171748269057424,-1.518767213842455,0.01164014449251833,137299.867641375,3.028184016924326,-1.207611766062613,0.8930051097001577,-0.1208003535866737,-1.5086350440979,0.04896071180701256,-0.253551572561264,0.01307528838515282,0.1014929786324501,XTrueNorthZVertical,0.5314382779944755,0.325865677900829,0.7273900153732894,0.2868600360883249,-0.5861701369285583,-0.7789596915245056,-0.2227698266506195,-27.41961669921875,-21.48491096496582,11.1160774230957,2,10.3.35.51,10.83.46.32,1,0
2015-02-27 17:07:35.747,73,1425085650.725004,37.78705913492154,-122.3964673984165,14.88741,-1,-1,10,165,-9999,1425085655.717717,-29.06995391845703,-20.16716003417969,13.15806579589844,127.3052673339844,113.5320129394531,10,137299.9524154583,-0.712646484375,-0.8744049072265625,-0.01580810546875,137299.919426,0.2868695873528284,-0.8910596122785601,0.2568355218433507,137299.919426,3.045989645752681,-1.271420310124597,0.8899007027535523,0.2832449078559875,-0.8809276223182678,0.2941561937332153,-0.01626212894916534,0.08175777643918991,0.04696435481309891,XTrueNorthZVertical,0.551873648997747,0.3203275366120646,0.7132620752902363,0.2899706104133184,-0.6014899611473083,-0.7770092487335205,-0.185651496052742,-26.74159240722656,-21.43083381652832,12.75189018249512,2,10.3.35.51,10.83.46.32,1,0
2015-02-27 17:07:35.772,74,1425085650.725004,37.78705913492154,-122.3964673984165,14.88741,-1,-1,10,165,-9999,1425085655.717717,-29.06995391845703,-20.16716003417969,13.15806579589844,127.3052673339844,113.5320129394531,10,137300.0014730417,-0.8046722412109375,-0.784332275390625,-0.1728363037109375,137299.9712092083,-0.3037393812779353,-1.553437043861433,-0.1498366334628012,137299.9712092083,3.042586836688637,-1.338463640016993,0.8815452950626785,-0.3073639869689941,-1.543305158615112,-0.1125163361430168,-0.1609432995319366,-0.28481125831604,0.1291555166244507,XTrueNorthZVertical,0.5769589873145168,0.306437743202822,0.695371006778314,0.299455167847763,-0.618872344493866,-0.7717225551605225,-0.1464284658432007,-26.14916229248047,-20.94800567626953,14.64262390136719,2,10.3.35.51,10.83.46.32,1,0
2015-02-27 17:07:35.842,75,1425085650.725004,37.78705913492154,-122.3964673984165,14.88741,-1,-1,10,165,-9999,1425085655.821244,-27.17720031738281,-19.77629089355469,16.30333709716797,131.9256439208984,118.1523895263672,10,137300.0504440417,-0.656768798828125,-1.185165405273438,-0.130615234375,137300.0229926667,-0.140855921634836,-0.4586818271826363,0.0399652595304921,137300.0229926667,3.031858692059626,-1.376795778751536,0.8829932948841778,-0.144480288028717,-0.4485501945018768,0.07728644460439682,-0.1102068871259689,-0.03486777096986771,0.05201492458581924,XTrueNorthZVertical,0.5916155392206933,0.2979879606079497,0.6822774169293988,0.3093408371914703,-0.6229321360588074,-0.7726426124572754,-0.1223884597420692,-25.17139053344727,-21.20220565795898,15.933349609375,2,10.3.35.51,10.83.46.32,1,0
2015-02-27 17:07:35.870,76,1425085650.725004,37.78705913492154,-122.3964673984165,14.88741,-1,-1,10,165,-9999,1425085655.821244,-27.17720031738281,-19.77629089355469,16.30333709716797,131.9256439208984,118.1523895263672,10,137300.0994538333,-0.6927337646484375,-1.002655029296875,-0.3651123046875,137300.0747771667,-0.8123123356898981,-0.7293636561655271,-0.1061205778530415,137300.0747771667,2.986023797820054,-1.37271539671641,0.8765545009012881,-0.8159366250038147,-0.7192321419715881,-0.06879976391792297,-0.02909507974982262,-0.3284458518028259,-0.2222236394882202,XTrueNorthZVertical,0.5976013916893226,0.2827008291121109,0.6774295306786515,0.3225554943814494,-0.627292275428772,-0.7685390114784241,-0.1259056329727173,-24.81628799438477,-21.33119010925293,16.31368255615234,2,10.3.35.51,10.83.46.32,1,0
2015-02-27 17:07:35.941,77,1425085650.725004,37.78705913492154,-122.3964673984165,14.88741,-1,-1,10,165,-9999,1425085655.925686,-26.34166717529297,-21.08476257324219,16.91907501220703,136.4816284179688,122.7083740234375,10,137300.148491375,-0.5844879150390625,-1.045257568359375,-0.3163299560546875,137300.1265605,-1.056907170214918,-0.4981884903734168,-0.1090710940247402,137300.1265605,2.916631195025857,-1.350142406134894,0.8695165965020065,-1.060531497001648,-0.4880570471286774,-0.07175061851739883,0.02986720390617847,-0.3002223670482635,-0.1903456449508667,XTrueNorthZVertical,0.6001394807728039,0.2631089420295181,0.6740192731597628,0.3410341709739529,-0.6295529007911682,-0.7640171647071838,-0.1412125825881958,-24.08794784545898,-22.20403861999512,16.24055099487305,2,10.3.35.51,10.83.46.32,1,0
2015-02-27 17:07:35.968,78,1425085650.725004,37.78705913492154,-122.3964673984165,14.88741,-1,-1,10,165,-9999,1425085655.925686,-26.34166717529297,-21.08476257324219,16.91907501220703,136.4816284179688,122.7083740234375,10,137300.19763725,-0.5377044677734375,-0.5924835205078125,-0.1124114990234375,137300.1783437083,-0.9632943947375423,-0.4180411899997001,-0.8745453503589787,137300.1783437083,2.815822517780711,-1.298894070187991,0.8781134044713284,-0.9669186472892761,-0.4079098701477051,-0.8372252583503723,-0.001846245373599231,0.1424602717161179,-0.02005258575081825,XTrueNorthZVertical,0.5950428923701684,0.2452974313399559,0.6696507712507855,0.3705684405097675,-0.6151428818702698,-0.7695354819297791,-0.171506255865097,-23.4946403503418,-23.29443168640137,15.56841087341309,2,10.3.35.51,10.83.46.32,1,0
2015-02-27 17:07:36.049,79,1425085650.725004,37.78705913492154,-122.3964673984165,14.88741,-1,-1,10,165,-9999,1425085656.031276,-23.44287109375,-25.57096862792969,14.18984222412109,146.3287963867188,132.5555419921875,10,137300.246557875,-0.7400970458984375,-0.359344482421875,0.2455596923828125,137300.2301282917,-0.0059993029876215,-0.1214215035799827,-0.996286433269771,137300.2301282917,2.754909349612672,-1.257611102849361,0.9146284242348806,-0.009623521938920021,-0.1112902760505676,-0.9589667320251465,0.1559854745864868,0.01976819895207882,0.2754400372505188,XTrueNorthZVertical,0.586516267991763,0.24903407998627,0.6622071789448345,0.3942871347903449,-0.5804086923599243,-0.7923359274864197,-0.1879613846540451,-22.35731887817383,-24.77444458007812,14.94594192504883,2,10.3.35.51,10.83.46.32,1,0
2015-02-27 17:07:36.068,80,1425085650.725004,37.78705913492154,-122.3964673984165,14.88741,-1,-1,10,165,-9999,1425085656.031276,-23.44287109375,-25.57096862792969,14.18984222412109,146.3287963867188,132.5555419921875,10,137300.2955849167,-2.143661499023438,-3.534088134765625,-0.0843658447265625,137300.2819115417,2.795704220687501,3.599799372833959,0.6686121580108575,137300.2301282917,2.754909349612672,-1.257611102849361,0.9146284242348806,-0.009623521938920021,-0.1112902760505676,-0.9589667320251465,0.1559854745864868,0.01976819895207882,0.2754400372505188,XTrueNorthZVertical,0.586516267991763,0.24903407998627,0.6622071789448345,0.3942871347903449,-0.5804086923599243,-0.7923359274864197,-0.1879613846540451,-22.35731887817383,-24.77444458007812,14.94594192504883,2,10.3.35.51,10.83.46.32,1,0
2015-02-27 17:07:36.147,81,1425085650.725004,37.78705913492154,-122.3964673984165,14.88741,-1,-1,10,165,-9999,1425085656.105998,-24.80701446533203,-25.80885314941406,11.86000823974609,139.3675994873047,125.5943450927734,10,137300.3446150417,-1.370437622070312,-1.133331298828125,0.023345947265625,137300.3336950833,-0.103451291492455,-1.462871723619436,0.9312813342220269,137300.3336950833,2.960231018628085,-1.198464540273525,0.8993147764658642,-0.1070754379034042,-1.452740669250488,0.968600332736969,1.371342420578003,-0.8571443557739258,-0.8925362229347229,XTrueNorthZVertical,0.5383601470789818,0.3114538291875782,0.7184286514765483,0.3114885795337118,-0.5795180797576904,-0.7829008102416992,-0.2263297289609909,-25.68309020996094,-22.96845436096191,12.24062728881836,2,10.3.35.51,10.83.46.32,1,0
2015-02-27 17:07:36.163,82,1425085650.725004,37.78705913492154,-122.3964673984165,14.88741,-1,-1,10,165,-9999,1425085656.105998,-24.80701446533203,-25.80885314941406,11.86000823974609,139.3675994873047,125.5943450927734,10,137300.3936315833,-0.7583465576171875,-0.4161224365234375,0.2246551513671875,137300.3854795,0.4983043378808353,0.3050696302424299,0.5247234285266393,137300.3336950833,2.960231018628085,-1.198464540273525,0.8993147764658642,-0.1070754379034042,-1.452740669250488,0.968600332736969,1.371342420578003,-0.8571443557739258,-0.8925362229347229,XTrueNorthZVertical,0.5383601470789818,0.3114538291875782,0.7184286514765483,0.3114885795337118,-0.5795180797576904,-0.7829008102416992,-0.2263297289609909,-25.68309020996094,-22.96845436096191,12.24062728881836,2,10.3.35.51,10.83.46.32,1,0
2015-02-27 17:07:36.245,83,1425085650.725004,37.78705913492154,-122.3964673984165,14.88741,-1,-1,10,165,-9999,1425085656.210164,-28.76303863525391,-22.1043701171875,10.32897186279297,126.4563369750977,112.6830825805664,10,137300.44265875,-0.9212188720703125,-0.8354339599609375,0.4673919677734375,137300.4372627084,0.595495336598841,0.469223417725497,0.4347802227152842,137300.3854795,3.017943139483981,-1.249557013030088,0.8689975144308435,0.4946802258491516,0.315200537443161,0.5620419979095459,-0.004818798042833805,0.2351481914520264,0.5522907972335815,XTrueNorthZVertical,0.5506497333801992,0.3080005086957707,0.7191081898391314,0.2912112071995152,-0.6125670671463013,-0.7636821269989014,-0.2038411200046539,-26.49300193786621,-21.72555351257324,12.77205467224121,2,10.3.35.51,10.83.46.32,1,0
2015-02-27 17:07:36.262,84,1425085650.725004,37.78705913492154,-122.3964673984165,14.88741,-1,-1,10,165,-9999,1425085656.210164,-28.76303863525391,-22.1043701171875,10.32897186279297,126.4563369750977,112.6830825805664,10,137300.4916734167,-0.9036102294921875,-0.5259857177734375,-0.1391448974609375,137300.4890462917,0.7265995612701338,0.6886708210252254,0.1207559796235719,137300.4372627084,3.048922947595769,-1.249060502388367,0.8535411346885867,0.5918712615966797,0.4793542325496674,0.4720984101295471,-0.2056791484355927,0.0009119734168052673,0.3929881155490875,XTrueNorthZVertical,0.5472537861008218,0.3107839860395798,0.7264725772298503,0.275978622856073,-0.6235902905464172,-0.753612756729126,-0.2078532129526138,-27.41698837280273,-20.62340545654297,12.64863395690918,2,10.3.35.51,10.83.46.32,1,0
2015-02-27 17:07:36.344,85,1425085650.725004,37.78705913492154,-122.3964673984165,14.88741,-1,-1,10,165,-9999,1425085656.313515,-30.07603454589844,-20.49000549316406,10.54531860351562,121.626350402832,107.8530960083008,10,137300.5407050417,-0.610076904296875,-0.659210205078125,0.0383758544921875,137300.5408305833,-0.08999540376872067,-0.3184650642094194,0.2687443792898581,137300.4890462917,3.101742881904178,-1.262555098212206,0.8531151219987985,0.7229755520820618,0.6988015174865723,0.1580738425254822,-0.2140388339757919,0.2823396325111389,0.08768516778945923,XTrueNorthZVertical,0.5438418868176569,0.3232299295648932,0.7299279138043074,0.2587733632857632,-0.6266441345214844,-0.7533326745033264,-0.1995168328285217,-27.98534393310547,-19.89983558654785,12.56268882751465,2,10.3.35.51,10.83.46.32,1,0
2015-02-27 17:07:36.360,86,1425085650.725004,37.78705913492154,-122.3964673984165,14.88741,-1,-1,10,165,-9999,1425085656.313515,-30.07603454589844,-20.49000549316406,10.54531860351562,121.626350402832,107.8530960083008,10,137300.589724375,-0.5428009033203125,-0.8653717041015625,-0.2481689453125,137300.5408305833,-0.08999540376872067,-0.3184650642094194,0.2687443792898581,137300.5408305833,3.110775959006126,-1.246577819977879,0.8434499990974573,-0.09361940622329712,-0.3083344399929047,0.3060618340969086,0.02017215639352798,0.08773122727870941,0.2501885592937469,XTrueNorthZVertical,0.5376244429359319,0.3241197466262972,0.73705293740943,0.2503184247747519,-0.6302490830421448,-0.7469414472579956,-0.2118126899003983,-28.53433227539062,-19.40935325622559,12.0860595703125,2,10.3.35.51,10.83.46.32,1,0
2015-02-27 17:07:36.442,87,1425085650.725004,37.78705913492154,-122.3964673984165,14.88741,-1,-1,10,165,-9999,1425085656.417218,-30.7239990234375,-19.8782958984375,10.34562683105469,119.5673675537109,105.7941131591797,10,137300.6387440417,-0.7320098876953125,-0.7868499755859375,-0.0370635986328125,137300.6443973334,-0.09945095721904701,-0.3935960343538628,0.1177564612878157,137300.5926139583,3.132810332064704,-1.270850319057451,0.8339963670508831,0.2354557365179062,0.3032795786857605,0.3022629916667938,0.09912078082561493,-0.1247491836547852,-0.04963727295398712,XTrueNorthZVertical,0.5440864865317891,0.3235800658326908,0.7347908571755883,0.2436149225749886,-0.6419216990470886,-0.7406225204467773,-0.1985316723585129,-28.74023818969727,-18.90057945251465,12.40044021606445,2,10.3.35.51,10.83.46.32,1,0
2015-02-27 17:07:36.458,88,1425085650.725004,37.78705913492154,-122.3964673984165,14.88741,-1,-1,10,165,-9999,1425085656.417218,-30.7239990234375,-19.8782958984375,10.34562683105469,119.5673675537109,105.7941131591797,10,137300.687757375,-0.7662506103515625,-0.7929229736328125,0.010986328125,137300.6443973334,-0.09945095721904701,-0.3935960343538628,0.1177564612878157,137300.6443973334,3.138748881062686,-1.295879140269807,0.8265253065856344,-0.103074885904789,-0.383465588092804,0.1550732105970383,-0.08001340925693512,-0.05126804113388062,0.1468380093574524,XTrueNorthZVertical,0.5531904169116886,0.3194206568722525,0.7298608591827791,0.2434213034107636,-0.6519964933395386,-0.7355819344520569,-0.1839016079902649,-28.86963653564453,-18.52754974365234,12.6600923538208,2,10.3.35.51,10.83.46.32,1,0
2015-02-27 17:07:36.543,89,1425085650.725004,37.78705913492154,-122.3964673984165,14.88741,-1,-1,10,165,-9999,1425085656.522481,-30.67282867431641,-18.97767639160156,11.16106414794922,118.1689453125,104.3956909179688,10,137300.7367874167,-0.6940155029296875,-0.6215667724609375,-0.19024658203125,137300.696182,0.3381266499052564,-0.2591775057059664,0.03773912317529487,137300.696182,-3.133747729305591,-1.315365518879504,0.8250965325008424,0.3345027565956116,-0.2490471750497818,0.07505549490451813,-0.1097783520817757,-0.05830969288945198,0.1824141442775726,XTrueNorthZVertical,0.5587501505922371,0.3195064299299948,0.7259689079548881,0.2422458529060452,-0.6564722657203674,-0.734613299369812,-0.1714278161525726,-30.85438346862793,-19.62858963012695,10.41722297668457,2,10.3.35.51,10.83.46.32,1,0
2015-02-27 17:07:36.557,90,1425085650.725004,37.78705913492154,-122.3964673984165,14.88741,-1,-1,10,165,-9999,1425085656.522481,-30.67282867431641,-18.97767639160156,11.16106414794922,118.1689453125,104.3956909179688,10,137300.7859027917,-0.7042694091796875,-0.7191925048828125,0.0944061279296875,137300.74796525,0.1214894141877797,0.001257278350626408,-0.1482581778847112,137300.74796525,-3.108890570679987,-1.33637864502043,0.8309842030407609,0.118041530251503,0.01143133267760277,-0.1108745113015175,-0.01807132922112942,0.1399166435003281,0.004870956763625145,XTrueNorthZVertical,0.5615955767159641,0.3260611292464247,0.7221528669608636,0.2383060701464895,-0.6557109951972961,-0.7385952472686768,-0.1565890908241272,-30.76014518737793,-19.38290214538574,11.13146114349365,2,10.3.35.51,10.83.46.32,1,0
2015-02-27 17:07:36.648,91,1425085650.725004,37.78705913492154,-122.3964673984165,14.88741,-1,-1,10,165,-9999,1425085656.624449,-30.38294982910156,-19.60641479492188,11.90993499755859,118.982177734375,105.2089233398438,10,137300.8348202083,-0.622802734375,-0.8083343505859375,-0.092742919921875,137300.7997485833,0.1787937166274507,-0.1259928195911037,-0.1011133023714745,137300.7997485833,-3.111434299475637,-1.340447644329436,0.8320625844568343,0.1753458678722382,-0.1158188655972481,-0.06373000890016556,-0.1760676056146622,0.02942188642919064,0.2540948390960693,XTrueNorthZVertical,0.563336180759262,0.3252436903162211,0.7205382631940181,0.2401947100817402,-0.655566930770874,-0.739321768283844,-0.1537377834320068,-30.68517303466797,-19.4608211517334,11.20220756530762,2,10.3.35.51,10.83.46.32,1,0
2015-02-27 17:07:36.654,92,1425085650.725004,37.78705913492154,-122.3964673984165,14.88741,-1,-1,10,165,-9999,1425085656.624449,-30.38294982910156,-19.60641479492188,11.90993499755859,118.982177734375,105.2089233398438,10,137300.8839446667,-0.8592071533203125,-0.52960205078125,-0.033294677734375,137300.851533125,0.01308970307384846,0.2405907718260854,-0.283766205734559,137300.851533125,-3.103333518893795,-1.331235694563214,0.8453665476603028,0.009641887620091438,0.2507646381855011,-0.2463832497596741,0.1165409162640572,-0.007065190002322197,0.005765221547335386,XTrueNorthZVertical,0.5569212879324468,0.3333579399371649,0.7220280160900335,0.2395552233420393,-0.6445102691650391,-0.7482143640518188,-0.1574223190546036,-30.60384559631348,-19.54673385620117,11.27487945556641,2,10.3.35.51,10.83.46.32,1,0
2015-02-27 17:07:36.714,93,1425085650.725004,37.78705913492154,-122.3964673984165,14.88741,-1,-1,10,165,-9999,1425085656.677289,-30.775146484375,-19.86129760742188,11.72687530517578,118.3810501098633,104.607795715332,10,137300.93286725,-0.6421051025390625,-0.7937469482421875,-0.05010986328125,137300.9033166667,-0.2745375536091074,0.09202579778379709,-0.1559552460672582,137300.9033166667,-3.121959286906482,-1.324447425984939,0.8480349043952371,-0.2779853343963623,0.1021995544433594,-0.1185726597905159,-0.2903659641742706,0.1675998270511627,0.1937770247459412,XTrueNorthZVertical,0.5572089993822623,0.3299469199595947,0.721237472683854,0.2459058094760093,-0.6414883136749268,-0.7499819993972778,-0.1613063216209412,-30.42160415649414,-19.93053245544434,11.09471035003662,2,10.3.35.51,10.83.46.32,1,0
2015-02-27 17:07:36.753,94,1425085650.725004,37.78705913492154,-122.3964673984165,14.88741,-1,-1,10,165,-9999,1425085656.728399,-30.58758544921875,-20.35409545898438,11.14441680908203,118.7626724243164,104.9894180297852,10,137300.982016625,-0.6043853759765625,-0.713470458984375,-0.2318878173828125,137300.955099875,-0.06619340152613748,0.152621767330806,-0.2716173974738356,137300.955099875,-3.13092595702701,-1.301756336842444,0.8598131152019145,-0.06964114308357239,0.1627954095602036,-0.2342352122068405,0.138152003288269,-0.01892122626304626,-0.02060178853571415,XTrueNorthZVertical,0.5489763272140482,0.3345074688848945,0.7244970466563904,0.2486639759310014,-0.6291035413742065,-0.7577205896377563,-0.1734594851732254,-30.34531402587891,-20.28302001953125,10.65617179870605,2,10.3.35.51,10.83.46.32,1,0
2015-02-27 17:07:36.814,95,1425085650.725004,37.78705913492154,-122.3964673984165,14.88741,-1,-1,10,165,-9999,1425085656.781434,-30.43412017822266,-20.88087463378906,10.92807006835938,119.3757095336914,105.6024551391602,10,137301.030920625,-0.5361328125,-0.8184356689453125,-0.0134429931640625,137301.0068845417,-0.4671197867804434,0.05152977024805219,-0.1729355611776034,137301.0068845417,3.134627849756642,-1.300616845103675,0.8588099839986714,-0.4705171287059784,0.06167507171630859,-0.1355368345975876,-0.1533213108778,0.1274727135896683,0.1087357103824615,XTrueNorthZVertical,0.5516175161438066,0.3294368003497473,0.7227583384475674,0.2545778717485465,-0.6296376585960388,-0.7570655941963196,-0.1743790209293365,-30.15248870849609,-20.68826484680176,10.42190361022949,2,10.3.35.51,10.83.46.32,1,0
2015-02-27 17:07:36.850,96,1425085650.725004,37.78705913492154,-122.3964673984165,14.88741,-1,-1,10,165,-9999,1425085656.831973,-29.93962097167969,-21.44166564941406,10.41217803955078,121.0210571289062,107.247802734375,10,137301.079932375,-0.64398193359375,-0.7907257080078125,-0.15283203125,137301.05866775,-0.09125507896432815,0.2151621107896818,-0.461525284278514,137301.05866775,3.123323924049558,-1.295103406925201,0.8748976158819903,-0.09459307044744492,0.2252738922834396,-0.4241735935211182,-0.07550117373466492,0.00571334408596158,0.06646206974983215,XTrueNorthZVertical,0.549495496780628,0.3328662238975663,0.7200964716391818,0.2621370741799743,-0.616866409778595,-0.7674778699874878,-0.1745095551013947,-29.8288459777832,-20.98087310791016,10.76270389556885,2,10.3.35.51,10.83.46.32,1,0
2015-02-27 17:07:36.915,97,1425085650.725004,37.78705913492154,-122.3964673984165,14.88741,-1,-1,10,165,-9999,1425085656.883503,-29.76910400390625,-22.3253173828125,9.846366882324219,121.8023529052734,108.0290985107422,10,137301.1289643333,-0.693756103515625,-0.7481689453125,-0.2713470458984375,137301.1104512917,-0.08494658297414845,-0.180180158290946,-0.1335218423088667,137301.1104512917,3.117906436968387,-1.289017102112372,0.8817022083331265,-0.08823732286691666,-0.1700933873653412,-0.0961601734161377,0.05152759328484535,0.1214164420962334,0.04725733771920204,XTrueNorthZVertical,0.547363505886565,0.3346505097260928,0.7198771727231547,0.2649133501290581,-0.6107622385025024,-0.7718223333358765,-0.1768044531345367,-29.66117668151855,-21.30879592895508,10.58028984069824,2,10.3.35.51,10.83.46.32,1,0
2015-02-27 17:07:36.949,98,1425085650.725004,37.78705913492154,-122.3964673984165,14.88741,-1,-1,10,165,-9999,1425085656.934322,-29.4110107421875,-22.88607788085938,9.130775451660156,122.4411773681641,108.6679229736328,10,137301.1779897083,-0.54681396484375,-0.6733551025390625,-0.04974365234375,137301.1622356667,-0.5298974178924453,0.2540695627351944,-0.3834350095307745,137301.1104512917,3.117906436968387,-1.289017102112372,0.8817022083331265,-0.08823732286691666,-0.1700933873653412,-0.0961601734161377,0.05152759328484535,0.1214164420962334,0.04725733771920204,XTrueNorthZVertical,0.547363505886565,0.3346505097260928,0.7198771727231547,0.2649133501290581,-0.6107622385025024,-0.7718223333358765,-0.1768044531345367,-29.66117668151855,-21.30879592895508,10.58028984069824,2,10.3.35.51,10.83.46.32,1,0
2015-02-27 17:07:37.012,99,1425085650.725004,37.78705913492154,-122.3964673984165,14.88741,-1,-1,10,165,-9999,1425085656.988026,-28.98471832275391,-23.68475341796875,9.313835144042969,125.0694351196289,111.2961807250977,10,137301.2270073333,-0.7599639892578125,-0.8228607177734375,-0.2887115478515625,137301.2140192083,-0.0564337150793241,-0.02398416246114461,-0.1411858872938968,137301.2140192083,3.060964698670707,-1.244478450289055,0.8841668891652795,-0.05972618982195854,-0.01389317307621241,-0.1037790104746819,-0.2155440151691437,0.1273757666349411,0.2184862941503525,XTrueNorthZVertical,0.5404045644034688,0.3261238801355781,0.72380950632539,0.2787578128968879,-0.6004807353019714,-0.7733871340751648,-0.20321224629879,-29.35515213012695,-22.09558486938477,9.790456771850586,2,10.3.35.51,10.83.46.32,1,0
2015-02-27 17:07:37.052,100,1425085650.725004,37.78705913492154,-122.3964673984165,14.88741,-1,-1,10,165,-9999,1425085656.988026,-28.98471832275391,-23.68475341796875,9.313835144042969,125.0694351196289,111.2961807250977,10,137301.2760188333,-0.3888092041015625,-0.82489013671875,-0.2711029052734375,137301.2658024167,-0.3958274970312402,-0.3701690051927628,-0.2908547416080229,137301.2140192083,3.060964698670707,-1.244478450289055,0.8841668891652795,-0.05972618982195854,-0.01389317307621241,-0.1037790104746819,-0.2155440151691437,0.1273757666349411,0.2184862941503525,XTrueNorthZVertical,0.5404045644034688,0.3261238801355781,0.72380950632539,0.2787578128968879,-0.6004807353019714,-0.7733871340751648,-0.20321224629879,-29.35515213012695,-22.09558486938477,9.790456771850586,2,10.3.35.51,10.83.46.32,1,0
2015-02-27 17:07:37.114,101,1425085650.725004,37.78705913492154,-122.3964673984165,14.88741,-1,-1,10,165,-9999,1425085657.091014,-28.18328857421875,-24.65338134765625,8.964363098144531,128.3447723388672,114.5715255737305,10,137301.3250386667,-0.900543212890625,-0.621826171875,0.0444488525390625,137301.3175870417,-0.18280177406802,-0.2500311452581983,-0.1854039487691364,137301.2658024167,3.043863675998055,-1.223653986075805,0.8926310266673592,-0.3991199433803558,-0.3600781261920929,-0.2534482479095459,0.3014290332794189,-0.1662975251674652,-0.3211849629878998,XTrueNorthZVertical,0.534742079360494,0.3276160814862244,0.7254218019471422,0.2836931777350953,-0.5899422168731689,-0.7787250280380249,-0.2134372293949127,-29.25192832946777,-22.34895324707031,9.520602226257324,2,10.3.35.51,10.83.46.32,1,0
2015-02-27 17:07:37.150,102,1425085650.725004,37.78705913492154,-122.3964673984165,14.88741,-1,-1,10,165,-9999,1425085657.091014,-28.18328857421875,-24.65338134765625,8.964363098144531,128.3447723388672,114.5715255737305,10,137301.3740501667,-0.2535858154296875,-0.826568603515625,-0.3992156982421875,137301.3693703334,-0.1554279401714225,0.1020845572210264,-0.0891461216970944,137301.3175870417,3.007308805567046,-1.219691484544364,0.8928552660488527,-0.1860941797494888,-0.2399403601884842,-0.1479978561401367,-0.2417300790548325,0.1757010370492935,0.2853542268276215,XTrueNorthZVertical,0.5391905239097591,0.3184603844249336,0.7211419983312364,0.2963288356564757,-0.5889278650283813,-0.7788656949996948,-0.2157131284475327,-28.87581253051758,-22.81576156616211,9.561454772949219,2,10.3.35.51,10.83.46.32,1,0
2015-02-27 17:07:37.244,103,1425085650.725004,37.78705913492154,-122.3964673984165,14.88741,-1,-1,10,165,-9999,1425085657.19428,-28.01275634765625,-25.26513671875,8.83123779296875,130.2528381347656,116.4795913696289,10,137301.4230694583,-0.64471435546875,-0.933502197265625,-0.225341796875,137301.4211538333,-0.1102748428374561,-0.2415484445540779,0.008741826278185099,137301.4211538333,2.984589724650975,-1.20727226902557,0.8937929883940736,-0.1135671883821487,-0.2314578592777252,0.04614719748497009,-0.02261838689446449,-0.07719017565250397,-0.09907259047031403,XTrueNorthZVertical,0.538218659982905,0.314555890410226,0.7209008868096711,0.3027823894685974,-0.5855206251144409,-0.7794535160064697,-0.2227505296468735,-28.53810501098633,-23.30391120910645,9.39665699005127,2,10.3.35.51,10.83.46.32,1,0
2015-02-27 17:07:37.248,104,1425085650.725004,37.78705913492154,-122.3964673984165,14.88741,-1,-1,10,165,-9999,1425085657.19428,-28.01275634765625,-25.26513671875,8.83123779296875,130.2528381347656,116.4795913696289,10,137301.4720871667,-0.3912200927734375,-0.8543243408203125,-0.1596527099609375,137301.4211538333,-0.1102748428374561,-0.2415484445540779,0.008741826278185099,137301.4211538333,2.984589724650975,-1.20727226902557,0.8937929883940736,-0.1135671883821487,-0.2314578592777252,0.04614719748497009,-0.02261838689446449,-0.07719017565250397,-0.09907259047031403,XTrueNorthZVertical,0.538218659982905,0.314555890410226,0.7209008868096711,0.3027823894685974,-0.5855206251144409,-0.7794535160064697,-0.2227505296468735,-28.53810501098633,-23.30391120910645,9.39665699005127,2,10.3.35.51,10.83.46.32,1,0
2015-02-27 17:07:37.324,105,1425085657.298971,37.7875415446135,-122.3965803556573,13.34873,-1,-1,10,65,-9999,1425085657.297255,-27.68877410888672,-25.35011291503906,8.748039245605469,131.1548309326172,117.3815765380859,10,137301.521116625,-0.774261474609375,-0.7393646240234375,-0.039154052734375,137301.524721625,-0.01944134227368745,-0.2390277625823179,-0.0477523425578838,137301.4729382083,2.964045439143616,-1.204248458646045,0.8925867458924392,-0.2721467018127441,-0.4165210425853729,-0.04430720955133438,0.1945016533136368,-0.07562706619501114,0.06520410627126694,XTrueNorthZVertical,0.5404427901204424,0.3090197115306402,0.7188115870399047,0.3094160773947794,-0.5857217311859131,-0.7786972522735596,-0.224856823682785,-28.44327926635742,-23.37640380859375,9.503499984741211,2,10.3.35.51,10.83.46.32,1,0
2015-02-27 17:07:37.355,106,1425085657.298971,37.7875415446135,-122.3965803556573,13.34873,-1,-1,10,65,-9999,1425085657.297255,-27.68877410888672,-25.35011291503906,8.748039245605469,131.1548309326172,117.3815765380859,10,137301.5701225833,-0.50482177734375,-0.9572906494140625,-0.2560577392578125,137301.524721625,-0.01944134227368745,-0.2390277625823179,-0.0477523425578838,137301.524721625,2.953351726999581,-1.214294409254522,0.8880899767767614,-0.02273361757397652,-0.2289373874664307,-0.01034775655716658,-0.1830349266529083,0.03650351613759995,0.1810272336006165,XTrueNorthZVertical,0.5460759972137806,0.3028371927777272,0.7153154212410241,0.3137108321258673,-0.5912265777587891,-0.7758681178092957,-0.2201812863349915,-28.21310234069824,-23.53133201599121,9.802555084228516,2,10.3.35.51,10.83.46.32,1,0
2015-02-27 17:07:37.400,107,1425085657.298971,37.7875415446135,-122.3965803556573,13.34873,-1,-1,10,65,-9999,1425085657.347995,-27.63762664794922,-25.84294128417969,8.431846618652344,131.7830505371094,118.0098037719727,10,137301.619269125,-0.623260498046875,-0.6804351806640625,-0.0986328125,137301.5765049583,-0.1040270669201302,-0.2764289306152817,-0.1677543812768543,137301.5765049583,2.944369485129544,-1.214799272414395,0.898694679668834,-0.1073223054409027,-0.2663373053073883,-0.1303978115320206,0.07877079397439957,-0.1747758090496063,-0.03905489668250084,XTrueNorthZVertical,0.5466964064013613,0.3043380009926916,0.7116206695192446,0.3195269021748239,-0.5835925936698914,-0.7825148701667786,-0.2170028388500214,-27.91609573364258,-23.8044490814209,9.991634368896484,2,10.3.35.51,10.83.46.32,1,0
2015-02-27 17:07:37.448,108,1425085657.298971,37.7875415446135,-122.3965803556573,13.34873,-1,-1,10,65,-9999,1425085657.401657,-27.29658508300781,-26.42070007324219,8.298713684082031,132.3391571044922,118.5659103393555,10,137301.668159125,-0.653167724609375,-0.940185546875,-0.26422119140625,137301.6282895,-0.3416345656931088,-0.3729333664042651,-0.06458831433714672,137301.6282895,2.923953195938389,-1.219874673713404,0.9000639125738443,-0.3449080586433411,-0.3628552854061127,-0.02722956798970699,-0.03958076983690262,0.1029314547777176,0.1150367558002472,XTrueNorthZVertical,0.5514557599497382,0.2984321713276031,0.7066435836651626,0.3278561082558218,-0.583679735660553,-0.7833666205406189,-0.2136695683002472,-27.64081954956055,-23.97648239135742,10.3395471572876,2,10.3.35.51,10.83.46.32,1,0
2015-02-27 17:07:37.498,109,1425085657.298971,37.7875415446135,-122.3965803556573,13.34873,-1,-1,10,65,-9999,1425085657.453194,-26.75092315673828,-26.38671875,8.465133666992188,133.8856964111328,120.1124420166016,10,137301.7173856667,-0.464813232421875,-0.7616729736328125,-0.3375244140625,137301.680072875,0.1609332267768343,0.1695040781130363,-0.2357550039187195,137301.680072875,2.92287611818737,-1.228538564455971,0.9019818874235545,0.1576597839593887,0.1795820444822311,-0.1983966529369354,0.06218097731471062,-0.2490730434656143,-0.07206659018993378,XTrueNorthZVertical,0.5545093528114238,0.2974379917308068,0.703677223029091,0.3299823974558574,-0.5840926170349121,-0.7845573425292969,-0.2081000357866287,-27.36868095397949,-24.1622371673584,10.62705993652344,2,10.3.35.51,10.83.46.32,1,0
2015-02-27 17:07:37.545,110,1425085657.298971,37.7875415446135,-122.3965803556573,13.34873,-1,-1,10,65,-9999,1425085657.505123,-26.06884765625,-27.13441467285156,9.064231872558594,136.8374633789062,123.0642166137695,10,137301.7661918333,-0.70843505859375,-0.7280426025390625,0.00030517578125,137301.73185625,-0.2856250921754343,-0.4945072027986003,-0.07018228420685817,137301.73185625,2.889900097670434,-1.199509156722368,0.9246502888538138,-0.2889571487903595,-0.4843932390213013,-0.03294253349304199,0.01273137051612139,0.1072328761219978,-0.02374670840799809,XTrueNorthZVertical,0.5474013830157142,0.3018670245464951,0.7013722478856156,0.3424981655142928,-0.5610864758491516,-0.7984102368354797,-0.218456044793129,-26.79464721679688,-24.98135566711426,10.18683052062988,2,10.3.35.51,10.83.46.32,1,0
2015-02-27 17:07:37.596,111,1425085657.298971,37.7875415446135,-122.3965803556573,13.34873,-1,-1,10,65,-9999,1425085657.558167,-25.83011627197266,-27.37232971191406,9.397064208984375,137.8922882080078,124.1190338134766,10,137301.8152355833,-0.5276641845703125,-0.7661590576171875,-0.2043914794921875,137301.783641,0.1211200337445857,0.06912554188631473,-0.0704624487535345,137301.783641,2.898033764226412,-1.219941132713896,0.9191069243893946,0.1178000196814537,0.07932320982217789,-0.03315417841076851,-0.143585205078125,0.03045759908854961,0.1974482983350754,XTrueNorthZVertical,0.5537737732903329,0.2984996470975871,0.6983188522807375,0.3414430367844167,-0.569580078125,-0.7950602769851685,-0.2084651440382004,-26.69109725952148,-24.88513565063477,10.68214321136475,2,10.3.35.51,10.83.46.32,1,0
2015-02-27 17:07:37.647,112,1425085657.298971,37.7875415446135,-122.3965803556573,13.34873,-1,-1,10,65,-9999,1425085657.609028,-25.47202301025391,-27.21937561035156,9.313865661621094,138.4800720214844,124.7068176269531,10,137301.864245375,-0.555328369140625,-0.89019775390625,-0.207489013671875,137301.8354243333,-0.01996385447956099,-0.1457766443809753,0.03429565588582242,137301.8354243333,2.906655769262601,-1.229030208548041,0.9190502858366808,-0.0232713408768177,-0.1355862021446228,0.07159974426031113,0.01857622712850571,-0.0300168190151453,0.02874944545328617,XTrueNorthZVertical,0.5556610405850053,0.299321635236606,0.6972782354129601,0.339779968796735,-0.5714936852455139,-0.7950258851051331,-0.2032947391271591,-26.73223876953125,-24.77133941650391,10.84255218505859,2,10.3.35.51,10.83.46.32,1,0
2015-02-27 17:07:37.694,113,1425085657.298971,37.7875415446135,-122.3965803556573,13.34873,-1,-1,10,65,-9999,1425085657.660878,-25.65959930419922,-27.1343994140625,9.297225952148438,138.0551910400391,124.2819366455078,10,137301.9132745,-0.515594482421875,-0.9450836181640625,-0.33428955078125,137301.8872077917,0.1049562438244588,-0.08865689900484684,0.03262958230786885,137301.8872077917,2.914451723851577,-1.236969500925907,0.922678873989825,0.101650632917881,-0.07846719026565552,0.06990912556648254,0.1458608508110046,-0.1082348674535751,-0.07583129405975342,XTrueNorthZVertical,0.5569445578585408,0.3015136402458935,0.6956313747552679,0.3391154269483603,-0.5703603625297546,-0.7972216606140137,-0.1978045701980591,-26.6165828704834,-24.81708526611328,11.02101039886475,2,10.3.35.51,10.83.46.32,1,0
2015-02-27 17:07:37.742,114,1425085657.298971,37.7875415446135,-122.3965803556573,13.34873,-1,-1,10,65,-9999,1425085657.712541,-25.94948577880859,-27.2193603515625,8.947746276855469,137.2396850585938,123.4664306640625,10,137301.9622857083,-0.53131103515625,-0.6845245361328125,-0.11376953125,137301.9389920833,-0.08355588025290908,0.00153158394290457,-0.05248691034382667,137301.9389920833,2.902906358308317,-1.224264834197235,0.9294631461557289,-0.0868975892663002,0.01174232736229897,-0.01525502931326628,0.0339689664542675,-0.03523371741175652,-0.08707495033740997,XTrueNorthZVertical,0.5536894911286935,0.3030370470845229,0.6957582169922294,0.342807521966167,-0.5627012848854065,-0.8012988567352295,-0.2031929939985275,-26.47809410095215,-24.9995059967041,10.9420337677002,2,10.3.35.51,10.83.46.32,1,0
2015-02-27 17:07:37.792,115,1425085657.298971,37.7875415446135,-122.3965803556573,13.34873,-1,-1,10,65,-9999,1425085657.764246,-26.13705444335938,-27.20236206054688,9.164085388183594,136.9752044677734,123.2019577026367,10,137302.0113126667,-0.5596160888671875,-0.8357391357421875,-0.2644500732421875,137301.9907754583,0.1752261460311806,0.2776766215859838,0.1260050701321181,137301.9907754583,2.914132993097271,-1.229472905978971,0.9235101962652751,0.1718983054161072,0.2878792285919189,0.1632507145404816,-0.03326468914747238,0.06611010432243347,0.1252384334802628,XTrueNorthZVertical,0.5543098973035155,0.3030084644990897,0.6974856038440715,0.3382901694468657,-0.568236768245697,-0.7977232336997986,-0.2018528133630753,-26.60395050048828,-24.86418151855469,10.94509506225586,2,10.3.35.51,10.83.46.32,1,0
2015-02-27 17:07:37.847,116,1425085657.298971,37.7875415446135,-122.3965803556573,13.34873,-1,-1,10,65,-9999,1425085657.81567,-26.35872650146484,-27.01544189453125,9.080886840820312,136.623779296875,122.8505249023438,10,137302.0603245833,-0.607635498046875,-0.78594970703125,-0.1383819580078125,137302.0425589167,-0.05494447539775179,0.1586857851329165,0.1122972473692622,137302.0425589167,2.922158924762566,-1.219642143205597,0.9178431714557839,-0.05828486382961273,0.1688954681158066,0.1495350748300552,0.001887717749923468,-0.0486939400434494,-0.03178755193948746,XTrueNorthZVertical,0.5501364943730888,0.304728400560708,0.7027326087164625,0.3326519475638233,-0.5704607367515564,-0.7942931056022644,-0.2089808732271194,-26.92528915405273,-24.6368522644043,10.66991519927979,2,10.3.35.51,10.83.46.32,1,0
2015-02-27 17:07:37.890,117,1425085657.298971,37.7875415446135,-122.3965803556573,13.34873,-1,-1,10,65,-9999,1425085657.86962,-26.73386383056641,-26.47164916992188,9.047599792480469,135.3653869628906,121.5921325683594,10,137302.10946525,-0.582275390625,-0.760406494140625,-0.166839599609375,137302.0943435833,0.1854140687812787,0.2140795358065646,0.07988710953521591,137302.0943435833,2.940546300686483,-1.231874001209333,0.9103356727719991,0.1821225881576538,0.2242607176303864,0.117149256169796,-0.06712424010038376,0.01985802873969078,0.1408388763666153,XTrueNorthZVertical,0.5522940907205514,0.3049409657444365,0.7039412410605849,0.3262651866518122,-0.5785819292068481,-0.7897096872329712,-0.2039644867181778,-27.18269538879395,-24.44425392150879,10.45812129974365,2,10.3.35.51,10.83.46.32,1,0
2015-02-27 17:07:37.946,118,1425085657.298971,37.7875415446135,-122.3965803556573,13.34873,-1,-1,10,65,-9999,1425085657.86962,-26.73386383056641,-26.47164916992188,9.047599792480469,135.3653869628906,121.5921325683594,10,137302.1583645833,-0.611480712890625,-0.8279571533203125,-0.1937255859375,137302.1461267917,0.2332281966764523,0.4291694749307053,0.09271955124776272,137302.0943435833,2.940546300686483,-1.231874001209333,0.9103356727719991,0.1821225881576538,0.2242607176303864,0.117149256169796,-0.06712424010038376,0.01985802873969078,0.1408388763666153,XTrueNorthZVertical,0.5522940907205514,0.3049409657444365,0.7039412410605849,0.3262651866518122,-0.5785819292068481,-0.7897096872329712,-0.2039644867181778,-27.18269538879395,-24.44425392150879,10.45812129974365,2,10.3.35.51,10.83.46.32,1,0
2015-02-27 17:07:37.988,119,1425085657.298971,37.7875415446135,-122.3965803556573,13.34873,-1,-1,10,65,-9999,1425085657.945284,-27.17720794677734,-25.68995666503906,8.315361022949219,132.5112609863281,118.7380065917969,10,137302.2074923333,-0.6406097412109375,-0.697235107421875,-0.1060791015625,137302.1979102083,-0.01099059950264801,-0.01388385771091009,-0.03632631621700783,137302.1979102083,2.969543599565359,-1.224782960055409,0.9093542172096024,-0.01427671313285828,-0.003705308772623539,0.0009198298212140799,-0.01281779538840055,0.02763262018561363,0.06310694664716721,XTrueNorthZVertical,0.5453916756234803,0.3136646311290425,0.7107328816880041,0.3146763231442878,-0.5778499245643616,-0.7891072034835815,-0.2083248347043991,-27.79582214355469,-23.8218879699707,10.2811861038208,2,10.3.35.51,10.83.46.32,1,0
2015-02-27 17:07:38.049,120,1425085657.298971,37.7875415446135,-122.3965803556573,13.34873,-1,-1,10,65,-9999,1425085657.997773,-27.45003509521484,-25.55401611328125,8.21551513671875,131.6424102783203,117.8691558837891,10,137302.2563930833,-0.6382293701171875,-0.7860565185546875,-0.1567840576171875,137302.2496947917,0.1150855770305752,0.4583888794627277,-0.006885869314508878,137302.1979102083,2.969543599565359,-1.224782960055409,0.9093542172096024,-0.01427671313285828,-0.003705308772623539,0.0009198298212140799,-0.01281779538840055,0.02763262018561363,0.06310694664716721,XTrueNorthZVertical,0.5453916756234803,0.3136646311290425,0.7107328816880041,0.3146763231442878,-0.5778499245643616,-0.7891072034835815,-0.2083248347043991,-27.79582214355469,-23.8218879699707,10.2811861038208,2,10.3.35.51,10.83.46.32,1,0
2015-02-27 17:07:38.086,121,1425085657.298971,37.7875415446135,-122.3965803556573,13.34873,-1,-1,10,65,-9999,1425085658.048362,-27.75696563720703,-25.55401611328125,7.516563415527344,130.2165069580078,116.4432525634766,10,137302.3055267917,-0.5281219482421875,-0.7463836669921875,-0.21929931640625,137302.301478375,0.08348796964511206,0.2041203785941043,-0.002857039217437007,137302.2496947917,2.989467980106348,-1.235301495432973,0.9000420034407089,0.1118338257074356,0.4685459434986115,0.03042610920965672,-0.09180360287427902,0.06953160464763641,0.03187055885791779,XTrueNorthZVertical,0.5469023197229367,0.3139664612938087,0.7128093655128948,0.3069620830367598,-0.5869225859642029,-0.7833530306816101,-0.2046458274126053,-27.9384651184082,-23.59796905517578,10.41013717651367,2,10.3.35.51,10.83.46.32,1,0
2015-02-27 17:07:38.150,122,1425085657.298971,37.7875415446135,-122.3965803556573,13.34873,-1,-1,10,65,-9999,1425085658.100398,-27.77402496337891,-25.77494812011719,7.699623107910156,131.0402526855469,117.2670059204102,10,137302.3544300417,-0.7194976806640625,-0.76953125,-0.1537628173828125,137302.353261625,0.09296775786135811,0.4629908218263846,0.02117133171780292,137302.301478375,2.994786830126658,-1.217490060724105,0.9053436162966957,0.0802389532327652,0.2142757922410965,0.03442579880356789,0.07589250802993774,-0.03640646860003471,-0.01159295160323381,XTrueNorthZVertical,0.5391726385552934,0.3201241609869267,0.7174119215918674,0.3035350395991403,-0.5792799592018127,-0.7866373658180237,-0.2136267721652985,-27.76014709472656,-25.64956665039062,7.171687602996826,2,10.3.35.51,10.83.46.32,1,0
2015-02-27 17:07:38.184,123,1425085657.298971,37.7875415446135,-122.3965803556573,13.34873,-1,-1,10,65,-9999,1425085658.151992,-27.91043853759766,-25.70697021484375,7.866043090820312,131.0646820068359,117.2914276123047,10,137302.40368325,-0.577850341796875,-0.7146759033203125,-0.07293701171875,137302.405046125,0.2528157464939851,0.2335823971014329,0.03523814859560145,137302.353261625,3.010920457137492,-1.216912240520731,0.8966479835748054,0.08972770720720291,0.4731399118900299,0.05850400030612946,-0.1574911028146744,0.0666240006685257,0.1163024455308914,XTrueNorthZVertical,0.5372348563175869,0.3212737241408093,0.7216882070872009,0.2955131692602319,-0.5855509042739868,-0.781238853931427,-0.2163238078355789,-28.08219909667969,-25.32994270324707,7.052881240844727,2,10.3.35.51,10.83.46.32,1,0
2015-02-27 17:07:38.248,124,1425085657.298971,37.7875415446135,-122.3965803556573,13.34873,-1,-1,10,65,-9999,1425085658.20376,-28.08096313476562,-24.9932861328125,7.866043090820312,129.8758392333984,116.1025924682617,10,137302.4524834583,-0.6615447998046875,-0.8179931640625,-0.1622314453125,137302.405046125,0.2528157464939851,0.2335823971014329,0.03523814859560145,137302.405046125,3.029939056255373,-1.219744417576183,0.8957986577797443,0.2496128082275391,0.2437051236629486,0.0725797638297081,0.008933710865676403,0.06603250652551651,0.1419556438922882,XTrueNorthZVertical,0.5352686092811584,0.3256396586221073,0.723871339007892,0.2888885794462312,-0.5867840647697449,-0.7807084321975708,-0.2148926556110382,-28.30011749267578,-25.19446182250977,6.655932903289795,2,10.3.35.51,10.83.46.32,1,0
2015-02-27 17:07:38.283,125,1425085657.298971,37.7875415446135,-122.3965803556573,13.34873,-1,-1,10,65,-9999,1425085658.256471,-28.79713439941406,-24.58546447753906,7.466644287109375,126.9145355224609,113.1412811279297,10,137302.5015704167,-0.5966796875,-0.7336883544921875,-0.1967620849609375,137302.508613125,0.4377421904796703,0.7254666525424142,0.0958812560939048,137302.4568295417,3.063484616931931,-1.20614564581016,0.8978781581100059,0.3873993754386902,1.003944516181946,0.04580339789390564,-0.07925518602132797,-0.03598697483539581,0.06004118546843529,XTrueNorthZVertical,0.5245400078157308,0.3372261324986918,0.7318080145395879,0.2749424371338882,-0.5822896361351013,-0.7820062041282654,-0.2222726345062256,-28.64919471740723,-24.84628486633301,6.468764305114746,2,10.3.35.51,10.83.46.32,1,0
2015-02-27 17:07:38.353,126,1425085657.298971,37.7875415446135,-122.3965803556573,13.34873,-1,-1,10,65,-9999,1425085658.309773,-29.20636749267578,-24.07568359375,6.434867858886719,123.8061981201172,110.0329437255859,10,137302.5505383333,-0.4488067626953125,-0.992584228515625,-0.296661376953125,137302.508613125,0.4377421904796703,0.7254666525424142,0.0958812560939048,137302.508613125,3.092707822852207,-1.191239614499143,0.9009940379952653,0.4345393180847168,0.7355892062187195,0.1332201659679413,-0.02003386802971363,0.05025607347488403,0.0332612432539463,XTrueNorthZVertical,0.5137074057788166,0.3479842475667245,0.7390191951784569,0.2624162570650922,-0.5766457915306091,-0.7839444279670715,-0.2300233244895935,-28.95845794677734,-24.66928863525391,5.726523876190186,2,10.3.35.51,10.83.46.32,1,0
2015-02-27 17:07:38.381,127,1425085657.298971,37.7875415446135,-122.3965803556573,13.34873,-1,-1,10,65,-9999,1425085658.360684,-29.90548706054688,-23.54887390136719,5.685989379882812,120.2285537719727,106.4552993774414,10,137302.5995742083,-0.5821075439453125,-0.8238983154296875,-0.2436981201171875,137302.5603975,0.1381165941375805,0.7005352036815283,-0.08398624708506588,137302.5603975,3.126226225549601,-1.174636089127242,0.9073643554137383,0.1349138021469116,0.71065753698349,-0.04664774239063263,0.2203044444322586,-0.232685461640358,-0.1469641625881195,XTrueNorthZVertical,0.5008626801489118,0.3609982898984293,0.7463326697764276,0.2486048158618329,-0.5681285262107849,-0.7878834009170532,-0.237633615732193,-29.26905822753906,-24.40692710876465,5.251973152160645,2,10.3.35.51,10.83.46.32,1,0
2015-02-27 17:07:38.445,128,1425085657.298971,37.7875415446135,-122.3965803556573,13.34873,-1,-1,10,65,-9999,1425085658.411018,-30.19537353515625,-23.63383483886719,5.269950866699219,119.2274475097656,105.4541931152344,10,137302.6485935833,-0.448455810546875,-0.8997039794921875,-0.3006744384765625,137302.6121810833,0.09566713794226242,0.2083968826725535,-0.1289771579086465,137302.6121810833,3.121480942387245,-1.159275842271279,0.910984717358161,0.09244058281183243,0.2185365259647369,-0.09164657443761826,-0.03195643052458763,-0.04795074835419655,0.06718021631240845,XTrueNorthZVertical,0.4955540248692856,0.3630861937125298,0.7488980114755611,0.2484882107867424,-0.5617935657501221,-0.7901077270507812,-0.2451892495155334,-29.32774543762207,-24.49032402038574,4.479548454284668,2,10.3.35.51,10.83.46.32,1,0
2015-02-27 17:07:38.478,129,1425085657.298971,37.7875415446135,-122.3965803556573,13.34873,-1,-1,10,65,-9999,1425085658.46301,-29.90549468994141,-23.99069213867188,5.120185852050781,119.6356735229492,105.862419128418,10,137302.697617125,-0.5532989501953125,-0.781005859375,-0.1540069580078125,137302.6639643333,-0.1132788885470654,0.02607527654907483,-0.2120704470802088,137302.6639643333,3.120816840868868,-1.146277627086116,0.9213760626220311,-0.1164910495281219,0.03620516136288643,-0.1747546941041946,0.1713937073945999,-0.09498394280672073,-0.1047759130597115,XTrueNorthZVertical,0.4895922488076184,0.368458583089127,0.7500643756634279,0.2488797559805375,-0.5510476231575012,-0.7964345216751099,-0.2490753978490829,-29.19491577148438,-24.67923545837402,4.307130813598633,2,10.3.35.51,10.83.46.32,1,0
2015-02-27 17:07:38.543,130,1425085657.298971,37.7875415446135,-122.3965803556573,13.34873,-1,-1,10,65,-9999,1425085658.515439,-29.5133056640625,-24.31356811523438,4.803993225097656,120.2438430786133,106.470588684082,10,137302.7466249584,-0.6367950439453125,-0.767486572265625,-0.1710052490234375,137302.7157490417,0.107953631631343,-0.002260491133259257,-0.2264307443101341,137302.7157490417,3.109150183030937,-1.144395422838255,0.9343460636574846,0.1047485172748566,0.007867176085710526,-0.1891496479511261,-0.02479098923504353,0.06074135005474091,0.1590879261493683,XTrueNorthZVertical,0.4895365357668442,0.3707351363760726,0.7465720530335811,0.2560070439571611,-0.5411269664764404,-0.8042106032371521,-0.2458188831806183,-28.82457542419434,-25.16018295288086,4.008493423461914,2,10.3.35.51,10.83.46.32,1,0
2015-02-27 17:07:38.576,131,1425085657.298971,37.7875415446135,-122.3965803556573,13.34873,-1,-1,10,65,-9999,1425085658.568035,-29.08700561523438,-24.73841857910156,5.186744689941406,121.3910064697266,107.6177520751953,10,137302.7957738333,-0.347808837890625,-0.88812255859375,-0.23199462890625,137302.7675323334,0.03511990424320194,0.2682975008589428,-0.1291574539144449,137302.7675323334,3.12312336096806,-1.147057239890188,0.9393352110166602,0.03190451115369797,0.27849480509758,-0.09181713312864304,0.05566279962658882,-0.1376583874225616,-0.04235511645674706,XTrueNorthZVertical,0.4873361719189977,0.3756874185193899,0.7467365583079294,0.2524815433112884,-0.5381152033805847,-0.8071658611297607,-0.2427248358726501,-28.74628067016602,-25.17563438415527,4.449471473693848,2,10.3.35.51,10.83.46.32,1,0
2015-02-27 17:07:38.641,132,1425085657.298971,37.7875415446135,-122.3965803556573,13.34873,-1,-1,10,65,-9999,1425085658.618601,-28.89943695068359,-25.16326904296875,5.869049072265625,122.6837387084961,108.9104843139648,10,137302.8446914167,-0.775054931640625,-0.60357666015625,-0.2130584716796875,137302.8193158333,0.3002580971009837,-0.1220830327947584,-0.2641171368958454,137302.8193158333,3.121477267477172,-1.142985179662645,0.9595873409479962,0.2970338463783264,-0.1118778958916664,-0.2268418669700623,-0.04643337056040764,0.1116336658596992,0.06858769059181213,XTrueNorthZVertical,0.4836970134995316,0.3834006237524222,0.7435779318104666,0.2571634077453551,-0.5221396088600159,-0.8189548254013062,-0.2380823194980621,-28.38863372802734,-25.60644912719727,4.284204483032227,2,10.3.35.51,10.83.46.32,1,0
2015-02-27 17:07:38.674,133,1425085657.298971,37.7875415446135,-122.3965803556573,13.34873,-1,-1,10,65,-9999,1425085658.618601,-28.89943695068359,-25.16326904296875,5.869049072265625,122.6837387084961,108.9104843139648,10,137302.8937379583,-0.2897491455078125,-0.9593658447265625,-0.3125762939453125,137302.8711002917,0.1664736671086352,0.4937284944958611,0.03004924552769107,137302.8711002917,-3.130771749096513,-1.166584770189705,0.9550362522386504,0.1632849425077438,0.5039061903953552,0.06740693002939224,-0.08516202121973038,0.06531234085559845,0.09159932285547256,XTrueNorthZVertical,0.4870817529519081,0.3862281229262596,0.7426466442462962,0.2491087371264145,-0.5310336351394653,-0.8163346648216248,-0.2271584123373032,-28.39350128173828,-25.51784515380859,4.754746913909912,2,10.3.35.51,10.83.46.32,1,0
2015-02-27 17:07:38.742,134,1425085657.298971,37.7875415446135,-122.3965803556573,13.34873,-1,-1,10,65,-9999,1425085658.721892,-28.42198944091797,-24.857421875,5.403091430664062,121.88818359375,108.1149291992188,10,137302.942753375,-0.5940093994140625,-0.7597503662109375,-0.1527557373046875,137302.922883875,0.1448181727046558,0.01274029633883007,-0.04217088954529573,137302.922883875,-3.113760734058135,-1.165163590860239,0.9582096386191212,0.1416351944208145,0.02291367948055267,-0.004810972139239311,0.1000436022877693,-0.05276245623826981,-0.1487513780593872,XTrueNorthZVertical,0.482831641737563,0.3916999596203842,0.7444831224642721,0.243289181545531,-0.5283272862434387,-0.8181634545326233,-0.2268894910812378,-28.65878868103027,-25.25291442871094,4.574195384979248,2,10.3.35.51,10.83.46.32,1,0
2015-02-27 17:07:38.772,135,1425085657.298971,37.7875415446135,-122.3965803556573,13.34873,-1,-1,10,65,-9999,1425085658.721892,-28.42198944091797,-24.857421875,5.403091430664062,121.88818359375,108.1149291992188,10,137302.9917984583,-0.445709228515625,-0.9274444580078125,-0.256927490234375,137302.9746671667,0.1220723801503981,0.5275397213793981,0.06230172422520469,137302.9746671667,-3.107415599228201,-1.153665711675312,0.957522877943104,0.118887759745121,0.5377142429351807,0.09965883940458298,0.08196813613176346,-0.02666826732456684,0.03258455172181129,XTrueNorthZVertical,0.4773848327944498,0.3943544411474458,0.7481372842448283,0.238492973080386,-0.5261972546577454,-0.817768394947052,-0.233176589012146,-28.70186614990234,-25.22509002685547,4.456095695495605,2,10.3.35.51,10.83.46.32,1,0
2015-02-27 17:07:38.842,136,1425085657.298971,37.7875415446135,-122.3965803556573,13.34873,-1,-1,10,65,-9999,1425085658.825421,-29.05290222167969,-24.8743896484375,5.086891174316406,120.5046310424805,106.7313766479492,10,137303.0408129167,-0.44573974609375,-0.927001953125,-0.23504638671875,137303.0264518333,-0.1204134971073877,0.19369250502979,-0.1551286008648976,137302.9746671667,-3.107415599228201,-1.153665711675312,0.957522877943104,0.118887759745121,0.5377142429351807,0.09965883940458298,0.08196813613176346,-0.02666826732456684,0.03258455172181129,XTrueNorthZVertical,0.4773848327944498,0.3943544411474458,0.7481372842448283,0.238492973080386,-0.5261972546577454,-0.817768394947052,-0.233176589012146,-28.70186614990234,-25.22509002685547,4.456095695495605,2,10.3.35.51,10.83.46.32,1,0
2015-02-27 17:07:38.870,137,1425085657.298971,37.7875415446135,-122.3965803556573,13.34873,-1,-1,10,65,-9999,1425085658.825421,-29.05290222167969,-24.8743896484375,5.086891174316406,120.5046310424805,106.7313766479492,10,137303.0898643333,-0.4831085205078125,-0.7989959716796875,-0.30987548828125,137303.07823525,-0.2075161753000643,-0.02138385197279124,-0.1470962407011096,137303.07823525,-3.12623000853254,-1.11735488715356,0.9693442997411762,-0.2106885761022568,-0.01121680717915297,-0.1097937524318695,-0.0006028662319295108,0.05255747213959694,0.01360481791198254,XTrueNorthZVertical,0.4659678565249162,0.3986696045931606,0.752170667013763,0.2411965772228677,-0.5086592435836792,-0.8245148658752441,-0.2478730082511902,-28.53132247924805,-25.56026649475098,3.549007415771484,2,10.3.35.51,10.83.46.32,1,0
2015-02-27 17:07:38.915,138,1425085657.298971,37.7875415446135,-122.3965803556573,13.34873,-1,-1,10,65,-9999,1425085658.877836,-29.13816070556641,-25.12928771972656,4.903831481933594,120.7199249267578,106.9466705322266,10,137303.1388634583,-0.3621063232421875,-0.7506866455078125,-0.225830078125,137303.1300187084,-0.3410087228369402,-0.470566449863224,-0.02053563516560101,137303.07823525,-3.12623000853254,-1.11735488715356,0.9693442997411762,-0.2106885761022568,-0.01121680717915297,-0.1097937524318695,-0.0006028662319295108,0.05255747213959694,0.01360481791198254,XTrueNorthZVertical,0.4659678565249162,0.3986696045931606,0.752170667013763,0.2411965772228677,-0.5086592435836792,-0.8245148658752441,-0.2478730082511902,-28.53132247924805,-25.56026649475098,3.549007415771484,2,10.3.35.51,10.83.46.32,1,0
2015-02-27 17:07:38.968,139,1425085657.298971,37.7875415446135,-122.3965803556573,13.34873,-1,-1,10,65,-9999,1425085658.928892,-29.03584289550781,-24.9593505859375,4.803985595703125,121.2556838989258,107.4824295043945,10,137303.1879336667,-0.5909271240234375,-0.9332275390625,-0.288970947265625,137303.1818032917,-0.1564964004007623,-0.1192230641001223,-0.03952210952510292,137303.1300187084,3.12377617667082,-1.095483124950448,0.9689790921460794,-0.3442044854164124,-0.4603826999664307,0.01674723625183105,0.1861387938261032,0.008069761097431183,-0.02334903925657272,XTrueNorthZVertical,0.4643514027208137,0.393496926710922,0.7532619269720482,0.2492677495294506,-0.5033842921257019,-0.8243081569671631,-0.2590758800506592,-28.38687324523926,-25.7625846862793,3.230146408081055,2,10.3.35.51,10.83.46.32,1,0
2015-02-27 17:07:39.047,140,1425085657.298971,37.7875415446135,-122.3965803556573,13.34873,-1,-1,10,65,-9999,1425085659.032933,-28.45607757568359,-25.23124694824219,5.369796752929688,123.9020538330078,110.1287994384766,10,137303.2369389583,-0.369171142578125,-0.82757568359375,-0.16363525390625,137303.2335867083,-0.1417488795483395,-1.110005542345027,0.07842716462563448,137303.1818032917,3.109775551299184,-1.108543257998023,0.9614944986001644,-0.1596921533346176,-0.109039418399334,-0.002239609370008111,-0.1988879144191742,-0.052663404494524,0.03301030769944191,XTrueNorthZVertical,0.4728611120274554,0.3857335125090447,0.7499367129874722,0.2553565168426026,-0.5122326612472534,-0.8200477957725525,-0.2552240490913391,-28.25493049621582,-25.87909698486328,3.448227882385254,2,10.3.35.51,10.83.46.32,1,0
2015-02-27 17:07:39.068,141,1425085657.298971,37.7875415446135,-122.3965803556573,13.34873,-1,-1,10,65,-9999,1425085659.032933,-28.45607757568359,-25.23124694824219,5.369796752929688,123.9020538330078,110.1287994384766,10,137303.2861064167,-0.622589111328125,-0.627716064453125,-0.16571044921875,137303.2853699584,-0.1395118242326729,-0.4706862921122775,0.1099888193363815,137303.2335867083,3.082417060335056,-1.107286478330987,0.9632776641042492,-0.1449684798717499,-1.099801063537598,0.1156465858221054,0.2818582057952881,-0.0623863972723484,0.008448299020528793,XTrueNorthZVertical,0.4774271543704,0.3800744589516398,0.7463107030253718,0.2657575033616618,-0.5106027126312256,-0.8210669755935669,-0.2552134394645691,-27.96697235107422,-26.18002510070801,3.523322105407715,2,10.3.35.51,10.83.46.32,1,0
2015-02-27 17:07:39.114,142,1425085657.298971,37.7875415446135,-122.3965803556573,13.34873,-1,-1,10,65,-9999,1425085659.086149,-28.11503601074219,-25.26522827148438,6.035453796386719,125.1025619506836,111.3293075561523,10,137303.3350011667,-0.538848876953125,-0.9246063232421875,-0.1914825439453125,137303.2853699584,-0.1395118242326729,-0.4706862921122775,0.1099888193363815,137303.2853699584,3.077517305225093,-1.140187731731776,0.9561463733279114,-0.1427309364080429,-0.4604822099208832,0.1472079008817673,-0.1576266586780548,0.07819057255983353,0.07877539843320847,XTrueNorthZVertical,0.4913607701450599,0.3717608516076443,0.7391273088035376,0.272119977723247,-0.5240291953086853,-0.8169753551483154,-0.2407169193029404,-27.91721343994141,-26.07326316833496,4.557765007019043,2,10.3.35.51,10.83.46.32,1,0
2015-02-27 17:07:39.163,143,1425085657.298971,37.7875415446135,-122.3965803556573,13.34873,-1,-1,10,65,-9999,1425085659.136776,-28.50723266601562,-24.84039306640625,6.551353454589844,126.0620040893555,112.2887496948242,10,137303.384044125,-0.22509765625,-1.337890625,-0.2874908447265625,137303.388938125,-0.3489606555358078,-0.3937201376606606,-0.2047193235232631,137303.3371545,3.062412471454515,-1.152924651945488,0.920625074428615,-0.4647624492645264,-0.1760221123695374,0.5797368288040161,0.01438868418335915,-0.1286261826753616,0.05416721105575562,XTrueNorthZVertical,0.5026863631003996,0.3528194183746611,0.7409585073462066,0.2716714318488213,-0.5532375574111938,-0.7959801554679871,-0.2456497550010681,-28.14435577392578,-25.74857902526855,4.986499786376953,2,10.3.35.51,10.83.46.32,1,0
2015-02-27 17:07:39.216,144,1425085657.298971,37.7875415446135,-122.3965803556573,13.34873,-1,-1,10,65,-9999,1425085659.188646,-28.49017333984375,-24.51754760742188,6.6678466796875,126.7365417480469,112.9632873535156,10,137303.43307325,-0.666290283203125,-0.88446044921875,-0.1025543212890625,137303.388938125,-0.3489606555358078,-0.3937201376606606,-0.2047193235232631,137303.388938125,3.04649547803052,-1.144677956391194,0.9051983728279143,-0.3521796762943268,-0.3835162818431854,-0.1675010174512863,0.3372105658054352,-0.5513429641723633,-0.03224154561758041,XTrueNorthZVertical,0.5039904295647226,0.3440479577367025,0.7438839456301696,0.2725093085362586,-0.5623082518577576,-0.7865476608276367,-0.2552492916584015,-28.82404327392578,-25.05569839477539,4.620131492614746,2,10.3.35.51,10.83.46.32,1,0
2015-02-27 17:07:39.262,145,1425085657.298971,37.7875415446135,-122.3965803556573,13.34873,-1,-1,10,65,-9999,1425085659.242909,-28.45606994628906,-24.38160705566406,6.568000793457031,126.1376876831055,112.3644332885742,10,137303.4821427084,-0.7215423583984375,-0.35101318359375,-0.4871063232421875,137303.440721375,0.01697312457540201,-0.8056259371410361,-0.4139324650699259,137303.440721375,3.018972407548544,-1.165139246017903,0.9192810934531949,0.01375410798937082,-0.7954221367835999,-0.3767144978046417,-0.1091110929846764,-0.08929456025362015,0.1367416530847549,XTrueNorthZVertical,0.514842056081929,0.3395433274859377,0.7320226126150549,0.289466541745651,-0.5571792125701904,-0.7951658964157104,-0.2392959743738174,-28.37553596496582,-25.47248649597168,5.093174934387207,2,10.3.35.51,10.83.46.32,1,0
2015-02-27 17:07:39.312,146,1425085657.298971,37.7875415446135,-122.3965803556573,13.34873,-1,-1,10,65,-9999,1425085659.242909,-28.45606994628906,-24.38160705566406,6.568000793457031,126.1376876831055,112.3644332885742,10,137303.5311404167,-0.4676513671875,0.1170196533203125,0.4649200439453125,137303.4925059583,-0.4682305912711155,-0.09030752624847796,0.6122777788401934,137303.4925059583,3.010710783284335,-1.17444132298685,0.9175249546017211,-0.471446305513382,-0.08010528236627579,0.6494920253753662,0.07078487426042557,0.514162003993988,-0.05425314232707024,XTrueNorthZVertical,0.5198060467131148,0.3353817512610594,0.7287635075507115,0.2936400907655154,-0.5606682896614075,-0.794099748134613,-0.234641507267952,-27.80086517333984,-25.89647674560547,6.036843776702881,2,10.3.35.51,10.83.46.32,1,0
2015-02-27 17:07:39.361,147,1425085657.298971,37.7875415446135,-122.3965803556573,13.34873,-1,-1,10,65,-9999,1425085659.318134,-28.38786315917969,-23.90577697753906,6.767692565917969,126.5915679931641,112.8183135986328,10,137303.5801872917,-1.228240966796875,-1.5582275390625,-0.675140380859375,137303.544289375,1.3260100109875,1.684625158107063,0.1887249106484652,137303.544289375,3.072281580088016,-1.192527981361927,0.8918817641091903,1.322794318199158,1.694827318191528,0.2259388118982315,0.4910726249217987,0.6441605091094971,0.7934628129005432,XTrueNorthZVertical,0.5186991404289535,0.3391117564582959,0.7376799133707563,0.2679230521627349,-0.5835561752319336,-0.7782547473907471,-0.231908842921257,-28.80736923217773,-24.81449317932129,5.859663963317871,2,10.3.35.51,10.83.46.32,1,0
2015-02-27 17:07:39.400,148,1425085657.298971,37.7875415446135,-122.3965803556573,13.34873,-1,-1,10,65,-9999,1425085659.370509,-29.71791076660156,-23.22604370117188,5.802474975585938,121.4220275878906,107.6487731933594,10,137303.629214125,-0.2080230712890625,-0.9289093017578125,-0.2191162109375,137303.5960730417,-0.2904083958093256,3.08549955681389,-0.09082710897715242,137303.5960730417,3.130716116177593,-1.114556973161765,0.8808142795737928,-0.293624073266983,3.095701694488525,-0.05361354351043701,0.06545079499483109,-1.214139938354492,-0.6814013719558716,XTrueNorthZVertical,0.4803723883114601,0.3591993297898977,0.7664758374170022,0.2296366669397217,-0.571416974067688,-0.7712574601173401,-0.2804364264011383,-29.82515907287598,-23.85541915893555,4.619293212890625,2,10.3.35.51,10.83.46.32,1,0
