loggingTime,loggingSample,locationTimestamp_since1970,locationLatitude,locationLongitude,locationAltitude,locationSpeed,locationCourse,locationVerticalAccuracy,locationHorizontalAccuracy,locationFloor,locationHeadingTimestamp_since1970,locationHeadingX,locationHeadingY,locationHeadingZ,locationTrueHeading,locationMagneticHeading,locationHeadingAccuracy,accelerometerTimestamp_sinceReboot,accelerometerAccelerationX,accelerometerAccelerationY,accelerometerAccelerationZ,gyroTimestamp_sinceReboot,gyroRotationX,gyroRotationY,gyroRotationZ,motionTimestamp_sinceReboot,motionYaw,motionRoll,motionPitch,motionRotationRateX,motionRotationRateY,motionRotationRateZ,motionUserAccelerationX,motionUserAccelerationY,motionUserAccelerationZ,motionAttitudeReferenceFrame,motionQuaternionX,motionQuaternionY,motionQuaternionZ,motionQuaternionW,motionGravityX,motionGravityY,motionGravityZ,motionMagneticFieldX,motionMagneticFieldY,motionMagneticFieldZ,motionMagneticFieldCalibrationAccuracy,IP_en0,IP_pdp_ip0,deviceOrientation,state
2015-03-08 17:23:54.161,1,1425860631.405928,33.32477694584117,-111.9416583131668,355.9665,-1,-1,10,165,-9999,1425860634.155772,12.32951736450195,-6.847015380859375,-42.81616592407227,15.18224906921387,4.659701824188232,10,328397.8309225,0.353271484375,-0.5784149169921875,-0.7178497314453125,328397.8219600417,-0.1363983226022613,-0.01412727063454334,-0.2636122015531664,328397.7701750834,-2.311028237697205,0.4368448846146573,0.7254051715336021,0.06853007525205612,-0.1291855424642563,-0.2055184096097946,-0.0130966966971755,0.04442010447382927,0.02835268527269363,XTrueNorthZVertical,-0.3251157307901341,0.2351960993952238,0.8041301319630402,-0.4385855419875361,0.3165634870529175,-0.6634386777877808,-0.6779651045799255,12.71799564361572,-10.85590362548828,-45.87207794189453,2,0.0.0.0,10.144.231.151,1,0
2015-03-08 17:23:54.215,2,1425860631.405928,33.32477694584117,-111.9416583131668,355.9665,-1,-1,10,165,-9999,1425860634.155772,12.32951736450195,-6.847015380859375,-42.81616592407227,15.18224906921387,4.659701824188232,10,328397.8799350417,0.31878662109375,-0.6630859375,-0.6875,328397.8737437917,-0.05524967365867487,-0.2229936686072778,-0.2022175499952427,328397.8219600417,-2.324651163509818,0.4446537746781642,0.7176543663392858,-0.1385844796895981,-0.004675460979342461,-0.2266556620597839,-0.006911467760801315,0.03411475941538811,-0.01205965224653482,XTrueNorthZVertical,-0.3255270002239448,0.2323467949276884,0.8073717092368752,-0.4338179946536174,0.3240501284599304,-0.6576194167137146,-0.680094301700592,12.56911659240723,-10.75407791137695,-45.93704986572266,2,0.0.0.0,10.144.231.151,1,0
2015-03-08 17:23:54.295,3,1425860631.405928,33.32477694584117,-111.9416583131668,355.9665,-1,-1,10,165,-9999,1425860634.284036,11.68154907226562,-6.71112060546875,-42.91601181030273,17.25369262695312,6.731146335601807,10,328397.9289645,0.3149566650390625,-0.5713348388671875,-0.6678009033203125,328397.9255276667,-0.09487751067905394,-0.1589198769927344,-0.09245190355820976,328397.9255276667,-2.339618340095508,0.4381374094261192,0.69448423604717,-0.09716351330280304,-0.1494403779506683,-0.05557328835129738,0.004347937647253275,0.0607503280043602,0.01691094599664211,XTrueNorthZVertical,-0.317796098180234,0.2260600491156023,0.8161679307573328,-0.4263477375662887,0.3259895741939545,-0.6399891972541809,-0.6958050131797791,12.23693943023682,-9.750015258789062,-46.249755859375,2,0.0.0.0,10.144.231.151,1,0
2015-03-08 17:23:54.298,4,1425860631.405928,33.32477694584117,-111.9416583131668,355.9665,-1,-1,10,165,-9999,1425860634.284036,11.68154907226562,-6.71112060546875,-42.91601181030273,17.25369262695312,6.731146335601807,10,328397.9779803334,0.3438568115234375,-0.60711669921875,-0.6828155517578125,328397.9255276667,-0.09487751067905394,-0.1589198769927344,-0.09245190355820976,328397.9255276667,-2.339618340095508,0.4381374094261192,0.69448423604717,-0.09716351330280304,-0.1494403779506683,-0.05557328835129738,0.004347937647253275,0.0607503280043602,0.01691094599664211,XTrueNorthZVertical,-0.317796098180234,0.2260600491156023,0.8161679307573328,-0.4263477375662887,0.3259895741939545,-0.6399891972541809,-0.6958050131797791,12.23693943023682,-9.750015258789062,-46.249755859375,2,0.0.0.0,10.144.231.151,1,0
2015-03-08 17:23:54.401,5,1425860631.405928,33.32477694584117,-111.9416583131668,355.9665,-1,-1,10,165,-9999,1425860634.388462,11.93732833862305,-5.7764892578125,-43.26548767089844,18.09099197387695,7.568446159362793,10,328398.0270056667,0.34478759765625,-0.5871734619140625,-0.6636199951171875,328398.0290962917,-0.1271662083673926,0.1015577839574087,-0.07083582393836362,328397.9773126667,-2.341460674435356,0.4377906444085758,0.6879561264462655,-0.1131432503461838,0.05083290114998817,-0.06794098019599915,0.01411651074886322,0.02334148250520229,0.02787307091057301,XTrueNorthZVertical,-0.3164997331317897,0.2235719154321907,0.8178692575716158,-0.4253626516586407,0.3275125324726105,-0.6349595189094543,-0.6996870636940002,12.04188537597656,-9.405324935913086,-46.37217330932617,2,0.0.0.0,10.144.231.151,1,0
2015-03-08 17:23:54.405,6,1425860631.405928,33.32477694584117,-111.9416583131668,355.9665,-1,-1,10,165,-9999,1425860634.388462,11.93732833862305,-5.7764892578125,-43.26548767089844,18.09099197387695,7.568446159362793,10,328398.0760109583,0.3716278076171875,-0.5666961669921875,-0.6695404052734375,328398.0290962917,-0.1271662083673926,0.1015577839574087,-0.07083582393836362,328398.0290962917,-2.342214668327268,0.444531965580647,0.6796612728677492,-0.1294707357883453,0.1110625267028809,-0.03399177268147469,0.01031224522739649,0.04135614261031151,0.03857425972819328,XTrueNorthZVertical,-0.3179702203505725,0.2186271063020929,0.8185430051463062,-0.4255402054278367,0.3344753384590149,-0.6285296082496643,-0.7021942734718323,12.16883182525635,-9.071451187133789,-46.40554046630859,2,0.0.0.0,10.144.231.151,1,0
2015-03-08 17:23:54.466,7,1425860631.405928,33.32477694584117,-111.9416583131668,355.9665,-1,-1,10,165,-9999,1425860634.439531,12.51708984375,-5.708526611328125,-43.43190765380859,17.93810653686523,7.415560245513916,10,328398.1250324167,0.32916259765625,-0.561981201171875,-0.5727386474609375,328398.0808800834,-0.06923393254268095,0.280775742146509,0.06153553277958889,328398.0808800834,-2.338728155526995,0.4545586496591171,0.6744397700229431,-0.07155017554759979,0.290306031703949,0.09834864735603333,0.02869241125881672,0.05776367709040642,0.03220400214195251,XTrueNorthZVertical,-0.3216891104222152,0.2136443603573352,0.8171880491029826,-0.427873680279425,0.3429353833198547,-0.6244598627090454,-0.7017443776130676,12.60746097564697,-8.691446304321289,-46.36115264892578,2,0.0.0.0,10.144.231.151,1,0
2015-03-08 17:23:54.517,8,1425860631.405928,33.32477694584117,-111.9416583131668,355.9665,-1,-1,10,165,-9999,1425860634.490045,13.59135818481445,-5.623565673828125,-43.08243179321289,16.73622703552246,6.213680267333984,10,328398.17404175,0.2894134521484375,-0.5256805419921875,-0.4538116455078125,328398.1326650833,-0.1687416150929466,0.8925139645498523,0.1306722599424819,328398.1326650833,-2.328349236989745,0.4765850025905072,0.6713715256039892,-0.1710578352212906,0.9020441174507141,0.1674850434064865,-0.03002250194549561,0.06007923185825348,0.1229817494750023,XTrueNorthZVertical,-0.3313022247979085,0.2058607199436835,0.8119395162255794,-0.4342976078323775,0.3591850996017456,-0.6220604181289673,-0.695720374584198,13.30937004089355,-8.501401901245117,-46.19992065429688,2,0.0.0.0,10.144.231.151,1,0
2015-03-08 17:23:54.613,9,1425860631.405928,33.32477694584117,-111.9416583131668,355.9665,-1,-1,10,165,-9999,1425860634.592064,23.49845886230469,-8.427459716796875,-38.60582733154297,8.789117813110352,358.2665710449219,10,328398.2230704583,0.41864013671875,-0.684417724609375,-0.40301513671875,328398.2362328334,0.4931774864663237,4.415153571120946,1.251533912155107,328398.184448875,-2.295537896562116,0.5431874333294133,0.6879324902174729,0.2521706819534302,2.665480375289917,1.009034752845764,-0.09241116046905518,0.1018144339323044,0.189652144908905,XTrueNorthZVertical,-0.3636542388605162,0.1925471838765226,0.7898334984363649,-0.4548012880776625,0.3993111848831177,-0.6349412798881531,-0.66136234998703,14.96541213989258,-8.31144905090332,-45.72528839111328,2,0.0.0.0,10.144.231.151,1,0
2015-03-08 17:23:54.616,10,1425860631.405928,33.32477694584117,-111.9416583131668,355.9665,-1,-1,10,165,-9999,1425860634.592064,23.49845886230469,-8.427459716796875,-38.60582733154297,8.789117813110352,358.2665710449219,10,328398.272086625,0.7752838134765625,-0.803924560546875,-0.3444671630859375,328398.2362328334,0.4931774864663237,4.415153571120946,1.251533912155107,328398.2362328334,-2.243727413793801,0.6925346446069014,0.7411273464453723,0.4908625185489655,4.424684047698975,1.288345813751221,-0.009135567583143711,-0.03874719515442848,0.1803568601608276,XTrueNorthZVertical,-0.4328473409016413,0.1695937798594915,0.7365750174761653,-0.4912620108319634,0.4710191190242767,-0.6751199960708618,-0.5677622556686401,21.14847183227539,-9.913166046142578,-42.87559509277344,2,0.0.0.0,10.144.231.151,1,0
2015-03-08 17:23:54.662,11,1425860631.405928,33.32477694584117,-111.9416583131668,355.9665,-1,-1,10,165,-9999,1425860634.645254,30.86484909057617,-10.33074951171875,-33.51348495483398,3.533502578735352,353.0109558105469,10,328398.3211139167,0.7736968994140625,-0.7917633056640625,-0.4936676025390625,328398.2880177083,-0.1026217168128953,4.390307077098834,0.7615000210395132,328398.2880177083,-2.204762669117339,0.9017460596388071,0.7903176902270392,-0.1049366444349289,4.399837493896484,0.7983116507530212,0.3275133073329926,-0.1268865317106247,0.01946751400828362,XTrueNorthZVertical,-0.515279218136108,0.1275945319161781,0.6654923817256307,-0.5247159641144998,0.5519270300865173,-0.7105768322944641,-0.4364139139652252,28.49131393432617,-12.20666313171387,-37.72383499145508,2,0.0.0.0,10.144.231.151,1,0
2015-03-08 17:23:54.701,12,1425860631.405928,33.32477694584117,-111.9416583131668,355.9665,-1,-1,10,165,-9999,1425860634.645254,30.86484909057617,-10.33074951171875,-33.51348495483398,3.533502578735352,353.0109558105469,10,328398.370124125,0.58160400390625,-0.7331390380859375,-0.4733734130859375,328398.3398014167,0.07262813135198694,2.044733273333725,0.712756449923902,328398.3398014167,-2.171488594970205,1.020931390325567,0.8160953067406135,0.07021009922027588,2.054162740707397,0.7497216463088989,0.1665985584259033,0.0007694890373386443,-0.1479367464780807,XTrueNorthZVertical,-0.5581704281920896,0.09719214626931594,0.6181031415723578,-0.5449293133270905,0.5840880870819092,-0.7284764051437378,-0.3579989075660706,34.82625198364258,-13.57598686218262,-31.41130828857422,2,0.0.0.0,10.144.231.151,1,0
2015-03-08 17:23:54.767,13,1425860631.405928,33.32477694584117,-111.9416583131668,355.9665,-1,-1,10,165,-9999,1425860634.747313,39.42486190795898,-13.2196044921875,-25.2259464263916,347.9679260253906,337.4453735351562,10,328398.4191612084,0.775543212890625,-0.6952056884765625,-0.411376953125,328398.39158525,0.3746556326812193,1.45207899698578,0.6293190803395015,328398.39158525,-2.153866160884881,1.088391036392715,0.8508511402717309,0.3722376227378845,1.46150815486908,0.6662838459014893,0.05834053456783295,0.02221235446631908,-0.08815082162618637,XTrueNorthZVertical,-0.582606817548622,0.08735474382985917,0.5848785937738861,-0.5575441379574332,0.5841002464294434,-0.7518418431282043,-0.3058768808841705,38.03465270996094,-15.11393356323242,-26.6229190826416,2,0.0.0.0,10.144.231.151,1,0
2015-03-08 17:23:54.802,14,1425860631.405928,33.32477694584117,-111.9416583131668,355.9665,-1,-1,10,165,-9999,1425860634.747313,39.42486190795898,-13.2196044921875,-25.2259464263916,347.9679260253906,337.4453735351562,10,328398.468171375,0.59698486328125,-0.7344818115234375,-0.4033050537109375,328398.4433703333,0.4365355121897554,1.016081975968439,1.047543762138308,328398.4433703333,-2.151752240820818,1.162141603945486,0.8915539280294423,0.4341175258159637,1.025511145591736,1.084508180618286,0.2146778702735901,-0.07152998447418213,-0.1729443222284317,XTrueNorthZVertical,-0.6070205887603087,0.0819128525256221,0.5512825220520171,-0.566483769089195,0.5764750838279724,-0.7780488729476929,-0.2496325820684433,39.32087326049805,-16.60012817382812,-23.70970153808594,2,0.0.0.0,10.144.231.151,1,0
2015-03-08 17:23:54.847,15,1425860631.405928,33.32477694584117,-111.9416583131668,355.9665,-1,-1,10,165,-9999,1425860634.799823,40.97658157348633,-14.73199462890625,-22.14724159240723,343.8374633789062,333.3149108886719,10,328398.5172032917,0.681610107421875,-0.7408905029296875,-0.2167816162109375,328398.49515425,0.6644677467224762,0.7156587628798703,1.227191021895129,328398.49515425,-2.169438357391242,1.211957206254367,0.969201304968595,0.6620497703552246,0.7250878810882568,1.264155030250549,0.008939333260059357,0.05368199571967125,-0.06903429329395294,XTrueNorthZVertical,-0.6244910248521726,0.1031127214796919,0.5191104535450846,-0.5743718777218115,0.5299095511436462,-0.8244339227676392,-0.1987574547529221,39.72859954833984,-18.82482528686523,-21.23934936523438,2,0.0.0.0,10.144.231.151,1,0
2015-03-08 17:23:54.895,16,1425860631.405928,33.32477694584117,-111.9416583131668,355.9665,-1,-1,10,165,-9999,1425860634.851503,41.33466720581055,-16.99212646484375,-19.16839027404785,338.2347106933594,327.712158203125,10,328398.5662002083,0.48309326171875,-0.8848724365234375,-0.171173095703125,328398.546937875,0.9130551923537426,1.924591418657525,2.133204550010593,328398.546937875,-2.182353505117216,1.28376327618268,1.079691506814503,0.9106372594833374,1.934020400047302,2.170168161392212,-0.2203422039747238,0.08951500058174133,0.001326914294622838,XTrueNorthZVertical,-0.6455923993695729,0.1282713993381512,0.4675398492379956,-0.5900537108703839,0.45230633020401,-0.8818123340606689,-0.1335138082504272,38.69376373291016,-23.31582260131836,-18.52054786682129,2,0.0.0.0,10.144.231.151,1,0
2015-03-08 17:23:54.945,17,1425860631.405928,33.32477694584117,-111.9416583131668,355.9665,-1,-1,10,165,-9999,1425860634.904276,40.92542266845703,-20.83258056640625,-15.9066276550293,330.41552734375,319.8929748535156,10,328398.6153242083,0.2503814697265625,-0.7564697265625,-0.2790374755859375,328398.5987231667,0.9930597472930309,1.683503168339813,2.007040489161398,328398.5987231667,-2.260235862118396,1.458906623305519,1.180945422103055,0.9906418323516846,1.69293200969696,2.04400372505188,0.03179562091827393,0.09510122984647751,-0.3127895593643188,XTrueNorthZVertical,-0.6777785125885558,0.1392794167596643,0.4018609959268536,-0.5997710081708999,0.3776739835739136,-0.9249657392501831,-0.04243506491184235,37.60456848144531,-27.67865180969238,-14.27004528045654,2,0.0.0.0,10.144.231.151,1,0
2015-03-08 17:23:54.991,18,1425860631.405928,33.32477694584117,-111.9416583131668,355.9665,-1,-1,10,165,-9999,1425860634.955782,40.26039886474609,-24.58807373046875,-12.36195755004883,322.9145812988281,312.3920288085938,10,328398.6642315834,0.2110748291015625,-0.8749237060546875,-0.189239501953125,328398.6505067917,0.441967029232972,-0.233014344840919,1.417895992814068,328398.5987231667,-2.260235862118396,1.458906623305519,1.180945422103055,0.9906418323516846,1.69293200969696,2.04400372505188,0.03179562091827393,0.09510122984647751,-0.3127895593643188,XTrueNorthZVertical,-0.6777785125885558,0.1392794167596643,0.4018609959268536,-0.5997710081708999,0.3776739835739136,-0.9249657392501831,-0.04243506491184235,37.60456848144531,-27.67865180969238,-14.27004528045654,2,0.0.0.0,10.144.231.151,1,0
2015-03-08 17:23:55.043,19,1425860631.405928,33.32477694584117,-111.9416583131668,355.9665,-1,-1,10,165,-9999,1425860635.00743,38.86215209960938,-28.25862121582031,-9.898994445800781,317.2619934082031,306.7394409179688,10,328398.7133717917,0.1835784912109375,-0.7317962646484375,-0.1614532470703125,328398.7022907084,0.1025743125454919,-0.4776704320710103,0.2699712976040576,328398.7022907084,-2.419785560600499,1.618447390515531,1.314592220478558,0.1001564487814903,-0.4682417213916779,0.3069339096546173,-0.1721748411655426,0.1677220165729523,-0.1716165989637375,XTrueNorthZVertical,-0.6849246411010586,0.192129091826318,0.3549433460324894,-0.6066134350170369,0.2531227171421051,-0.9673588871955872,0.01207070425152779,33.09191131591797,-34.78185653686523,-8.88782787322998,2,0.0.0.0,10.144.231.151,1,0
2015-03-08 17:23:55.092,20,1425860631.405928,33.32477694584117,-111.9416583131668,355.9665,-1,-1,10,165,-9999,1425860635.058975,36.98645401000977,-30.53572082519531,-10.0654125213623,315.9580993652344,305.435546875,10,328398.7622560417,0.252349853515625,-0.8694000244140625,-0.2631683349609375,328398.7540756667,-0.8234901554171786,-1.616494040571784,-1.187040406352768,328398.7022907084,-2.419785560600499,1.618447390515531,1.314592220478558,0.1001564487814903,-0.4682417213916779,0.3069339096546173,-0.1721748411655426,0.1677220165729523,-0.1716165989637375,XTrueNorthZVertical,-0.6849246411010586,0.192129091826318,0.3549433460324894,-0.6066134350170369,0.2531227171421051,-0.9673588871955872,0.01207070425152779,33.09191131591797,-34.78185653686523,-8.88782787322998,2,0.0.0.0,10.144.231.151,1,0
2015-03-08 17:23:55.141,21,1425860631.405928,33.32477694584117,-111.9416583131668,355.9665,-1,-1,10,165,-9999,1425860635.110991,36.1168098449707,-31.06253051757812,-12.67815017700195,319.9620971679688,309.4395446777344,10,328398.8112742917,0.4816131591796875,-1.709640502929688,0.00140380859375,328398.8058594583,-0.8766545739423215,-2.837446074981185,-1.973226332800661,328398.7540756667,-2.346258347666465,1.495064559290614,1.292985391946125,-0.8259080052375793,-1.607065439224243,-1.150078177452087,-0.003521822858601809,0.1190372481942177,-0.2264427095651627,XTrueNorthZVertical,-0.6713834954799666,0.1971531484943581,0.3811015836938075,-0.6042651829215905,0.2734650671482086,-0.9616581201553345,-0.02074967697262764,32.39185333251953,-35.28514099121094,-9.464251518249512,2,0.0.0.0,10.144.231.151,1,0
2015-03-08 17:23:55.196,22,1425860631.405928,33.32477694584117,-111.9416583131668,355.9665,-1,-1,10,165,-9999,1425860635.161921,36.16796493530273,-29.2442626953125,-16.65550231933594,327.7931823730469,317.2706298828125,10,328398.8602780834,-0.013275146484375,-0.9400634765625,0.019989013671875,328398.8576433334,-0.571162566351005,-0.4328771278003136,1.582553916691487,328398.8058594583,-2.243068039929533,1.280347644039505,1.18903905634646,-0.879072368144989,-2.828017473220825,-1.936264514923096,0.0920727550983429,-0.6425604820251465,-0.09757722914218903,XTrueNorthZVertical,-0.6408283669376043,0.1897179862694623,0.45315020536693,-0.5899160716061067,0.3569476306438446,-0.928011417388916,-0.1066921800374985,33.1630859375,-33.48807525634766,-12.75162792205811,2,0.0.0.0,10.144.231.151,1,0
2015-03-08 17:23:55.239,23,1425860631.405928,33.32477694584117,-111.9416583131668,355.9665,-1,-1,10,165,-9999,1425860635.215199,35.77577209472656,-28.3436279296875,-19.56778717041016,328.6448059082031,318.1222534179688,10,328398.9094014167,0.1069488525390625,-0.864105224609375,-0.0487823486328125,328398.9094285417,-0.9451446855925433,3.617792221790753,1.032048425651791,328398.8576433334,-2.12466472314374,1.07970523498189,1.185967983823939,-0.5735803842544556,-0.4234487116336823,1.619515419006348,-0.2733718454837799,-0.1354997903108597,0.1600817441940308,XTrueNorthZVertical,-0.6057029873903756,0.2112031253175167,0.4815086365024819,-0.5972156681177555,0.3310348093509674,-0.926862895488739,-0.1770342588424683,33.58403015136719,-29.43840026855469,-19.7316837310791,2,0.0.0.0,10.144.231.151,1,0
2015-03-08 17:23:55.294,24,1425860631.405928,33.32477694584117,-111.9416583131668,355.9665,-1,-1,10,165,-9999,1425860635.266694,35.45178985595703,-29.17630004882812,-19.41801261901855,322.1650695800781,311.6425170898438,10,328398.9582953334,0.51129150390625,-0.9369049072265625,-0.285980224609375,328398.9094285417,-0.9451446855925433,3.617792221790753,1.032048425651791,328398.9094285417,-1.937834019994578,1.004551743172845,1.22972830300053,-0.9475623965263367,3.627220392227173,1.06900954246521,-0.1753376573324203,0.07829272747039795,0.1306623667478561,XTrueNorthZVertical,-0.6104127432027168,0.1940977164087289,0.4329124170568378,-0.6342784790042826,0.2822864949703217,-0.9423979520797729,-0.1794447153806686,31.35712814331055,-30.91159820556641,-21.09619140625,2,0.0.0.0,10.144.231.151,1,0
2015-03-08 17:23:55.337,25,1425860631.405928,33.32477694584117,-111.9416583131668,355.9665,-1,-1,10,165,-9999,1425860635.318625,36.33848571777344,-29.99197387695312,-16.38923263549805,314.3070983886719,303.7845458984375,10,328399.0073070833,0.72906494140625,-0.8865203857421875,-0.2518463134765625,328399.0129962083,-1.128841015470721,1.743826696507307,1.167757788480049,328398.96121225,-1.720555754876196,1.003493213330149,1.235237984196795,-1.151843070983887,3.881598472595215,0.9540852904319763,0.2335783243179321,0.007321689277887344,-0.1090296506881714,XTrueNorthZVertical,-0.6283728468993314,0.1291211769544141,0.3601570748470432,-0.6773198348848839,0.2777131795883179,-0.9442266225814819,-0.1769505739212036,32.51650238037109,-31.81235504150391,-17.73406219482422,2,0.0.0.0,10.144.231.151,1,0
2015-03-08 17:23:55.400,26,1425860631.405928,33.32477694584117,-111.9416583131668,355.9665,-1,-1,10,165,-9999,1425860635.371341,37.24223327636719,-30.7906494140625,-13.97619247436523,305.6168212890625,295.0942687988281,10,328399.056313375,0.4619293212890625,-1.057220458984375,-0.10546875,328399.0129962083,-1.128841015470721,1.743826696507307,1.167757788480049,328399.0129962083,-1.470969185720731,0.9087822192548373,1.254244376787163,-1.131263852119446,1.753253698348999,1.204715013504028,0.4835318624973297,0.06379403173923492,-0.06049323081970215,XTrueNorthZVertical,-0.6294282869423338,0.09024129371008895,0.2971668679289426,-0.7122979597478849,0.2455330938100815,-0.9503144025802612,-0.1913530826568604,34.06244659423828,-32.75676727294922,-12.27149772644043,2,0.0.0.0,10.144.231.151,1,0
2015-03-08 17:23:55.436,27,1425860631.405928,33.32477694584117,-111.9416583131668,355.9665,-1,-1,10,165,-9999,1425860635.422599,36.54310989379883,-31.453369140625,-13.42702102661133,297.9513854980469,287.4288330078125,10,328399.1054540834,0.1468505859375,-1.0457763671875,-0.115631103515625,328399.0647812083,-1.41849147563381,-0.1282834044446809,0.7739593538833399,328399.0647812083,-1.222156822910144,0.7007447781116835,1.241124508820105,-1.42091429233551,-0.1188563853502274,0.8109162449836731,0.2531907558441162,-0.1110718250274658,0.1419801414012909,XTrueNorthZVertical,-0.6075443987272741,0.08464844355665703,0.2749420630704227,-0.7403588973480757,0.2087385654449463,-0.9461486339569092,-0.2474488914012909,33.22853469848633,-33.93061065673828,-11.33242702484131,2,0.0.0.0,10.144.231.151,1,0
2015-03-08 17:23:55.490,28,1425860631.405928,33.32477694584117,-111.9416583131668,355.9665,-1,-1,10,165,-9999,1425860635.474304,35.16191101074219,-31.9461669921875,-14.87484359741211,294.9695129394531,284.4469604492188,10,328399.1543659167,0.1603240966796875,-1.00042724609375,-0.193084716796875,328399.116565125,-1.113711064685763,-0.3516613671972572,0.8658993978800364,328399.116565125,-0.9964768093758433,0.4697087953017187,1.215284437264654,-1.116133809089661,-0.3422344326972961,0.9028558731079102,0.0009166476665996015,-0.1152354180812836,0.2107038944959641,XTrueNorthZVertical,-0.5790521806916088,0.09752649962268201,0.2648615050700687,-0.7648761516670433,0.157545879483223,-0.937468409538269,-0.3103743195533752,31.95489501953125,-34.39606094360352,-13.4030237197876,2,0.0.0.0,10.144.231.151,1,0
2015-03-08 17:23:55.532,29,1425860631.405928,33.32477694584117,-111.9416583131668,355.9665,-1,-1,10,165,-9999,1425860635.527255,33.95123291015625,-32.2010498046875,-16.45580101013184,291.4297485351562,280.9071960449219,10,328399.203373,0.063934326171875,-0.89410400390625,-0.32647705078125,328399.168348875,-1.071512744581239,0.5491403546649218,0.5800929444343678,328399.168348875,-0.8491047190392993,0.3426093708985403,1.175909996156371,-1.073935389518738,0.5585671663284302,0.6170490980148315,-0.001523435930721462,-0.03215989470481873,0.1147556751966476,XTrueNorthZVertical,-0.5564486470192356,0.09587757518301789,0.2515685713528386,-0.7860570196011909,0.1292394995689392,-0.9230402708053589,-0.3623448014259338,29.86032867431641,-34.99652862548828,-16.35387420654297,2,0.0.0.0,10.144.231.151,1,0
2015-03-08 17:23:55.589,30,1425860631.405928,33.32477694584117,-111.9416583131668,355.9665,-1,-1,10,165,-9999,1425860635.577554,33.13274002075195,-32.23503112792969,-17.32116317749023,288.7834777832031,278.2609252929688,10,328399.2523771667,0.08953857421875,-0.9311676025390625,-0.2305450439453125,328399.220134125,-0.5392597607046188,0.2732062393801769,0.575094990016616,328399.220134125,-0.7416646136091911,0.2675397685610775,1.148765244536957,-0.5416824817657471,0.282632976770401,0.6120507717132568,-0.04839465767145157,0.04064631462097168,0.0506204180419445,XTrueNorthZVertical,-0.5424378044414528,0.09077624319686321,0.233982333755688,-0.8017313514035549,0.1082854047417641,-0.9122588634490967,-0.3950417935848236,29.25382995605469,-35.03517150878906,-17.33769798278809,2,0.0.0.0,10.144.231.151,1,0
2015-03-08 17:23:55.631,31,1425860631.405928,33.32477694584117,-111.9416583131668,355.9665,-1,-1,10,165,-9999,1425860635.577554,33.13274002075195,-32.23503112792969,-17.32116317749023,288.7834777832031,278.2609252929688,10,328399.3013916667,0.0816497802734375,-0.8434600830078125,-0.32867431640625,328399.271917875,-0.1702380453094622,-0.07315596988004064,0.04496427921267984,328399.271917875,-0.712864960170999,0.2450420315650986,1.137894984007643,-0.1726607531309128,-0.06372933089733124,0.08191970735788345,0.04384362325072289,-0.05352075397968292,0.1868816167116165,XTrueNorthZVertical,-0.5370262970613924,0.09008639433199205,0.2300572637391934,-0.8065735202515351,0.1017709970474243,-0.9077524542808533,-0.4069744050502777,28.5899486541748,-35.33877944946289,-17.82220840454102,2,0.0.0.0,10.144.231.151,1,0
2015-03-08 17:23:55.703,32,1425860631.405928,33.32477694584117,-111.9416583131668,355.9665,-1,-1,10,165,-9999,1425860635.632742,32.50182342529297,-32.42195129394531,-17.43765449523926,288.2373657226562,277.7148132324219,10,328399.3503979584,-0.007720947265625,-0.8021240234375,-0.2474212646484375,328399.3237016667,0.5975225348206094,-0.6667074651992329,0.3863905857085445,328399.3237016667,-0.68336913823231,0.2034672299634742,1.152829213259291,0.5952721834182739,-0.6574771404266357,0.4235383570194244,-0.01343111786991358,0.108053557574749,0.08956221491098404,XTrueNorthZVertical,-0.5393906255451961,0.1014523249372243,0.2273299324289938,-0.8044167272067081,0.0820193737745285,-0.9139159917831421,-0.3975303471088409,28.26332473754883,-35.43562698364258,-18.14791107177734,2,0.0.0.0,10.144.231.151,1,0
2015-03-08 17:23:55.729,33,1425860631.405928,33.32477694584117,-111.9416583131668,355.9665,-1,-1,10,165,-9999,1425860635.70771,31.32524490356445,-33.28861999511719,-17.15474891662598,288.8461608886719,278.3236083984375,10,328399.3995189584,0.0018157958984375,-0.9593658447265625,-0.1719207763671875,328399.375486875,1.174601846165443,-1.056026729158537,0.2447282588956325,328399.375486875,-0.6558190880528902,0.1319358350526475,1.20070655964369,1.172351479530334,-1.046796441078186,0.2818756997585297,-0.09357273578643799,0.04867366328835487,0.1447952389717102,XTrueNorthZVertical,-0.5511877837159005,0.13005468917946,0.2299129151053731,-0.7914656320535123,0.04758274555206299,-0.9322949051856995,-0.3585556149482727,27.11711883544922,-36.40328216552734,-17.98078346252441,2,0.0.0.0,10.144.231.151,1,0
2015-03-08 17:23:55.792,34,1425860631.405928,33.32477694584117,-111.9416583131668,355.9665,-1,-1,10,165,-9999,1425860635.759222,30.11456680297852,-34.83500671386719,-16.8718433380127,290.0807800292969,279.5582275390625,10,328399.448420875,0.0765838623046875,-1.007415771484375,-0.2001190185546875,328399.4272708333,1.829145589401848,-1.64266838671341,0.2816042515616327,328399.4272708333,-0.6508860902982229,0.05986411975296535,1.279530708865866,1.826896905899048,-1.633437156677246,0.3187513947486877,0.1026314124464989,-0.03239895030856133,0.1814867705106735,XTrueNorthZVertical,-0.5730927963808174,0.1680460582536013,0.2394537302242544,-0.7654979232322321,0.01718059927225113,-0.9578812122344971,-0.2866503298282623,25.81538391113281,-37.64456176757812,-17.32912063598633,2,0.0.0.0,10.144.231.151,1,0
2015-03-08 17:23:55.827,35,1425860631.405928,33.32477694584117,-111.9416583131668,355.9665,-1,-1,10,165,-9999,1425860635.811804,27.96603775024414,-36.53434753417969,-15.50722694396973,293.5996398925781,283.0770874023438,10,328399.4975460417,0.3827362060546875,-1.086380004882812,0.1647186279296875,328399.4790545834,2.506770150857643,-3.620556316686146,5.326322180158476e-05,328399.4790545834,-0.5881619007566683,-0.1336642017063843,1.392469102985462,2.504521369934082,-3.611324071884155,0.03719771653413773,0.3327365815639496,-0.05926946178078651,0.2499590218067169,XTrueNorthZVertical,-0.5975774566296874,0.2345219157162881,0.2628935399044227,-0.7202691381717023,-0.02363928966224194,-0.9841417670249939,-0.1758013069629669,23.56706809997559,-39.80866622924805,-15.61117458343506,2,0.0.0.0,10.144.231.151,1,0
2015-03-08 17:23:55.896,36,1425860631.405928,33.32477694584117,-111.9416583131668,355.9665,-1,-1,10,165,-9999,1425860635.862058,26.07328796386719,-37.91079711914062,-14.95805358886719,299.6568298339844,289.13427734375,10,328399.5464399167,0.2671966552734375,-1.034683227539062,0.18768310546875,328399.5308397083,1.649274091481242,-4.234899376951696,-0.5431293337685039,328399.4790545834,-0.5881619007566683,-0.1336642017063843,1.392469102985462,2.504521369934082,-3.611324071884155,0.03719771653413773,0.3327365815639496,-0.05926946178078651,0.2499590218067169,XTrueNorthZVertical,-0.5975774566296874,0.2345219157162881,0.2628935399044227,-0.7202691381717023,-0.02363928966224194,-0.9841417670249939,-0.1758013069629669,23.56706809997559,-39.80866622924805,-15.61117458343506,2,0.0.0.0,10.144.231.151,1,0
2015-03-08 17:23:55.924,37,1425860631.405928,33.32477694584117,-111.9416583131668,355.9665,-1,-1,10,165,-9999,1425860635.915552,24.07822418212891,-38.84541320800781,-16.03976058959961,309.3435668945312,298.8210144042969,10,328399.5954707083,0.0030670166015625,-1.071090698242188,0.156829833984375,328399.58262375,0.02748302350129072,-3.619525673344286,-1.427902021661714,328399.58262375,-1.530237947855233,0.4052564341806367,1.545578734488608,0.02523437514901161,-3.610293388366699,-1.390758275985718,0.1579667627811432,-0.06625117361545563,0.2182253003120422,XTrueNorthZVertical,-0.5930584217589598,0.3697236912505681,0.3844093107333104,-0.6031712631414866,0.009940946474671364,-0.9996820688247681,-0.02317220158874989,19.29819869995117,-42.16400146484375,-15.28469848632812,2,0.0.0.0,10.144.231.151,1,0
2015-03-08 17:23:55.992,38,1425860631.405928,33.32477694584117,-111.9416583131668,355.9665,-1,-1,10,165,-9999,1425860635.968544,22.88459777832031,-38.33560180664062,-18.53600883483887,323.6770935058594,313.154541015625,10,328399.6444794167,-0.0485687255859375,-1.19476318359375,0.04815673828125,328399.634407625,-0.5258089329869556,-0.9034955093047941,-1.303430932317482,328399.58262375,-1.530237947855233,0.4052564341806367,1.545578734488608,0.02523437514901161,-3.610293388366699,-1.390758275985718,0.1579667627811432,-0.06625117361545563,0.2182253003120422,XTrueNorthZVertical,-0.5930584217589598,0.3697236912505681,0.3844093107333104,-0.6031712631414866,0.009940946474671364,-0.9996820688247681,-0.02317220158874989,19.29819869995117,-42.16400146484375,-15.28469848632812,2,0.0.0.0,10.144.231.151,1,0
2015-03-08 17:23:56.023,39,1425860631.405928,33.32477694584117,-111.9416583131668,355.9665,-1,-1,10,165,-9999,1425860635.968544,22.88459777832031,-38.33560180664062,-18.53600883483887,323.6770935058594,313.154541015625,10,328399.693499625,0.07501220703125,-1.045791625976562,-0.0027008056640625,328399.6861926667,-0.2863348246059405,0.6195375559717494,-0.09585835290853012,328399.634407625,-2.268388350775195,1.025263819109842,1.47546156968627,-0.5280575752258301,-0.8942633867263794,-1.266287565231323,-0.1640609204769135,-0.2126097679138184,0.1965932548046112,XTrueNorthZVertical,-0.576762662361586,0.3776889874268485,0.44488057276371,-0.5716442306267242,0.08137354254722595,-0.9954590797424316,-0.049391720443964,18.99594497680664,-40.81954574584961,-18.88820457458496,2,0.0.0.0,10.144.231.151,1,0
2015-03-08 17:23:56.091,40,1425860631.405928,33.32477694584117,-111.9416583131668,355.9665,-1,-1,10,165,-9999,1425860636.044202,24.16349029541016,-37.06111145019531,-20.38322830200195,330.7381591796875,320.2156066894531,10,328399.7424960417,0.015625,-0.96380615234375,-0.0724945068359375,328399.7379765417,-0.9450719812947841,0.6657223619120125,-0.3649484105078805,328399.6861926667,-2.28972753523998,1.050870111218286,1.442406265026346,-0.2885834276676178,0.6287695169448853,-0.05871538445353508,-0.002094088820740581,-0.08801889419555664,0.06896695494651794,XTrueNorthZVertical,-0.5790538511736525,0.3645422865339188,0.4548166316906176,-0.5700415604642476,0.1111181378364563,-0.9917693138122559,-0.06361111998558044,20.31864738464355,-39.30226135253906,-20.64776992797852,2,0.0.0.0,10.144.231.151,1,0
2015-03-08 17:23:56.122,41,1425860631.405928,33.32477694584117,-111.9416583131668,355.9665,-1,-1,10,165,-9999,1425860636.096223,25.40827560424805,-35.95654296875,-20.99897003173828,329.0805969238281,318.5580444335938,10,328399.791637,0.098297119140625,-0.99462890625,-0.2634429931640625,328399.7897605834,-0.9176313020548257,-0.834759854202067,-0.674509728244838,328399.7897605834,-1.990915226199305,0.7916763839574533,1.366352150575461,-0.9198798537254333,-0.8255280256271362,-0.6373674273490906,-0.07422112673521042,-0.01470724493265152,-0.1121517643332481,XTrueNorthZVertical,-0.5678224396715854,0.3259605809035163,0.4679541115485584,-0.5935876654181585,0.1444573253393173,-0.9791739583015442,-0.1426547467708588,22.56892776489258,-37.33947372436523,-21.9146671295166,2,0.0.0.0,10.144.231.151,1,0
2015-03-08 17:23:56.162,42,1425860631.405928,33.32477694584117,-111.9416583131668,355.9665,-1,-1,10,165,-9999,1425860636.149309,25.59584045410156,-34.54611206054688,-21.9808292388916,329.5750732421875,319.0525207519531,10,328399.8405257917,0.025634765625,-0.9085235595703125,-0.2222747802734375,328399.7897605834,-0.9176313020548257,-0.834759854202067,-0.674509728244838,328399.7897605834,-1.990915226199305,0.7916763839574533,1.366352150575461,-0.9198798537254333,-0.8255280256271362,-0.6373674273490906,-0.07422112673521042,-0.01470724493265152,-0.1121517643332481,XTrueNorthZVertical,-0.5678224396715854,0.3259605809035163,0.4679541115485584,-0.5935876654181585,0.1444573253393173,-0.9791739583015442,-0.1426547467708588,22.56892776489258,-37.33947372436523,-21.9146671295166,2,0.0.0.0,10.144.231.151,1,0
2015-03-08 17:23:56.219,43,1425860631.405928,33.32477694584117,-111.9416583131668,355.9665,-1,-1,10,165,-9999,1425860636.199784,25.18659210205078,-33.6624755859375,-23.61170768737793,332.9971313476562,322.4745788574219,10,328399.8896593333,-0.021759033203125,-1.016708374023438,-0.2410430908203125,328399.8933296667,0.2470108542659394,-0.6239908939465799,0.0140857253215381,328399.8415456667,-2.003965616597858,0.7430828431451993,1.338313126775174,0.06826824694871902,-1.307221531867981,-0.2857054471969604,-0.1302412897348404,0.06457372009754181,-0.05261535197496414,XTrueNorthZVertical,-0.5512496319336909,0.3336077478990995,0.4944470102932216,-0.5833968273791735,0.1558760553598404,-0.9730972647666931,-0.1696594208478928,22.75901412963867,-35.84192657470703,-24.10869598388672,2,0.0.0.0,10.144.231.151,1,0
2015-03-08 17:23:56.261,44,1425860631.405928,33.32477694584117,-111.9416583131668,355.9665,-1,-1,10,165,-9999,1425860636.251809,24.70913696289062,-33.254638671875,-24.61020660400391,334.88525390625,324.3627014160156,10,328399.93856125,-0.1043701171875,-1.033538818359375,-0.2015838623046875,328399.8933296667,0.2470108542659394,-0.6239908939465799,0.0140857253215381,328399.8933296667,-2.05204746690605,0.742934009356244,1.340739718839119,0.2447623461484909,-0.6147592663764954,0.05122720822691917,-0.1760120689868927,-0.04305488616228104,-0.07310003787279129,XTrueNorthZVertical,-0.543258521934564,0.3477048343923735,0.5075894195080175,-0.5712481930286417,0.1542530357837677,-0.9736534953117371,-0.1679430603981018,21.83814811706543,-35.46765899658203,-25.4752025604248,2,0.0.0.0,10.144.231.151,1,0
2015-03-08 17:23:56.318,45,1425860631.405928,33.32477694584117,-111.9416583131668,355.9665,-1,-1,10,165,-9999,1425860636.30385,24.02706909179688,-33.22065734863281,-24.90975379943848,335.7282409667969,325.2056884765625,10,328399.9877239167,-0.0466156005859375,-1.041671752929688,-0.2711181640625,328399.9451134167,0.161864001577817,-0.3725437459367865,-0.13400147762119,328399.9451134167,-2.082476314895609,0.7470885853923835,1.349700461629212,0.1596155017614365,-0.3633122146129608,-0.09686033427715302,-0.2533849477767944,-0.05788110569119453,-0.04069076851010323,XTrueNorthZVertical,-0.5397460332298381,0.3580889168989673,0.5122140934146543,-0.563988705616977,0.1490148454904556,-0.9756577014923096,-0.1608930975198746,20.75970268249512,-35.79702758789062,-25.91241264343262,2,0.0.0.0,10.144.231.151,1,0
2015-03-08 17:23:56.361,46,1425860631.405928,33.32477694584117,-111.9416583131668,355.9665,-1,-1,10,165,-9999,1425860636.355166,23.49846267700195,-32.99972534179688,-25.55877494812012,334.5513000488281,324.0287475585938,10,328400.0366095417,-0.018798828125,-1.005386352539062,-0.198394775390625,328399.996898625,-0.1462799818270003,-0.1834659664438857,-0.04403430336002417,328399.996898625,-2.08927000329847,0.7424654804571608,1.345961613993415,-0.1485284417867661,-0.1742345094680786,-0.006893526297062635,-0.1973503082990646,-0.06684078276157379,-0.1068512722849846,XTrueNorthZVertical,-0.5370190086686684,0.3598293210440622,0.5165766009762174,-0.5614998216550722,0.1507347077131271,-0.9748309850692749,-0.1642668843269348,20.44585990905762,-35.89716720581055,-26.02317810058594,2,0.0.0.0,10.144.231.151,1,0
2015-03-08 17:23:56.416,47,1425860631.405928,33.32477694584117,-111.9416583131668,355.9665,-1,-1,10,165,-9999,1425860636.407298,23.58372497558594,-32.77883911132812,-26.04138374328613,333.1932067871094,322.670654296875,10,328400.0857426667,0.162811279296875,-0.935333251953125,-0.2744140625,328400.0486825417,-0.3588284663228784,0.4208170028038897,-0.1347471627264122,328400.0486825417,-2.06034661959486,0.7196424809308527,1.332941594010282,-0.3610768914222717,0.4300483465194702,-0.09760679304599762,-0.1245074942708015,-0.02565188333392143,-0.02480115182697773,XTrueNorthZVertical,-0.5350910658551424,0.3536667957935407,0.5187242287509589,-0.5652632251006517,0.1552997380495071,-0.9718456864356995,-0.1771946996450424,20.30978202819824,-35.706298828125,-26.38973999023438,2,0.0.0.0,10.144.231.151,1,0
2015-03-08 17:23:56.464,48,1425860631.405928,33.32477694584117,-111.9416583131668,355.9665,-1,-1,10,165,-9999,1425860636.45812,24.60683059692383,-32.50692749023438,-26.0413875579834,331.2317504882812,320.7091979980469,10,328400.1346305,0.2009429931640625,-0.8291015625,-0.2937774658203125,328400.100466625,-0.2323693272249018,0.8552885651488338,0.1439582379886692,328400.100466625,-2.008162285119951,0.7048861682320227,1.32229798530998,-0.2346177399158478,0.8645198345184326,0.1810982376337051,0.00250349729321897,0.0630023255944252,-0.08334016799926758,XTrueNorthZVertical,-0.5392467667503662,0.3399193703438464,0.5111744293403409,-0.5765140408977266,0.1593617349863052,-0.969282865524292,-0.1873354911804199,21.0482063293457,-35.08579254150391,-26.64218139648438,2,0.0.0.0,10.144.231.151,1,0
2015-03-08 17:23:56.513,49,1425860631.405928,33.32477694584117,-111.9416583131668,355.9665,-1,-1,10,165,-9999,1425860636.45812,24.60683059692383,-32.50692749023438,-26.0413875579834,331.2317504882812,320.7091979980469,10,328400.1836462917,0.248443603515625,-0.9293060302734375,-0.3038177490234375,328400.1522517084,-0.08638069522115613,0.6609547709285527,-0.06423624444103825,328400.1522517084,-1.974276178217828,0.713721659337002,1.319083340115167,-0.0886290967464447,0.670185923576355,-0.02709658443927765,0.07376671582460403,0.1251491904258728,-0.1196477636694908,XTrueNorthZVertical,-0.5467697166443473,0.3269641831143347,0.4999366279651259,-0.5866861667784787,0.1630496829748154,-0.9684872031211853,-0.1882746070623398,21.83915710449219,-34.93303680419922,-26.20266723632812,2,0.0.0.0,10.144.231.151,1,0
2015-03-08 17:23:56.561,50,1425860631.405928,33.32477694584117,-111.9416583131668,355.9665,-1,-1,10,165,-9999,1425860636.511118,25.7151985168457,-32.31999206542969,-25.29251670837402,328.9734802246094,318.450927734375,10,328400.2326608333,0.128204345703125,-0.9349212646484375,-0.27447509765625,328400.2040357083,0.02289546220752022,0.07447050619410375,0.02988199901123409,328400.2040357083,-1.97373978859868,0.7303567929252294,1.319202558852047,0.0206470862030983,0.08370157331228256,0.06702125072479248,0.02799460850656033,0.02543216943740845,-0.09082532674074173,XTrueNorthZVertical,-0.5510087449767305,0.3219692666089882,0.4951757658079642,-0.5895134482132397,0.1660819351673126,-0.9685168862342834,-0.1854503154754639,22.6500415802002,-34.82226943969727,-25.65600967407227,2,0.0.0.0,10.144.231.151,1,0
2015-03-08 17:23:56.611,51,1425860631.405928,33.32477694584117,-111.9416583131668,355.9665,-1,-1,10,165,-9999,1425860636.564051,25.91981887817383,-32.04812622070312,-24.72669792175293,328.43408203125,317.9115295410156,10,328400.2816868334,0.13287353515625,-1.005340576171875,-0.222564697265625,328400.2558195417,0.1076311228233344,-0.1291185717625297,-0.01650520717187509,328400.2558195417,-1.9739832382753,0.727171618374569,1.323471924302092,0.1053827702999115,-0.1198875978589058,0.02063367329537868,-0.04335538297891617,0.01215818617492914,-0.07744256407022476,XTrueNorthZVertical,-0.5506597548628701,0.3245458638489482,0.4947724371937081,-0.5887648447178475,0.1627401411533356,-0.9695709347724915,-0.1828876286745071,22.77064895629883,-34.92356872558594,-25.41038131713867,2,0.0.0.0,10.144.231.151,1,0
2015-03-08 17:23:56.690,52,1425860631.405928,33.32477694584117,-111.9416583131668,355.9665,-1,-1,10,165,-9999,1425860636.666726,25.74929809570312,-32.69387817382812,-24.82655143737793,328.1545104980469,317.6319580078125,10,328400.3307050417,0.1412200927734375,-0.922332763671875,-0.26495361328125,328400.3076049167,0.1057671763763879,-0.01555073023719069,0.08460356782574625,328400.3076049167,-1.957838937030407,0.7072368623204971,1.329445932589337,0.1033948734402657,-0.006382239051163197,0.1218573600053787,-0.02277341857552528,0.02024095132946968,-0.05457813665270805,XTrueNorthZVertical,-0.5490535765321979,0.3281702209759896,0.4936074043255266,-0.5892335673619733,0.1552959978580475,-0.9710161089897156,-0.1816889494657516,22.5882568359375,-35.07359313964844,-25.36650085449219,2,0.0.0.0,10.144.231.151,1,0
2015-03-08 17:23:56.709,53,1425860631.405928,33.32477694584117,-111.9416583131668,355.9665,-1,-1,10,165,-9999,1425860636.666726,25.74929809570312,-32.69387817382812,-24.82655143737793,328.1545104980469,317.6319580078125,10,328400.379724,0.161468505859375,-0.9797210693359375,-0.2009124755859375,328400.3593887084,0.1546463023914842,0.02202860327269943,0.05665662166256373,328400.3593887084,-1.960734044405057,0.7106108849837698,1.338561934507809,0.152274027466774,0.03119700215756893,0.09391003847122192,-0.01037249900400639,0.022699860855937,-0.05919539555907249,XTrueNorthZVertical,-0.5504656375469695,0.3313064914440451,0.4906440687652631,-0.5886356927182058,0.1501277536153793,-0.9731545448303223,-0.1744471788406372,22.1954288482666,-35.39044570922852,-25.27300834655762,2,0.0.0.0,10.144.231.151,1,0
2015-03-08 17:23:56.760,54,1425860631.405928,33.32477694584117,-111.9416583131668,355.9665,-1,-1,10,165,-9999,1425860636.718518,25.80045318603516,-33.05073547363281,-24.61020851135254,327.6524353027344,317.1298828125,10,328400.4287367917,0.1905670166015625,-0.986785888671875,-0.149444580078125,328400.4111727917,0.08715594141447819,0.0107684918677354,0.03871410645037288,328400.4111727917,-1.960408475791348,0.7127983382561355,1.343582418468444,0.08476777374744415,0.01993480138480663,0.07595522701740265,0.03528985381126404,-0.05921052023768425,-0.005239200312644243,XTrueNorthZVertical,-0.5516300677669752,0.3324067967880233,0.4883494836980096,-0.588833390617197,0.1473120748996735,-0.9742977619171143,-0.1704199761152267,22.08667373657227,-35.64804840087891,-25.00482177734375,2,0.0.0.0,10.144.231.151,1,0
2015-03-08 17:23:56.807,55,1425860631.405928,33.32477694584117,-111.9416583131668,355.9665,-1,-1,10,165,-9999,1425860636.770567,25.49352264404297,-33.01676940917969,-24.3106575012207,327.6029357910156,317.0803833007812,10,328400.4777610417,0.085723876953125,-0.9620208740234375,-0.093963623046875,328400.4629579167,0.1990103050944602,0.006851780852555864,0.1511474413513381,328400.4629579167,-1.962972161403721,0.7175400578375299,1.352316698495025,0.1966313868761063,0.01603447273373604,0.188359409570694,-0.0004428651882335544,0.01439034286886454,0.02899380587041378,XTrueNorthZVertical,-0.5533417347660367,0.3349060923329295,0.485008251465142,-0.5885726975017229,0.1425174474716187,-0.9762281179428101,-0.1633016616106033,22.00696563720703,-35.77788543701172,-24.8893928527832,2,0.0.0.0,10.144.231.151,1,0
2015-03-08 17:23:56.847,56,1425860631.405928,33.32477694584117,-111.9416583131668,355.9665,-1,-1,10,165,-9999,1425860636.822219,25.34005737304688,-33.37362670898438,-24.0610294342041,327.5877685546875,317.0652160644531,10,328400.5268789167,0.0601654052734375,-1.010009765625,-0.0123138427734375,328400.514742,0.2583412731236815,0.340363971537032,0.1010320759582271,328400.4629579167,-1.962972161403721,0.7175400578375299,1.352316698495025,0.1966313868761063,0.01603447273373604,0.188359409570694,-0.0004428651882335544,0.01439034286886454,0.02899380587041378,XTrueNorthZVertical,-0.5533417347660367,0.3349060923329295,0.485008251465142,-0.5885726975017229,0.1425174474716187,-0.9762281179428101,-0.1633016616106033,22.00696563720703,-35.77788543701172,-24.8893928527832,2,0.0.0.0,10.144.231.151,1,0
2015-03-08 17:23:56.905,57,1425860631.405928,33.32477694584117,-111.9416583131668,355.9665,-1,-1,10,165,-9999,1425860636.873968,25.20364379882812,-34.15531921386719,-23.66162872314453,327.1173095703125,316.5947570800781,10,328400.5758924167,0.0648651123046875,-1.022293090820312,0.0218963623046875,328400.5665258333,0.2872749204707384,1.046332290158431,0.2739790887285178,328400.5665258333,-1.981652375727541,0.7795783966433046,1.390861408866431,0.2849484086036682,1.055520176887512,0.3112332820892334,-0.06323280185461044,-0.0300301555544138,0.1398400366306305,XTrueNorthZVertical,-0.5688178158340945,0.3358649568009283,0.4606356347814725,-0.5928370986212315,0.1258091032505035,-0.9838553667068481,-0.127282053232193,21.86678123474121,-36.89118576049805,-23.33945083618164,2,0.0.0.0,10.144.231.151,1,0
2015-03-08 17:23:56.945,58,1425860631.405928,33.32477694584117,-111.9416583131668,355.9665,-1,-1,10,165,-9999,1425860636.926251,25.78340530395508,-34.76708984375,-22.16388130187988,324.6345825195312,314.1120300292969,10,328400.624925,0.137054443359375,-1.031036376953125,0.0301971435546875,328400.6183112084,-0.003006176238481444,1.509407267875262,0.1894173325318858,328400.5665258333,-1.981652375727541,0.7795783966433046,1.390861408866431,0.2849484086036682,1.055520176887512,0.3112332820892334,-0.06323280185461044,-0.0300301555544138,0.1398400366306305,XTrueNorthZVertical,-0.5688178158340945,0.3358649568009283,0.4606356347814725,-0.5928370986212315,0.1258091032505035,-0.9838553667068481,-0.127282053232193,21.86678123474121,-36.89118576049805,-23.33945083618164,2,0.0.0.0,10.144.231.151,1,0
2015-03-08 17:23:57.005,59,1425860631.405928,33.32477694584117,-111.9416583131668,355.9665,-1,-1,10,165,-9999,1425860636.978542,27.0281867980957,-34.88603210449219,-20.61620903015137,319.6411743164062,309.1186218261719,10,328400.6739529584,0.232696533203125,-1.03155517578125,-0.0396575927734375,328400.6700950417,-0.3106505506227999,1.606787883662881,0.1752788766207642,328400.6183112084,-1.950065985983404,0.8155598325662782,1.406176050894148,-0.005332657136023045,1.518595099449158,0.2266711294651031,-0.01696494594216347,-0.04893499612808228,0.149258017539978,XTrueNorthZVertical,-0.5834763727115476,0.3215422928874904,0.4357666059642272,-0.6052051981334744,0.1193209066987038,-0.9864806532859802,-0.1123317554593086,22.41997718811035,-37.46097946166992,-21.86013221740723,2,0.0.0.0,10.144.231.151,1,0
2015-03-08 17:23:57.043,60,1425860631.405928,33.32477694584117,-111.9416583131668,355.9665,-1,-1,10,165,-9999,1425860637.030112,28.29002380371094,-35.05595397949219,-19.18502998352051,315.8983459472656,305.3757934570312,10,328400.7229755,0.14093017578125,-1.00677490234375,-0.0004119873046875,328400.7218790834,-0.3510637538486434,1.609758639858865,0.3966773117350845,328400.6700950417,-1.870173951730867,0.817461501085825,1.406451871198488,-0.3129770159721375,1.615975618362427,0.2125323414802551,0.1183503270149231,-0.04821844398975372,0.08164507150650024,XTrueNorthZVertical,-0.5962713888536344,0.2974914754850435,0.4105924589587038,-0.6223930236143914,0.1193358302116394,-0.98652583360672,-0.1119185090065002,23.79734992980957,-37.74563598632812,-19.81914138793945,2,0.0.0.0,10.144.231.151,1,0
2015-03-08 17:23:57.101,61,1425860631.405928,33.32477694584117,-111.9416583131668,355.9665,-1,-1,10,165,-9999,1425860637.082052,29.58596038818359,-35.22590637207031,-17.75384712219238,310.8143615722656,300.2918090820312,10,328400.7718864583,0.13397216796875,-0.9890289306640625,0.011688232421875,328400.7736644584,-0.3269770596855307,1.698668539167269,0.510594826311551,328400.7218790834,-1.725934611009224,0.7545948912235753,1.405834585192132,-0.3533901870250702,1.618946313858032,0.4339303970336914,0.04223821312189102,-0.0294139850884676,0.1114443838596344,XTrueNorthZVertical,-0.6043058175619812,0.2738526996086876,0.3840591420909485,-0.6421197267671142,0.112485907971859,-0.9864246249198914,-0.1196383535861969,24.7918701171875,-37.72927856445312,-18.59328079223633,2,0.0.0.0,10.144.231.151,1,0
2015-03-08 17:23:57.141,62,1425860631.405928,33.32477694584117,-111.9416583131668,355.9665,-1,-1,10,165,-9999,1425860637.133348,30.0804615020752,-35.37882995605469,-16.37259101867676,305.6549377441406,295.1323852539062,10,328400.8209990417,0.2131195068359375,-1.023574829101562,-0.0316619873046875,328400.7736644584,-0.3269770596855307,1.698668539167269,0.510594826311551,328400.7736644584,-1.52997727988491,0.6462919938433772,1.409873693076628,-0.3293034434318542,1.707856059074402,0.5478475093841553,0.03747743740677834,-0.001949059776961803,0.1396025717258453,XTrueNorthZVertical,-0.6107534468371624,0.2510439336828155,0.3517256589542891,-0.663510528718335,0.09649473428726196,-0.9870798587799072,-0.1279143393039703,25.3668270111084,-37.93563842773438,-17.35675811767578,2,0.0.0.0,10.144.231.151,1,0
2015-03-08 17:23:57.200,63,1425860631.405928,33.32477694584117,-111.9416583131668,355.9665,-1,-1,10,165,-9999,1425860637.184669,30.26802825927734,-35.66769409179688,-15.22432136535645,302.0411987304688,291.5186462402344,10,328400.8699224584,0.3205413818359375,-0.9910736083984375,-0.0305023193359375,328400.8772321667,-0.3503329824455256,1.285736890034995,0.3485883456154147,328400.8254481667,-1.356103280272791,0.5583640460820417,1.407954195883671,-0.3536074757575989,1.649938344955444,0.3891120851039886,0.1272266507148743,-0.03680433705449104,0.1058385372161865,XTrueNorthZVertical,-0.6163274528091834,0.2266940836020864,0.3207342874315996,-0.6825538591119591,0.08589284867048264,-0.9867705106735229,-0.137500524520874,25.86152458190918,-38.39017105102539,-15.53132820129395,2,0.0.0.0,10.144.231.151,1,0
2015-03-08 17:23:57.240,64,1425860631.405928,33.32477694584117,-111.9416583131668,355.9665,-1,-1,10,165,-9999,1425860637.184669,30.26802825927734,-35.66769409179688,-15.22432136535645,302.0411987304688,291.5186462402344,10,328400.9189328334,0.32794189453125,-0.985137939453125,-0.1113128662109375,328400.8772321667,-0.3503329824455256,1.285736890034995,0.3485883456154147,328400.8772321667,-1.200139598886267,0.4804474089672413,1.403485589820244,-0.3526591360569,1.294924974441528,0.3858387470245361,0.2435746639966965,-0.005037430208176374,0.1171755865216255,XTrueNorthZVertical,-0.6200792443529625,0.2041146226097496,0.2921311878668492,-0.6989265419086416,0.07696671783924103,-0.9860361814498901,-0.1476778984069824,26.2741870880127,-38.62638854980469,-14.19559574127197,2,0.0.0.0,10.144.231.151,1,0
2015-03-08 17:23:57.298,65,1425860631.405928,33.32477694584117,-111.9416583131668,355.9665,-1,-1,10,165,-9999,1425860637.239939,30.37033843994141,-35.80366516113281,-14.19253921508789,298.6397094726562,288.1171569824219,10,328400.9680574167,0.2829132080078125,-0.94976806640625,-0.1050262451171875,328400.9290174583,-0.3770351671152051,0.4276996763250905,0.2907886952129889,328400.9290174583,-1.062168442210314,0.3864705855099568,1.392770239348858,-0.3793613016605377,0.4368875920772552,0.3280386626720428,0.2425018846988678,0.007968357764184475,0.05156884342432022,XTrueNorthZVertical,-0.6174147064443313,0.1917968201121363,0.2751003318545265,-0.7115706976991056,0.06674798578023911,-0.9841951727867126,-0.1640261262655258,26.39990615844727,-38.85640716552734,-13.30677032470703,2,0.0.0.0,10.144.231.151,1,0
2015-03-08 17:23:57.337,66,1425860631.405928,33.32477694584117,-111.9416583131668,355.9665,-1,-1,10,165,-9999,1425860637.315799,30.1486644744873,-36.12654113769531,-13.54351425170898,294.1475524902344,283.625,10,328401.0169704167,0.166778564453125,-0.880828857421875,-0.1548309326171875,328400.980801625,-0.4229560537914414,-0.2774925971546593,0.4676905022020474,328400.980801625,-0.9199633606586067,0.2451361473599276,1.379215877845792,-0.4252821505069733,-0.2683047652244568,0.5049400925636292,0.180687740445137,0.04899578541517258,0.04891494289040565,XTrueNorthZVertical,-0.6077014359261748,0.1958057266396463,0.2702200832091308,-0.7206526064395837,0.04621044918894768,-0.9817045331001282,-0.1847181618213654,25.89645004272461,-39.07692718505859,-13.64599800109863,2,0.0.0.0,10.144.231.151,1,0
2015-03-08 17:23:57.395,67,1425860631.405928,33.32477694584117,-111.9416583131668,355.9665,-1,-1,10,165,-9999,1425860637.366832,29.50069808959961,-36.6363525390625,-14.2757453918457,293.4501647949219,282.9276123046875,10,328401.065983125,0.101409912109375,-0.905181884765625,-0.0808258056640625,328401.032585625,-0.2748629918943151,-0.3886622621183821,0.5216061984707016,328401.032585625,-0.7791212308038659,0.08645720284466341,1.366331263178491,-0.2771890461444855,-0.3794745206832886,0.5588554739952087,0.09208644181489944,0.1039713770151138,0.04037395864725113,XTrueNorthZVertical,-0.5961390334329875,0.2085084346261719,0.2690397802776252,-0.7271589045626985,0.01753269881010056,-0.9791697263717651,-0.2022849768400192,24.8485221862793,-39.36402130126953,-14.72652435302734,2,0.0.0.0,10.144.231.151,1,0
2015-03-08 17:23:57.435,68,1425860631.405928,33.32477694584117,-111.9416583131668,355.9665,-1,-1,10,165,-9999,1425860637.418697,28.5628490447998,-36.85725402832031,-15.22431755065918,292.9664916992188,282.4439392089844,10,328401.1150937917,0.0946044921875,-0.804229736328125,-0.133453369140625,328401.0843707083,-0.3003105613744583,0.5640175714624315,0.6003513445304915,328401.0843707083,-0.6430179118140379,-0.04295817624289289,1.353800751038949,-0.3026366233825684,0.5732052326202393,0.6376002430915833,0.121855765581131,0.081391841173172,0.1456552296876907,XTrueNorthZVertical,-0.5888563808995221,0.2137736560915229,0.259033444420229,-0.7351534885017564,-0.009245905093848705,-0.9765486717224121,-0.2150979787111282,23.66091918945312,-39.75448608398438,-15.60729217529297,2,0.0.0.0,10.144.231.151,1,0
2015-03-08 17:23:57.517,69,1425860637.457784,33.325500022651,-111.9416598883569,353.7444,0.76,8.0859375,12,50,-9999,1425860637.418697,28.5628490447998,-36.85725402832031,-15.22431755065918,292.9664916992188,282.4439392089844,10,328401.1640235,0.146881103515625,-0.7430572509765625,-0.1171722412109375,328401.1361547083,-0.3131200999016304,1.250082755677123,0.5952868110854879,328401.1361547083,-0.4998734824874531,-0.129870934853834,1.33372711503084,-0.315446138381958,1.259270310401917,0.6325352787971497,0.09842356294393539,0.1962431073188782,0.05019876733422279,XTrueNorthZVertical,-0.5854311503867717,0.2020689812194469,0.2328325830219567,-0.7498182937341612,-0.03041514381766319,-0.9720304608345032,-0.2328769862651825,22.69728088378906,-40.35153961181641,-15.50587940216064,2,0.0.0.0,10.144.231.151,1,0
2015-03-08 17:23:57.532,70,1425860637.457784,33.325500022651,-111.9416598883569,353.7444,0.76,8.0859375,12,50,-9999,1425860637.480523,27.76141357421875,-37.72390747070312,-15.17439460754395,290.7117614746094,280.189208984375,10,328401.2130331667,0.1474761962890625,-0.6359100341796875,-0.2731781005859375,328401.1879387083,-0.2424355435131833,1.146545444081459,0.6687197497188967,328401.1879387083,-0.3784647748701617,-0.1875179931424538,1.316727587196614,-0.2447615563869476,1.155732870101929,0.705967903137207,0.2840689420700073,0.259111762046814,0.1149190068244934,XTrueNorthZVertical,-0.5843325122455602,0.1873138797746716,0.2043939573136445,-0.762687436725917,-0.04685581475496292,-0.9678977727890015,-0.2469380497932434,22.3884162902832,-40.79416656494141,-14.7797212600708,2,0.0.0.0,10.144.231.151,1,0
2015-03-08 17:23:57.613,71,1425860637.563407,33.32550438124065,-111.9416591339856,360.1156,0.76,-1,12,50,-9999,1425860637.548329,26.92587280273438,-38.45462036132812,-14.19253921508789,284.9342651367188,274.4117126464844,10,328401.2620727083,0.047607421875,-0.8305816650390625,-0.2357635498046875,328401.2397240417,-0.09581760654385191,-0.1967042739065606,0.0002444781880692741,328401.2397240417,-0.3002498970402135,-0.2346175045864731,1.303385944941275,-0.09814359247684479,-0.1875168979167938,0.03749227151274681,0.07691457867622375,0.2889365553855896,-0.04847012832760811,XTrueNorthZVertical,-0.5816723255278823,0.1820975604626931,0.1882831166032351,-0.770095606103569,-0.06142690405249596,-0.9644584059715271,-0.2569955587387085,21.86498260498047,-41.30862808227539,-14.11968421936035,2,0.0.0.0,10.144.231.151,1,0
2015-03-08 17:23:57.630,72,1425860637.563407,33.32550438124065,-111.9416591339856,360.1156,0.76,-1,12,50,-9999,1425860637.600793,26.34610748291016,-38.42062377929688,-14.29238700866699,282.759765625,272.2372131347656,10,328401.3110795834,-0.137969970703125,-0.8380279541015625,-0.250030517578125,328401.2915080417,-0.1342531463442025,-1.117064517130391,0.216814868562185,328401.2915080417,-0.3066119803746875,-0.2723095490394612,1.29840581938848,-0.1365791112184525,-1.107877254486084,0.2540622353553772,0.1519942432641983,0.1511798352003098,0.07056838274002075,XTrueNorthZVertical,-0.5754210973604659,0.1983177742966006,0.2016108906926937,-0.7674071020090625,-0.07235861569643021,-0.9631305336952209,-0.2591212391853333,21.42850494384766,-41.33374786376953,-14.70326614379883,2,0.0.0.0,10.144.231.151,1,0
2015-03-08 17:23:57.725,73,1425860637.563407,33.32550438124065,-111.9416591339856,360.1156,0.76,-1,12,50,-9999,1425860637.650993,26.14148712158203,-38.76046752929688,-15.15775299072266,283.7003784179688,273.1778259277344,10,328401.3600879583,-0.0680084228515625,-1.00994873046875,-0.18182373046875,328401.3432920417,0.0775975899460748,-1.083960892148488,-0.471844767186462,328401.3432920417,-0.3162998700333534,-0.3162826881470132,1.299882283641301,0.07538153976202011,-1.074899554252625,-0.4344687461853027,-0.09066744148731232,-0.08415702730417252,0.04733744636178017,XTrueNorthZVertical,-0.5703852007985231,0.2179257527179662,0.2179273934150039,-0.7613650442205808,-0.08323697745800018,-0.9635266661643982,-0.2543381750583649,20.36390495300293,-41.44902801513672,-15.84724998474121,2,0.0.0.0,10.144.231.151,1,0
2015-03-08 17:23:57.729,74,1425860637.563407,33.32550438124065,-111.9416591339856,360.1156,0.76,-1,12,50,-9999,1425860637.710319,25.76634979248047,-38.62454223632812,-16.08968353271484,285.3403015136719,274.8177490234375,10,328401.4090900833,-0.1944580078125,-0.7726898193359375,-0.214630126953125,328401.395077375,0.1328944015560441,-0.2233505321933484,0.1852114022223237,328401.3432920417,-0.3162998700333534,-0.3162826881470132,1.299882283641301,0.07538153976202011,-1.074899554252625,-0.4344687461853027,-0.09066744148731232,-0.08415702730417252,0.04733744636178017,XTrueNorthZVertical,-0.5703852007985231,0.2179257527179662,0.2179273934150039,-0.7613650442205808,-0.08323697745800018,-0.9635266661643982,-0.2543381750583649,20.36390495300293,-41.44902801513672,-15.84724998474121,2,0.0.0.0,10.144.231.151,1,0
2015-03-08 17:23:57.801,75,1425860637.563407,33.32550438124065,-111.9416591339856,360.1156,0.76,-1,12,50,-9999,1425860637.7808,25.35710525512695,-38.38664245605469,-16.62221527099609,286.9862670898438,276.4637145996094,10,328401.4581015834,0.0011138916015625,-1.052536010742188,-0.3014373779296875,328401.446861375,0.03564774277125565,-0.4323365060990275,-0.2717114070603153,328401.446861375,-0.3236753176567532,-0.3532326651030787,1.314973997087066,0.03343173861503601,-0.4232753217220306,-0.2343360930681229,-0.00223229150287807,-0.07095083594322205,0.07910817116498947,XTrueNorthZVertical,-0.5713524474242969,0.2341950590716655,0.2315290713769087,-0.7517335529197566,-0.08753516525030136,-0.9674555659294128,-0.2374181151390076,19.72941398620605,-41.49745559692383,-16.50930023193359,2,0.0.0.0,10.144.231.151,1,0
2015-03-08 17:23:57.828,76,1425860637.563407,33.32550438124065,-111.9416591339856,360.1156,0.76,-1,12,50,-9999,1425860637.7808,25.35710525512695,-38.38664245605469,-16.62221527099609,286.9862670898438,276.4637145996094,10,328401.5072322083,-0.1905059814453125,-1.027633666992188,-0.195587158203125,328401.4986455417,0.0486362457236811,-0.7182329743895409,0.02782950075911002,328401.446861375,-0.3236753176567532,-0.3532326651030787,1.314973997087066,0.03343173861503601,-0.4232753217220306,-0.2343360930681229,-0.00223229150287807,-0.07095083594322205,0.07910817116498947,XTrueNorthZVertical,-0.5713524474242969,0.2341950590716655,0.2315290713769087,-0.7517335529197566,-0.08753516525030136,-0.9674555659294128,-0.2374181151390076,19.72941398620605,-41.49745559692383,-16.50930023193359,2,0.0.0.0,10.144.231.151,1,0
2015-03-08 17:23:57.898,77,1425860637.563407,33.32550438124065,-111.9416591339856,360.1156,0.76,-1,12,50,-9999,1425860637.884633,24.8285026550293,-38.7774658203125,-16.8718433380127,289.8460693359375,279.3235168457031,10,328401.5561105,-0.0893707275390625,-1.240585327148438,-0.188262939453125,328401.55043075,0.3278023733073462,-0.3621574176854774,0.1981511693268007,328401.4986455417,-0.2854338345880835,-0.4188156005826178,1.323957772417038,0.04646361246705055,-0.709164559841156,0.06522739678621292,-0.05892699211835861,-0.008322352543473244,0.04968336597084999,XTrueNorthZVertical,-0.57181586072528,0.247822183905766,0.2362200114239431,-0.7455272517751346,-0.09936768561601639,-0.9696897268295288,-0.2232215702533722,19.67123413085938,-41.46820831298828,-16.65160179138184,2,0.0.0.0,10.144.231.151,1,0
2015-03-08 17:23:57.926,78,1425860637.563407,33.32550438124065,-111.9416591339856,360.1156,0.76,-1,12,50,-9999,1425860637.884633,24.8285026550293,-38.7774658203125,-16.8718433380127,289.8460693359375,279.3235168457031,10,328401.605109,-0.036041259765625,-1.025238037109375,-0.2397003173828125,328401.602214875,0.460148163678834,-0.1335956118710619,-0.001123055031686415,328401.55043075,-0.2644265915211799,-0.469554081071549,1.33218166637025,0.3256297409534454,-0.3530890643596649,0.2355487048625946,0.07150258123874664,-0.3645000457763672,0.03084423951804638,XTrueNorthZVertical,-0.5716089575878798,0.2605288078195261,0.243294912204319,-0.7390504150233969,-0.1069487482309341,-0.9716663360595703,-0.2107758820056915,18.90594863891602,-41.71764755249023,-16.9129695892334,2,0.0.0.0,10.144.231.151,1,0
2015-03-08 17:23:57.997,79,1425860637.563407,33.32550438124065,-111.9416591339856,360.1156,0.76,-1,12,50,-9999,1425860637.940145,24.21463012695312,-39.08332824707031,-16.73871040344238,290.2014465332031,279.6788940429688,10,328401.6541290833,-0.0551605224609375,-1.2227783203125,-0.262115478515625,328401.65399875,0.3134892140287154,-0.2144097677817344,0.3681426059193215,328401.602214875,-0.2266515830734651,-0.511825010557717,1.345912084550396,0.4579303860664368,-0.124532088637352,0.03624039515852928,0.05330713838338852,-0.02171632833778858,-0.04653419181704521,XTrueNorthZVertical,-0.5767492031253073,0.2648616324526896,0.2423122379627259,-0.7338211240020576,-0.1092153415083885,-0.9748198986053467,-0.194417342543602,18.23987770080566,-42.17319107055664,-16.50983047485352,2,0.0.0.0,10.144.231.151,1,0
2015-03-08 17:23:58.023,80,1425860637.563407,33.32550438124065,-111.9416591339856,360.1156,0.76,-1,12,50,-9999,1425860637.990862,23.31088256835938,-39.47416687011719,-16.48908424377441,291.0319213867188,280.5093688964844,10,328401.703138625,-0.1374969482421875,-1.153427124023438,-0.20721435546875,328401.65399875,0.3134892140287154,-0.2144097677817344,0.3681426059193215,328401.65399875,-0.1283731382720075,-0.6178921621865509,1.354081093856856,0.311271458864212,-0.2053463310003281,0.4055056869983673,0.05040894821286201,-0.2637016475200653,-0.06091014295816422,XTrueNorthZVertical,-0.5803975682325485,0.2747834877261247,0.2377223434030775,-0.7287803341604994,-0.1245666667819023,-0.9766089916229248,-0.1752654016017914,18.14704322814941,-42.43052291870117,-15.94305515289307,2,0.0.0.0,10.144.231.151,1,0
2015-03-08 17:23:58.097,81,1425860637.563407,33.32550438124065,-111.9416591339856,360.1156,0.76,-1,12,50,-9999,1425860638.066243,21.26466369628906,-40.18789672851562,-15.95655250549316,290.01220703125,279.4896545410156,10,328401.7521604167,-0.2926025390625,-0.9311676025390625,-0.169921875,328401.7575681667,0.600805147180241,-0.5468372529542213,0.9374726511242431,328401.70578425,-0.004522995040895646,-0.7530234890058205,1.349662838320572,0.1784287691116333,-0.3558818697929382,0.5746775269508362,0.0124952495098114,-0.1777776628732681,-0.04718169569969177,XTrueNorthZVertical,-0.5803519132256831,0.2884013295487281,0.2313546415554752,-0.7255972368400261,-0.1499921977519989,-0.9756494760513306,-0.1600326597690582,17.23212051391602,-42.97477722167969,-15.494140625,2,0.0.0.0,10.144.231.151,1,0
2015-03-08 17:23:58.122,82,1425860637.563407,33.32550438124065,-111.9416591339856,360.1156,0.76,-1,12,50,-9999,1425860638.066243,21.26466369628906,-40.18789672851562,-15.95655250549316,290.01220703125,279.4896545410156,10,328401.80117775,-0.250396728515625,-1.1314697265625,-0.2423095703125,328401.7575681667,0.600805147180241,-0.5468372529542213,0.9374726511242431,328401.7575681667,0.1784782232334368,-0.9577765624488631,1.330980932671648,0.5985870361328125,-0.5377742648124695,0.9748354554176331,-0.0983288437128067,0.04021423682570457,-0.03326523676514626,XTrueNorthZVertical,-0.5781099430346659,0.3121867635477172,0.2211646095715936,-0.7207041863708233,-0.1942736953496933,-0.9713818430900574,-0.136656641960144,15.22387027740479,-43.82517623901367,-15.21293830871582,2,0.0.0.0,10.144.231.151,1,0
2015-03-08 17:23:58.195,83,1425860637.563407,33.32550438124065,-111.9416591339856,360.1156,0.76,-1,12,50,-9999,1425860638.174708,18.46815872192383,-42.22709655761719,-13.99283790588379,284.5863647460938,274.0638122558594,10,328401.850201375,-0.125396728515625,-1.225631713867188,0.00616455078125,328401.8093521667,0.08790482231300847,1.181475731255047,0.968154930043046,328401.8093521667,0.3279360753937855,-1.080328191038815,1.296973493909603,0.08568673580884933,1.190538644790649,1.005517363548279,-0.01186136528849602,-0.1687255352735519,-0.1149341613054276,XTrueNorthZVertical,-0.5779473379264705,0.3198267825355928,0.1948724561545593,-0.7250602871060138,-0.2385353595018387,-0.9627441763877869,-0.1273754090070724,17.29057312011719,-44.2918815612793,-17.43548583984375,2,0.0.0.0,10.144.231.151,1,0
2015-03-08 17:23:58.219,84,1425860637.563407,33.32550438124065,-111.9416591339856,360.1156,0.76,-1,12,50,-9999,1425860638.174708,18.46815872192383,-42.22709655761719,-13.99283790588379,284.5863647460938,274.0638122558594,10,328401.89921475,-0.383697509765625,-1.053680419921875,-0.0825958251953125,328401.8611375833,-0.2710083325325344,0.04415600982184079,1.130840250501043,328401.8611375833,0.4130539185587392,-1.130720132907734,1.249678801418569,-0.273226410150528,0.05321884155273438,1.16820216178894,0.03740024194121361,-0.4864804744720459,0.02276547439396381,XTrueNorthZVertical,-0.5725461644575616,0.3239768274411731,0.1662815808276019,-0.7345613187970698,-0.2855539321899414,-0.9488832950592041,-0.1344598084688187,16.02951049804688,-45.15262603759766,-16.40202713012695,2,0.0.0.0,10.144.231.151,1,0
2015-03-08 17:23:58.294,85,1425860637.563407,33.32550438124065,-111.9416591339856,360.1156,0.76,-1,12,50,-9999,1425860638.249197,15.60345458984375,-43.21269226074219,-14.55865287780762,279.0872497558594,268.564697265625,10,328401.948242,-0.2623748779296875,-0.999176025390625,0.0111083984375,328401.9129217084,-0.3482024535734622,-0.01894652694315073,0.788849620170191,328401.9129217084,0.430362965811873,-1.154073016934054,1.192990524535432,-0.3504204750061035,-0.009883786551654339,0.8262112140655518,-0.02294698730111122,-0.05238102748990059,0.172595888376236,XTrueNorthZVertical,-0.556303311040081,0.3403984985470826,0.1513408221874493,-0.7427997268454606,-0.3373130261898041,-0.929476261138916,-0.149310976266861,13.02559185028076,-45.9078483581543,-16.95683670043945,2,0.0.0.0,10.144.231.151,1,0
2015-03-08 17:23:58.317,86,1425860637.563407,33.32550438124065,-111.9416591339856,360.1156,0.76,-1,12,50,-9999,1425860638.299958,13.81301879882812,-43.36564636230469,-15.00797653198242,276.0982666015625,265.5757141113281,10,328401.9973756667,-0.406005859375,-1.100265502929688,-0.0246734619140625,328401.964705625,-0.1024336976399358,0.7467756696885741,0.66143600413753,328401.964705625,0.4419346668070745,-1.138531487734217,1.157618667836676,-0.1046517118811607,0.7558383345603943,0.698797345161438,0.1471210718154907,0.03404413163661957,0.1285817176103592,XTrueNorthZVertical,-0.5484513998509001,0.3392589944387721,0.1331471916443198,-0.752579705015051,-0.3645893335342407,-0.9158495664596558,-0.1682087928056717,11.4770336151123,-46.11368179321289,-17.50820159912109,2,0.0.0.0,10.144.231.151,1,0
2015-03-08 17:23:58.397,87,1425860637.563407,33.32550438124065,-111.9416591339856,360.1156,0.76,-1,12,50,-9999,1425860638.351634,11.97142028808594,-43.67153930664062,-14.97469139099121,273.6952514648438,263.1726989746094,10,328402.0462837917,-0.2559967041015625,-0.8879852294921875,-0.212554931640625,328402.016491,-0.2847893922253675,0.4481271871504343,0.7194540337493422,328402.016491,0.4684152140205431,-1.132234800961361,1.11869127209271,-0.2870073616504669,0.4571897387504578,0.7568149566650391,0.02123426832258701,-0.188010185956955,0.1746124029159546,XTrueNorthZVertical,-0.5411254012053942,0.338274605174735,0.1108218833292502,-0.761887191248721,-0.395517110824585,-0.8995294570922852,-0.1855071783065796,10.55276012420654,-46.39131546020508,-17.35556983947754,2,0.0.0.0,10.144.231.151,1,0
2015-03-08 17:23:58.417,88,1425860637.563407,33.32550438124065,-111.9416591339856,360.1156,0.76,-1,12,50,-9999,1425860638.403954,10.14687728881836,-43.79048156738281,-15.39073371887207,271.6014709472656,261.0789184570312,10,328402.0953007084,-0.3431243896484375,-0.861602783203125,-0.182891845703125,328402.0682750834,-0.6043218513996906,-0.3248167034092584,0.650245933869235,328402.0682750834,0.4607392868920807,-1.114667495524852,1.078318082109184,-0.606539785861969,-0.315754234790802,0.6876063942909241,0.07323086261749268,-0.0417945496737957,0.05523153766989708,XTrueNorthZVertical,-0.5278484834975262,0.3424105891012538,0.09809106844636398,-0.7710441618876788,-0.4244729280471802,-0.8811638355255127,-0.2082619369029999,8.951993942260742,-46.56232452392578,-17.79164695739746,2,0.0.0.0,10.144.231.151,1,0
2015-03-08 17:23:58.499,89,1425860637.563407,33.32550438124065,-111.9416591339856,360.1156,0.76,-1,12,50,-9999,1425860638.455423,8.54400634765625,-43.31466674804688,-16.45579719543457,270.2498779296875,259.7273254394531,10,328402.1443294584,-0.5863037109375,-0.8140106201171875,-0.28289794921875,328402.1200592917,-0.8109471993151235,-0.4601734637091898,0.8191670460196531,328402.1200592917,0.4384707889482301,-1.113271216728098,1.032169165650783,-0.8131651282310486,-0.4511110782623291,0.8565271496772766,0.04082692787051201,0.069732666015625,0.008815046399831772,XTrueNorthZVertical,-0.5088912668406506,0.3574009465864041,0.09387805602798463,-0.7774838537604464,-0.4601994752883911,-0.8584136962890625,-0.2265884876251221,7.288801193237305,-46.364013671875,-19.02583694458008,2,0.0.0.0,10.144.231.151,1,0
2015-03-08 17:23:58.514,90,1425860637.563407,33.32550438124065,-111.9416591339856,360.1156,0.76,-1,12,50,-9999,1425860638.507659,6.088546752929688,-42.73689270019531,-17.92026329040527,270.90625,260.3836975097656,10,328402.1933202083,-0.55718994140625,-0.88037109375,-0.2205657958984375,328402.1718445417,-1.022113769521359,-1.049754452159183,1.055830720502308,328402.1718445417,0.4053193453746118,-1.129222939155695,0.966760132160956,-1.024330735206604,-1.04069197177887,1.093190312385559,-0.04894927516579628,-0.1043030172586441,0.133933499455452,XTrueNorthZVertical,-0.4799651539410832,0.3850572962687518,0.09305014599231949,-0.7827553834197808,-0.5134896636009216,-0.8230499029159546,-0.242728665471077,5.070999145507812,-45.93060684204102,-20.72185134887695,2,0.0.0.0,10.144.231.151,1,0
2015-03-08 17:23:58.610,91,1425860638.552053,33.32544386389975,-111.9416776579916,359.26,0.97,-1,3,30,-9999,1425860638.560153,3.172683715820312,-41.59834289550781,-19.93390655517578,271.1356811523438,260.6131286621094,10,328402.2423445833,-0.9482421875,-0.67877197265625,-0.30419921875,328402.2236285834,-0.5631560388497908,-0.3633055064314106,1.311677144316803,328402.2236285834,0.3842028264632977,-1.150146833101541,0.8923139548851132,-0.5653729438781738,-0.3542430698871613,1.349036335945129,-0.2695230543613434,-0.1339952647686005,-0.0402822308242321,XTrueNorthZVertical,-0.4491121205110117,0.4124978869843492,0.08584539616972903,-0.7878923497212933,-0.5728994607925415,-0.7785260677337646,-0.2562876045703888,0.7327308654785156,-44.87103652954102,-23.46879768371582,2,0.0.0.0,10.144.231.151,1,0
2015-03-08 17:23:58.619,92,1425860638.552053,33.32544386389975,-111.9416776579916,359.26,0.97,-1,3,30,-9999,1425860638.610944,1.26287841796875,-40.646728515625,-21.56478691101074,268.3143005371094,257.791748046875,10,328402.29135575,-0.5777435302734375,-0.556304931640625,-0.229736328125,328402.2754126667,-0.524780686490076,2.130975217862088,0.7177674538309951,328402.2754126667,0.383993269443372,-1.104407755809646,0.8312352352550997,-0.5269947648048401,2.140036106109619,0.7551364898681641,-0.1714544296264648,0.2522837221622467,0.1315328329801559,XTrueNorthZVertical,-0.4290043939157644,0.405495729943466,0.05927663639449135,-0.8049936109843777,-0.6019830703735352,-0.7387644648551941,-0.3030568957328796,-1.955188751220703,-44.20391845703125,-24.63578224182129,2,0.0.0.0,10.144.231.151,1,0
2015-03-08 17:23:58.709,93,1425860638.552053,33.32544386389975,-111.9416776579916,359.26,0.97,-1,3,30,-9999,1425860638.662232,2.217788696289062,-39.96699523925781,-22.8961124420166,265.3617858886719,254.8392333984375,10,328402.3403682917,-0.0675506591796875,-0.74786376953125,-0.4175567626953125,328402.3271980417,-0.4852505874817029,3.341147841443284,-0.8394198534774876,328402.3271980417,0.3460311434727816,-0.9282497698274694,0.8225983641224798,-0.4873826205730438,3.350107669830322,-0.8019412755966187,0.3182500302791595,-0.0116365933790803,0.09421046078205109,XTrueNorthZVertical,-0.422805585349976,0.3426361851937322,0.03519118801638505,-0.8382108638213145,-0.5446447134017944,-0.732915997505188,-0.4076717495918274,-1.032077789306641,-43.54257965087891,-25.8400821685791,2,0.0.0.0,10.144.231.151,1,0
2015-03-08 17:23:58.711,94,1425860638.552053,33.32544386389975,-111.9416776579916,359.26,0.97,-1,3,30,-9999,1425860638.662232,2.217788696289062,-39.96699523925781,-22.8961124420166,265.3617858886719,254.8392333984375,10,328402.389381,0.028228759765625,-0.584075927734375,-0.648681640625,328402.378982125,-0.1976883119293449,0.8275778413743413,-1.681656798756061,328402.3271980417,0.3460311434727816,-0.9282497698274694,0.8225983641224798,-0.4873826205730438,3.350107669830322,-0.8019412755966187,0.3182500302791595,-0.0116365933790803,0.09421046078205109,XTrueNorthZVertical,-0.422805585349976,0.3426361851937322,0.03519118801638505,-0.8382108638213145,-0.5446447134017944,-0.732915997505188,-0.4076717495918274,-1.032077789306641,-43.54257965087891,-25.8400821685791,2,0.0.0.0,10.144.231.151,1,0
2015-03-08 17:23:58.809,95,1425860638.552053,33.32544386389975,-111.9416776579916,359.26,0.97,-1,3,30,-9999,1425860638.766021,9.464813232421875,-38.62451171875,-24.64348220825195,267.4761047363281,256.9535522460938,10,328402.4384009584,-0.12432861328125,-1.016342163085938,-0.305389404296875,328402.4307661667,-0.5832298818823721,-2.640474952333398,-2.178108641782637,328402.4307661667,0.1246727770915257,-0.7077171123574647,0.9105122502279177,-0.5853618979454041,-2.631515502929688,-2.140630960464478,0.302130252122879,-0.1711652427911758,0.07059931010007858,XTrueNorthZVertical,-0.4310372528955658,0.2849277841031757,0.09958171714490216,-0.8503566995220887,-0.3987336456775665,-0.7898180484771729,-0.4660460948944092,9.539035797119141,-41.71189880371094,-27.08976936340332,2,0.0.0.0,10.144.231.151,1,0
2015-03-08 17:23:58.811,96,1425860638.552053,33.32544386389975,-111.9416776579916,359.26,0.97,-1,3,30,-9999,1425860638.766021,9.464813232421875,-38.62451171875,-24.64348220825195,267.4761047363281,256.9535522460938,10,328402.4874059167,-0.8320159912109375,-0.8283843994140625,-0.315216064453125,328402.4307661667,-0.5832298818823721,-2.640474952333398,-2.178108641782637,328402.4307661667,0.1246727770915257,-0.7077171123574647,0.9105122502279177,-0.5853618979454041,-2.631515502929688,-2.140630960464478,0.302130252122879,-0.1711652427911758,0.07059931010007858,XTrueNorthZVertical,-0.4310372528955658,0.2849277841031757,0.09958171714490216,-0.8503566995220887,-0.3987336456775665,-0.7898180484771729,-0.4660460948944092,9.539035797119141,-41.71189880371094,-27.08976936340332,2,0.0.0.0,10.144.231.151,1,0
2015-03-08 17:23:58.909,97,1425860638.552053,33.32544386389975,-111.9416776579916,359.26,0.97,-1,3,30,-9999,1425860638.8745,13.48904418945312,-36.55130004882812,-26.84018135070801,283.2719421386719,272.7493896484375,10,328402.536411625,-0.580078125,-0.9587860107421875,-0.54913330078125,328402.5343356667,0.4531299352581482,0.6617145707875522,-1.504941679359417,328402.482551625,-0.02384037361563789,-0.7078456231273766,0.9581116780888083,-0.1500532627105713,-1.895009279251099,-1.895791888237,-0.337350994348526,0.01149701047688723,0.1249181106686592,XTrueNorthZVertical,-0.4286756477610495,0.3126977862219882,0.1696642870474963,-0.8304645107158439,-0.3739069402217865,-0.8181071281433105,-0.4369145631790161,10.40953063964844,-40.12448883056641,-29.09291648864746,2,0.0.0.0,10.144.231.151,1,0
2015-03-08 17:23:58.913,98,1425860638.552053,33.32544386389975,-111.9416776579916,359.26,0.97,-1,3,30,-9999,1425860638.8745,13.48904418945312,-36.55130004882812,-26.84018135070801,283.2719421386719,272.7493896484375,10,328402.5854179583,-0.654327392578125,-0.9581756591796875,-0.6576385498046875,328402.5861197917,0.3947806084067301,0.1975769917957796,0.8713444970448125,328402.5343356667,-0.1516721039028378,-0.6342614196678158,1.013999846207024,0.4509979784488678,0.6706738471984863,-1.467464566230774,-0.3246556222438812,0.005690707359462976,-0.03196980059146881,XTrueNorthZVertical,-0.4393639182381494,0.3067830122331719,0.2139116023189704,-0.8167529292865878,-0.3131617605686188,-0.8489524126052856,-0.4256870746612549,11.82223320007324,-38.47463226318359,-30.73545837402344,2,0.0.0.0,10.144.231.151,1,0
2015-03-08 17:23:59.007,99,1425860638.552053,33.32544386389975,-111.9416776579916,359.26,0.97,-1,3,30,-9999,1425860638.948157,16.28554916381836,-37.0950927734375,-25.30914878845215,285.8621520996094,275.339599609375,10,328402.6344187917,-0.1416473388671875,-0.8297882080078125,-0.281951904296875,328402.6379052083,1.897946225635173,2.915972841831588,-0.1381799773715243,328402.5861197917,-0.1287917474770767,-0.6215197178822878,1.049061659673768,0.3926486670970917,0.2065361887216568,0.908821165561676,-0.3641322255134583,-0.0912197083234787,-0.2524544894695282,XTrueNorthZVertical,-0.4587987197476928,0.2948079041426385,0.2058524159349788,-0.8125372653706197,-0.2901951670646667,-0.8669559359550476,-0.4051840603351593,14.77236938476562,-38.48522186279297,-29.4176082611084,2,0.0.0.0,10.144.231.151,1,0
2015-03-08 17:23:59.010,100,1425860638.552053,33.32544386389975,-111.9416776579916,359.26,0.97,-1,3,30,-9999,1425860638.999742,17.83726501464844,-38.36958312988281,-22.16388130187988,282.571533203125,272.0489807128906,10,328402.6834174584,0.2833709716796875,-1.067169189453125,-0.1181182861328125,328402.6379052083,1.897946225635173,2.915972841831588,-0.1381799773715243,328402.6379052083,-0.0275089687144955,-0.6180670301640692,1.08481719369115,1.895814299583435,2.924931764602661,-0.1007036864757538,0.1290039718151093,0.05442983657121658,0.0987137109041214,XTrueNorthZVertical,-0.4881176800258146,0.2672233599950812,0.1682032076144935,-0.8136586984827735,-0.2706513106822968,-0.8842180371284485,-0.3806656002998352,14.48033809661865,-39.67196273803711,-27.94970893859863,2,0.0.0.0,10.144.231.151,1,0
2015-03-08 17:23:59.106,101,1425860638.552053,33.32544386389975,-111.9416776579916,359.26,0.97,-1,3,30,-9999,1425860639.051691,19.45718383789062,-39.81401062011719,-19.15174293518066,280.0531005859375,269.5305480957031,10,328402.7324219167,-0.28936767578125,-1.126556396484375,-0.1661834716796875,328402.741473375,0.4895635768670862,-1.083146497487141,0.4191147102351111,328402.6896893334,0.0352831876880395,-0.5642068119511006,1.14985652786381,0.06807356327772141,0.3568171262741089,-0.1622526049613953,0.5018779039382935,-0.1544638723134995,0.2271695584058762,XTrueNorthZVertical,-0.5263202701496135,0.2243725666033903,0.1371311167576414,-0.8086030990242224,-0.218506932258606,-0.9127053022384644,-0.3452878594398499,18.64207458496094,-42.20193099975586,-20.88542366027832,2,0.0.0.0,10.144.231.151,1,0
2015-03-08 17:23:59.111,102,1425860638.552053,33.32544386389975,-111.9416776579916,359.26,0.97,-1,3,30,-9999,1425860639.105812,20.27566909790039,-40.69766235351562,-17.55414581298828,279.0724487304688,268.5498962402344,10,328402.781433375,-0.3078155517578125,-0.911865234375,-0.1498260498046875,328402.741473375,0.4895635768670862,-1.083146497487141,0.4191147102351111,328402.741473375,0.09980486568207754,-0.6711937592062694,1.165843152054069,0.4874317049980164,-1.074187517166138,0.4565902948379517,-0.04434581845998764,-0.2074355483055115,0.1423309445381165,XTrueNorthZVertical,-0.5328248331998415,0.248677479302731,0.1417396493326953,-0.7963460746243273,-0.245021864771843,-0.9191208481788635,-0.308514416217804,18.98227500915527,-42.52660369873047,-19.89704704284668,2,0.0.0.0,10.144.231.151,1,0
2015-03-08 17:23:59.167,103,1425860638.552053,33.32544386389975,-111.9416776579916,359.26,0.97,-1,3,30,-9999,1425860639.156923,20.44618606567383,-41.13948059082031,-16.68877983093262,278.7513732910156,268.2288208007812,10,328402.8304412917,0.0059661865234375,-0.9538421630859375,-0.25250244140625,328402.793258875,0.6400161994900226,1.14785518670556,-0.2943394878943916,328402.793258875,0.1304990030476409,-0.6939930859705854,1.191793360394994,0.6378843784332275,1.156813979148865,-0.2568643093109131,0.0038799112662673,0.00696062995120883,0.1069237366318703,XTrueNorthZVertical,-0.5450286671111234,0.2464483065979698,0.1397125204520238,-0.7891054341343348,-0.2366527318954468,-0.9290339946746826,-0.2844139635562897,17.59823226928711,-43.26880264282227,-19.5664005279541,2,0.0.0.0,10.144.231.151,1,0
2015-03-08 17:23:59.207,104,1425860638.552053,33.32544386389975,-111.9416776579916,359.26,0.97,-1,3,30,-9999,1425860639.156923,20.44618606567383,-41.13948059082031,-16.68877983093262,278.7513732910156,268.2288208007812,10,328402.8794470417,-0.2121734619140625,-1.059097290039062,-0.224761962890625,328402.845043,0.4932624413050973,0.06192648482761252,-0.1247698960185393,328402.845043,0.1677009590010013,-0.6857144507653644,1.217704409465598,0.4911306202411652,0.07088523358106613,-0.08729510754346848,0.2988649904727936,0.02148367278277874,-0.0453500784933567,XTrueNorthZVertical,-0.5598429099058608,0.2296885190149703,0.1268905431198747,-0.785950304330318,-0.2189699858427048,-0.9383080005645752,-0.2676382064819336,19.13863754272461,-43.68578338623047,-17.02926445007324,2,0.0.0.0,10.144.231.151,1,0
2015-03-08 17:23:59.266,105,1425860638.552053,33.32544386389975,-111.9416776579916,359.26,0.97,-1,3,30,-9999,1425860639.258912,20.70196151733398,-41.70027160644531,-14.80827331542969,278.5973815917969,268.0748291015625,10,328402.9284587083,-0.200775146484375,-0.9122314453125,-0.1514892578125,328402.8968270834,0.07292480749742176,-1.077725899404394,-0.01206704921525804,328402.8968270834,0.209154252352784,-0.7595741707433834,1.231369767316552,0.07079300284385681,-1.068767189979553,0.02540740370750427,-0.04175548255443573,-0.1098801791667938,0.07677160203456879,XTrueNorthZVertical,-0.5650282673146448,0.2450070616184673,0.13378276173571,-0.7764127509927881,-0.2292711287736893,-0.9429457187652588,-0.2414291948080063,19.1662712097168,-44.02842712402344,-16.0898323059082,2,0.0.0.0,10.144.231.151,1,0
2015-03-08 17:23:59.309,106,1425860638.552053,33.32544386389975,-111.9416776579916,359.26,0.97,-1,3,30,-9999,1425860639.258912,20.70196151733398,-41.70027160644531,-14.80827331542969,278.5973815917969,268.0748291015625,10,328402.9774594167,-0.2182159423828125,-0.935272216796875,-0.1241912841796875,328402.9486125417,0.2269812197074535,-0.3620636744151066,0.0136252647690634,328402.9486125417,0.2225523196348423,-0.8014056124380013,1.23670847187074,0.2248494476079941,-0.3531050980091095,0.05109930410981178,0.1309941560029984,-0.03417203575372696,0.1242732256650925,XTrueNorthZVertical,-0.5657692106370629,0.2565987709299414,0.1414035350295063,-0.7707576153907566,-0.2355473786592484,-0.9447097778320312,-0.2281245440244675,18.45481491088867,-44.15797805786133,-16.55970573425293,2,0.0.0.0,10.144.231.151,1,0
2015-03-08 17:23:59.367,107,1425860638.552053,33.32544386389975,-111.9416776579916,359.26,0.97,-1,3,30,-9999,1425860639.362826,19.73000717163086,-41.30941772460938,-14.79162979125977,280.8240356445312,270.3014831542969,10,328403.0264774167,-0.276702880859375,-1.0030517578125,-0.090240478515625,328403.00039675,-0.000615456527917312,-0.8867756513490587,0.139815158280833,328403.00039675,0.2499394968439081,-0.859082456157566,1.23613531827904,-0.002747213467955589,-0.8778172135353088,0.1772888153791428,0.03107978217303753,0.01326255034655333,0.1035282909870148,XTrueNorthZVertical,-0.56501850062434,0.2710972781217722,0.1470798620166448,-0.7652632646911008,-0.2487158924341202,-0.9445217251777649,-0.2145207226276398,17.86879920959473,-44.40436172485352,-16.54356002807617,2,0.0.0.0,10.144.231.151,1,0
2015-03-08 17:23:59.409,108,1425860638.552053,33.32544386389975,-111.9416776579916,359.26,0.97,-1,3,30,-9999,1425860639.362826,19.73000717163086,-41.30941772460938,-14.79162979125977,280.8240356445312,270.3014831542969,10,328403.0754799584,-0.2581024169921875,-0.88946533203125,-0.151214599609375,328403.05218075,-0.1617556109214508,-0.451779978901587,0.07530194508642649,328403.05218075,0.2598696775577512,-0.8968697372797859,1.2287221348694,-0.1638873368501663,-0.4428215622901917,0.1127752736210823,-0.03539400920271873,-0.0673690065741539,0.0219270084053278,XTrueNorthZVertical,-0.5609671284182021,0.2839861839035767,0.1524023038869925,-0.7625229546088338,-0.2621065974235535,-0.9420609474182129,-0.2093354612588882,16.9583740234375,-44.55435562133789,-17.08957672119141,2,0.0.0.0,10.144.231.151,1,0
2015-03-08 17:23:59.464,109,1425860638.552053,33.32544386389975,-111.9416776579916,359.26,0.97,-1,3,30,-9999,1425860639.41458,18.77510452270508,-41.54733276367188,-15.32416152954102,281.5547790527344,271.0322265625,10,328403.124482875,-0.378662109375,-0.903533935546875,-0.0396270751953125,328403.103966375,-0.2210437020571218,-0.5841729072243691,0.2059643513328751,328403.103966375,0.2714231603437841,-0.9380134346274027,1.215143931927624,-0.223132312297821,-0.5752137303352356,0.2434483766555786,-0.07897166162729263,-0.0118602616712451,0.08136606961488724,XTrueNorthZVertical,-0.5547582757658788,0.2988000556979918,0.1565759977493573,-0.7605561974386036,-0.2807848155498505,-0.9374195337295532,-0.2059235572814941,16.30081176757812,-44.55643081665039,-17.71268653869629,2,0.0.0.0,10.144.231.151,1,0
2015-03-08 17:23:59.506,110,1425860638.552053,33.32544386389975,-111.9416776579916,359.26,0.97,-1,3,30,-9999,1425860639.466543,17.90545654296875,-41.3944091796875,-16.03975677490234,282.1452941894531,271.6227416992188,10,328403.1734794584,-0.369873046875,-1.010543823242188,0.03692626953125,328403.1557503333,-0.06464850177778252,0.1497857670859807,0.22262801658961,328403.1557503333,0.2636497204744761,-0.9465579181926747,1.199917294134568,-0.06673708558082581,0.1587448567152023,0.2601116001605988,-0.06484980881214142,0.08288802206516266,0.1559580266475677,XTrueNorthZVertical,-0.5476351134215528,0.3068842218446099,0.1585568996279382,-0.7620876306962971,-0.2940827012062073,-0.9320091009140015,-0.2118357121944427,14.95984935760498,-44.63798904418945,-18.66504287719727,2,0.0.0.0,10.144.231.151,1,0
2015-03-08 17:23:59.570,111,1425860639.550322,33.32521621140961,-111.9417012111395,359.2712,0.62,350.859375,3,10,-9999,1425860639.517885,17.47916030883789,-41.51335144042969,-16.42251586914062,282.1140441894531,271.5914916992188,10,328403.2224883334,-0.15576171875,-0.936370849609375,-0.188018798828125,328403.2075345833,-0.1628160816675203,0.1098932118532477,-0.04162520783793849,328403.2075345833,0.3178798202995041,-0.9934286144729119,1.204350040061154,-0.1646947115659714,0.1188660636544228,-0.004150552209466696,0.1467932015657425,-0.04312381148338318,0.05663606524467468,XTrueNorthZVertical,-0.5538636236158737,0.3089521269886347,0.1518568493366065,-0.758104977772327,-0.3002203106880188,-0.9336065053939819,-0.1955673396587372,14.3388204574585,-45.15878295898438,-17.88332748413086,2,0.0.0.0,10.144.231.151,1,0
2015-03-08 17:23:59.612,112,1425860639.550322,33.32521621140961,-111.9417012111395,359.2712,0.62,350.859375,3,10,-9999,1425860639.569028,17.18928146362305,-41.12251281738281,-17.23795509338379,283.4299621582031,272.9074096679688,10,328403.2714956667,-0.3721466064453125,-0.8919677734375,-0.0672760009765625,328403.2593199583,-0.3705666151435116,-0.259131166702999,-0.04172188058550837,328403.2075345833,0.3178798202995041,-0.9934286144729119,1.204350040061154,-0.1646947115659714,0.1188660636544228,-0.004150552209466696,0.1467932015657425,-0.04312381148338318,0.05663606524467468,XTrueNorthZVertical,-0.5538636236158737,0.3089521269886347,0.1518568493366065,-0.758104977772327,-0.3002203106880188,-0.9336065053939819,-0.1955673396587372,14.3388204574585,-45.15878295898438,-17.88332748413086,2,0.0.0.0,10.144.231.151,1,0
2015-03-08 17:23:59.708,113,1425860639.550322,33.32521621140961,-111.9417012111395,359.2712,0.62,350.859375,3,10,-9999,1425860639.677938,17.06991958618164,-40.35781860351562,-18.02011299133301,283.972412109375,273.4498596191406,10,328403.320522375,-0.2332000732421875,-1.049652099609375,-0.2200469970703125,328403.3111040417,-0.1120181480870219,0.8461928047617772,0.03877589178766271,328403.3111040417,0.2606024181849936,-0.9359439108530555,1.199308326917806,-0.1138204783201218,0.8551832437515259,0.0761609748005867,0.01840991713106632,-0.04993174225091934,-0.0008132935618050396,XTrueNorthZVertical,-0.5477944704352145,0.3037768582273442,0.1566794771390489,-0.7636048522363449,-0.2922746539115906,-0.9317882061004639,-0.215281680226326,14.65332698822021,-44.67702484130859,-18.814208984375,2,0.0.0.0,10.144.231.151,1,0
2015-03-08 17:23:59.711,114,1425860639.550322,33.32521621140961,-111.9417012111395,359.2712,0.62,350.859375,3,10,-9999,1425860639.677938,17.06991958618164,-40.35781860351562,-18.02011299133301,283.972412109375,273.4498596191406,10,328403.3695222083,-0.158905029296875,-0.958343505859375,-0.2615509033203125,328403.3628882084,-0.5972492944927672,0.07013514625556376,0.1057203047412025,328403.3111040417,0.2606024181849936,-0.9359439108530555,1.199308326917806,-0.1138204783201218,0.8551832437515259,0.0761609748005867,0.01840991713106632,-0.04993174225091934,-0.0008132935618050396,XTrueNorthZVertical,-0.5477944704352145,0.3037768582273442,0.1566794771390489,-0.7636048522363449,-0.2922746539115906,-0.9317882061004639,-0.215281680226326,14.65332698822021,-44.67702484130859,-18.814208984375,2,0.0.0.0,10.144.231.151,1,0
2015-03-08 17:23:59.766,115,1425860639.550322,33.32521621140961,-111.9417012111395,359.2712,0.62,350.859375,3,10,-9999,1425860639.729854,17.41095352172852,-40.255859375,-18.81891059875488,283.4427185058594,272.920166015625,10,328403.41863875,-0.057769775390625,-0.902099609375,-0.1323394775390625,328403.4146738334,-0.7214410182386504,-0.3266830467011859,-0.101770570528506,328403.3628882084,0.2210586434533871,-0.8812090641510236,1.182666703799466,-0.5990221500396729,0.07903948426246643,0.1432079523801804,0.2180851548910141,0.009312995709478855,-0.06707935780286789,XTrueNorthZVertical,-0.5402052990086801,0.2962891309429574,0.1534732923881395,-0.7725522148572762,-0.2919834852218628,-0.9256185293197632,-0.2407819777727127,15.08589649200439,-44.50407791137695,-18.88210105895996,2,0.0.0.0,10.144.231.151,1,0
2015-03-08 17:23:59.804,116,1425860639.550322,33.32521621140961,-111.9417012111395,359.2712,0.62,350.859375,3,10,-9999,1425860639.729854,17.41095352172852,-40.255859375,-18.81891059875488,283.4427185058594,272.920166015625,10,328403.467542,-0.2812957763671875,-1.018569946289062,-0.3339080810546875,328403.466457875,-0.3919712397728055,0.4217243417872797,-0.09679099192227586,328403.4146738334,0.1608482411104138,-0.8328757687972603,1.159437513017049,-0.7232139110565186,-0.3177787959575653,-0.06428326666355133,0.1557495146989822,-0.04860110208392143,0.04858967661857605,XTrueNorthZVertical,-0.5265404527266692,0.2970752582438196,0.1593997754353628,-0.7804441969303423,-0.2958404719829559,-0.9165783524513245,-0.2690028846263885,14.92328262329102,-44.06497573852539,-20.00761222839355,2,0.0.0.0,10.144.231.151,1,0
2015-03-08 17:23:59.847,117,1425860639.550322,33.32521621140961,-111.9417012111395,359.2712,0.62,350.859375,3,10,-9999,1425860639.804571,17.27453994750977,-40.11990356445312,-20.41650581359863,283.3343505859375,272.8117980957031,10,328403.516697,-0.31195068359375,-0.9842529296875,-0.44281005859375,328403.5182421667,-0.4265704960228969,0.4622504630433426,-0.03414492096812393,328403.466457875,0.107109762051067,-0.78149401070306,1.137188866519814,-0.3937440812587738,0.4306285083293915,-0.05930406227707863,-0.03193886205554008,-0.1418451517820358,0.09095584601163864,XTrueNorthZVertical,-0.5143290244049319,0.2938407861756641,0.1630827213566193,-0.7890039691779669,-0.2959267497062683,-0.9074559807777405,-0.2982465028762817,14.71048641204834,-43.15829849243164,-22.03846168518066,2,0.0.0.0,10.144.231.151,1,0
2015-03-08 17:23:59.907,118,1425860639.550322,33.32521621140961,-111.9417012111395,359.2712,0.62,350.859375,3,10,-9999,1425860639.856145,17.53031921386719,-39.2872314453125,-21.16537666320801,284.070556640625,273.5480041503906,10,328403.5655932084,0.1025543212890625,-0.7740631103515625,-0.4957275390625,328403.5182421667,-0.4265704960228969,0.4622504630433426,-0.03414492096812393,328403.5182421667,0.0639479110085328,-0.7148788214441438,1.126914484684125,-0.4283667802810669,0.4711541533470154,0.003334616310894489,-0.03043617308139801,-0.0811615064740181,-0.1185024082660675,XTrueNorthZVertical,-0.5095542838504753,0.2796437130638738,0.1614594472612683,-0.7975491601104556,-0.2815145254135132,-0.9030914306640625,-0.3243076503276825,15.27555084228516,-42.74900054931641,-22.44797325134277,2,0.0.0.0,10.144.231.151,1,0
2015-03-08 17:23:59.944,119,1425860639.550322,33.32521621140961,-111.9417012111395,359.2712,0.62,350.859375,3,10,-9999,1425860639.907479,18.50227355957031,-38.2166748046875,-21.58141899108887,284.1033020019531,273.5807495117188,10,328403.61461775,-0.1039886474609375,-0.6630096435546875,-0.3192138671875,328403.621811625,-0.2771301409302996,-0.1248191644987058,-0.5492428863668899,328403.5700275417,0.001482824573198092,-0.6423846872327651,1.123211961481428,-0.4394990205764771,-0.1614998281002045,-0.4528338313102722,0.361841082572937,0.1274320781230927,-0.1492065638303757,XTrueNorthZVertical,-0.5055095773201692,0.266832498203193,0.1675283662943944,-0.8032401396695056,-0.2592867612838745,-0.9014952182769775,-0.3465209603309631,16.02772521972656,-42.18212127685547,-22.98938369750977,2,0.0.0.0,10.144.231.151,1,0
2015-03-08 17:23:59.999,120,1425860639.550322,33.32521621140961,-111.9417012111395,359.2712,0.62,350.859375,3,10,-9999,1425860639.958257,19.09908676147461,-37.45198059082031,-22.8961124420166,286.1372680664062,275.6147155761719,10,328403.6636245417,-0.1640167236328125,-1.0179443359375,-0.6527252197265625,328403.621811625,-0.2771301409302996,-0.1248191644987058,-0.5492428863668899,328403.621811625,-0.06744098734057642,-0.5990500918407697,1.112514666933411,-0.2789263725280762,-0.1159156560897827,-0.5117640495300293,0.1454665809869766,0.233804389834404,0.04615810140967369,XTrueNorthZVertical,-0.4957677750441669,0.2674478063004686,0.183066417753026,-0.8057125176967443,-0.2494552284479141,-0.8968140482902527,-0.365371972322464,16.94544410705566,-41.06748580932617,-24.3114128112793,2,0.0.0.0,10.144.231.151,1,0
2015-03-08 17:24:00.047,121,1425860639.550322,33.32521621140961,-111.9417012111395,359.2712,0.62,350.859375,3,10,-9999,1425860639.958257,19.09908676147461,-37.45198059082031,-22.8961124420166,286.1372680664062,275.6147155761719,10,328403.7126526667,-0.342864990234375,-0.957244873046875,-0.594512939453125,328403.6735958334,-0.1112066829028748,-0.2826657875721383,0.08195052674780931,328403.6735958334,-0.09375786850596307,-0.571030260020206,1.117857395303288,-0.1130028963088989,-0.2737623751163483,0.1194289326667786,0.2040723860263824,-0.178029328584671,-0.221006840467453,XTrueNorthZVertical,-0.4970616574784002,0.2623724733239856,0.1873118130687573,-0.8056082602238531,-0.2365278303623199,-0.8991648554801941,-0.3681807816028595,17.75004196166992,-40.5302734375,-24.63663101196289,2,0.0.0.0,10.144.231.151,1,0
2015-03-08 17:24:00.119,122,1425860639.550322,33.32521621140961,-111.9417012111395,359.2712,0.62,350.859375,3,10,-9999,1425860640.079918,19.40602111816406,-36.97616577148438,-24.42714309692383,288.7560729980469,278.2335205078125,10,328403.761666875,-0.0523529052734375,-0.848297119140625,-0.3421173095703125,328403.7253813334,-0.8736723661536507,-1.059761546271265,0.6815146408600734,328403.7253813334,-0.06037420235518902,-0.6393974313321037,1.080350105450721,-0.8754685521125793,-1.05085813999176,0.7189926505088806,-0.1028938889503479,0.07749630510807037,-0.148272916674614,XTrueNorthZVertical,-0.4798697155042277,0.2841460060692868,0.1861299934400417,-0.8089139133851652,-0.2810630202293396,-0.8821227550506592,-0.3779722154140472,17.22786903381348,-40.55352783203125,-24.96683311462402,2,0.0.0.0,10.144.231.151,1,0
2015-03-08 17:24:00.145,123,1425860639.550322,33.32521621140961,-111.9417012111395,359.2712,0.62,350.859375,3,10,-9999,1425860640.140661,17.70083236694336,-36.46638488769531,-25.25922584533691,287.60791015625,277.0853576660156,10,328403.8106868333,-0.45245361328125,-0.8170623779296875,-0.4162139892578125,328403.7771654584,0.1772125978882707,0.3697482257405303,0.2826945497119112,328403.7771654584,-0.09452082548372501,-0.600632895574296,1.067675623748068,0.1753547042608261,0.3786550164222717,0.3201344907283783,0.1893404722213745,0.03523131459951401,0.08504409343004227,XTrueNorthZVertical,-0.4734930008205905,0.2773407509412489,0.1892077580607664,-0.814301480214916,-0.2725008726119995,-0.8760821223258972,-0.3977729678153992,15.37704372406006,-40.02437591552734,-26.95045280456543,2,0.0.0.0,10.144.231.151,1,0
2015-03-08 17:24:00.197,124,1425860639.550322,33.32521621140961,-111.9417012111395,359.2712,0.62,350.859375,3,10,-9999,1425860640.140661,17.70083236694336,-36.46638488769531,-25.25922584533691,287.60791015625,277.0853576660156,10,328403.8596919167,-0.1990509033203125,-0.9716644287109375,-0.231170654296875,328403.828949625,0.5780292609056653,1.288896198036156,0.1780395094067403,328403.828949625,-0.04653818886981362,-0.619053047518048,1.071715434884555,0.5761727690696716,1.297802329063416,0.2154827415943146,-0.1066588386893272,-0.02966149151325226,-0.004135516006499529,XTrueNorthZVertical,-0.4800894136358903,0.2731553299554393,0.1745390798335502,-0.8151296955649867,-0.2777253091335297,-0.8780228495597839,-0.389800637960434,15.59258365631104,-40.13081359863281,-26.66683769226074,2,0.0.0.0,10.144.231.151,1,0
2015-03-08 17:24:00.241,125,1425860639.550322,33.32521621140961,-111.9417012111395,359.2712,0.62,350.859375,3,10,-9999,1425860640.191206,18.14418029785156,-37.01016235351562,-24.22744560241699,284.6603698730469,274.1378173828125,10,328403.9087225834,-0.0251007080078125,-0.9661865234375,-0.536651611328125,328403.8807354167,-0.180853139098409,0.62813024522889,-0.2393803651106444,328403.8807354167,-0.04033334020527127,-0.5629412104702238,1.082497702568254,-0.1827096045017242,0.6370363235473633,-0.2019375413656235,0.4582764208316803,-0.1106268614530563,-0.2520553767681122,XTrueNorthZVertical,-0.4900310096209323,0.2479981291939468,0.1596820760530814,-0.8202854152445345,-0.2503601610660553,-0.88313227891922,-0.3967330753803253,16.57043838500977,-40.84393310546875,-24.93841743469238,2,0.0.0.0,10.144.231.151,1,0
2015-03-08 17:24:00.299,126,1425860639.550322,33.32521621140961,-111.9417012111395,359.2712,0.62,350.859375,3,10,-9999,1425860640.243177,18.91151428222656,-37.53695678710938,-23.47857093811035,283.3501281738281,272.8275756835938,10,328403.9577394167,-0.405975341796875,-0.76123046875,-0.27252197265625,328403.9325195,-0.389166132196625,-1.214114634626731,0.1304280480705217,328403.9325195,-0.03186896846078822,-0.5965393234509725,1.063854131374242,-0.3910225629806519,-1.205208659172058,0.1678704917430878,-0.01774771325290203,-0.1383248120546341,0.3131967186927795,XTrueNorthZVertical,-0.4807036078181159,0.260956091466651,0.1621547613462861,-0.8212988393265588,-0.272749125957489,-0.8742331862449646,-0.401651918888092,17.18695831298828,-40.68488311767578,-24.78063583374023,2,0.0.0.0,10.144.231.151,1,0
2015-03-08 17:24:00.341,127,1425860639.550322,33.32521621140961,-111.9417012111395,359.2712,0.62,350.859375,3,10,-9999,1425860640.295261,18.97972106933594,-37.19709777832031,-23.47857093811035,282.5322570800781,272.0097045898438,10,328404.0068615417,-0.2262115478515625,-1.027816772460938,-0.2614898681640625,328403.9843035833,0.04449343233195383,0.3735203271085185,0.1910967219152898,328403.9843035833,-0.04692053525819802,-0.6092010701615893,1.054323673217791,0.04263700172305107,0.3824262022972107,0.22853884100914,-0.05582654103636742,0.003965859767049551,-0.04616021737456322,XTrueNorthZVertical,-0.4737117381387405,0.2703823578527444,0.170179186811167,-0.8206884941542566,-0.2825676202774048,-0.8695664405822754,-0.4049811363220215,15.83446979522705,-40.36578750610352,-26.16493797302246,2,0.0.0.0,10.144.231.151,1,0
2015-03-08 17:24:00.393,128,1425860639.550322,33.32521621140961,-111.9417012111395,359.2712,0.62,350.859375,3,10,-9999,1425860640.346969,18.8603630065918,-36.87422180175781,-23.79476356506348,282.9065856933594,272.384033203125,10,328404.0557725,-0.2023162841796875,-0.9255218505859375,-0.475799560546875,328404.0360890834,0.06903952178310516,-0.06812738910975302,-0.2552783715539814,328403.9843035833,-0.04692053525819802,-0.6092010701615893,1.054323673217791,0.04263700172305107,0.3824262022972107,0.22853884100914,-0.05582654103636742,0.003965859767049551,-0.04616021737456322,XTrueNorthZVertical,-0.4737117381387405,0.2703823578527444,0.170179186811167,-0.8206884941542566,-0.2825676202774048,-0.8695664405822754,-0.4049811363220215,15.83446979522705,-40.36578750610352,-26.16493797302246,2,0.0.0.0,10.144.231.151,1,0
2015-03-08 17:24:00.435,129,1425860639.550322,33.32521621140961,-111.9417012111395,359.2712,0.62,350.859375,3,10,-9999,1425860640.398672,18.89446640014648,-37.01017761230469,-23.82805061340332,283.4354248046875,272.9128723144531,10,328404.104901,-0.22607421875,-0.65301513671875,-0.20159912109375,328404.0878734583,-0.2643086181782221,-0.7818210054212539,-0.2305469260909606,328404.0878734583,-0.06638386816914421,-0.5840377171737167,1.064649899523339,-0.2661649882793427,-0.7729153037071228,-0.1931055933237076,0.1349834799766541,0.0605628527700901,-0.01231355965137482,XTrueNorthZVertical,-0.4775516451583636,0.2640446047095865,0.1734160604788891,-0.8198486038578149,-0.2673229575157166,-0.8746192455291748,-0.4044497311115265,16.61423492431641,-40.34282302856445,-25.71293449401855,2,0.0.0.0,10.144.231.151,1,0
2015-03-08 17:24:00.498,130,1425860639.550322,33.32521621140961,-111.9417012111395,359.2712,0.62,350.859375,3,10,-9999,1425860640.450985,18.9797248840332,-36.85725402832031,-24.14424324035645,284.4851989746094,273.962646484375,10,328404.1538087917,-0.243499755859375,-0.791107177734375,-0.3378143310546875,328404.1396574167,-0.3044139599820523,-0.2412448441898089,-0.1377027389041821,328404.1396574167,-0.1009640504892197,-0.5768280379885073,1.051383853463671,-0.3062703311443329,-0.2323392033576965,-0.1002617478370667,0.02024662308394909,-0.03868835791945457,-0.03944950550794601,XTrueNorthZVertical,-0.4680573403902826,0.2699896161193042,0.1843939567705812,-0.8209913473054042,-0.2707043886184692,-0.8681109547615051,-0.4160558581352234,16.16971588134766,-39.82377624511719,-26.78316497802734,2,0.0.0.0,10.144.231.151,1,0
2015-03-08 17:24:00.532,131,1425860639.550322,33.32521621140961,-111.9417012111395,359.2712,0.62,350.859375,3,10,-9999,1425860640.501993,18.48522186279297,-36.29646301269531,-25.12609672546387,285.6482849121094,275.125732421875,10,328404.202847,-0.4500885009765625,-0.8731536865234375,-0.195892333984375,328404.19144325,-0.01601651711184555,-0.1704795940203324,0.218393856772493,328404.1396574167,-0.1009640504892197,-0.5768280379885073,1.051383853463671,-0.3062703311443329,-0.2323392033576965,-0.1002617478370667,0.02024662308394909,-0.03868835791945457,-0.03944950550794601,XTrueNorthZVertical,-0.4680573403902826,0.2699896161193042,0.1843939567705812,-0.8209913473054042,-0.2707043886184692,-0.8681109547615051,-0.4160558581352234,16.16971588134766,-39.82377624511719,-26.78316497802734,2,0.0.0.0,10.144.231.151,1,0
2015-03-08 17:24:00.617,132,1425860640.55017,33.32521621140961,-111.9417012111395,359.2188,0,350.859375,3,10,-9999,1425860640.556362,18.19534301757812,-35.837646484375,-26.0413875579834,286.1086730957031,275.5861206054688,10,328404.2518584583,-0.2655487060546875,-0.895538330078125,-0.642364501953125,328404.2432272083,0.2753114682218845,0.7922757769125779,0.2535036410035526,328404.19144325,-0.09796601661084532,-0.5975240536358501,1.029249451088258,-0.01787793822586536,-0.1615833789110184,0.2558906376361847,-0.1011004373431206,-0.09279467910528183,0.02037160284817219,XTrueNorthZVertical,-0.4572948540729594,0.2789392869633284,0.1854349648980821,-0.8238253181162591,-0.2899975776672363,-0.85691237449646,-0.4261485934257507,15.93063926696777,-39.29861831665039,-27.68689918518066,2,0.0.0.0,10.144.231.151,1,0
2015-03-08 17:24:00.632,133,1425860640.55017,33.32521621140961,-111.9417012111395,359.2188,0,350.859375,3,10,-9999,1425860640.607896,18.04187774658203,-35.78666687011719,-25.79176139831543,285.5263671875,275.0038146972656,10,328404.30100625,0.02703857421875,-0.8284912109375,-0.570556640625,328404.2950114167,-0.5420382366698985,0.4646220079940581,-0.0450066234740121,328404.2950114167,-0.04719914193696333,-0.5902165279242634,1.022225276725901,-0.5438245534896851,0.4735020995140076,-0.007436995394527912,0.3198206126689911,-0.1021432727575302,-0.1941948682069778,XTrueNorthZVertical,-0.4618860945323244,0.2646468748408352,0.1619177948622937,-0.8309066646566958,-0.2902185618877411,-0.8532705307006836,-0.433246523141861,14.97381591796875,-40.04640579223633,-27.14408493041992,2,0.0.0.0,10.144.231.151,1,0
2015-03-08 17:24:00.700,134,1425860640.55017,33.32521621140961,-111.9417012111395,359.2188,0,350.859375,3,10,-9999,1425860640.659286,18.14418792724609,-35.88862609863281,-25.55877876281738,284.5133361816406,273.9907836914062,10,328404.3498992917,-0.508544921875,-0.906585693359375,-0.3589019775390625,328404.2950114167,-0.5420382366698985,0.4646220079940581,-0.0450066234740121,328404.2950114167,-0.04719914193696333,-0.5902165279242634,1.022225276725901,-0.5438245534896851,0.4735020995140076,-0.007436995394527912,0.3198206126689911,-0.1021432727575302,-0.1941948682069778,XTrueNorthZVertical,-0.4618860945323244,0.2646468748408352,0.1619177948622937,-0.8309066646566958,-0.2902185618877411,-0.8532705307006836,-0.433246523141861,14.97381591796875,-40.04640579223633,-27.14408493041992,2,0.0.0.0,10.144.231.151,1,0
2015-03-08 17:24:00.730,135,1425860640.55017,33.32521621140961,-111.9417012111395,359.2188,0,350.859375,3,10,-9999,1425860640.709964,18.36586380004883,-35.9056396484375,-25.84168815612793,283.9521179199219,273.4295654296875,10,328404.3989226667,-0.1724853515625,-0.7963714599609375,-0.422821044921875,328404.3985814167,0.1169199623894218,1.147478083095204,-0.1368201673189299,328404.3467970417,-0.05633613777619766,-0.6103475309843731,1.010142922618535,-0.052885502576828,-0.6637912392616272,0.0694027841091156,-0.1435354202985764,0.01109242159873247,0.09579817950725555,XTrueNorthZVertical,-0.4539239408611338,0.275837480897091,0.1688342676179608,-0.8302780982735111,-0.3047678172588348,-0.8469078540802002,-0.4357334673404694,15.34329032897949,-39.63946533203125,-27.53229331970215,2,0.0.0.0,10.144.231.151,1,0
2015-03-08 17:24:00.797,136,1425860640.55017,33.32521621140961,-111.9417012111395,359.2188,0,350.859375,3,10,-9999,1425860640.761232,18.22944641113281,-35.76969909667969,-25.74184226989746,283.9597473144531,273.4371948242188,10,328404.447929625,0.1649627685546875,-1.098983764648438,-0.4599151611328125,328404.4503654167,-0.1907875289127316,0.2358980156692568,-0.337102664466121,328404.3985814167,-0.05356277718725753,-0.5844427608060946,1.00869871443926,0.1151559874415398,1.156287550926208,-0.09916716814041138,0.08081219345331192,0.03135020658373833,0.1143313050270081,XTrueNorthZVertical,-0.4558319771901891,0.2645122272794802,0.1616114610163675,-0.834345381846159,-0.2940537631511688,-0.8461390137672424,-0.4445009827613831,14.6546106338501,-39.55563735961914,-28.02364921569824,2,0.0.0.0,10.144.231.151,1,0
2015-03-08 17:24:00.828,137,1425860640.55017,33.32521621140961,-111.9417012111395,359.2188,0,350.859375,3,10,-9999,1425860640.813056,18.89447021484375,-35.54879760742188,-25.72519493103027,284.0865173339844,273.56396484375,10,328404.4969641667,-0.4396820068359375,-0.7366180419921875,-0.3742218017578125,328404.4503654167,-0.1907875289127316,0.2358980156692568,-0.337102664466121,328404.4503654167,-0.07852526956085448,-0.5292471209004592,1.008163951782847,-0.1925514787435532,0.244707316160202,-0.2994500696659088,0.4342750906944275,-0.2531298696994781,0.0005216504214331508,XTrueNorthZVertical,-0.4568422592992816,0.2471370962190363,0.1594041893280606,-0.8395288563025939,-0.26931232213974,-0.8458539247512817,-0.4604368209838867,16.13812828063965,-39.46984481811523,-27.32074546813965,2,0.0.0.0,10.144.231.151,1,0
2015-03-08 17:24:00.897,138,1425860640.55017,33.32521621140961,-111.9417012111395,359.2188,0,350.859375,3,10,-9999,1425860640.864772,19.40602493286133,-34.903076171875,-26.3908634185791,285.545654296875,275.0231018066406,10,328404.545982625,-0.2074737548828125,-0.731201171875,-0.40264892578125,328404.502151,-0.5504543583467669,-1.388327447863136,-0.2673201207388837,328404.502151,-0.1076927181388362,-0.5530139370248558,1.004290183092865,-0.5522183179855347,-1.379518270492554,-0.2296678721904755,-0.1577847003936768,0.1071631908416748,0.08246970921754837,XTrueNorthZVertical,-0.4494743485096009,0.2638693868666036,0.1765892359255574,-0.8349622678966199,-0.2818973064422607,-0.8437812328338623,-0.4566915035247803,16.75727844238281,-39.06774520874023,-27.52518653869629,2,0.0.0.0,10.144.231.151,1,0
2015-03-08 17:24:00.924,139,1425860640.55017,33.32521621140961,-111.9417012111395,359.2188,0,350.859375,3,10,-9999,1425860640.864772,19.40602493286133,-34.903076171875,-26.3908634185791,285.545654296875,275.0231018066406,10,328404.5950035834,-0.1975250244140625,-0.8868408203125,-0.624053955078125,328404.6057195833,-0.2758962983972659,-0.04013703342080222,0.3183191229816831,328404.55393525,-0.13587466287074,-0.515930650823386,1.004663527347284,0.008211212232708931,0.7592421174049377,-0.2235062420368195,0.05714256688952446,0.1127803698182106,0.06390584260225296,XTrueNorthZVertical,-0.449286328674691,0.2546849233356127,0.1800763659646576,-0.8371677713946231,-0.2646163105964661,-0.8439815640449524,-0.4665547609329224,15.99144172668457,-38.37488174438477,-28.92011833190918,2,0.0.0.0,10.144.231.151,1,0
2015-03-08 17:24:00.963,140,1425860640.55017,33.32521621140961,-111.9417012111395,359.2188,0,350.859375,3,10,-9999,1425860640.917323,19.67885589599609,-34.01943969726562,-26.52399253845215,286.6423034667969,276.1197509765625,10,328404.6440137083,-0.036163330078125,-0.9083251953125,-0.7188873291015625,328404.6057195833,-0.2758962983972659,-0.04013703342080222,0.3183191229816831,328404.6057195833,-0.1269813727471951,-0.499700730755258,0.9836362097471176,-0.2776602208614349,-0.0313279964029789,0.355970561504364,0.1942429840564728,0.05982750654220581,0.152427539229393,XTrueNorthZVertical,-0.4428156906874525,0.2465453330531363,0.170718985343349,-0.8449761423989297,-0.2654557526111603,-0.8325173258781433,-0.4862593114376068,17.09074401855469,-38.13122177124023,-28.61201858520508,2,0.0.0.0,10.144.231.151,1,0
2015-03-08 17:24:01.025,141,1425860640.55017,33.32521621140961,-111.9417012111395,359.2188,0,350.859375,3,10,-9999,1425860640.974813,20.30977249145508,-33.56059265136719,-26.84018516540527,286.2975463867188,275.7749938964844,10,328404.6930375834,-0.248199462890625,-0.69720458984375,-0.480987548828125,328404.6575050834,-0.3267930352542062,-0.35021367282869,0.3372472741133123,328404.6575050834,-0.1366191621456554,-0.4995925124090025,0.9625733889029682,-0.3285569250583649,-0.3414047360420227,0.374898374080658,0.1332717686891556,-0.1458269506692886,-0.1279150545597076,XTrueNorthZVertical,-0.4325496149944305,0.2492294483352895,0.1727946955286982,-0.8490744939032899,-0.2737441658973694,-0.8206647634506226,-0.501570999622345,16.76911926269531,-37.8236198425293,-29.2044792175293,2,0.0.0.0,10.144.231.151,1,0
2015-03-08 17:24:01.062,142,1425860640.55017,33.32521621140961,-111.9417012111395,359.2188,0,350.859375,3,10,-9999,1425860641.025436,20.01989364624023,-33.71353149414062,-27.4559268951416,285.8166198730469,275.2940673828125,10,328404.7420440417,-0.1454620361328125,-0.8220977783203125,-0.4481048583984375,328404.70928925,-0.9953042594597498,-0.7008545166962288,0.188281494326967,328404.70928925,-0.1458613331171828,-0.5172808675861951,0.9302615841120933,-0.9970681071281433,-0.6920456886291504,0.2259322255849838,0.02229717187583447,0.1663545370101929,-0.03497752174735069,XTrueNorthZVertical,-0.415811191752297,0.2595831141410878,0.1773752576585125,-0.8533789709069777,-0.2955363094806671,-0.8017762899398804,-0.5194353461265564,15.73172569274902,-37.26821136474609,-30.46841621398926,2,0.0.0.0,10.144.231.151,1,0
2015-03-08 17:24:01.126,143,1425860640.55017,33.32521621140961,-111.9417012111395,359.2188,0,350.859375,3,10,-9999,1425860641.079591,19.11614608764648,-33.08476257324219,-29.0368824005127,286.6431884765625,276.1206359863281,10,328404.7911817917,-0.2422637939453125,-0.6723480224609375,-0.4629669189453125,328404.7610735417,-1.106634779353313,0.02749900246783119,0.1676478548332511,328404.7610735417,-0.1649747088892121,-0.5106974267729352,0.8838277092154355,-1.108399152755737,0.03630848601460457,0.2052949219942093,0.1859779804944992,-0.02322992123663425,0.009467307478189468,XTrueNorthZVertical,-0.3935841335206234,0.2616369326375395,0.1797185862539891,-0.8627507550996601,-0.3099861443042755,-0.7731720805168152,-0.5532752871513367,14.58211898803711,-36.21043395996094,-32.262939453125,2,0.0.0.0,10.144.231.151,1,0
2015-03-08 17:24:01.199,144,1425860640.55017,33.32521621140961,-111.9417012111395,359.2188,0,350.859375,3,10,-9999,1425860641.150687,16.86530303955078,-30.90963745117188,-31.76611518859863,287.1613159179688,276.6387634277344,10,328404.8400825417,-0.2908935546875,-0.8111114501953125,-0.380126953125,328404.8128592917,-1.283236181771411,-0.4092074846639073,0.2169088781486648,328404.8128592917,-0.1894296816588332,-0.5144954181565986,0.8162632530584708,-1.285000562667847,-0.4003981053829193,0.2545555233955383,0.1442348808050156,0.007964611984789371,-0.06204931437969208,XTrueNorthZVertical,-0.3600294299298513,0.2687766173114686,0.1844743689634617,-0.8741322194701723,-0.3370602130889893,-0.7285914421081543,-0.5962758660316467,14.00310230255127,-34.78068542480469,-34.0433235168457,2,0.0.0.0,10.144.231.151,1,0
2015-03-08 17:24:01.219,145,1425860640.55017,33.32521621140961,-111.9417012111395,359.2188,0,350.859375,3,10,-9999,1425860641.201891,15.36474227905273,-28.83647155761719,-33.7963981628418,286.9638366699219,276.4412841796875,10,328404.8892274167,-0.2715911865234375,-0.6817779541015625,-0.6332550048828125,328404.864643375,-1.808452295099715,-0.6588796358071629,0.4321000173942285,328404.864643375,-0.213239182314601,-0.5271119626595195,0.7560489128909432,-1.810216903686523,-0.6500697135925293,0.4697433710098267,0.008382519707083702,0.1278704255819321,0.1415532529354095,XTrueNorthZVertical,-0.3285509837669821,0.278667904080162,0.1910953098426811,-0.8819756364020346,-0.3659875094890594,-0.6860522031784058,-0.6287968754768372,12.30541896820068,-32.45153045654297,-36.88097381591797,2,0.0.0.0,10.144.231.151,1,0
2015-03-08 17:24:01.264,146,1425860640.55017,33.32521621140961,-111.9417012111395,359.2188,0,350.859375,3,10,-9999,1425860641.253647,14.25637435913086,-27.05216979980469,-35.90988540649414,287.3558959960938,276.8333435058594,10,328404.938139625,-0.0703125,-0.655853271484375,-0.9272613525390625,328404.9164277917,-1.254900147772968,0.1738990928599941,0.1862356539775681,328404.9164277917,-0.2334766503718615,-0.5013934358581849,0.6971519002239241,-1.25666618347168,0.1827091872692108,0.2238782942295074,-0.03657486289739609,-0.02490968070924282,0.2594192326068878,XTrueNorthZVertical,-0.3014736097297556,0.2701115793369379,0.1902037210087565,-0.8944137365941813,-0.3685002028942108,-0.6420367360115051,-0.6723067760467529,11.11031055450439,-30.18467903137207,-39.11748123168945,2,0.0.0.0,10.144.231.151,1,0
2015-03-08 17:24:01.317,147,1425860640.55017,33.32521621140961,-111.9417012111395,359.2188,0,350.859375,3,10,-9999,1425860641.310488,13.40378570556641,-24.63912963867188,-37.30777740478516,287.2488403320312,276.7262878417969,10,328404.9871570833,-0.410552978515625,-0.548614501953125,-0.638885498046875,328404.9682132917,-0.8986400340053616,-0.03292892161439375,0.2764425127368411,328404.9682132917,-0.2552502948579314,-0.4880147702039301,0.6355021582207721,-0.9004067778587341,-0.02411849796772003,0.3140832781791687,0.09010548889636993,-0.04975935071706772,0.06182672455906868,XTrueNorthZVertical,-0.2714998977978679,0.2662205956271209,0.1921931995771558,-0.9046967250660912,-0.3773369193077087,-0.5935817360877991,-0.7108287811279297,11.10929489135742,-28.11351585388184,-40.63182067871094,2,0.0.0.0,10.144.231.151,1,0
