loggingTime,loggingSample,locationTimestamp_since1970,locationLatitude,locationLongitude,locationAltitude,locationSpeed,locationCourse,locationVerticalAccuracy,locationHorizontalAccuracy,locationFloor,locationHeadingTimestamp_since1970,locationHeadingX,locationHeadingY,locationHeadingZ,locationTrueHeading,locationMagneticHeading,locationHeadingAccuracy,accelerometerTimestamp_sinceReboot,accelerometerAccelerationX,accelerometerAccelerationY,accelerometerAccelerationZ,gyroTimestamp_sinceReboot,gyroRotationX,gyroRotationY,gyroRotationZ,motionTimestamp_sinceReboot,motionYaw,motionRoll,motionPitch,motionRotationRateX,motionRotationRateY,motionRotationRateZ,motionUserAccelerationX,motionUserAccelerationY,motionUserAccelerationZ,motionAttitudeReferenceFrame,motionQuaternionX,motionQuaternionY,motionQuaternionZ,motionQuaternionW,motionGravityX,motionGravityY,motionGravityZ,motionMagneticFieldX,motionMagneticFieldY,motionMagneticFieldZ,motionMagneticFieldCalibrationAccuracy,IP_en0,IP_pdp_ip0,deviceOrientation,state
2015-03-01 11:11:36.322,1,1425237093.846159,37.74684690664336,-122.4445761120923,168.93,-1,-1,23.14224837106302,65,-9999,1425237096.111823,-0.3829879760742188,-40.30474853515625,7.414955139160156,191.2089233398438,177.4373016357422,10,180546.707809875,0.0569915771484375,-0.94561767578125,-0.356964111328125,180546.66808875,-0.1215461395189984,0.3947055072639898,0.01104785746608471,180546.66808875,1.309834086973981,0.06806894294940206,1.226566805559807,-0.1437748223543167,0.411652535200119,0.04373223334550858,-0.046009611338377,-0.009241035208106041,0.007984969764947891,XTrueNorthZVertical,0.4392588316954212,0.3724335872295614,0.5133382355669777,0.6362614763874043,0.0229535810649395,-0.9413357377052307,-0.3366898000240326,-0.284152090549469,-41.03973388671875,8.47944164276123,2,0.0.0.0,10.83.46.32,1,0
2015-03-01 11:11:36.423,2,1425237093.846159,37.74684690664336,-122.4445761120923,168.93,-1,-1,23.14224837106302,65,-9999,1425237096.215454,-0.1101455688476562,-39.99888610839844,7.614662170410156,192.0645599365234,178.2929382324219,10,180546.7568567917,0.01556396484375,-0.9424896240234375,-0.333038330078125,180546.7198565833,0.02727503062015553,-0.04253041629245643,-0.007538077465469284,180546.7198565833,1.308544823336717,0.07644426636556123,1.223965047198856,0.004965277388691902,-0.02566179633140564,0.02506976015865803,0.02462330460548401,-0.0007533434545621276,-0.01167460717260838,XTrueNorthZVertical,0.4364857167316649,0.3741883540415563,0.5151865821571179,0.6356461192385162,0.02595958113670349,-0.9404545426368713,-0.3389265835285187,-0.4163246154785156,-41.08671569824219,8.243167877197266,2,0.0.0.0,10.83.46.32,1,0
2015-03-01 11:11:36.538,3,1425237093.846159,37.74684690664336,-122.4445761120923,168.93,-1,-1,23.14224837106302,65,-9999,1425237096.319017,-0.1783599853515625,-40.54266357421875,7.681228637695312,191.6437072753906,177.8720855712891,10,180546.8059363333,0.0491180419921875,-0.9390411376953125,-0.3513031005859375,180546.7716275,-0.01011521845233896,0.04628520711335914,-0.009713081127736998,180546.7716275,1.31203828797791,0.07272265070459265,1.223856474566092,-0.03242390975356102,0.06315325200557709,0.02289563044905663,-0.01120144035667181,-0.004406588152050972,0.006053842138499022,XTrueNorthZVertical,0.4367555376659863,0.373742231346501,0.5155019368680045,0.6354675494943647,0.02470546774566174,-0.9404176473617554,-0.3391226828098297,-0.4564102292060852,-41.08621597290039,8.243529319763184,2,0.0.0.0,10.83.46.32,1,0
2015-03-01 11:11:36.542,4,1425237093.846159,37.74684690664336,-122.4445761120923,168.93,-1,-1,23.14224837106302,65,-9999,1425237096.319017,-0.1783599853515625,-40.54266357421875,7.681228637695312,191.6437072753906,177.8720855712891,10,180546.8549833334,0.0339508056640625,-0.9397125244140625,-0.3461456298828125,180546.8233984167,-0.02956881126704078,0.01379623971104649,-0.01375069965640613,180546.8233984167,1.314509709158849,0.07483245439162367,1.221318574710941,-0.05187774449586868,0.0306647066026926,0.01885613799095154,0.03287243098020554,0.0008157005067914724,-0.01403528358787298,XTrueNorthZVertical,0.4349097568507805,0.3743382707700398,0.5171606138856932,0.6350347789114134,0.02559924870729446,-0.9395516514778137,-0.3414487242698669,-0.5191530585289001,-41.10141372680664,8.163679122924805,2,0.0.0.0,10.83.46.32,1,0
2015-03-01 11:11:36.546,5,1425237093.846159,37.74684690664336,-122.4445761120923,168.93,-1,-1,23.14224837106302,65,-9999,1425237096.371347,-0.3829879760742188,-40.74656677246094,7.847640991210938,191.1417846679688,177.3701629638672,10,180546.904061125,0.03216552734375,-0.9342193603515625,-0.3350677490234375,180546.87516625,-0.01096077209843912,-0.01873320773983538,-0.0362040771229732,180546.87516625,1.313268427960217,0.07574200127200392,1.219816632097771,-0.03332159668207169,-0.001939922105520964,-0.003678434761241078,0.008575120940804482,0.001917796675115824,0.007291250862181187,XTrueNorthZVertical,0.4344099116286632,0.3739946758679263,0.517208308200267,0.6355403099557436,0.02601655386388302,-0.9390363097190857,-0.3428320288658142,-0.5286183953285217,-41.11748123168945,8.08174991607666,2,0.0.0.0,10.83.46.32,1,0
2015-03-01 11:11:36.550,6,1425237093.846159,37.74684690664336,-122.4445761120923,168.93,-1,-1,23.14224837106302,65,-9999,1425237096.371347,-0.3829879760742188,-40.74656677246094,7.847640991210938,191.1417846679688,177.3701629638672,10,180546.9531015,0.0356597900390625,-0.9328460693359375,-0.3411712646484375,180546.9269371667,-0.01346254562645956,-0.01141910212204176,-0.03760729670133595,180546.9269371667,1.309961020637457,0.07944671552859676,1.218187266262233,-0.03582069277763367,0.005376229528337717,-0.00508747436106205,0.01110532507300377,0.003675681073218584,0.001209943322464824,XTrueNorthZVertical,0.4335303243647741,0.3740620782029014,0.5172243725147199,0.6360879471678881,0.02740785852074623,-0.9384748935699463,-0.344258040189743,-0.4893680810928345,-41.12945175170898,8.023107528686523,2,0.0.0.0,10.83.46.32,1,0
2015-03-01 11:11:36.561,7,1425237093.846159,37.74684690664336,-122.4445761120923,168.93,-1,-1,23.14224837106302,65,-9999,1425237096.42169,-0.9627456665039062,-40.50865173339844,7.747787475585938,189.7753601074219,176.0037384033203,10,180547.0021809583,0.034393310546875,-0.949005126953125,-0.3511505126953125,180546.9787080833,0.00130707946301089,-0.01643276919022493,-0.03506104838311119,180546.9787080833,1.30801427147498,0.0806359877165763,1.217130914119662,-0.02104952186346054,0.000364209758117795,-0.002546037780120969,-0.002491209423169494,-0.006928298622369766,0.006757947150617838,XTrueNorthZVertical,0.4332359573368958,0.3737646740746255,0.517032653446551,0.6366189735651103,0.02789709344506264,-0.9381095170974731,-0.3452131450176239,-0.43797767162323,-41.14291381835938,7.956765174865723,2,0.0.0.0,10.83.46.32,1,0
2015-03-01 11:11:36.627,8,1425237093.846159,37.74684690664336,-122.4445761120923,168.93,-1,-1,23.14224837106302,65,-9999,1425237096.477291,-0.9968490600585938,-40.16880798339844,7.181968688964844,189.4963073730469,175.7246856689453,10,180547.0512178333,0.02685546875,-0.927215576171875,-0.3399505615234375,180547.0304759583,0.03096617189100535,-0.04583779605022583,-0.03070198631086949,180546.9787080833,1.30801427147498,0.0806359877165763,1.217130914119662,-0.02104952186346054,0.000364209758117795,-0.002546037780120969,-0.002491209423169494,-0.006928298622369766,0.006757947150617838,XTrueNorthZVertical,0.4332359573368958,0.3737646740746255,0.517032653446551,0.6366189735651103,0.02789709344506264,-0.9381095170974731,-0.3452131450176239,-0.43797767162323,-41.14291381835938,7.956765174865723,2,0.0.0.0,10.83.46.32,1,0
2015-03-01 11:11:36.655,9,1425237093.846159,37.74684690664336,-122.4445761120923,168.93,-1,-1,23.14224837106302,65,-9999,1425237096.604257,-0.1442718505859375,-40.47467041015625,7.215255737304688,189.5552520751953,175.7836303710938,10,180547.1004144167,0.0584259033203125,-0.9368133544921875,-0.3623046875,180547.082246875,0.00996794564405758,-0.02523931028289896,-0.0189523858975489,180547.082246875,1.307747640812973,0.07947424181883178,1.217036082200147,-0.01246972940862179,-0.00849220622330904,0.01348609570413828,0.002175257541239262,0.0008208357612602413,0.0003633010492194444,XTrueNorthZVertical,0.4335544799808449,0.3733142252797687,0.5167112546352323,0.6369273035240312,0.02750308625400066,-0.9380766749382019,-0.345333993434906,-0.4092235565185547,-41.14543151855469,7.945284843444824,2,0.0.0.0,10.83.46.32,1,0
2015-03-01 11:11:36.714,10,1425237093.846159,37.74684690664336,-122.4445761120923,168.93,-1,-1,23.14224837106302,65,-9999,1425237096.656229,-0.3659439086914062,-40.96743774414062,7.598014831542969,189.6018524169922,175.8302307128906,10,180547.1493525,0.0248565673828125,-0.9402618408203125,-0.3445281982421875,180547.1340178333,0.02683880483360055,-0.1710654894601498,-0.00184583695153392,180547.1340178333,1.304533117295253,0.07949418611407592,1.215099806554726,0.004394529387354851,-0.1543143093585968,0.03057975508272648,0.009516247548162937,0.0002551098295953125,-0.006509506609290838,XTrueNorthZVertical,0.433504456752226,0.3721587863625869,0.5160015469407614,0.6382115917253695,0.02765416167676449,-0.9374041557312012,-0.3471434414386749,-0.366018533706665,-41.15640258789062,7.890358924865723,2,0.0.0.0,10.83.46.32,1,0
2015-03-01 11:11:36.753,11,1425237093.846159,37.74684690664336,-122.4445761120923,168.93,-1,-1,23.14224837106302,65,-9999,1425237096.707779,-0.8092880249023438,-40.865478515625,7.764434814453125,189.9604339599609,176.1888122558594,10,180547.19843625,-0.008697509765625,-0.94464111328125,-0.3396759033203125,180547.1857859167,0.01162975816426703,-0.09454328396224899,-0.004973985967940993,180547.1857859167,1.311565416010188,0.06623852785682141,1.215608220794965,-0.01081039663404226,-0.07779400050640106,0.02745671756565571,-0.02340017445385456,-0.00294015184044838,0.01207350287586451,XTrueNorthZVertical,0.4357867668764279,0.3695780463786845,0.5152835555342788,0.6387368216997215,0.02301870472729206,-0.9375810623168945,-0.3470039367675781,-0.3571101427078247,-41.15715789794922,7.886835098266602,2,0.0.0.0,10.83.46.32,1,0
2015-03-01 11:11:36.807,12,1425237093.846159,37.74684690664336,-122.4445761120923,168.93,-1,-1,23.14224837106302,65,-9999,1425237096.760077,-0.3488922119140625,-40.98443603515625,7.914215087890625,191.2689208984375,177.4972991943359,10,180547.24747125,0.0324859619140625,-0.9373016357421875,-0.3536529541015625,180547.2375566667,-0.003735616061054148,0.007438208924591312,-0.008743956807057163,180547.1857859167,1.311565416010188,0.06623852785682141,1.215608220794965,-0.01081039663404226,-0.07779400050640106,0.02745671756565571,-0.02340017445385456,-0.00294015184044838,0.01207350287586451,XTrueNorthZVertical,0.4357867668764279,0.3695780463786845,0.5152835555342788,0.6387368216997215,0.02301870472729206,-0.9375810623168945,-0.3470039367675781,-0.3571101427078247,-41.15715789794922,7.886835098266602,2,0.0.0.0,10.83.46.32,1,0
2015-03-01 11:11:36.852,13,1425237093.846159,37.74684690664336,-122.4445761120923,168.93,-1,-1,23.14224837106302,65,-9999,1425237096.812655,-0.2806930541992188,-41.08638000488281,8.08062744140625,191.6586456298828,177.8870239257812,10,180547.296676375,0.0221405029296875,-0.93402099609375,-0.3414306640625,180547.2893277917,0.007341536177021436,0.003687412845323713,-0.007445932091752542,180547.2893277917,1.31989715001497,0.0595779562790841,1.213712292553382,-0.01521200500428677,0.02041637524962425,0.02490871585905552,-3.030050538654905e-05,0.001495258184149861,0.01007142290472984,XTrueNorthZVertical,0.4353412592302133,0.3688038941110846,0.5168041433780137,0.6382593999593547,0.02081277035176754,-0.9369200468063354,-0.3489233553409576,-0.4959697127342224,-41.16993713378906,7.81227970123291,2,0.0.0.0,10.83.46.32,1,0
2015-03-01 11:11:36.904,14,1425237093.846159,37.74684690664336,-122.4445761120923,168.93,-1,-1,23.14224837106302,65,-9999,1425237096.86341,-0.24658203125,-41.05239868164062,8.047348022460938,191.8274688720703,178.0558471679688,10,180547.345611125,0.0428466796875,-0.930572509765625,-0.3599395751953125,180547.2893277917,0.007341536177021436,0.003687412845323713,-0.007445932091752542,180547.2893277917,1.31989715001497,0.0595779562790841,1.213712292553382,-0.01521200500428677,0.02041637524962425,0.02490871585905552,-3.030050538654905e-05,0.001495258184149861,0.01007142290472984,XTrueNorthZVertical,0.4353412592302133,0.3688038941110846,0.5168041433780137,0.6382593999593547,0.02081277035176754,-0.9369200468063354,-0.3489233553409576,-0.4959697127342224,-41.16993713378906,7.81227970123291,2,0.0.0.0,10.83.46.32,1,0
2015-03-01 11:11:36.950,15,1425237093.846159,37.74684690664336,-122.4445761120923,168.93,-1,-1,23.14224837106302,65,-9999,1425237096.915765,-0.2124786376953125,-40.98443603515625,7.947494506835938,191.8155364990234,178.0439147949219,10,180547.3948090417,0.0187835693359375,-0.939910888671875,-0.34100341796875,180547.392866625,0.01764663801508305,-0.07508436482536701,-0.01281513116546129,180547.3410955417,1.319517240604249,0.06135010236645742,1.212115051259597,-0.03227415680885315,-0.002298132050782442,0.01449854485690594,0.01764650456607342,0.003483975538983941,-0.01075061317533255,XTrueNorthZVertical,0.4344265110079175,0.3688956934905325,0.5173314561513125,0.6384024176667846,0.02152280695736408,-0.9363605380058289,-0.3503791391849518,-0.537250280380249,-41.17269134521484,7.79502010345459,2,0.0.0.0,10.83.46.32,1,0
2015-03-01 11:11:37.007,16,1425237093.846159,37.74684690664336,-122.4445761120923,168.93,-1,-1,23.14224837106302,65,-9999,1425237096.969706,-0.1272201538085938,-40.9334716796875,7.797721862792969,191.8278961181641,178.0562744140625,10,180547.4437623333,0.012908935546875,-0.9385833740234375,-0.3525238037109375,180547.4446374167,0.01495391583690393,-0.0373670795710108,-0.02110182321335185,180547.392866625,1.319861655636863,0.05905934346868674,1.211286508633017,-0.005043566226959229,-0.05836008489131927,0.01943815499544144,7.760426524328068e-05,-0.001720527303405106,0.004583221860229969,XTrueNorthZVertical,0.4346821696037119,0.3680359688397944,0.5170801582125911,0.6389279737187999,0.02076590247452259,-0.9360693693161011,-0.3512018620967865,-0.4984826445579529,-41.18917083740234,7.710048675537109,2,0.0.0.0,10.83.46.32,1,0
2015-03-01 11:11:37.048,17,1425237093.846159,37.74684690664336,-122.4445761120923,168.93,-1,-1,23.14224837106302,65,-9999,1425237097.020069,-0.4682540893554688,-40.865478515625,7.831008911132812,191.8148956298828,178.0432739257812,10,180547.4928701667,0.01715087890625,-0.940338134765625,-0.348541259765625,180547.4964055,0.01872122351493002,-0.05075319247418508,-0.01954706976896359,180547.4446374167,1.322269838131697,0.05523370018642138,1.211337973739342,-0.007733375765383244,-0.0206434354186058,0.01115280855447054,-0.006510584615170956,-0.002495879307389259,-0.001293158740736544,XTrueNorthZVertical,0.435245403852782,0.3673501272029064,0.5170090120203712,0.6389968016411056,0.01941952109336853,-0.9360874891281128,-0.351230651140213,-0.5187239050865173,-41.18642807006836,7.723359107971191,2,0.0.0.0,10.83.46.32,1,0
2015-03-01 11:11:37.111,18,1425237093.846159,37.74684690664336,-122.4445761120923,168.93,-1,-1,23.14224837106302,65,-9999,1425237097.070987,-0.5535125732421875,-41.08641052246094,7.714515686035156,191.7874603271484,178.0158386230469,10,180547.541928125,0.02838134765625,-0.931488037109375,-0.3602142333984375,180547.4964055,0.01872122351493002,-0.05075319247418508,-0.01954706976896359,180547.4964055,1.323653907466509,0.05278916408490258,1.211052674066113,-0.003966048825532198,-0.03402935713529587,0.01270627975463867,-0.00142407906241715,-0.004351037088781595,0.003002486657351255,XTrueNorthZVertical,0.4355294150192457,0.3668000209882756,0.516966479403956,0.6391536912022643,0.01857495866715908,-0.935987114906311,-0.3515437543392181,-0.5376653075218201,-41.19031143188477,7.701324462890625,2,0.0.0.0,10.83.46.32,1,0
2015-03-01 11:11:37.146,19,1425237093.846159,37.74684690664336,-122.4445761120923,168.93,-1,-1,23.14224837106302,65,-9999,1425237097.126376,-0.2124710083007812,-41.05239868164062,7.581375122070312,191.7807006835938,178.0090789794922,10,180547.5911135417,0.009368896484375,-0.937347412109375,-0.35205078125,180547.5999473333,-0.00592500079320829,-0.03824858589182702,-0.03082768751432123,180547.54817625,1.323947332499724,0.05180856109827817,1.209830443945775,-0.01758263073861599,-0.02898102067410946,0.005169415846467018,0.01009189523756504,0.004068094305694103,-0.007510246708989143,XTrueNorthZVertical,0.4353272418629806,0.3662488213000376,0.5170500460209063,0.6395397969218863,0.01828945241868496,-0.9355561137199402,-0.3527039885520935,-0.5411712527275085,-41.19667434692383,7.666982650756836,2,0.0.0.0,10.83.46.32,1,0
2015-03-01 11:11:37.208,20,1425237093.846159,37.74684690664336,-122.4445761120923,168.93,-1,-1,23.14224837106302,65,-9999,1425237097.200728,-0.2977294921875,-41.035400390625,7.331756591796875,191.7965850830078,178.0249633789062,10,180547.6400479584,0.0107574462890625,-0.9368896484375,-0.352996826171875,180547.5999473333,-0.00592500079320829,-0.03824858589182702,-0.03082768751432123,180547.5999473333,1.324697031518818,0.04933622177177335,1.208983536066409,-0.02868404053151608,-0.02155516296625137,0.00133008393459022,-0.008087566122412682,-0.002090725349262357,0.001488585025072098,XTrueNorthZVertical,0.4355507784805088,0.3654118720397276,0.5168926050564573,0.639993458188597,0.01745646260678768,-0.9352566599845886,-0.353539377450943,-0.5209572315216064,-41.20376205444336,7.630208015441895,2,0.0.0.0,10.83.46.32,1,0
2015-03-01 11:11:37.244,21,1425237093.846159,37.74684690664336,-122.4445761120923,168.93,-1,-1,23.14224837106302,65,-9999,1425237097.200728,-0.2977294921875,-41.035400390625,7.331756591796875,191.7965850830078,178.0249633789062,10,180547.6892350417,0.0068817138671875,-0.93060302734375,-0.3592987060546875,180547.6517151667,-0.02685132169072392,-0.03075764637765215,-0.03342533484158452,180547.6517151667,1.326440045178347,0.04598102668904564,1.207233749663811,-0.04961002618074417,-0.01406516972929239,-0.001265975879505277,-0.004077302757650614,0.003208881011232734,0.00182136136572808,XTrueNorthZVertical,0.4355253050190239,0.3642837098488912,0.5170121055934165,0.6405571626681597,0.01634536869823933,-0.9346358776092529,-0.3552301824092865,-0.5276464223861694,-41.21332550048828,7.577910423278809,2,0.0.0.0,10.83.46.32,1,0
2015-03-01 11:11:37.305,22,1425237093.846159,37.74684690664336,-122.4445761120923,168.93,-1,-1,23.14224837106302,65,-9999,1425237097.252588,-0.4853057861328125,-41.25630187988281,7.714515686035156,191.7954864501953,178.0238647460938,10,180547.7381734167,0.0152587890625,-0.9283905029296875,-0.3670196533203125,180547.7034860833,-0.03583203351868913,0.03330336206365889,-0.01790150253140363,180547.7034860833,1.328437120058924,0.04435005951546608,1.204849499799233,-0.05870348960161209,0.04995349422097206,0.01415247470140457,-0.00648057647049427,0.006005221977829933,-0.0008558371919207275,XTrueNorthZVertical,0.4348011579721625,0.3636030396543222,0.5176959576246487,0.6408834422795676,0.01586473174393177,-0.9337853789329529,-0.3574815690517426,-0.5451084971427917,-41.23070907592773,7.481498718261719,2,0.0.0.0,10.83.46.32,1,0
2015-03-01 11:11:37.343,23,1425237093.846159,37.74684690664336,-122.4445761120923,168.93,-1,-1,23.14224837106302,65,-9999,1425237097.304076,-0.4170989990234375,-40.950439453125,7.581375122070312,191.7920074462891,178.0203857421875,10,180547.78730425,0.0205535888671875,-0.9349212646484375,-0.3639984130859375,180547.7552570833,-0.06796972997322033,0.06742697774306218,-0.01258929510502257,180547.7552570833,1.332278830156224,0.04439968657027328,1.200345088394918,-0.09084410220384598,0.08407675474882126,0.01946456171572208,0.001966887386515737,0.004704358987510204,-0.01002495363354683,XTrueNorthZVertical,0.4326117999830642,0.363328304128779,0.5196915503997886,0.6409057457428422,0.01606900058686733,-0.9321640729904175,-0.3616791367530823,-0.6106842160224915,-41.25466537475586,7.343106269836426,2,0.0.0.0,10.83.46.32,1,0
2015-03-01 11:11:37.406,24,1425237093.846159,37.74684690664336,-122.4445761120923,168.93,-1,-1,23.14224837106302,65,-9999,1425237097.356629,-0.2124786376953125,-40.64456176757812,7.514816284179688,192.0100708007812,178.2384490966797,10,180547.8362907083,0.0274505615234375,-0.9309844970703125,-0.3764190673828125,180547.8070252083,-0.08384430059896465,0.05189835174291915,-0.01828473141226603,180547.8070252083,1.332978381277179,0.04700670690523766,1.194989771284509,-0.1067191511392593,0.06854963302612305,0.01376451179385185,0.001476355828344822,-0.006799818482249975,-0.002813201630488038,XTrueNorthZVertical,0.4300467461997667,0.3629753791557205,0.5213710058160663,0.641467733446433,0.0172461774200201,-0.9302119016647339,-0.366617351770401,-0.6487044095993042,-41.28943252563477,7.141658782958984,2,0.0.0.0,10.83.46.32,1,0
2015-03-01 11:11:37.440,25,1425237093.846159,37.74684690664336,-122.4445761120923,168.93,-1,-1,23.14224837106302,65,-9999,1425237097.408346,-0.5535125732421875,-40.474609375,6.749305725097656,191.2139434814453,177.4423217773438,10,180547.885474,0.02294921875,-0.9182891845703125,-0.36810302734375,180547.8587960417,-0.07642926117585704,0.04454216817990228,-0.01688923500106451,180547.8587960417,1.334595901606896,0.04964200415344596,1.188866390323426,-0.09930587559938431,0.06119442731142044,0.01515663880854845,0.003783265361562371,-0.000550260825548321,0.003340996103361249,XTrueNorthZVertical,0.4270488697996767,0.3626332764195224,0.5234692640158528,0.6419549889326892,0.01849456690251827,-0.9279470443725586,-0.3722527325153351,-0.6976611018180847,-41.33985900878906,6.838912963867188,2,0.0.0.0,10.83.46.32,1,0
2015-03-01 11:11:37.506,26,1425237093.846159,37.74684690664336,-122.4445761120923,168.93,-1,-1,23.14224837106302,65,-9999,1425237097.460243,-0.587615966796875,-41.01838684082031,6.549606323242188,191.2434844970703,177.4718627929688,10,180547.9344118334,0.0424346923828125,-0.9124603271484375,-0.3760223388671875,180547.9105671667,-0.0630649861936214,0.06651457875360103,-0.03459286466347525,180547.9105671667,1.335144156580466,0.05337887329010005,1.184180823784515,-0.08602944016456604,0.08315162360668182,-0.002663696883246303,0.0167632382363081,0.001935135573148727,0.002739397808909416,XTrueNorthZVertical,0.4244237488246819,0.3627742191153215,0.5252118943354108,0.6421929009077314,0.0201172549277544,-0.9261904954910278,-0.3765186965465546,-0.7361744046211243,-41.36929321289062,6.654397964477539,2,0.0.0.0,10.83.46.32,1,0
2015-03-01 11:11:37.539,27,1425237093.846159,37.74684690664336,-122.4445761120923,168.93,-1,-1,23.14224837106302,65,-9999,1425237097.511763,-0.5023651123046875,-41.205322265625,6.932357788085938,191.2400970458984,177.4684753417969,10,180547.9834838333,0.038482666015625,-0.9133453369140625,-0.3661651611328125,180547.9623350833,-0.01234987692302445,0.008932774928343781,-0.02222168245173017,180547.9623350833,1.331867518901061,0.06031901201450602,1.180909646665343,-0.03531396016478539,0.02557329088449478,0.009698291309177876,0.02461876906454563,0.01455174665898085,0.009961675852537155,XTrueNorthZVertical,0.4221118102317843,0.363490729970154,0.5261615462224786,0.6425340805857594,0.02291235886514187,-0.9249521493911743,-0.3793922066688538,-0.7146932482719421,-41.39530563354492,6.493024826049805,2,0.0.0.0,10.83.46.32,1,0
2015-03-01 11:11:37.606,28,1425237093.846159,37.74684690664336,-122.4445761120923,168.93,-1,-1,23.14224837106302,65,-9999,1425237097.563586,-0.5023574829101562,-41.47723388671875,7.165328979492188,191.2393188476562,177.4676971435547,10,180548.0325333333,0.053009033203125,-0.9147796630859375,-0.38189697265625,180548.014106125,0.03563069854027914,-0.006876281934584593,-0.04514936890844035,180548.014106125,1.327685945402236,0.06515280440504298,1.180975533413431,0.01266989298164845,0.009767502546310425,-0.01323758624494076,0.01734172180294991,0.007298344280570745,0.006199861411005259,XTrueNorthZVertical,0.4216231167922479,0.3641783053469055,0.5258269038227759,0.6427395157184643,0.02474201843142509,-0.92497718334198,-0.3792162239551544,-0.6582852602005005,-41.40541076660156,6.434274673461914,2,0.0.0.0,10.83.46.32,1,0
2015-03-01 11:11:37.637,29,1425237093.846159,37.74684690664336,-122.4445761120923,168.93,-1,-1,23.14224837106302,65,-9999,1425237097.616723,-0.8604507446289062,-41.15435791015625,6.749298095703125,190.2185211181641,176.4468994140625,10,180548.0817265417,0.0166015625,-0.9164886474609375,-0.36480712890625,180548.0658769167,0.09881792382793517,-0.09390652214561104,-0.01615526780463868,180548.0658769167,1.324387216194044,0.06656577865387002,1.183267890361448,0.07579997926950455,-0.07725813984870911,0.0156373493373394,0.005792855285108089,0.005283149424940348,0.005192254204303026,XTrueNorthZVertical,0.422615589101861,0.3645050926568728,0.5246967328920833,0.6428260638123442,0.02513671107590199,-0.9258459210395813,-0.3770641982555389,-0.589832067489624,-41.39942169189453,6.479297637939453,2,0.0.0.0,10.83.46.32,1,0
2015-03-01 11:11:37.706,30,1425237093.846159,37.74684690664336,-122.4445761120923,168.93,-1,-1,23.14224837106302,65,-9999,1425237097.668597,-0.8263473510742188,-41.08636474609375,6.616165161132812,190.1720581054688,176.4004364013672,10,180548.1306615417,0.0320892333984375,-0.92938232421875,-0.3712158203125,180548.1176450417,0.1207136353622396,-0.0611155522756834,-0.0329238616083226,180548.0658769167,1.324387216194044,0.06656577865387002,1.183267890361448,0.07579997926950455,-0.07725813984870911,0.0156373493373394,0.005792855285108089,0.005283149424940348,0.005192254204303026,XTrueNorthZVertical,0.422615589101861,0.3645050926568728,0.5246967328920833,0.6428260638123442,0.02513671107590199,-0.9258459210395813,-0.3770641982555389,-0.589832067489624,-41.39942169189453,6.479297637939453,2,0.0.0.0,10.83.46.32,1,0
2015-03-01 11:11:37.735,31,1425237093.846159,37.74684690664336,-122.4445761120923,168.93,-1,-1,23.14224837106302,65,-9999,1425237097.71908,-0.8263473510742188,-40.54255676269531,6.616165161132812,190.2113037109375,176.4396820068359,10,180548.1797487084,0.027191162109375,-0.9302520751953125,-0.374786376953125,180548.169416,0.1479678933258926,-0.09688446887653765,-0.007605721757157296,180548.169416,1.325622286357519,0.06034240893922979,1.193546268239878,0.1249502524733543,-0.08023554086685181,0.02418414875864983,0.006639817263931036,-0.001547505147755146,-0.01319519616663456,XTrueNorthZVertical,0.4274308438709868,0.3653156517851008,0.5221083580668541,0.6412878598992056,0.02221455238759518,-0.929681122303009,-0.3676947057247162,-0.5948009490966797,-41.33016967773438,6.906832695007324,2,0.0.0.0,10.83.46.32,1,0
2015-03-01 11:11:37.778,32,1425237093.846159,37.74684690664336,-122.4445761120923,168.93,-1,-1,23.14224837106302,65,-9999,1425237097.770656,-0.1272125244140625,-40.45759582519531,7.032211303710938,191.8911590576172,178.1195373535156,10,180548.228797625,0.0201416015625,-0.9279937744140625,-0.368194580078125,180548.2211870417,0.1083845310957178,-0.05159661559141317,-0.01479385985539017,180548.169416,1.325622286357519,0.06034240893922979,1.193546268239878,0.1249502524733543,-0.08023554086685181,0.02418414875864983,0.006639817263931036,-0.001547505147755146,-0.01319519616663456,XTrueNorthZVertical,0.4274308438709868,0.3653156517851008,0.5221083580668541,0.6412878598992056,0.02221455238759518,-0.929681122303009,-0.3676947057247162,-0.5948009490966797,-41.33016967773438,6.906832695007324,2,0.0.0.0,10.83.46.32,1,0
2015-03-01 11:11:37.833,33,1425237093.846159,37.74684690664336,-122.4445761120923,168.93,-1,-1,23.14224837106302,65,-9999,1425237097.82309,-0.3318328857421875,-40.42361450195312,7.132057189941406,191.88671875,178.1150970458984,10,180548.27797925,0.01025390625,-0.9349517822265625,-0.3614349365234375,180548.2729548333,0.0837617426051722,-0.04066540458107393,-0.002793922299602129,180548.2211870417,1.328764660469511,0.05323229134228402,1.199415797919068,0.08532722294330597,-0.03492873534560204,0.01686905510723591,-0.01250356435775757,-0.005214999429881573,-0.0002371431037317961,XTrueNorthZVertical,0.430649044719139,0.3651676475223148,0.5206265774765608,0.6404231920061615,0.01930898427963257,-0.9318272471427917,-0.3623879849910736,-0.5976240038871765,-41.29398345947266,7.119779586791992,2,0.0.0.0,10.83.46.32,1,0
2015-03-01 11:11:37.909,34,1425237093.846159,37.74684690664336,-122.4445761120923,168.93,-1,-1,23.14224837106302,65,-9999,1425237097.874265,-0.3829879760742188,-40.95042419433594,7.248550415039062,191.8852386474609,178.1136169433594,10,180548.326924125,-0.0045318603515625,-0.952789306640625,-0.353851318359375,180548.324726,0.05744038997137405,0.04457066400356613,-0.0146838713023699,180548.2729548333,1.3318394917962,0.04778670064880091,1.202711217362128,0.0607023574411869,-0.0239983219653368,0.02886971272528172,-0.009665928781032562,-0.01476633362472057,-0.003755905432626605,XTrueNorthZVertical,0.4325881792778642,0.3649084824806494,0.5198880791739061,0.639863704428064,0.01718851178884506,-0.9330180883407593,-0.3594185411930084,-0.6258012056350708,-41.26578140258789,7.279084205627441,2,0.0.0.0,10.83.46.32,1,0
2015-03-01 11:11:37.931,35,1425237093.846159,37.74684690664336,-122.4445761120923,168.93,-1,-1,23.14224837106302,65,-9999,1425237097.92694,-0.502349853515625,-41.34126281738281,7.564735412597656,191.8735198974609,178.1018981933594,10,180548.3760099583,0.024169921875,-0.9502105712890625,-0.3697509765625,180548.376496875,0.02710139251708236,-0.01669162844818063,-0.03265434970600658,180548.324726,1.337241781143576,0.04184185859408951,1.206041289538504,0.03438368439674377,0.06123526021838188,0.01698545925319195,-0.03106528334319592,-0.01122339814901352,0.01319213397800922,XTrueNorthZVertical,0.4342381738751481,0.3650111918382642,0.5197673287792706,0.6387846825534056,0.01492148544639349,-0.9342111945152283,-0.3564080893993378,-0.7104966044425964,-41.23380279541016,7.450512886047363,2,0.0.0.0,10.83.46.32,1,0
2015-03-01 11:11:37.977,36,1425237093.846159,37.74684690664336,-122.4445761120923,168.93,-1,-1,23.14224837106302,65,-9999,1425237097.92694,-0.502349853515625,-41.34126281738281,7.564735412597656,191.8735198974609,178.1018981933594,10,180548.4251573333,0.0092620849609375,-0.9423370361328125,-0.3502044677734375,180548.376496875,0.02710139251708236,-0.01669162844818063,-0.03265434970600658,180548.376496875,1.335408762798795,0.04703681007230238,1.204981528645942,0.004032062832266092,1.866849561338313e-05,-0.001122955116443336,0.00735058169811964,-0.01637796126306057,-0.01243647933006287,XTrueNorthZVertical,0.4328754597769296,0.3660076336192177,0.5204865870648003,0.6385537328133127,0.01681933924555779,-0.933832585811615,-0.3573144972324371,-0.7689965963363647,-41.22978973388672,7.466883659362793,2,0.0.0.0,10.83.46.32,1,0
2015-03-01 11:11:38.028,37,1425237093.846159,37.74684690664336,-122.4445761120923,168.93,-1,-1,23.14224837106302,65,-9999,1425237097.979851,-0.05899810791015625,-41.10337829589844,7.664581298828125,192.3812255859375,178.6096038818359,10,180548.4741354584,0.019287109375,-0.9318084716796875,-0.350830078125,180548.480035875,-0.001136903469354827,-0.01877928042669375,-0.03866696849907848,180548.428264875,1.335265170212379,0.04634886188578931,1.205219705344618,-0.01435119938105345,-0.005941309966146946,0.002727992599830031,-0.00730113172903657,-0.008419254794716835,0.006899327039718628,XTrueNorthZVertical,0.433158726346171,0.3658163753779775,0.5202518120580416,0.6386625540100287,0.01656321622431278,-0.933917760848999,-0.3571037948131561,-0.7231761813163757,-41.23665618896484,7.433472633361816,2,0.0.0.0,10.83.46.32,1,0
2015-03-01 11:11:38.079,38,1425237093.846159,37.74684690664336,-122.4445761120923,168.93,-1,-1,23.14224837106302,65,-9999,1425237098.030048,-0.3147735595703125,-40.91645812988281,7.315109252929688,191.8546295166016,178.0830078125,10,180548.5231857917,0.044097900390625,-0.9334564208984375,-0.358306884765625,180548.480035875,-0.001136903469354827,-0.01877928042669375,-0.03866696849907848,180548.480035875,1.33314613253038,0.04887250807300226,1.20398456644564,-0.02420435287058353,-0.002067743102088571,-0.007139650173485279,0.001766403205692768,0.001667050179094076,0.007382648531347513,XTrueNorthZVertical,0.4324849833239157,0.3658556761968775,0.520327980761114,0.6390344782401859,0.01752070523798466,-0.9334754943847656,-0.3582127392292023,-0.7056517601013184,-41.240966796875,7.411213874816895,2,0.0.0.0,10.83.46.32,1,0
2015-03-01 11:11:38.128,39,1425237093.846159,37.74684690664336,-122.4445761120923,168.93,-1,-1,23.14224837106302,65,-9999,1425237098.083684,-0.5023422241210938,-40.93345642089844,7.231910705566406,191.8468017578125,178.0751800537109,10,180548.5722770834,0.0320892333984375,-0.9303741455078125,-0.3545379638671875,180548.5318069167,-0.00868270410198534,0.008240086728814171,-0.05768380289500729,180548.5318069167,1.331772558566432,0.05183627676398956,1.203073434529975,-0.03170129284262657,0.02497691474854946,-0.02628348395228386,0.02547155320644379,-0.0003080558672081679,0.0007015702431090176,XTrueNorthZVertical,0.4316659127795417,0.3662790087288547,0.5206812810653764,0.6390580095779552,0.01862634718418121,-0.9331483840942383,-0.3590084612369537,-0.7153398990631104,-41.24519729614258,7.386690139770508,2,0.0.0.0,10.83.46.32,1,0
2015-03-01 11:11:38.178,40,1425237093.846159,37.74684690664336,-122.4445761120923,168.93,-1,-1,23.14224837106302,65,-9999,1425237098.134658,-0.6217117309570312,-41.32429504394531,7.148704528808594,191.8177490234375,178.0461273193359,10,180548.621368125,0.0406036376953125,-0.924835205078125,-0.3577728271484375,180548.583575125,0.01612197829101268,-0.02976162412996251,-0.04331338565293972,180548.583575125,1.326043448512912,0.05754857669378147,1.20234801488057,-0.006896069273352623,-0.01302248332649469,-0.0119194844737649,0.007635104469954967,0.01233985181897879,0.001554940710775554,XTrueNorthZVertical,0.4309904426257675,0.3666896291121519,0.5202017781591437,0.6396686429829973,0.02071572653949261,-0.9328873157501221,-0.3595719039440155,-0.6436291933059692,-41.25442504882812,7.341632843017578,2,0.0.0.0,10.83.46.32,1,0
2015-03-01 11:11:38.228,41,1425237093.846159,37.74684690664336,-122.4445761120923,168.93,-1,-1,23.14224837106302,65,-9999,1425237098.18585,-0.2636184692382812,-41.40925598144531,7.464897155761719,191.8109436035156,178.0393218994141,10,180548.6704108334,0.0427703857421875,-0.9270172119140625,-0.3528594970703125,180548.6353459583,0.03321547774768627,-0.01405323475623913,-0.04985677245126441,180548.6353459583,1.322206955616408,0.06222834150619817,1.202659255576962,0.01019958592951298,0.002687163418158889,-0.0184664074331522,0.01584311947226524,0.0106055922806263,0.004460149444639683,XTrueNorthZVertical,0.4305804561698851,0.3674368808742546,0.5199315968008282,0.6397356114324734,0.02238014712929726,-0.9329993724822998,-0.3591812252998352,-0.5884385704994202,-41.25380325317383,7.349747657775879,2,0.0.0.0,10.83.46.32,1,0
2015-03-01 11:11:38.276,42,1425237093.846159,37.74684690664336,-122.4445761120923,168.93,-1,-1,23.14224837106302,65,-9999,1425237098.237631,0.00920867919921875,-41.40928649902344,7.631309509277344,191.8235626220703,178.0519409179688,10,180548.7195184584,0.02789306640625,-0.9305419921875,-0.34844970703125,180548.687117125,0.04555496834245942,-0.02380013802982013,-0.05330237026960893,180548.687117125,1.315588588078027,0.06884794348915377,1.203881821714272,0.02254129387438297,-0.007057511247694492,-0.02191788703203201,0.02253190614283085,0.006345162633806467,0.00409669941291213,XTrueNorthZVertical,0.4304836361857865,0.3684295695031595,0.5190403922256198,0.63995349134063,0.02467878721654415,-0.9334386587142944,-0.3578869700431824,-0.5129157900810242,-41.24830627441406,7.386178970336914,2,0.0.0.0,10.83.46.32,1,0
2015-03-01 11:11:38.323,43,1425237093.846159,37.74684690664336,-122.4445761120923,168.93,-1,-1,23.14224837106302,65,-9999,1425237098.289323,0.07741546630859375,-41.00144958496094,7.764442443847656,191.8434295654297,178.0718078613281,10,180548.7685215833,0.047271728515625,-0.940216064453125,-0.33837890625,180548.7388850417,0.05794372741739903,-0.04093491648338995,-0.04922267379571654,180548.7388850417,1.310015228769282,0.07254558097503847,1.205785568389948,0.03503613173961639,-0.02418716810643673,-0.01798632182180882,0.005148015450686216,0.0001904775417642668,0.007082289550453424,XTrueNorthZVertical,0.4311851115442472,0.3688756710978486,0.5177461409246393,0.6402725833277084,0.025873102247715,-0.9341199398040771,-0.3560202717781067,-0.4066997766494751,-41.23891448974609,7.444987297058105,2,0.0.0.0,10.83.46.32,1,0
2015-03-01 11:11:38.363,44,1425237093.846159,37.74684690664336,-122.4445761120923,168.93,-1,-1,23.14224837106302,65,-9999,1425237098.341573,0.264984130859375,-41.0184326171875,7.714515686035156,191.8632202148438,178.0915985107422,10,180548.8176681667,0.0577545166015625,-0.9384765625,-0.3496246337890625,180548.7906561667,0.07529342297093823,-0.06754468946324368,-0.06203753864506883,180548.7906561667,1.301814765507513,0.07880465773426787,1.209188625442198,0.05239170789718628,-0.05079319700598717,-0.03081025555729866,0.01992474123835564,-0.005848105531185865,0.005130870267748833,XTrueNorthZVertical,0.4322162820193521,0.3699309816579086,0.5159271771477431,0.6404367344212473,0.02785052731633186,-0.935329258441925,-0.3526802957057953,-0.3007688522338867,-41.21196365356445,7.597681999206543,2,0.0.0.0,10.83.46.32,1,0
2015-03-01 11:11:38.421,45,1425237093.846159,37.74684690664336,-122.4445761120923,168.93,-1,-1,23.14224837106302,65,-9999,1425237098.393033,0.0092010498046875,-40.9334716796875,7.531455993652344,191.8765563964844,178.1049346923828,10,180548.8666383333,0.0496826171875,-0.94287109375,-0.342620849609375,180548.8424270833,0.07582126149899195,-0.1535826358521066,-0.06231264318567402,180548.8424270833,1.290984391444473,0.08451137462764173,1.212061518809504,0.05292120948433876,-0.1368273049592972,-0.03109576925635338,0.02146591804921627,-0.007032864727079868,0.0008681617327965796,XTrueNorthZVertical,0.4337127032371138,0.3701012797316772,0.5132370009613212,0.6414873523186293,0.02963576652109623,-0.9363417625427246,-0.349836677312851,-0.1481863260269165,-41.18962478637695,7.722317695617676,2,0.0.0.0,10.83.46.32,1,0
2015-03-01 11:11:38.461,46,1425237093.846159,37.74684690664336,-122.4445761120923,168.93,-1,-1,23.14224837106302,65,-9999,1425237098.445513,0.2479324340820312,-40.66160583496094,7.531463623046875,192.6424255371094,178.8708038330078,10,180548.9156854583,0.02520751953125,-0.9555206298828125,-0.3359375,180548.8941952917,0.06128120089548632,-0.187173619313494,-0.07611713869609975,180548.8424270833,1.290984391444473,0.08451137462764173,1.212061518809504,0.05292120948433876,-0.1368273049592972,-0.03109576925635338,0.02146591804921627,-0.007032864727079868,0.0008681617327965796,XTrueNorthZVertical,0.4337127032371138,0.3701012797316772,0.5132370009613212,0.6414873523186293,0.02963576652109623,-0.9363417625427246,-0.349836677312851,-0.1481863260269165,-41.18962478637695,7.722317695617676,2,0.0.0.0,10.83.46.32,1,0
2015-03-01 11:11:38.520,47,1425237093.846159,37.74684690664336,-122.4445761120923,168.93,-1,-1,23.14224837106302,65,-9999,1425237098.496651,0.3502426147460938,-40.49169921875,7.7977294921875,192.9457855224609,179.1741638183594,10,180548.9647726667,0.033172607421875,-0.9463653564453125,-0.346435546875,180548.9459662084,0.02405473623003171,-0.1260894923386736,-0.08737778273328178,180548.9459662084,1.273267568940076,0.08784512505017535,1.216797327819927,0.001264793914742768,-0.1093225926160812,-0.05631035566329956,0.01487559732049704,-0.01622967608273029,0.0007255459204316139,XTrueNorthZVertical,0.4377249800709485,0.3684283541725905,0.5075282797163305,0.6442610833354383,0.03041248954832554,-0.9379939436912537,-0.3453147709369659,0.2015813589096069,-41.14111328125,7.975547790527344,2,0.0.0.0,10.83.46.32,1,0
2015-03-01 11:11:38.559,48,1425237093.846159,37.74684690664336,-122.4445761120923,168.93,-1,-1,23.14224837106302,65,-9999,1425237098.549136,0.742431640625,-40.84854125976562,8.080642700195312,193.8611602783203,180.0895385742188,10,180549.013930625,0.028045654296875,-0.9570159912109375,-0.3328857421875,180548.997737375,0.001022653858590427,-0.1744969725247169,-0.07877497346399882,180548.997737375,1.265686421789613,0.0875663725541677,1.216106857508318,-0.02176513336598873,-0.1577296108007431,-0.04770896956324577,0.001228088396601379,-0.01241041347384453,0.007024855818599463,XTrueNorthZVertical,0.4389554351050657,0.3665159716158096,0.505127875669839,0.6463976379229148,0.0303728636354208,-0.9377543926239014,-0.3459683358669281,0.3649758100509644,-41.1395263671875,7.977957725524902,2,0.0.0.0,10.83.46.32,1,0
2015-03-01 11:11:38.618,49,1425237093.846159,37.74684690664336,-122.4445761120923,168.93,-1,-1,23.14224837106302,65,-9999,1425237098.600153,0.9982070922851562,-40.5936279296875,7.764450073242188,193.8816223144531,180.1100006103516,10,180549.06291025,0.0302734375,-0.9520416259765625,-0.3434295654296875,180549.0495052917,-0.06667569999955084,-0.149729041754762,-0.07560927387622164,180549.0495052917,1.260488618540982,0.08502543169596667,1.214479609232236,-0.08939442783594131,-0.1329450905323029,-0.04467263445258141,-0.005300721619278193,-0.02071300335228443,0.0111386040225625,XTrueNorthZVertical,0.4399949512491874,0.3641733796626161,0.5031375365822098,0.6485635822732615,0.02962323091924191,-0.9371879696846008,-0.3475643992424011,0.5458636283874512,-41.14738845825195,7.926898002624512,2,0.0.0.0,10.83.46.32,1,0
2015-03-01 11:11:38.657,50,1425237093.846159,37.74684690664336,-122.4445761120923,168.93,-1,-1,23.14224837106302,65,-9999,1425237098.652854,0.7594757080078125,-40.55964660644531,7.964149475097656,193.8902740478516,180.11865234375,10,180549.11197475,0.0169525146484375,-0.9508056640625,-0.34979248046875,180549.1012764584,-0.07034740019444308,-0.1499825746905375,-0.05724837605677933,180549.0495052917,1.260488618540982,0.08502543169596667,1.214479609232236,-0.08939442783594131,-0.1329450905323029,-0.04467263445258141,-0.005300721619278193,-0.02071300335228443,0.0111386040225625,XTrueNorthZVertical,0.4399949512491874,0.3641733796626161,0.5031375365822098,0.6485635822732615,0.02962323091924191,-0.9371879696846008,-0.3475643992424011,0.5458636283874512,-41.14738845825195,7.926898002624512,2,0.0.0.0,10.83.46.32,1,0
2015-03-01 11:11:38.716,51,1425237093.846159,37.74684690664336,-122.4445761120923,168.93,-1,-1,23.14224837106302,65,-9999,1425237098.704705,0.70831298828125,-40.440673828125,7.747810363769531,193.8911437988281,180.1195220947266,10,180549.16114425,0.03094482421875,-0.9410858154296875,-0.3492279052734375,180549.1530474167,-0.08404723347402869,-0.117399597701745,-0.04092106804572154,180549.1530474167,1.256240811072786,0.07687488741915607,1.205910054775538,-0.1067591086030006,-0.1006169319152832,-0.009980232454836369,0.002196805318817496,-0.008798296563327312,-0.0005037402152083814,XTrueNorthZVertical,0.439904248801349,0.3585941434042587,0.5012801291048868,0.6531559024582738,0.02740524522960186,-0.9341643452644348,-0.3557889759540558,0.7295464873313904,-41.19929504394531,7.637223243713379,2,0.0.0.0,10.83.46.32,1,0
2015-03-01 11:11:38.756,52,1425237093.846159,37.74684690664336,-122.4445761120923,168.93,-1,-1,23.14224837106302,65,-9999,1425237098.704705,0.70831298828125,-40.440673828125,7.747810363769531,193.8911437988281,180.1195220947266,10,180549.2101835,0.0164947509765625,-0.9417572021484375,-0.3516082763671875,180549.1530474167,-0.08404723347402869,-0.117399597701745,-0.04092106804572154,180549.1530474167,1.256240811072786,0.07687488741915607,1.205910054775538,-0.1067591086030006,-0.1006169319152832,-0.009980232454836369,0.002196805318817496,-0.008798296563327312,-0.0005037402152083814,XTrueNorthZVertical,0.439904248801349,0.3585941434042587,0.5012801291048868,0.6531559024582738,0.02740524522960186,-0.9341643452644348,-0.3557889759540558,0.7295464873313904,-41.19929504394531,7.637223243713379,2,0.0.0.0,10.83.46.32,1,0
2015-03-01 11:11:38.814,53,1425237093.846159,37.74684690664336,-122.4445761120923,168.93,-1,-1,23.14224837106302,65,-9999,1425237098.808146,1.322174072265625,-41.32432556152344,7.21527099609375,193.9809265136719,180.2093048095703,10,180549.2592525,0.04254150390625,-0.9367523193359375,-0.3665618896484375,180549.2565865,-0.07323719629328806,-0.07440126400576169,-0.006553240494357982,180549.204815625,1.258157806538649,0.06964175316849333,1.201915290987698,-0.1043804734945297,-0.07773631066083908,-0.0009139326284639537,-0.008824690245091915,-0.009041064418852329,0.01680226624011993,XTrueNorthZVertical,0.4400191226999323,0.3557165791694886,0.5009317203705836,0.6549169466716472,0.02509056031703949,-0.9327313899993896,-0.3596977591514587,0.7800115346908569,-41.24028015136719,7.407591819763184,2,0.0.0.0,10.83.46.32,1,0
2015-03-01 11:11:38.853,54,1425237093.846159,37.74684690664336,-122.4445761120923,168.93,-1,-1,23.14224837106302,65,-9999,1425237098.808146,1.322174072265625,-41.32432556152344,7.21527099609375,193.9809265136719,180.2093048095703,10,180549.30831175,0.009979248046875,-0.93377685546875,-0.353912353515625,180549.3083577083,-0.06561949031122541,-0.1113853810120191,0.02983992106601084,180549.2565865,1.261318061125116,0.06386180145236608,1.197219163101964,-0.09588921815156937,-0.0575995147228241,0.02424999326467514,0.006891483906656504,-0.006456915289163589,-0.004036253318190575,XTrueNorthZVertical,0.4393157869168131,0.3534113577876248,0.501425015260394,0.6562582678887098,0.02329040132462978,-0.9310278296470642,-0.3642041087150574,0.7689359784126282,-41.26922607421875,7.245765686035156,2,0.0.0.0,10.83.46.32,1,0
2015-03-01 11:11:38.913,55,1425237093.846159,37.74684690664336,-122.4445761120923,168.93,-1,-1,23.14224837106302,65,-9999,1425237098.860147,1.339218139648438,-41.40928649902344,7.231910705566406,194.0534057617188,180.2817840576172,10,180549.357268375,0.0208740234375,-0.92919921875,-0.3670196533203125,180549.3601258333,-0.06940730432964511,-0.09440000589560273,0.03064073360579767,180549.3083577083,1.267137992749226,0.05364088700547305,1.19384334947347,-0.08826695382595062,-0.09458287060260773,0.0606408566236496,-0.00975590106099844,-0.003986329771578312,0.01364714652299881,XTrueNorthZVertical,0.4397129298191082,0.3505321515453266,0.5016182126102416,0.6573878820068202,0.01973515003919601,-0.9297904968261719,-0.3675594925880432,0.7633901238441467,-41.29871368408203,7.07635498046875,2,0.0.0.0,10.83.46.32,1,0
2015-03-01 11:11:38.952,56,1425237093.846159,37.74684690664336,-122.4445761120923,168.93,-1,-1,23.14224837106302,65,-9999,1425237098.912912,1.271003723144531,-41.13739013671875,6.899078369140625,194.1191253662109,180.3475036621094,10,180549.406402875,0.0273284912109375,-0.92547607421875,-0.379425048828125,180549.3601258333,-0.06940730432964511,-0.09440000589560273,0.03064073360579767,180549.3601258333,1.275363828963824,0.04274773629658355,1.189883888573594,-0.09201329946517944,-0.07757847756147385,0.06131582707166672,0.00498664379119873,-0.0008734117145650089,0.004408229608088732,XTrueNorthZVertical,0.4396774787319793,0.3478070920023821,0.5025564572670115,0.6581419734804745,0.01588737964630127,-0.9283258318901062,-0.3714278936386108,0.6422677636146545,-41.33133697509766,6.895606994628906,2,0.0.0.0,10.83.46.32,1,0
2015-03-01 11:11:39.010,57,1425237093.846159,37.74684690664336,-122.4445761120923,168.93,-1,-1,23.14224837106302,65,-9999,1425237098.963931,1.151649475097656,-41.35830688476562,6.949005126953125,194.1820068359375,180.4103851318359,10,180549.4554743333,0.0075531005859375,-0.9389495849609375,-0.37933349609375,180549.4636677917,-0.0555633940350862,-0.1469308583974157,0.05029033507672931,180549.411896875,1.284535906785113,0.03071979816472411,1.185493963160119,-0.09329171478748322,-0.06805872172117233,0.07330784946680069,0.015784602612257,0.001208760659210384,-0.003763177897781134,XTrueNorthZVertical,0.4396425296686489,0.3447948820086062,0.5036389567355757,0.6589223362842772,0.0115438885986805,-0.9266848564147949,-0.3756618797779083,0.5400803685188293,-41.35951995849609,6.733495712280273,2,0.0.0.0,10.83.46.32,1,0
2015-03-01 11:11:39.050,58,1425237093.846159,37.74684690664336,-122.4445761120923,168.93,-1,-1,23.14224837106302,65,-9999,1425237099.015812,0.9129257202148438,-41.32432556152344,6.4830322265625,194.2421264648438,180.4705047607422,10,180549.5045193333,-0.000885009765625,-0.9273529052734375,-0.3787994384765625,180549.4636677917,-0.0555633940350862,-0.1469308583974157,0.05029033507672931,180549.4636677917,1.293918884746109,0.01678210174639605,1.181071676648698,-0.07816850394010544,-0.1301081329584122,0.08096020668745041,0.001177315949462354,-0.0139358751475811,0.0005465809954330325,XTrueNorthZVertical,0.4400701053877338,0.3411718977308504,0.5043909717247109,0.659946736285715,0.006375784520059824,-0.9250137209892273,-0.3798800706863403,0.4590812921524048,-41.39020538330078,6.548427581787109,2,0.0.0.0,10.83.46.32,1,0
2015-03-01 11:11:39.108,59,1425237093.846159,37.74684690664336,-122.4445761120923,168.93,-1,-1,23.14224837106302,65,-9999,1425237099.067721,0.8958816528320312,-41.37530517578125,6.499679565429688,194.3025970458984,180.5309753417969,10,180549.55349275,0.0095062255859375,-0.9127655029296875,-0.385711669921875,180549.515436,-0.09273579653041221,-0.09437124375582986,0.04169098791686345,180549.515436,1.304000845174329,0.002185642037073521,1.177063952110177,-0.1153378710150719,-0.07754892855882645,0.07236174494028091,0.001755500095896423,-0.002724880818277597,-0.000564246904104948,XTrueNorthZVertical,0.4407136842822279,0.337569321831462,0.5051732539858915,0.660770984116845,0.0008384940447285771,-0.9234836101531982,-0.3836368024349213,0.3052271604537964,-41.42107009887695,6.35948657989502,2,0.0.0.0,10.83.46.32,1,0
2015-03-01 11:11:39.147,60,1425237093.846159,37.74684690664336,-122.4445761120923,168.93,-1,-1,23.14224837106302,65,-9999,1425237099.119232,0.6912612915039062,-41.34130859375,6.100273132324219,194.34423828125,180.5726165771484,10,180549.6025383333,-0.0079498291015625,-0.9155120849609375,-0.3909454345703125,180549.567207125,-0.104860370025216,-0.1197439784093418,0.04357677228474856,180549.567207125,1.311168862232152,-0.008417235083950286,1.171036437485791,-0.1274628043174744,-0.1029204204678535,0.07424296438694,0.009562545455992222,0.00678679533302784,-0.0005414876504801214,XTrueNorthZVertical,0.4402007539724311,0.334113265697607,0.5062270962014118,0.6620616719817547,-0.003275924129411578,-0.9211544990539551,-0.3891832530498505,0.2143022418022156,-41.45446014404297,6.141928672790527,2,0.0.0.0,10.83.46.32,1,0
2015-03-01 11:11:39.209,61,1425237093.846159,37.74684690664336,-122.4445761120923,168.93,-1,-1,23.14224837106302,65,-9999,1425237099.170274,0.8447341918945312,-41.6641845703125,5.784080505371094,194.4176025390625,180.6459808349609,10,180549.6516178334,-0.021881103515625,-0.9190521240234375,-0.4048614501953125,180549.6189781667,-0.1112258576627233,-0.08540411404942407,0.02070314799816699,180549.6189781667,1.318097706902886,-0.01896050068696506,1.164535221982212,-0.133828267455101,-0.06858056783676147,0.05136862769722939,-0.003051511012017727,0.003855621907860041,-0.001255944604054093,XTrueNorthZVertical,0.439581627277789,0.3304766450353575,0.5073138222011694,0.6634649760148845,-0.007492312230169773,-0.9186047911643982,-0.3951063454151154,0.136831521987915,-41.48960876464844,5.902102470397949,2,0.0.0.0,10.83.46.32,1,0
2015-03-01 11:11:39.246,62,1425237093.846159,37.74684690664336,-122.4445761120923,168.93,-1,-1,23.14224837106302,65,-9999,1425237099.222681,0.6401138305664062,-41.52825927734375,5.218269348144531,194.4937286376953,180.7221069335938,10,180549.7007716667,-0.002197265625,-0.901519775390625,-0.4228057861328125,180549.6707460833,-0.1138512018653235,-0.06069956651341302,-0.008049138078655489,180549.6707460833,1.323068171337066,-0.02704019890294273,1.15735577845704,-0.1364554762840271,-0.04387732595205307,0.0226188637316227,-0.008653584867715836,-0.004071100614964962,-0.007488038390874863,XTrueNorthZVertical,0.4384595448925531,0.3270253047696211,0.5084257708599006,0.6650645243938921,-0.01086240634322166,-0.9157439470291138,-0.4016153514385223,0.04304477572441101,-41.53723526000977,5.558555603027344,2,0.0.0.0,10.83.46.32,1,0
2015-03-01 11:11:39.306,63,1425237093.846159,37.74684690664336,-122.4445761120923,168.93,-1,-1,23.14224837106302,65,-9999,1425237099.274266,0.6571731567382812,-41.37530517578125,5.168342590332031,194.5545959472656,180.7829742431641,10,180549.74974575,-0.0061187744140625,-0.8840789794921875,-0.419647216796875,180549.722517375,-0.1025162556337282,-0.1089075759338094,-0.03131664389045978,180549.722517375,1.322356744730695,-0.02977631164664129,1.149342422849153,-0.125127449631691,-0.09208469837903976,-0.0006520723109133542,0.0032529232557863,0.00966309942305088,-0.01017654966562986,XTrueNorthZVertical,0.4366399975347179,0.3238710645815567,0.5089694573770075,0.6673852306470766,-0.01217931509017944,-0.9124951362609863,-0.408906102180481,0.03919777274131775,-41.57595062255859,5.261198997497559,2,0.0.0.0,10.83.46.32,1,0
2015-03-01 11:11:39.344,64,1425237093.846159,37.74684690664336,-122.4445761120923,168.93,-1,-1,23.14224837106302,65,-9999,1425237099.326639,0.6571731567382812,-41.2733154296875,4.968643188476562,194.6366577148438,180.8650360107422,10,180549.7988989167,-0.017791748046875,-0.8936004638671875,-0.4336090087890625,180549.7742884167,-0.0914415002406337,-0.1126011140496403,-0.03368978673782939,180549.7742884167,1.320643633542981,-0.0330190455105816,1.142243962929082,-0.1140576750040054,-0.09577810764312744,-0.003026959020644426,-0.004774936474859715,0.01572366990149021,-0.002045781584456563,XTrueNorthZVertical,0.4354051844718108,0.3205594913244545,0.5089073534548708,0.6698336748814894,-0.01371871586889029,-0.9095682501792908,-0.4153278768062592,0.08457154035568237,-41.61112213134766,4.974804878234863,2,0.0.0.0,10.83.46.32,1,0
2015-03-01 11:11:39.406,65,1425237093.846159,37.74684690664336,-122.4445761120923,168.93,-1,-1,23.14224837106302,65,-9999,1425237099.379068,1.20281982421875,-41.13739013671875,4.902076721191406,194.7810363769531,181.0094146728516,10,180549.84789325,-0.039794921875,-0.882476806640625,-0.4243621826171875,180549.826056375,-0.07795551879658144,-0.1090420655688584,-0.03625041612594058,180549.826056375,1.320584775192437,-0.03724986663374884,1.135507443727318,-0.1005212664604187,-0.09219376742839813,-0.00575554370880127,-0.005078868474811316,0.01177451107650995,-0.009864171035587788,XTrueNorthZVertical,0.4342707716549691,0.3173626226065185,0.5091208106925535,0.6719269092148887,-0.0157036017626524,-0.9067482948303223,-0.4213797152042389,0.1037175059318542,-41.65004730224609,4.637290954589844,2,0.0.0.0,10.83.46.32,1,0
2015-03-01 11:11:39.442,66,1425237093.846159,37.74684690664336,-122.4445761120923,168.93,-1,-1,23.14224837106302,65,-9999,1425237099.430024,0.998199462890625,-41.81712341308594,4.669090270996094,194.9022674560547,181.1306457519531,10,180549.8970412083,-0.0001220703125,-0.8701171875,-0.42962646484375,180549.8778274583,-0.08569519755656972,-0.05260355679957213,-0.07680396794123118,180549.8778274583,1.319482495991244,-0.03958647316705634,1.129069308480338,-0.1082659065723419,-0.03575732558965683,-0.04630553349852562,0.008892723359167576,0.0314255990087986,0.003856980707496405,XTrueNorthZVertical,0.4329143688745436,0.3146458260250012,0.5093430605944962,0.6739085313008273,-0.01691884547472,-0.9040147066116333,-0.4271663129329681,0.0962982177734375,-41.67574691772461,4.400485992431641,2,0.0.0.0,10.83.46.32,1,0
2015-03-01 11:11:39.505,67,1425237093.846159,37.74684690664336,-122.4445761120923,168.93,-1,-1,23.14224837106302,65,-9999,1425237099.481451,0.9470443725585938,-41.83409118652344,4.352897644042969,195.0144805908203,181.2428588867188,10,180549.9460174167,-0.0100250244140625,-0.885650634765625,-0.43963623046875,180549.9295987083,-0.06094697417868138,-0.08410635565022845,-0.09073150149401857,180549.9295987083,1.310705310995279,-0.03381621750007666,1.123346066973582,-0.08352211117744446,-0.0672583132982254,-0.06023790314793587,0.01081371307373047,0.01985461451113224,-0.004590984433889389,XTrueNorthZVertical,0.4309257919363994,0.3131973734127306,0.5085947957201006,0.6764182208120866,-0.01462841033935547,-0.901553213596344,-0.4324207305908203,0.2221403121948242,-41.69971466064453,4.162418365478516,2,0.0.0.0,10.83.46.32,1,0
2015-03-01 11:11:39.540,68,1425237093.846159,37.74684690664336,-122.4445761120923,168.93,-1,-1,23.14224837106302,65,-9999,1425237099.533493,1.373344421386719,-41.81709289550781,3.870285034179688,195.1555938720703,181.3839721679688,10,180549.9951700833,-0.019622802734375,-0.884735107421875,-0.4448089599609375,180549.9813668334,-0.02042058660650958,-0.08225652395705942,-0.0761725324467734,180549.9295987083,1.310705310995279,-0.03381621750007666,1.123346066973582,-0.08352211117744446,-0.0672583132982254,-0.06023790314793587,0.01081371307373047,0.01985461451113224,-0.004590984433889389,XTrueNorthZVertical,0.4309257919363994,0.3131973734127306,0.5085947957201006,0.6764182208120866,-0.01462841033935547,-0.901553213596344,-0.4324207305908203,0.2221403121948242,-41.69971466064453,4.162418365478516,2,0.0.0.0,10.83.46.32,1,0
2015-03-01 11:11:39.607,69,1425237093.846159,37.74684690664336,-122.4445761120923,168.93,-1,-1,23.14224837106302,65,-9999,1425237099.585003,1.441551208496094,-41.40924072265625,3.970138549804688,195.3007507324219,181.5291290283203,10,180550.0441508333,-0.0186614990234375,-0.886199951171875,-0.43658447265625,180550.03313775,-0.01055037897445791,-0.08751307131665781,-0.05526298946412526,180550.03313775,1.301445685092958,-0.03407787677339264,1.116880544679273,-0.03313435241580009,-0.07066720724105835,-0.02476668916642666,-0.002775605069473386,0.01252176333218813,-0.00282185385003686,XTrueNorthZVertical,0.4302762044665605,0.3094279655114269,0.5064783789548278,0.6801443098559347,-0.01493984926491976,-0.8987369537353516,-0.4382334351539612,0.4609372019767761,-41.73036575317383,3.821699142456055,2,0.0.0.0,10.83.46.32,1,0
2015-03-01 11:11:39.638,70,1425237093.846159,37.74684690664336,-122.4445761120923,168.93,-1,-1,23.14224837106302,65,-9999,1425237099.585003,1.441551208496094,-41.40924072265625,3.970138549804688,195.3007507324219,181.5291290283203,10,180550.0932140833,-0.01025390625,-0.8861083984375,-0.43963623046875,180550.084909,0.00153797552952076,-0.05505632816353512,-0.04509530673831174,180550.03313775,1.301445685092958,-0.03407787677339264,1.116880544679273,-0.03313435241580009,-0.07066720724105835,-0.02476668916642666,-0.002775605069473386,0.01252176333218813,-0.00282185385003686,XTrueNorthZVertical,0.4302762044665605,0.3094279655114269,0.5064783789548278,0.6801443098559347,-0.01493984926491976,-0.8987369537353516,-0.4382334351539612,0.4609372019767761,-41.73036575317383,3.821699142456055,2,0.0.0.0,10.83.46.32,1,0
2015-03-01 11:11:39.705,71,1425237093.846159,37.74684690664336,-122.4445761120923,168.93,-1,-1,23.14224837106302,65,-9999,1425237099.68754,1.390388488769531,-41.76606750488281,4.119918823242188,195.5776214599609,181.8059997558594,10,180550.1422927917,-0.0096435546875,-0.8918304443359375,-0.4436798095703125,180550.136677,0.01768072647703606,-0.08317158610761063,-0.0382981206881025,180550.084909,1.30031027239365,-0.03646257705180401,1.115552267410228,-0.02104712836444378,-0.03821148350834846,-0.01459773071110249,-2.388090979366098e-05,0.01048895157873631,0.0001954374311026186,XTrueNorthZVertical,0.4306104582249056,0.3080260569494059,0.5057996029433464,0.6810736022770948,-0.01602836512029171,-0.8981537222862244,-0.439389169216156,0.5004149675369263,-41.73555755615234,3.759560585021973,2,0.0.0.0,10.83.46.32,1,0
2015-03-01 11:11:39.736,72,1425237093.846159,37.74684690664336,-122.4445761120923,168.93,-1,-1,23.14224837106302,65,-9999,1425237099.68754,1.390388488769531,-41.76606750488281,4.119918823242188,195.5776214599609,181.8059997558594,10,180550.191345875,-0.0052490234375,-0.8800048828125,-0.4475555419921875,180550.1884482917,0.02357803039490753,-0.04327423718491556,-0.0356464111907106,180550.136677,1.296727244212419,-0.03474203233761821,1.113842947862141,-0.004907651804387569,-0.06632509082555771,-0.007804445456713438,0.01016818638890982,0.004075072705745697,-0.008604689501225948,XTrueNorthZVertical,0.4301540646509156,0.3073964929774327,0.5052323621577789,0.682066745668449,-0.01532565709203482,-0.8974008560180664,-0.4409497678279877,0.5695233941078186,-41.74264144897461,3.670008659362793,2,0.0.0.0,10.83.46.32,1,0
2015-03-01 11:11:39.805,73,1425237093.846159,37.74684690664336,-122.4445761120923,168.93,-1,-1,23.14224837106302,65,-9999,1425237099.791809,1.407447814941406,-42.02095031738281,3.903579711914062,195.8055877685547,182.0339660644531,10,180550.24043875,-0.0036773681640625,-0.887176513671875,-0.439849853515625,180550.2402191667,0.07441431349510308,-0.1202912580133531,-0.02033776229660812,180550.1884482917,1.295955252266187,-0.0366451743283969,1.113937751601845,0.0009869516361504793,-0.026427261531353,-0.005154319107532501,0.003756306366994977,0.0135163115337491,-0.005606884136795998,XTrueNorthZVertical,0.4307848052437366,0.3066057214938582,0.5045436771553949,0.6825342258888311,-0.01616170257329941,-0.8974426984786987,-0.4408347606658936,0.5999139547348022,-41.74265289306641,3.665022850036621,2,0.0.0.0,10.83.46.32,1,0
2015-03-01 11:11:39.834,74,1425237093.846159,37.74684690664336,-122.4445761120923,168.93,-1,-1,23.14224837106302,65,-9999,1425237099.791809,1.407447814941406,-42.02095031738281,3.903579711914062,195.8055877685547,182.0339660644531,10,180550.2894922917,-0.001800537109375,-0.8874664306640625,-0.4415130615234375,180550.2402191667,0.07441431349510308,-0.1202912580133531,-0.02033776229660812,180550.2402191667,1.292788802639838,-0.0361473649435998,1.114222120743315,0.05181779712438583,-0.1034402325749397,0.01014597713947296,0.02563761360943317,0.01751745119690895,-0.002970038447529078,XTrueNorthZVertical,0.4312398712199944,0.3061671488899465,0.5035227602573743,0.6831973279092693,-0.01593302376568317,-0.8975681066513062,-0.4405876994132996,0.6376492381095886,-41.74311065673828,3.653450012207031,2,0.0.0.0,10.83.46.32,1,0
2015-03-01 11:11:39.921,75,1425237099.867919,37.74681234221212,-122.4446291506836,170.7606,-1,-1,10,65,-9999,1425237099.895251,1.663223266601562,-41.73208618164062,4.186500549316406,196.0435180664062,182.2718963623047,10,180550.3385814167,0.0092315673828125,-0.8805389404296875,-0.42803955078125,180550.3437584583,0.09408628551919139,-0.1251001279937091,-0.03370736360102391,180550.2919875,1.291908106979266,-0.03729685144533182,1.116120050800294,0.01929751038551331,-0.009549752809107304,-0.009294652380049229,0.01457537524402142,0.01093681529164314,-0.002647096756845713,XTrueNorthZVertical,0.4323010505363058,0.3060764925058268,0.5026596514704512,0.6832028730713504,-0.01637591235339642,-0.8984032273292542,-0.4388659596443176,0.6866453886032104,-41.73428344726562,3.744285583496094,2,0.0.0.0,10.83.46.32,1,0
2015-03-01 11:11:39.941,76,1425237099.867919,37.74681234221212,-122.4446291506836,170.7606,-1,-1,10,65,-9999,1425237099.895251,1.663223266601562,-41.73208618164062,4.186500549316406,196.0435180664062,182.2718963623047,10,180550.3876225417,-0.0055999755859375,-0.8957366943359375,-0.4274749755859375,180550.3437584583,0.09408628551919139,-0.1251001279937091,-0.03370736360102391,180550.3437584583,1.286621701632295,-0.03467967360755198,1.117430714645681,0.07148602604866028,-0.1082421094179153,-0.003237997880205512,0.02441799454391003,0.01843914017081261,0.009690595790743828,XTrueNorthZVertical,0.4328938019712097,0.306166430064654,0.5012024350886074,0.683857515076374,-0.01518642716109753,-0.898978054523468,-0.4377301335334778,0.7652790546417236,-41.73142242431641,3.760890960693359,2,0.0.0.0,10.83.46.32,1,0
2015-03-01 11:11:40.012,77,1425237099.867919,37.74681234221212,-122.4446291506836,170.7606,-1,-1,10,65,-9999,1425237099.999283,1.305137634277344,-41.51118469238281,4.069999694824219,196.2375946044922,182.4659729003906,10,180550.4367015417,-0.011627197265625,-0.887786865234375,-0.4182586669921875,180550.3955295417,0.07766443528943578,-0.05101098646770475,-0.03554814054648668,180550.3955295417,1.285299953650858,-0.03653996284199977,1.121510052388101,0.05506909638643265,-0.03415140137076378,-0.005081573501229286,0.0102666262537241,0.005020624492317438,0.006557741668075323,XTrueNorthZVertical,0.4349331468176136,0.3062952809830302,0.4996731007168627,0.6836249407501582,-0.0158666018396616,-0.9007573127746582,-0.4340327084064484,0.8304927945137024,-41.71651077270508,3.90955638885498,2,0.0.0.0,10.83.46.32,1,0
2015-03-01 11:11:40.030,78,1425237099.867919,37.74681234221212,-122.4446291506836,170.7606,-1,-1,10,65,-9999,1425237099.999283,1.305137634277344,-41.51118469238281,4.069999694824219,196.2375946044922,182.4659729003906,10,180550.4857442917,-0.13055419921875,-0.853057861328125,-0.30609130859375,180550.4472977083,0.1728580631898821,-0.1482978589849534,0.0119954101819349,180550.4472977083,1.285653670977227,-0.04065480370976394,1.12695493591248,0.1502642184495926,-0.1314362585544586,0.0424576997756958,-0.01185929402709007,0.02136440761387348,0.01598619855940342,XTrueNorthZVertical,0.437732034574434,0.306369429360846,0.4979910973986925,0.6830323668179193,-0.01745283976197243,-0.9031087756156921,-0.4290568828582764,0.8833217024803162,-41.69467926025391,4.124924659729004,2,0.0.0.0,10.83.46.32,1,0
2015-03-01 11:11:40.111,79,1425237099.867919,37.74681234221212,-122.4446291506836,170.7606,-1,-1,10,65,-9999,1425237100.054692,1.0152587890625,-41.59614562988281,4.153205871582031,197.4576263427734,183.6860046386719,10,180550.5348345417,-0.0731048583984375,-0.93743896484375,-0.368896484375,180550.4990687917,0.360997877346857,0.2179003730225013,0.04889510498163679,180550.4990687917,1.297440040400167,-0.05220643628483878,1.13966402878184,0.3384060859680176,0.2347606271505356,0.07935957610607147,-0.1556068062782288,0.05009470880031586,0.132265567779541,XTrueNorthZVertical,0.4430281422606406,0.3083195328221288,0.4973097799132227,0.6792260464653121,-0.02180714160203934,-0.9084931612014771,-0.417330265045166,0.7498471140861511,-41.65599060058594,4.523015975952148,2,0.0.0.0,10.83.46.32,1,0
2015-03-01 11:11:40.129,80,1425237099.867919,37.74681234221212,-122.4446291506836,170.7606,-1,-1,10,65,-9999,1425237100.054692,1.0152587890625,-41.59614562988281,4.153205871582031,197.4576263427734,183.6860046386719,10,180550.5839178333,0.057403564453125,-0.8431396484375,-0.4072265625,180550.5508399167,0.03943981784741947,1.353531117692379,-0.2531952469493214,180550.5508399167,1.290035838883042,0.005095301463450525,1.147063751682666,0.01684821583330631,1.370391249656677,-0.2227310538291931,0.03780673071742058,-0.001235433854162693,-0.01257626246660948,XTrueNorthZVertical,0.4322994308503916,0.3279284180824366,0.5061155981283684,0.6703932163889703,0.00209500384517014,-0.911560595035553,-0.4111603200435638,0.5609835386276245,-41.59910583496094,5.043910026550293,2,0.0.0.0,10.83.46.32,1,0
2015-03-01 11:11:40.211,81,1425237099.867919,37.74681234221212,-122.4446291506836,170.7606,-1,-1,10,65,-9999,1425237100.180973,0.8106307983398438,-41.49417114257812,5.717514038085938,195.0294189453125,181.2577972412109,10,180550.6329780833,0.0413055419921875,-0.90460205078125,-0.3489227294921875,180550.60260825,0.5607927496984545,0.6628054015700487,-0.1510688780991808,180550.60260825,1.269969504925738,0.06874466384539424,1.162379607881193,0.5382013916969299,0.6796653270721436,-0.1206049919128418,0.004609969444572926,0.06481499224901199,0.02390410006046295,XTrueNorthZVertical,0.4247058395823233,0.3485909833560113,0.5106703624559945,0.6613055009641402,0.0272808987647295,-0.9177507758140564,-0.3962185382843018,0.6300721764564514,-41.53798675537109,5.51723575592041,2,0.0.0.0,10.83.46.32,1,0
2015-03-01 11:11:40.227,82,1425237099.867919,37.74681234221212,-122.4446291506836,170.7606,-1,-1,10,65,-9999,1425237100.180973,0.8106307983398438,-41.49417114257812,5.717514038085938,195.0294189453125,181.2577972412109,10,180550.6820449583,0.2046966552734375,-0.9135284423828125,-0.4335479736328125,180550.6543792083,0.536777960884774,0.9680697088881633,-0.20888370851982,180550.6543792083,1.243376622392996,0.1370944279968351,1.190446515721294,0.5141868591308594,0.9849294424057007,-0.1784201413393021,0.04251009970903397,0.01253446005284786,-0.03027891740202904,XTrueNorthZVertical,0.421684557768758,0.3718887017258414,0.5123336410602055,0.6491495020831749,0.05073636025190353,-0.9285348057746887,-0.3677618503570557,0.6619224548339844,-41.37525939941406,6.62503719329834,2,0.0.0.0,10.83.46.32,1,0
2015-03-01 11:11:40.312,83,1425237099.867919,37.74681234221212,-122.4446291506836,170.7606,-1,-1,10,65,-9999,1425237100.239639,0.82769775390625,-40.96736145019531,6.599517822265625,193.7167663574219,179.9451446533203,10,180550.7311369167,0.2809600830078125,-0.964691162109375,-0.469512939453125,180550.7061503333,0.577681185751192,0.3134695066366488,-0.1386111431520081,180550.7061503333,1.209866117976185,0.2010223974839332,1.215167883707438,0.5550903081893921,0.3303290903568268,-0.1081478893756866,0.1807837635278702,-0.006953850854188204,-0.09347853064537048,XTrueNorthZVertical,0.4203540420295681,0.3907920703592789,0.5116870575616564,0.6393436484132872,0.06952141225337982,-0.9374278783798218,-0.341168075799942,0.7002484798431396,-41.2036247253418,7.616589546203613,2,0.0.0.0,10.83.46.32,1,0
2015-03-01 11:11:40.327,84,1425237099.867919,37.74681234221212,-122.4446291506836,170.7606,-1,-1,10,65,-9999,1425237100.310452,0.8617935180664062,-40.38958740234375,8.03070068359375,192.2563323974609,178.4847106933594,10,180550.78017225,0.164581298828125,-0.9490966796875,-0.3433837890625,180550.7579185,0.5056293624590982,-0.5368575894013674,0.03466263948403533,180550.7579185,1.193145643236799,0.211694345629145,1.237875935185932,0.4830386638641357,-0.5199981927871704,0.06512561440467834,0.2060521990060806,-0.01381610333919525,-0.1182506084442139,XTrueNorthZVertical,0.4289247135317424,0.3953089878348802,0.5057381439488888,0.6355967531089298,0.06866703927516937,-0.9450919628143311,-0.3195087909698486,0.798022985458374,-40.95618438720703,8.842818260192871,2,0.0.0.0,10.83.46.32,1,0
2015-03-01 11:11:40.410,85,1425237099.867919,37.74681234221212,-122.4446291506836,170.7606,-1,-1,10,65,-9999,1425237100.362657,1.305122375488281,-40.28762817382812,9.19561767578125,193.4883728027344,179.7167510986328,10,180550.8292485834,0.0149078369140625,-0.9854583740234375,-0.2566986083984375,180550.8096895833,0.5548152846317717,-0.7385188050448924,0.1179506057312824,180550.8096895833,1.196101756962463,0.1710314300696736,1.264943512538788,0.5322248339653015,-0.7216595411300659,0.1484132409095764,-0.001122816232964396,-0.0196608304977417,0.03262922540307045,XTrueNorthZVertical,0.4479660155353024,0.3885484588069496,0.4941920331385652,0.6357127393841864,0.05124793946743011,-0.9535905122756958,-0.2967130839824677,0.9039170742034912,-40.74504470825195,9.760411262512207,2,0.0.0.0,10.83.46.32,1,0
2015-03-01 11:11:40.428,86,1425237099.867919,37.74681234221212,-122.4446291506836,170.7606,-1,-1,10,65,-9999,1425237100.414082,1.236915588378906,-39.74385070800781,10.32724761962891,194.5932464599609,180.8216247558594,10,180550.8782904167,0.061370849609375,-0.9736785888671875,-0.28192138671875,180550.86146075,0.4192345524841647,-0.2640217957288206,0.07074234698410183,180550.86146075,1.20865276686672,0.1383970755367654,1.288722073790487,0.3967048525810242,-0.2471380978822708,0.1010555922985077,-0.008355175144970417,-0.01309163775295019,-0.007943538948893547,XTrueNorthZVertical,0.4617040266482574,0.3859870149721732,0.4873631561185567,0.6327088419301736,0.03839972987771034,-0.9604801535606384,-0.2756868302822113,0.8950438499450684,-40.51901626586914,10.66065406799316,2,0.0.0.0,10.83.46.32,1,0
2015-03-01 11:11:40.513,87,1425237099.867919,37.74681234221212,-122.4446291506836,170.7606,-1,-1,10,65,-9999,1425237100.469119,1.288078308105469,-39.14907836914062,11.34239196777344,195.1807556152344,181.4091339111328,10,180550.9273646667,0.0346527099609375,-0.9522247314453125,-0.271240234375,180550.9132290834,0.4021652877934108,-0.2855065815069258,0.05908329404784393,180550.9132290834,1.2144351415142,0.1205364572372438,1.307966902024364,0.3796357810497284,-0.268623024225235,0.08939626812934875,0.01064414624124765,0.005468901246786118,-0.03145448490977287,XTrueNorthZVertical,0.4714196488845577,0.3857451102258426,0.4821238594000522,0.6296989100581459,0.03124123066663742,-0.9656587243080139,-0.2579284608364105,0.8343133926391602,-40.26406097412109,11.59098529815674,2,0.0.0.0,10.83.46.32,1,0
2015-03-01 11:11:40.524,88,1425237099.867919,37.74681234221212,-122.4446291506836,170.7606,-1,-1,10,65,-9999,1425237100.469119,1.288078308105469,-39.14907836914062,11.34239196777344,195.1807556152344,181.4091339111328,10,180550.9764143333,0.046630859375,-0.9553375244140625,-0.2479705810546875,180550.9650000417,0.3528153148975885,-0.2519158643616474,0.03018986043324725,180550.9132290834,1.2144351415142,0.1205364572372438,1.307966902024364,0.3796357810497284,-0.268623024225235,0.08939626812934875,0.01064414624124765,0.005468901246786118,-0.03145448490977287,XTrueNorthZVertical,0.4714196488845577,0.3857451102258426,0.4821238594000522,0.6296989100581459,0.03124123066663742,-0.9656587243080139,-0.2579284608364105,0.8343133926391602,-40.26406097412109,11.59098529815674,2,0.0.0.0,10.83.46.32,1,0
2015-03-01 11:11:40.614,89,1425237099.867919,37.74681234221212,-122.4446291506836,170.7606,-1,-1,10,65,-9999,1425237100.521229,1.322181701660156,-38.53733825683594,12.14118957519531,195.5170135498047,181.7453918457031,10,180551.02550125,0.0224761962890625,-0.9317626953125,-0.2607574462890625,180551.016771125,0.3425845152539401,-0.1863086245914363,0.02488244669682834,180551.016771125,1.231352765146011,0.0822392643995167,1.341955412609311,0.3200511336326599,-0.1694258898496628,0.05519528314471245,-0.001911198487505317,0.0487133115530014,-0.03699497506022453,XTrueNorthZVertical,0.4885649960386446,0.3850497910137801,0.4727983065152938,0.6241014124251596,0.01863483153283596,-0.9739300012588501,-0.2260818034410477,0.8087213635444641,-39.89426422119141,12.80761337280273,2,0.0.0.0,10.83.46.32,1,0
2015-03-01 11:11:40.628,90,1425237099.867919,37.74681234221212,-122.4446291506836,170.7606,-1,-1,10,65,-9999,1425237100.603524,1.236915588378906,-38.0784912109375,12.22438812255859,195.9370422363281,182.1654205322266,10,180551.074544375,0.0496063232421875,-1.01190185546875,-0.2185516357421875,180551.068539375,0.2526173409927742,-0.145226701615874,-0.07384972334400629,180551.016771125,1.231352765146011,0.0822392643995167,1.341955412609311,0.3200511336326599,-0.1694258898496628,0.05519528314471245,-0.001911198487505317,0.0487133115530014,-0.03699497506022453,XTrueNorthZVertical,0.4885649960386446,0.3850497910137801,0.4727983065152938,0.6241014124251596,0.01863483153283596,-0.9739300012588501,-0.2260818034410477,0.8087213635444641,-39.89426422119141,12.80761337280273,2,0.0.0.0,10.83.46.32,1,0
2015-03-01 11:11:40.712,91,1425237099.867919,37.74681234221212,-122.4446291506836,170.7606,-1,-1,10,65,-9999,1425237100.672986,1.731422424316406,-38.26541137695312,12.90669250488281,197.0000305175781,183.2284088134766,10,180551.123619,0.0452880859375,-1.057601928710938,-0.1706695556640625,180551.120310625,0.2526213357344094,0.05676634389947499,-0.04959178792280153,180551.068539375,1.223035710502997,0.0820476997071624,1.355007333562386,0.2300786674022675,-0.1283436715602875,-0.04353890940546989,0.02830448746681213,-0.01499827019870281,-0.01345486100763083,XTrueNorthZVertical,0.4944735467964886,0.3857423150055113,0.4679860608963103,0.6226457526461175,0.01754817366600037,-0.9768077731132507,-0.2133975625038147,0.9061474204063416,-39.66887664794922,13.48333549499512,2,0.0.0.0,10.83.46.32,1,0
2015-03-01 11:11:40.723,92,1425237099.867919,37.74681234221212,-122.4446291506836,170.7606,-1,-1,10,65,-9999,1425237100.672986,1.731422424316406,-38.26541137695312,12.90669250488281,197.0000305175781,183.2284088134766,10,180551.172667125,0.040985107421875,-0.9174957275390625,-0.147552490234375,180551.172081625,0.2661331498410354,0.05975574222308894,-0.01544154063249744,180551.120310625,1.201259821716064,0.1028821960319119,1.366729568410816,0.2300886809825897,0.07365194708108902,-0.01928663067519665,0.0148776825517416,-0.08720149099826813,0.022366963326931,XTrueNorthZVertical,0.4976735670801009,0.3892689303575311,0.4644605399361388,0.6205376989991084,0.0208126250654459,-0.9792505502700806,-0.2015814483165741,1.064993619918823,-39.53084182739258,13.87154388427734,2,0.0.0.0,10.83.46.32,1,0
2015-03-01 11:11:40.813,93,1425237099.867919,37.74681234221212,-122.4446291506836,170.7606,-1,-1,10,65,-9999,1425237100.776259,1.458587646484375,-37.61965942382812,13.90518951416016,196.2183837890625,182.4467620849609,10,180551.2217419167,0.03680419921875,-0.9962615966796875,-0.1507415771484375,180551.2238497917,0.1694811749276617,-0.01165612345905881,-0.1235544292970272,180551.172081625,1.193841141942037,0.1155004250056161,1.380213826420168,0.2436056137084961,0.07664278894662857,0.01486014109104872,0.01823889277875423,0.04416517540812492,0.03457338735461235,XTrueNorthZVertical,0.5006320482587253,0.3940601134329986,0.4631454634107508,0.6161009393989694,0.02183068729937077,-0.9818940758705139,-0.1881683617830276,1.026021718978882,-39.35918426513672,14.35419654846191,2,0.0.0.0,10.83.46.32,1,0
2015-03-01 11:11:40.824,94,1425237099.867919,37.74681234221212,-122.4446291506836,170.7606,-1,-1,10,65,-9999,1425237100.776259,1.458587646484375,-37.61965942382812,13.90518951416016,196.2183837890625,182.4467620849609,10,180551.2707903333,0.0468292236328125,-1.091415405273438,-0.1941986083984375,180551.2238497917,0.1694811749276617,-0.01165612345905881,-0.1235544292970272,180551.2238497917,1.172384923482203,0.137939322169274,1.389839574349023,0.1469589322805405,0.005231882911175489,-0.09325513243675232,0.01205785851925611,-0.01258964091539383,0.02751933410763741,XTrueNorthZVertical,0.502872832879845,0.3974776203451124,0.4606612131632659,0.6139394192523722,0.02474633976817131,-0.9836719632148743,-0.1782609075307846,1.056843400001526,-39.14329528808594,14.93073654174805,2,0.0.0.0,10.83.46.32,1,0
2015-03-01 11:11:40.916,95,1425237099.867919,37.74681234221212,-122.4446291506836,170.7606,-1,-1,10,65,-9999,1425237100.880165,1.560897827148438,-37.61968994140625,14.97026062011719,196.1598968505859,182.3882751464844,10,180551.3198615834,0.0209197998046875,-0.995452880859375,-0.1676788330078125,180551.32739225,0.1353873866524672,-0.04410141501949417,0.03389671435452855,180551.2756209583,1.138024486130465,0.1725674431042703,1.397115266930316,0.1382757276296616,0.02402002178132534,-0.04968083277344704,0.01715584844350815,-0.1064600870013237,-0.02395655773580074,XTrueNorthZVertical,0.504208959099426,0.4008145462830215,0.4577513702395853,0.612849587292344,0.02967337518930435,-0.9849553108215332,-0.1702420562505722,1.225593209266663,-39.02486419677734,15.22495269775391,2,0.0.0.0,10.83.46.32,1,0
2015-03-01 11:11:40.923,96,1425237099.867919,37.74681234221212,-122.4446291506836,170.7606,-1,-1,10,65,-9999,1425237100.880165,1.560897827148438,-37.61968994140625,14.97026062011719,196.1598968505859,182.3882751464844,10,180551.3688904167,0.0137481689453125,-0.969879150390625,-0.1428375244140625,180551.32739225,0.1353873866524672,-0.04410141501949417,0.03389671435452855,180551.32739225,1.137265748276525,0.1725834397244827,1.403600846512558,0.1128658950328827,-0.02721279673278332,0.0641930028796196,-0.007658679038286209,-0.009397515095770359,-0.003733922494575381,XTrueNorthZVertical,0.5065361314017848,0.4018067847662014,0.456581999006497,0.6111507522963531,0.02857847884297371,-0.9860553741455078,-0.1639449149370193,1.276901364326477,-38.92769241333008,15.46756839752197,2,0.0.0.0,10.83.46.32,1,0
2015-03-01 11:11:40.980,97,1425237099.867919,37.74681234221212,-122.4446291506836,170.7606,-1,-1,10,65,-9999,1425237100.937721,1.680259704589844,-37.22882080078125,15.25315856933594,196.5062408447266,182.734619140625,10,180551.41795925,0.0423736572265625,-0.9851837158203125,-0.1431121826171875,180551.3791602917,0.03248603792511357,0.1183500798947943,0.08624753716665216,180551.3791602917,1.164251322642897,0.1487479789641044,1.407629343631682,0.009967201389372349,0.1352378278970718,0.1165458187460899,0.0005230382084846497,0.01140649616718292,0.01381433755159378,XTrueNorthZVertical,0.5079056132765318,0.4021281584755125,0.4581634151217899,0.6086140203413224,0.02407412976026535,-0.9867177605628967,-0.1606496572494507,1.069592595100403,-38.84946060180664,15.67853736877441,2,0.0.0.0,10.83.46.32,1,0
2015-03-01 11:11:41.013,98,1425237099.867919,37.74681234221212,-122.4446291506836,170.7606,-1,-1,10,65,-9999,1425237100.937721,1.680259704589844,-37.22882080078125,15.25315856933594,196.5062408447266,182.734619140625,10,180551.4669974167,0.0256805419921875,-0.991302490234375,-0.1453094482421875,180551.4309314167,0.05698738626995157,0.1289558526199259,0.09205216307858886,180551.4309314167,1.194108015676274,0.126995545115461,1.409694264297768,0.03447345644235611,0.1458452194929123,0.1223457455635071,0.02100471407175064,-0.003351116320118308,0.01500984933227301,XTrueNorthZVertical,0.5075709001540394,0.4035032274092195,0.4613780996355728,0.6055469300662295,0.02031608670949936,-0.9870511293411255,-0.1591138541698456,0.769976019859314,-38.84391403198242,15.70983695983887,2,0.0.0.0,10.83.46.32,1,0
2015-03-01 11:11:41.080,99,1425237099.867919,37.74681234221212,-122.4446291506836,170.7606,-1,-1,10,65,-9999,1425237101.061876,0.4695816040039062,-37.24580383300781,15.90217590332031,195.9375610351562,182.1659393310547,10,180551.516061,0.0186309814453125,-0.9899749755859375,-0.1366119384765625,180551.4827025833,0.05329304920579365,0.1323391324687626,0.1103214481565324,180551.4827025833,1.234736967325684,0.09397219340071868,1.41269490927813,0.03078124672174454,0.1492288857698441,0.1406135410070419,0.007870535366237164,-0.002996309427544475,0.01519265118986368,XTrueNorthZVertical,0.5079777109696528,0.4044557161566866,0.4647565952300985,0.6019762740882281,0.01477350760251284,-0.9875279664993286,-0.1567484438419342,0.4596194624900818,-38.81379699707031,15.79616928100586,2,0.0.0.0,10.83.46.32,1,0
2015-03-01 11:11:41.118,100,1425237099.867919,37.74681234221212,-122.4446291506836,170.7606,-1,-1,10,65,-9999,1425237101.061876,0.4695816040039062,-37.24580383300781,15.90217590332031,195.9375610351562,182.1659393310547,10,180551.5651057917,0.0227813720703125,-0.9864654541015625,-0.1391754150390625,180551.5344707917,0.05782734727776256,0.1972313134862873,0.1429249314857185,180551.5344707917,1.27745767965357,0.06134917051493734,1.41713277373803,0.03532801568508148,0.2141226977109909,0.173213392496109,0.0135345458984375,-0.003985789604485035,0.01589974761009216,XTrueNorthZVertical,0.5083249780293825,0.4064728454647006,0.4684839668215838,0.5974179642354053,0.0093841552734375,-0.9882169961929321,-0.1527710855007172,-0.02133047580718994,-38.75019073486328,15.95818328857422,2,0.0.0.0,10.83.46.32,1,0
2015-03-01 11:11:41.182,101,1425237099.867919,37.74681234221212,-122.4446291506836,170.7606,-1,-1,10,65,-9999,1425237101.170974,0.4695816040039062,-37.04190063476562,15.86888122558594,193.4416198730469,179.6699981689453,10,180551.6141730417,0.0210723876953125,-0.9833526611328125,-0.1414947509765625,180551.5862420833,0.07045499190248228,0.1371173760965827,0.1052771547358134,180551.5862420833,1.311152650394459,0.03784222871209771,1.421483889379939,0.04796393215656281,0.1540130078792572,0.1355518400669098,0.02249396778643131,0.002759090391919017,0.009262192994356155,XTrueNorthZVertical,0.5083185254529858,0.4090069204249464,0.4717165874699449,0.5931348795850054,0.005627980455756187,-0.9888736009597778,-0.1486512273550034,-0.3909271955490112,-38.68891906738281,16.10142517089844,2,0.0.0.0,10.83.46.32,1,0
2015-03-01 11:11:41.214,102,1425237099.867919,37.74681234221212,-122.4446291506836,170.7606,-1,-1,10,65,-9999,1425237101.170974,0.4695816040039062,-37.04190063476562,15.86888122558594,193.4416198730469,179.6699981689453,10,180551.6632031667,0.016632080078125,-0.9835357666015625,-0.1257476806640625,180551.6380130417,0.1372068583092094,0.06528819307161955,0.08984600043156722,180551.6380130417,1.337688907759093,0.0174463086355302,1.426614741884528,0.1147204712033272,0.0821869969367981,0.1201095134019852,0.01417126320302486,0.004424854647368193,0.009901599027216434,XTrueNorthZVertical,0.5092440196171959,0.4109020035996589,0.4733657362485975,0.589707436121112,0.002506593475118279,-0.9896238446235657,-0.1436601430177689,-0.6233556270599365,-38.62831115722656,16.23904418945312,2,0.0.0.0,10.83.46.32,1,0
2015-03-01 11:11:41.281,103,1425237099.867919,37.74681234221212,-122.4446291506836,170.7606,-1,-1,10,65,-9999,1425237101.243864,-0.04196929931640625,-37.14385986328125,16.13515472412109,193.4531097412109,179.6814880371094,10,180551.7122675834,0.049560546875,-0.9836883544921875,-0.12335205078125,180551.6897814167,0.1518028452956067,0.08821534689611171,0.08801747402711882,180551.6897814167,1.364627750451367,-0.004379248958292545,1.434669837497585,0.1293232291936874,0.1051173433661461,0.1182701289653778,0.03100505471229553,0.006938663311302662,0.0130239175632596,XTrueNorthZVertical,0.5112412259184,0.4132555120225213,0.4740697883174676,0.5857559517904124,-0.0005942879361100495,-0.9907490611076355,-0.1357045769691467,-0.9110215306282043,-38.47740173339844,16.58013343811035,2,0.0.0.0,10.83.46.32,1,0
2015-03-01 11:11:41.314,104,1425237099.867919,37.74681234221212,-122.4446291506836,170.7606,-1,-1,10,65,-9999,1425237101.295529,-0.4171066284179688,-37.04190063476562,16.36814117431641,193.34521484375,179.5735931396484,10,180551.761314125,0.052490234375,-0.9894866943359375,-0.1022186279296875,180551.7415524583,0.1745425125793572,-0.01184147947092832,0.1198598259167602,180551.7415524583,1.37560956464562,-0.01119360172713824,1.442757139241109,0.1520685851573944,0.005067314486950636,0.1500848084688187,0.06009931489825249,0.007957974448800087,0.01092074997723103,XTrueNorthZVertical,0.512928282667323,0.416009705477549,0.4738374812294457,0.5825104734847043,-0.001429270021617413,-0.9918141961097717,-0.1276810020208359,-1.021215319633484,-38.3549919128418,16.85505294799805,2,0.0.0.0,10.83.46.32,1,0
2015-03-01 11:11:41.383,105,1425237099.867919,37.74681234221212,-122.4446291506836,170.7606,-1,-1,10,65,-9999,1425237101.34768,-0.9457168579101562,-36.75303649902344,16.7841796875,193.1321716308594,179.3605499267578,10,180551.8104124167,0.019500732421875,-1.017013549804688,-0.0754547119140625,180551.79332375,0.1819516930480667,-0.2263788126688775,0.04086088060508575,180551.79332375,1.373764507857084,-0.01432249458314353,1.45375223659399,0.1594919413328171,-0.2094609886407852,0.07105474919080734,0.03670665249228477,-0.01912516914308071,0.0352519154548645,XTrueNorthZVertical,0.5172192679235994,0.4172553719544466,0.4701640138698652,0.580799356124226,-0.001672471407800913,-0.9931581616401672,-0.1167643666267395,-1.026329398155212,-38.20307922363281,17.1963005065918,2,0.0.0.0,10.83.46.32,1,0
2015-03-01 11:11:41.417,106,1425237099.867919,37.74681234221212,-122.4446291506836,170.7606,-1,-1,10,65,-9999,1425237101.402747,-1.099174499511719,-36.32823181152344,17.16693878173828,191.5271453857422,177.7555236816406,10,180551.8594120833,-0.0108795166015625,-1.018386840820312,-0.033905029296875,180551.8450918334,0.2265114380911635,-0.2856866111966151,0.01169793508817305,180551.79332375,1.373764507857084,-0.01432249458314353,1.45375223659399,0.1594919413328171,-0.2094609886407852,0.07105474919080734,0.03670665249228477,-0.01912516914308071,0.0352519154548645,XTrueNorthZVertical,0.5172192679235994,0.4172553719544466,0.4701640138698652,0.580799356124226,-0.001672471407800913,-0.9931581616401672,-0.1167643666267395,-1.026329398155212,-38.20307922363281,17.1963005065918,2,0.0.0.0,10.83.46.32,1,0
2015-03-01 11:11:41.464,107,1425237099.867919,37.74681234221212,-122.4446291506836,170.7606,-1,-1,10,65,-9999,1425237101.453355,-1.218536376953125,-35.93740844726562,17.71611022949219,190.8861694335938,177.1145477294922,10,180551.9085967917,-0.0104522705078125,-1.016494750976562,-0.038116455078125,180551.896863125,0.171610638535289,-0.1468088856194901,-0.005164401985881658,180551.896863125,1.423030655212086,-0.08647991695252803,1.474040700307388,0.1492189913988113,-0.1298685967922211,0.02491236291825771,-0.006884385831654072,-0.01798283867537975,0.06682391464710236,XTrueNorthZVertical,0.5294438634009226,0.4142073931797915,0.4610615775240665,0.5792612201952863,-0.008343885652720928,-0.9953228235244751,-0.09624285995960236,-0.7405825853347778,-37.79960632324219,18.07989692687988,2,0.0.0.0,10.83.46.32,1,0
2015-03-01 11:11:41.514,108,1425237099.867919,37.74681234221212,-122.4446291506836,170.7606,-1,-1,10,65,-9999,1425237101.505648,-0.9457015991210938,-36.20928955078125,18.14878845214844,191.5841217041016,177.8125,10,180551.9575380833,0.012481689453125,-1.02813720703125,-0.0372467041015625,180551.948634125,0.1372878184063478,-0.1584860480511605,-0.01459385645752522,180551.896863125,1.423030655212086,-0.08647991695252803,1.474040700307388,0.1492189913988113,-0.1298685967922211,0.02491236291825771,-0.006884385831654072,-0.01798283867537975,0.06682391464710236,XTrueNorthZVertical,0.5294438634009226,0.4142073931797915,0.4610615775240665,0.5792612201952863,-0.008343885652720928,-0.9953228235244751,-0.09624285995960236,-0.7405825853347778,-37.79960632324219,18.07989692687988,2,0.0.0.0,10.83.46.32,1,0
2015-03-01 11:11:41.561,109,1425237099.867919,37.74681234221212,-122.4446291506836,170.7606,-1,-1,10,65,-9999,1425237101.555719,-0.65582275390625,-36.09033203125,18.19871520996094,192.3160552978516,178.54443359375,10,180552.0068475417,-0.006103515625,-1.043258666992188,-0.0239715576171875,180552.0004025,0.09355019119175843,-0.2367571514369163,-0.02232501310202525,180551.948634125,1.434129260540872,-0.1033980030883158,1.482772995066778,0.1149077638983727,-0.1415435671806335,0.01548102218657732,0.0223485492169857,-0.03557931631803513,0.04901762306690216,XTrueNorthZVertical,0.533374406703191,0.414478124488627,0.4577371671810112,0.5780970687733322,-0.009073402732610703,-0.9961284399032593,-0.08743925392627716,-0.676771879196167,-37.65914154052734,18.37314414978027,2,0.0.0.0,10.83.46.32,1,0
2015-03-01 11:11:41.617,110,1425237099.867919,37.74681234221212,-122.4446291506836,170.7606,-1,-1,10,65,-9999,1425237101.606746,-0.4853134155273438,-35.8524169921875,18.19871520996094,192.8121490478516,179.04052734375,10,180552.0556761667,0.004364013671875,-1.04156494140625,-0.0145416259765625,180552.0521735417,0.0748619908743454,-0.1961745711657439,-0.05022668552667642,180552.0004025,1.448593537774789,-0.1276066962169863,1.491528142017365,0.07118795812129974,-0.219811350107193,0.007747585885226727,0.004629637580364943,-0.04403363168239594,0.05433987081050873,XTrueNorthZVertical,0.5381981716308311,0.4136092021331045,0.4533392823962725,0.5777140811416032,-0.01007702574133873,-0.9968599081039429,-0.07854031026363373,-0.4841901361942291,-37.46820831298828,18.76539611816406,2,0.0.0.0,10.83.46.32,1,0
2015-03-01 11:11:41.660,111,1425237099.867919,37.74681234221212,-122.4446291506836,170.7606,-1,-1,10,65,-9999,1425237101.606746,-0.4853134155273438,-35.8524169921875,18.19871520996094,192.8121490478516,179.04052734375,10,180552.104887125,0.0292510986328125,-1.027252197265625,-0.0249786376953125,180552.1039448333,0.08240672624253988,-0.01271765946956439,0.07111891796223903,180552.0521735417,1.447358522566634,-0.1366052109264972,1.500261385601906,0.05252546817064285,-0.1792242676019669,-0.02015605196356773,0.008330893702805042,-0.04251036047935486,0.05036375671625137,XTrueNorthZVertical,0.5427451384103971,0.4129386849010946,0.4484295946035375,0.5777717235003345,-0.009597373194992542,-0.9975134134292603,-0.06981871277093887,-0.2722061574459076,-37.30350875854492,19.09490966796875,2,0.0.0.0,10.83.46.32,1,0
2015-03-01 11:11:41.715,112,1425237099.867919,37.74681234221212,-122.4446291506836,170.7606,-1,-1,10,65,-9999,1425237101.660279,-0.3318405151367188,-35.97137451171875,18.34849548339844,193.2431182861328,179.4714965820312,10,180552.1538137917,0.03546142578125,-1.013336181640625,-0.01708984375,180552.1039448333,0.08240672624253988,-0.01271765946956439,0.07111891796223903,180552.1039448333,1.471919657020657,-0.1644111658118831,1.507489186173849,0.06009207665920258,0.004236254841089249,0.1011798605322838,0.02703228779137135,-0.03023198805749416,0.0374012365937233,XTrueNorthZVertical,0.5457274178402564,0.4134929132835509,0.446160330803847,0.5763211464517826,-0.01035443041473627,-0.9979967474937439,-0.0624103918671608,-0.129783570766449,-37.17594909667969,19.34356689453125,2,0.0.0.0,10.83.46.32,1,0
2015-03-01 11:11:41.759,113,1425237099.867919,37.74681234221212,-122.4446291506836,170.7606,-1,-1,10,65,-9999,1425237101.710459,-0.3147811889648438,-36.26023864746094,18.56483459472656,193.3832550048828,179.6116333007812,10,180552.2030417084,0.02130126953125,-0.997100830078125,-0.015838623046875,180552.20748425,0.086678969263245,-0.09801498075927628,0.1772373652864084,180552.1557129167,1.494807272362968,-0.1880947199189586,1.513622948275312,0.02122888527810574,-0.06121286377310753,0.1236700415611267,0.04614603146910667,-0.0149701340124011,0.03904305025935173,XTrueNorthZVertical,0.5477792261570306,0.4145738449277222,0.4447122400877817,0.5747150411791603,-0.0106846047565341,-0.9983660578727722,-0.05613289400935173,-0.1515900790691376,-37.02038192749023,19.63949584960938,2,0.0.0.0,10.83.46.32,1,0
2015-03-01 11:11:41.816,114,1425237099.867919,37.74681234221212,-122.4446291506836,170.7606,-1,-1,10,65,-9999,1425237101.762187,-0.4682540893554688,-36.34519958496094,18.64803314208984,193.1680297851562,179.3964080810547,10,180552.2519545833,0.0103607177734375,-0.97979736328125,0.006134033203125,180552.20748425,0.086678969263245,-0.09801498075927628,0.1772373652864084,180552.20748425,1.600118440774917,-0.2967162746245367,1.51820336120768,0.06440325081348419,-0.08105567097663879,0.2072532027959824,0.03667091205716133,0.00151647871825844,0.03443136066198349,XTrueNorthZVertical,0.551154488604028,0.4136347891169072,0.4438460394816409,0.5728312078693975,-0.01536964252591133,-0.9986172914505005,-0.05026998370885849,-0.215315192937851,-36.92803573608398,19.8119945526123,2,0.0.0.0,10.83.46.32,1,0
2015-03-01 11:11:41.856,115,1425237099.867919,37.74681234221212,-122.4446291506836,170.7606,-1,-1,10,65,-9999,1425237101.816462,-0.8092880249023438,-36.14126586914062,18.814453125,192.587158203125,178.8155364990234,10,180552.3010224584,-0.016265869140625,-0.980987548828125,0.0302886962890625,180552.2592552917,0.04494377287228623,-0.1034342472614785,0.1591007056307508,180552.2592552917,1.785430833522884,-0.4858807772703197,1.518331672822599,0.02267484180629253,-0.08647401630878448,0.1891102641820908,0.03484903275966644,0.0188266821205616,0.05250388756394386,XTrueNorthZVertical,0.5550006531139717,0.4108398087537777,0.4444758222378149,0.5706365555947581,-0.02448831684887409,-0.9986240267753601,-0.04636985436081886,-0.3887601494789124,-36.81804275512695,20.0130443572998,2,0.0.0.0,10.83.46.32,1,0
2015-03-01 11:11:41.917,116,1425237099.867919,37.74681234221212,-122.4446291506836,170.7606,-1,-1,10,65,-9999,1425237101.86969,-1.099174499511719,-36.124267578125,18.66468811035156,192.22412109375,178.4524993896484,10,180552.3500703333,-0.032196044921875,-0.9492340087890625,0.0076751708984375,180552.3110234583,-0.00193052547419844,0.1370316223094822,0.2289535568107662,180552.3110234583,1.972786141219284,-0.6700860284231507,1.514066633724044,-0.02418630383908749,0.1539945304393768,0.2589602768421173,-0.004307945724576712,0.03214374557137489,0.06749390810728073,XTrueNorthZVertical,0.5571627754207521,0.4090852018022406,0.4479521431545255,0.567060601121202,-0.03521231934428215,-0.998391330242157,-0.04443787783384323,-0.843659520149231,-36.78313064575195,20.06316757202148,2,0.0.0.0,10.83.46.32,1,0
2015-03-01 11:11:41.954,117,1425237099.867919,37.74681234221212,-122.4446291506836,170.7606,-1,-1,10,65,-9999,1425237101.944113,-2.002922058105469,-35.90335083007812,19.11400604248047,190.3724212646484,176.6007995605469,10,180552.3992641667,-0.0284576416015625,-0.969573974609375,0.026336669921875,180552.3627946667,-0.003487409447458762,0.1841173756465191,0.162937521813228,180552.3627946667,2.121421800928839,-0.808174065719881,1.506151128450019,-0.02573881857097149,0.2010810226202011,0.1929436773061752,0.01423599477857351,0.04989792034029961,0.0586642362177372,XTrueNorthZVertical,0.5573591538817279,0.4087024574803005,0.4541480551597184,0.5621943857575067,-0.04670669883489609,-0.9979112148284912,-0.0446261502802372,-1.426865339279175,-36.735595703125,20.11719512939453,2,0.0.0.0,10.83.46.32,1,0
2015-03-01 11:11:42.011,118,1425237099.867919,37.74681234221212,-122.4446291506836,170.7606,-1,-1,10,65,-9999,1425237101.995805,-2.3780517578125,-35.8013916015625,19.08072662353516,189.9817199707031,176.2100982666016,10,180552.4481895833,0.040435791015625,-1.024826049804688,-0.036468505859375,180552.4145660417,-0.1118090899414507,0.2102238111803479,0.02425021225404353,180552.4145660417,2.145971749501851,-0.8225622583382903,1.500661635646786,-0.1340534090995789,0.2271887212991714,0.05425570532679558,0.03519902005791664,0.0120374197140336,0.07039620727300644,XTrueNorthZVertical,0.5553835289076029,0.4095255780019455,0.4589217112561767,0.5596683913415337,-0.05135807767510414,-0.9975415468215942,-0.04767587408423424,-1.861101746559143,-36.73366928100586,20.08519554138184,2,0.0.0.0,10.83.46.32,1,0
2015-03-01 11:11:42.052,119,1425237099.867919,37.74681234221212,-122.4446291506836,170.7606,-1,-1,10,65,-9999,1425237101.995805,-2.3780517578125,-35.8013916015625,19.08072662353516,189.9817199707031,176.2100982666016,10,180552.4972705417,0.078857421875,-0.9482421875,-0.13995361328125,180552.46633425,-0.0410507639908084,0.5133762317540297,0.2843531664388125,180552.46633425,2.145668598044893,-0.8033676740369121,1.493086621216602,-0.06328784674406052,0.5303407311439514,0.314345508813858,0.1026233956217766,-0.02746246010065079,-0.008159720338881016,XTrueNorthZVertical,0.5506817114070011,0.4120688842561582,0.466748881136119,0.5559624788209451,-0.05587046965956688,-0.9969820976257324,-0.05389777570962906,-2.419695377349854,-36.85497283935547,19.80145072937012,2,0.0.0.0,10.83.46.32,1,0
2015-03-01 11:11:42.106,120,1425237099.867919,37.74681234221212,-122.4446291506836,170.7606,-1,-1,10,65,-9999,1425237102.099404,-3.946830749511719,-36.07330322265625,18.51491546630859,186.1414794921875,172.3698577880859,10,180552.5463169584,0.0528411865234375,-0.8863372802734375,-0.1143798828125,180552.5181054584,0.1398862646819381,0.2665818924847137,0.4700703029521422,180552.5181054584,2.342264549687588,-0.9756224912309887,1.477214224017716,0.1176494210958481,0.2835462391376495,0.5000623464584351,0.1679225862026215,0.09765991568565369,-0.08788405358791351,XTrueNorthZVertical,0.5506587672626394,0.4130132275027584,0.4789041124750766,0.544835530731809,-0.07737693190574646,-0.9956243634223938,-0.05238999053835869,-3.502575397491455,-36.79754638671875,19.74623870849609,2,0.0.0.0,10.83.46.32,1,0
2015-03-01 11:11:42.151,121,1425237099.867919,37.74681234221212,-122.4446291506836,170.7606,-1,-1,10,65,-9999,1425237102.099404,-3.946830749511719,-36.07330322265625,18.51491546630859,186.1414794921875,172.3698577880859,10,180552.5954018334,-0.0488433837890625,-0.8062896728515625,-0.1170501708984375,180552.5698764584,0.1154509627321341,-0.3527553937730617,0.4906421571085683,180552.5698764584,2.507814168802528,-1.144335703902777,1.457945491678641,0.09321434795856476,-0.3357912302017212,0.5206338763237,0.114624984562397,0.1402150243520737,-0.06811879575252533,XTrueNorthZVertical,0.5582486890261628,0.4062851698539029,0.4834552266071157,0.5381093888536292,-0.1025247648358345,-0.9936391115188599,-0.04658152535557747,-4.447352409362793,-36.6008415222168,19.92086410522461,2,0.0.0.0,10.83.46.32,1,0
2015-03-01 11:11:42.213,122,1425237099.867919,37.74681234221212,-122.4446291506836,170.7606,-1,-1,10,65,-9999,1425237102.151478,-5.379173278808594,-36.00531005859375,18.88102722167969,183.5931243896484,169.8215026855469,10,180552.6444595417,-0.128662109375,-0.763916015625,-0.0494232177734375,180552.6216447084,0.2154787606432922,-0.6420370061251748,0.4916496309489453,180552.6216447084,2.643472211782784,-1.304737308779089,1.435951529804607,0.1932423412799835,-0.6250729560852051,0.5216410756111145,0.04456163942813873,0.2067272663116455,-0.07172354310750961,XTrueNorthZVertical,0.5719598116223793,0.3939394426930812,0.4815720908254318,0.5345670390759113,-0.1297056823968887,-0.990922212600708,-0.03534737974405289,-5.090630531311035,-36.28590393066406,20.33863258361816,2,0.0.0.0,10.83.46.32,1,0
2015-03-01 11:11:42.249,123,1425237099.867919,37.74681234221212,-122.4446291506836,170.7606,-1,-1,10,65,-9999,1425237102.207174,-6.010093688964844,-35.51252746582031,18.93095397949219,182.9330444335938,169.1614227294922,10,180552.693654375,-0.1647491455078125,-0.8282470703125,-0.049957275390625,180552.6734159167,0.1469931763669236,-0.4961652868932836,0.4220367305831461,180552.6734159167,2.73436502502439,-1.422576945827318,1.413351316855332,0.1247569844126701,-0.4792014360427856,0.4520278871059418,-0.001449054572731256,0.1961119472980499,-0.008430670015513897,XTrueNorthZVertical,0.5856822145617515,0.3813119878396572,0.4785002927126413,0.5316153589753935,-0.1550756096839905,-0.9876311421394348,-0.02315502241253853,-5.378018379211426,-35.99715805053711,20.77312850952148,2,0.0.0.0,10.83.46.32,1,0
2015-03-01 11:11:42.306,124,1425237099.867919,37.74681234221212,-122.4446291506836,170.7606,-1,-1,10,65,-9999,1425237102.281249,-6.606910705566406,-34.78181457519531,19.44685363769531,182.3591766357422,168.5875549316406,10,180552.7426056667,-0.20892333984375,-0.8484039306640625,-0.0452423095703125,180552.72518725,0.1075000952977025,-0.2707023353232843,0.361370986215577,180552.72518725,2.775455889494115,-1.48060489962474,1.39241987057643,0.08526413887739182,-0.253738671541214,0.391361802816391,-0.0151078887283802,0.1649954915046692,-0.05863436311483383,XTrueNorthZVertical,0.5950817781458586,0.3713315498251729,0.4782395638770766,0.5284670145947339,-0.1767103523015976,-0.9841330647468567,-0.01598111540079117,-5.56930685043335,-35.84963226318359,20.97684478759766,2,0.0.0.0,10.83.46.32,1,0
2015-03-01 11:11:42.347,125,1425237099.867919,37.74681234221212,-122.4446291506836,170.7606,-1,-1,10,65,-9999,1425237102.333159,-7.033195495605469,-34.49295043945312,19.39692687988281,181.9059448242188,168.1343231201172,10,180552.791695125,-0.193267822265625,-0.8875274658203125,-0.0351715087890625,180552.7769555,0.00860573874648205,-0.181391896586932,0.2051696640635955,180552.7769555,2.7929990826498,-1.508016716684247,1.378301259329797,-0.01362998783588409,-0.1644284129142761,0.2351601868867874,-0.003648954443633556,0.08019329607486725,-0.006353969220072031,XTrueNorthZVertical,0.600716560447631,0.3648814013793555,0.4785816224241667,0.5262705731447153,-0.1909311264753342,-0.9815299510955811,-0.01200235355645418,-6.122292041778564,-35.58404541015625,21.27286148071289,2,0.0.0.0,10.83.46.32,1,0
2015-03-01 11:11:42.408,126,1425237099.867919,37.74681234221212,-122.4446291506836,170.7606,-1,-1,10,65,-9999,1425237102.384921,-6.930892944335938,-34.01712036132812,19.43022155761719,182.2574157714844,168.4857940673828,10,180552.8407339584,-0.207916259765625,-0.907623291015625,-0.10540771484375,180552.8287265417,0.003874633069956284,-0.2157474735972812,0.1571171832508598,180552.7769555,2.7929990826498,-1.508016716684247,1.378301259329797,-0.01362998783588409,-0.1644284129142761,0.2351601868867874,-0.003648954443633556,0.08019329607486725,-0.006353969220072031,XTrueNorthZVertical,0.600716560447631,0.3648814013793555,0.4785816224241667,0.5262705731447153,-0.1909311264753342,-0.9815299510955811,-0.01200235355645418,-6.122292041778564,-35.58404541015625,21.27286148071289,2,0.0.0.0,10.83.46.32,1,0
2015-03-01 11:11:42.445,127,1425237099.867919,37.74681234221212,-122.4446291506836,170.7606,-1,-1,10,65,-9999,1425237102.437184,-6.67510986328125,-34.27203369140625,19.64656066894531,183.379638671875,169.6080169677734,10,180552.8899354583,-0.1961212158203125,-0.9136199951171875,-0.0755767822265625,180552.8804977083,-0.07581353833183072,-0.4465492642045624,0.08113133839650094,180552.8804977083,2.754360106558542,-1.492865728332313,1.358522092206032,-0.09795163571834564,-0.4296114444732666,0.1110573783516884,0.002966742729768157,0.04414365440607071,-0.06144828721880913,XTrueNorthZVertical,0.6071707639295918,0.3509168509664576,0.4784197791890237,0.5285030279633943,-0.2100437730550766,-0.9775543212890625,-0.01640205457806587,-6.504244804382324,-35.59836196899414,21.13510513305664,2,0.0.0.0,10.83.46.32,1,0
2015-03-01 11:11:42.507,128,1425237099.867919,37.74681234221212,-122.4446291506836,170.7606,-1,-1,10,65,-9999,1425237102.488945,-6.743316650390625,-34.20405578613281,19.34700775146484,183.5736846923828,169.8020629882812,10,180552.938888875,-0.224029541015625,-0.86920166015625,-0.113616943359375,180552.9322660417,-0.142505217297922,-0.579160305420622,0.1518755495933658,180552.8804977083,2.754360106558542,-1.492865728332313,1.358522092206032,-0.09795163571834564,-0.4296114444732666,0.1110573783516884,0.002966742729768157,0.04414365440607071,-0.06144828721880913,XTrueNorthZVertical,0.6071707639295918,0.3509168509664576,0.4784197791890237,0.5285030279633943,-0.2100437730550766,-0.9775543212890625,-0.01640205457806587,-6.504244804382324,-35.59836196899414,21.13510513305664,2,0.0.0.0,10.83.46.32,1,0
2015-03-01 11:11:42.543,129,1425237099.867919,37.74681234221212,-122.4446291506836,170.7606,-1,-1,10,65,-9999,1425237102.488945,-6.743316650390625,-34.20405578613281,19.34700775146484,183.5736846923828,169.8020629882812,10,180552.9879789584,-0.2381134033203125,-0.8766021728515625,-0.0836029052734375,180552.984037375,-0.3433568319700631,-0.6792118054654819,0.07280656314502225,180552.9322660417,2.715450777811711,-1.479164437911692,1.349128088763737,-0.1646430790424347,-0.5622225999832153,0.1818013042211533,0.004716442432254553,0.1071085706353188,-0.1026239693164825,XTrueNorthZVertical,0.6120277273211114,0.3396515829601762,0.4748887150979227,0.5334224217299596,-0.2189345806837082,-0.975532054901123,-0.02011772617697716,-6.222151756286621,-35.75820922851562,20.94937896728516,2,0.0.0.0,10.83.46.32,1,0
2015-03-01 11:11:42.607,130,1425237099.867919,37.74681234221212,-122.4446291506836,170.7606,-1,-1,10,65,-9999,1425237102.592223,-5.566734313964844,-34.22102355957031,19.13066864013672,187.1040802001953,173.3324584960938,10,180553.0370275833,-0.290740966796875,-0.86614990234375,-0.0457763671875,180553.0358084167,-0.2970298132275896,-0.8248150780594931,0.05927424269800261,180552.984037375,2.661488351792864,-1.457325940000588,1.340864703972659,-0.3654964864253998,-0.6622744202613831,0.1027325764298439,-0.005976980086416006,0.0931125208735466,-0.04487307369709015,XTrueNorthZVertical,0.6169961162852264,0.3262100138386562,0.4694550197768156,0.5408462926890499,-0.2264449000358582,-0.9736819863319397,-0.025805639103055,-5.925981998443604,-35.91120147705078,20.77281379699707,2,0.0.0.0,10.83.46.32,1,0
2015-03-01 11:11:42.641,131,1425237099.867919,37.74681234221212,-122.4446291506836,170.7606,-1,-1,10,65,-9999,1425237102.592223,-5.566734313964844,-34.22102355957031,19.13066864013672,187.1040802001953,173.3324584960938,10,180553.0861269583,-0.3296966552734375,-0.8516387939453125,-0.0053253173828125,180553.087576875,-0.3366989292448649,-0.7818122169896566,-0.1129894029365738,180553.0358084167,2.588747667154209,-1.424574511084162,1.333746797193905,-0.3191697597503662,-0.8078778982162476,0.08920015394687653,-0.03698832541704178,0.1195417940616608,-0.02433215826749802,XTrueNorthZVertical,0.6218157605316096,0.3102212963951154,0.4618133221290853,0.5512134534554984,-0.2323292940855026,-0.9720351099967957,-0.03421581536531448,-5.617246627807617,-36.11716079711914,20.49971771240234,2,0.0.0.0,10.83.46.32,1,0
2015-03-01 11:11:42.706,132,1425237099.867919,37.74681234221212,-122.4446291506836,170.7606,-1,-1,10,65,-9999,1425237102.696082,-4.253738403320312,-35.32559204101562,18.28195190429688,191.5941314697266,177.822509765625,10,180553.1351912083,-0.339019775390625,-0.8331298828125,-0.0033111572265625,180553.087576875,-0.3366989292448649,-0.7818122169896566,-0.1129894029365738,180553.087576875,2.517381410132253,-1.395973020740627,1.332258124633611,-0.3588385879993439,-0.7648751735687256,-0.08306355029344559,-0.09701613336801529,0.1200456172227859,0.03577220812439919,XTrueNorthZVertical,0.6262477598311469,0.2954064678297779,0.4513050345861607,0.5629142353652096,-0.2326805144548416,-0.9716843962669373,-0.04109752550721169,-4.50821590423584,-36.60883712768555,19.8924732208252,2,0.0.0.0,10.83.46.32,1,0
2015-03-01 11:11:42.739,133,1425237099.867919,37.74681234221212,-122.4446291506836,170.7606,-1,-1,10,65,-9999,1425237102.696082,-4.253738403320312,-35.32559204101562,18.28195190429688,191.5941314697266,177.822509765625,10,180553.1843952083,-0.31317138671875,-0.91650390625,-0.0088043212890625,180553.19111925,-0.4200667903248144,-0.4232255656937574,-0.2943647879247474,180553.1393479167,2.430793599738478,-1.342066960105985,1.332965176168738,-0.4121402204036713,-0.48766028881073,-0.11320710927248,-0.1095607653260231,0.1387213468551636,0.0501076951622963,XTrueNorthZVertical,0.6266681238384676,0.2838620016198519,0.4433495056428663,0.5745872875344372,-0.2294590175151825,-0.9718512296676636,-0.0534188523888588,-3.764207363128662,-36.96260070800781,19.38654518127441,2,0.0.0.0,10.83.46.32,1,0
2015-03-01 11:11:42.806,134,1425237099.867919,37.74681234221212,-122.4446291506836,170.7606,-1,-1,10,65,-9999,1425237102.801346,-2.4803466796875,-35.66543579101562,16.65106964111328,196.1847076416016,182.4130859375,10,180553.23333875,-0.3117523193359375,-0.906951904296875,-0.0392913818359375,180553.19111925,-0.4200667903248144,-0.4232255656937574,-0.2943647879247474,180553.19111925,2.334216031644646,-1.269034300063686,1.337077182058007,-0.4422060251235962,-0.4062888622283936,-0.2644394934177399,-0.09203947335481644,0.05630787461996078,0.06002695485949516,XTrueNorthZVertical,0.6238757777218447,0.2763392421802167,0.4368541418403638,0.5861518613029864,-0.221131905913353,-0.972811758518219,-0.06883127242326736,-3.347976684570312,-37.21239471435547,18.98078918457031,2,0.0.0.0,10.83.46.32,1,0
2015-03-01 11:11:42.837,135,1425237099.867919,37.74681234221212,-122.4446291506836,170.7606,-1,-1,10,65,-9999,1425237102.801346,-2.4803466796875,-35.66543579101562,16.65106964111328,196.1847076416016,182.4130859375,10,180553.282553,-0.2391357421875,-0.991668701171875,-0.0559844970703125,180553.242887375,-0.3152136108345417,-0.2991454283975486,-0.3050243565038985,180553.242887375,2.242721633677834,-1.198489191830886,1.339507404950062,-0.3373495042324066,-0.2822086811065674,-0.2750818133354187,-0.09822492301464081,0.06641983985900879,0.04409528523683548,XTrueNorthZVertical,0.6209795482058603,0.2696128089494399,0.4309664963977062,0.5966247744537044,-0.2135273963212967,-0.9733717441558838,-0.08338666707277298,-2.176102638244629,-37.83301162719727,17.89327621459961,2,0.0.0.0,10.83.46.32,1,0
2015-03-01 11:11:42.906,136,1425237099.867919,37.74681234221212,-122.4446291506836,170.7606,-1,-1,10,65,-9999,1425237102.852123,-1.542503356933594,-36.464111328125,16.06861114501953,198.7010803222656,184.9294586181641,10,180553.3315023333,-0.2760009765625,-1.021591186523438,-0.117645263671875,180553.29465875,-0.3349106165728767,-0.2990117377108266,-0.3808317695652221,180553.29465875,2.150410459804958,-1.122467027966026,1.347830036685792,-0.3570417761802673,-0.2820751965045929,-0.3508826792240143,-0.02256222814321518,-0.03676284104585648,0.05266575887799263,XTrueNorthZVertical,0.6170854524864082,0.2669859143711097,0.4239813679650757,0.6067650072510281,-0.1992700546979904,-0.9752458333969116,-0.09584812819957733,-1.535901546478271,-38.0851936340332,17.41838455200195,2,0.0.0.0,10.83.46.32,1,0
2015-03-01 11:11:42.935,137,1425237099.867919,37.74681234221212,-122.4446291506836,170.7606,-1,-1,10,65,-9999,1425237102.9039,-0.2977218627929688,-37.02490234375,14.95362854003906,201.848876953125,188.0772552490234,10,180553.3806083333,-0.1735687255859375,-1.051544189453125,-0.187042236328125,180553.3464298334,-0.2525861820080203,-0.3088449274037262,-0.4174273313684369,180553.3464298334,2.050311665268593,-1.038880433246598,1.355148088266956,-0.2747152745723724,-0.2919085919857025,-0.3874771296977997,-0.1138321533799171,-0.052932009100914,-0.004753544926643372,XTrueNorthZVertical,0.613010919638264,0.2644877312469319,0.4166262340722287,0.6169978460705541,-0.1844161450862885,-0.9768378734588623,-0.1085277050733566,-0.9983601570129395,-38.28489303588867,17.01503753662109,2,0.0.0.0,10.83.46.32,1,0
2015-03-01 11:11:43.007,138,1425237099.867919,37.74681234221212,-122.4446291506836,170.7606,-1,-1,10,65,-9999,1425237102.955415,0.5889739990234375,-37.43272399902344,14.78720855712891,203.5357055664062,189.7640838623047,10,180553.42966475,-0.150604248046875,-0.9862518310546875,-0.1796722412109375,180553.3981982917,-0.3628964448879744,-0.3360136978963876,-0.3235793987668076,180553.3981982917,1.926802286966396,-0.9342701969077791,1.359131500247049,-0.3850290179252625,-0.319077342748642,-0.2936263084411621,0.002517490647733212,-0.04013975709676743,-0.07833940535783768,XTrueNorthZVertical,0.6078846491793337,0.2608403335912393,0.4087633702416142,0.6287694246396339,-0.1689451038837433,-0.9776825308799744,-0.1248771473765373,0.3947839736938477,-38.7060661315918,16.06007194519043,2,0.0.0.0,10.83.46.32,1,0
2015-03-01 11:11:43.033,139,1425237099.867919,37.74681234221212,-122.4446291506836,170.7606,-1,-1,10,65,-9999,1425237103.007054,1.424507141113281,-37.75556945800781,13.70549774169922,205.7519989013672,191.9803771972656,10,180553.4787525417,-0.2412872314453125,-1.005523681640625,-0.1656494140625,180553.4499693333,-0.44559691779875,-0.4623311568243719,-0.2590816319067236,180553.4499693333,1.802154932608697,-0.8339279188152139,1.354149868328955,-0.467729240655899,-0.4453949630260468,-0.2291288673877716,-0.02267863787710667,0.01788356900215149,-0.04145386070013046,XTrueNorthZVertical,0.6030663051684267,0.2531581495904117,0.401192803274251,0.6413004179136476,-0.1591908633708954,-0.9766237735748291,-0.1444439589977264,1.159718990325928,-39.02677154541016,15.22523212432861,2,0.0.0.0,10.83.46.32,1,0
2015-03-01 11:11:43.078,140,1425237099.867919,37.74681234221212,-122.4446291506836,170.7606,-1,-1,10,65,-9999,1425237103.058722,2.379402160644531,-38.33335876464844,12.97327423095703,207.8224639892578,194.0508422851562,10,180553.5278042917,-0.2632598876953125,-0.9279937744140625,-0.1315155029296875,180553.50174075,-0.5476354023329181,-0.4499016513847541,-0.3008016482794689,180553.50174075,1.681498876265597,-0.7379633522332525,1.34478983589427,-0.5697674751281738,-0.4329656362533569,-0.270847499370575,-0.09020496159791946,-0.03649356216192245,0.04617496952414513,XTrueNorthZVertical,0.5976813893262828,0.2447093125664239,0.3938973680630666,0.6540176459225483,-0.1507618427276611,-0.9745690822601318,-0.1657886207103729,1.625713348388672,-39.23003768920898,14.64932250976562,2,0.0.0.0,10.83.46.32,1,0
2015-03-01 11:11:43.133,141,1425237099.867919,37.74681234221212,-122.4446291506836,170.7606,-1,-1,10,65,-9999,1425237103.109945,3.04443359375,-38.38433837890625,12.09127044677734,209.5961456298828,195.8245239257812,10,180553.5768994583,-0.2267303466796875,-1.056716918945312,-0.1895294189453125,180553.553508875,-0.4155300954078645,-0.1479521806754611,-0.1533139228981176,180553.553508875,1.593435672508117,-0.6651602357353613,1.330661202627421,-0.4376620650291443,-0.1310165524482727,-0.1233468875288963,-0.1196921318769455,0.001716613187454641,0.04638463258743286,XTrueNorthZVertical,0.5915578306497697,0.2376835726711165,0.3908341084336415,0.66393859694472,-0.1467873603105545,-0.9713058471679688,-0.1871317028999329,2.545788764953613,-39.72678375244141,13.09745216369629,2,0.0.0.0,10.83.46.32,1,0
2015-03-01 11:11:43.206,142,1425237099.867919,37.74681234221212,-122.4446291506836,170.7606,-1,-1,10,65,-9999,1425237103.162752,3.18084716796875,-38.58824157714844,11.12605285644531,210.4614715576172,196.6898498535156,10,180553.62594825,-0.3754119873046875,-1.056564331054688,-0.1625213623046875,180553.6052802083,-0.0682443018816075,-0.1055392097870771,-0.1892572765503721,180553.6052802083,1.544646023056303,-0.6222415170606566,1.321122753159716,-0.0903761237859726,-0.08860396593809128,-0.1592800468206406,-0.1488145589828491,-0.09811502695083618,-0.01267842296510935,XTrueNorthZVertical,0.5870693030243069,0.2344381471964245,0.3900247398273779,0.6695289384761937,-0.1440168619155884,-0.9689931273460388,-0.2007767707109451,2.719615459442139,-39.93257522583008,12.41911697387695,2,0.0.0.0,10.83.46.32,1,0
2015-03-01 11:11:43.229,143,1425237099.867919,37.74681234221212,-122.4446291506836,170.7606,-1,-1,10,65,-9999,1425237103.214145,3.470726013183594,-38.67320251464844,10.71000671386719,211.1499633789062,197.3783416748047,10,180553.6750265417,-0.1393585205078125,-1.226760864257812,-0.0410919189453125,180553.6570512917,0.4466941401678627,0.2537087044074887,-0.04145662974093648,180553.6570512917,1.543530173162996,-0.6125846239627655,1.333047814412562,0.4245625734329224,0.2706437408924103,-0.01147972140461206,-0.07213282585144043,-0.3292462527751923,-0.07169919461011887,XTrueNorthZVertical,0.5877493468329242,0.241258746510688,0.3890248235482011,0.6670865893882627,-0.1354172229766846,-0.9718707203865051,-0.1926898509263992,2.944638729095459,-39.94203186035156,12.33712100982666,2,0.0.0.0,10.83.46.32,1,0
2015-03-01 11:11:43.280,144,1425237099.867919,37.74681234221212,-122.4446291506836,170.7606,-1,-1,10,65,-9999,1425237103.270283,3.470726013183594,-38.23138427734375,11.808349609375,211.3377685546875,197.5661468505859,10,180553.724077625,-1.245925903320312,-2.570648193359375,-0.644500732421875,180553.70881975,1.41094567500118,0.5070845136787175,0.7455024123714072,180553.6570512917,1.543530173162996,-0.6125846239627655,1.333047814412562,0.4245625734329224,0.2706437408924103,-0.01147972140461206,-0.07213282585144043,-0.3292462527751923,-0.07169919461011887,XTrueNorthZVertical,0.5877493468329242,0.241258746510688,0.3890248235482011,0.6670865893882627,-0.1354172229766846,-0.9718707203865051,-0.1926898509263992,2.944638729095459,-39.94203186035156,12.33712100982666,2,0.0.0.0,10.83.46.32,1,0
2015-03-01 11:11:43.329,145,1425237099.867919,37.74681234221212,-122.4446291506836,170.7606,-1,-1,10,65,-9999,1425237103.270283,3.470726013183594,-38.23138427734375,11.808349609375,211.3377685546875,197.5661468505859,10,180553.7733057917,0.8011474609375,-1.308303833007812,-0.7172393798828125,180553.7605907917,-0.09324259608585429,3.859878624885027,0.7345075518110151,180553.7605907917,1.961452123328863,-0.8660176883792338,1.340608939159138,-0.1153737455606461,3.876813173294067,0.7644838690757751,-0.0274006575345993,-0.296792596578598,-0.5051679015159607,XTrueNorthZVertical,0.5869725392944601,0.2855781733695243,0.445986805278682,0.6123757205141834,-0.1738017350435257,-0.9736236333847046,-0.1478166878223419,-0.2848796844482422,-38.8166389465332,15.79331207275391,2,0.0.0.0,10.83.46.32,1,0
2015-03-01 11:11:43.378,146,1425237099.867919,37.74681234221212,-122.4446291506836,170.7606,-1,-1,10,65,-9999,1425237103.344038,-0.1101531982421875,-37.55166625976562,13.43923187255859,202.2846069335938,188.5129852294922,10,180553.8222165,-0.436065673828125,-1.2581787109375,-0.11474609375,180553.8123621667,0.2106544443286137,-1.406162371367288,1.007571578388982,180553.7605907917,1.961452123328863,-0.8660176883792338,1.340608939159138,-0.1153737455606461,3.876813173294067,0.7644838690757751,-0.0274006575345993,-0.296792596578598,-0.5051679015159607,XTrueNorthZVertical,0.5869725392944601,0.2855781733695243,0.445986805278682,0.6123757205141834,-0.1738017350435257,-0.9736236333847046,-0.1478166878223419,-0.2848796844482422,-38.8166389465332,15.79331207275391,2,0.0.0.0,10.83.46.32,1,0
