loggingTime,loggingSample,locationTimestamp_since1970,locationLatitude,locationLongitude,locationAltitude,locationSpeed,locationCourse,locationVerticalAccuracy,locationHorizontalAccuracy,locationFloor,locationHeadingTimestamp_since1970,locationHeadingX,locationHeadingY,locationHeadingZ,locationTrueHeading,locationMagneticHeading,locationHeadingAccuracy,accelerometerTimestamp_sinceReboot,accelerometerAccelerationX,accelerometerAccelerationY,accelerometerAccelerationZ,gyroTimestamp_sinceReboot,gyroRotationX,gyroRotationY,gyroRotationZ,motionTimestamp_sinceReboot,motionYaw,motionRoll,motionPitch,motionRotationRateX,motionRotationRateY,motionRotationRateZ,motionUserAccelerationX,motionUserAccelerationY,motionUserAccelerationZ,motionAttitudeReferenceFrame,motionQuaternionX,motionQuaternionY,motionQuaternionZ,motionQuaternionW,motionGravityX,motionGravityY,motionGravityZ,motionMagneticFieldX,motionMagneticFieldY,motionMagneticFieldZ,motionMagneticFieldCalibrationAccuracy,IP_en0,IP_pdp_ip0,deviceOrientation,state
2015-03-01 20:03:15.260,1,1425268993.883276,37.7656638502642,-122.4603802003026,77.69761,-1,-1,35.71042902585934,69.72230304340474,-9999,1425268995.232958,0.377685546875,-39.33071899414062,-20.66654205322266,49.91958999633789,36.14252471923828,10,196116.477246,0.220062255859375,-0.9920654296875,-0.0172882080078125,196116.480916625,-0.06627143214607681,-0.01212217664982268,-0.04116421465324577,196116.42915125,2.739850156032655,1.579416465153448,1.341259062569879,-0.01326248608529568,-0.0187296774238348,-0.02636846527457237,0.02312231808900833,-0.01817157492041588,0.0005258926539681852,XTrueNorthZVertical,-0.4578629021758566,0.5397612507322015,0.6285438231572141,-0.3224159267512628,0.2275185436010361,-0.9737718105316162,0.001961289905011654,0.4317407608032227,-38.51808166503906,-19.95742607116699,2,0.0.0.0,10.83.46.32,1,0
2015-03-01 20:03:15.266,2,1425268993.883276,37.7656638502642,-122.4603802003026,77.69761,-1,-1,35.71042902585934,69.72230304340474,-9999,1425268995.232958,0.377685546875,-39.33071899414062,-20.66654205322266,49.91958999633789,36.14252471923828,10,196116.5262850834,0.2295379638671875,-0.979156494140625,0.0001983642578125,196116.480916625,-0.06627143214607681,-0.01212217664982268,-0.04116421465324577,196116.480916625,2.766119324722188,1.555281070891529,1.34043598136124,-0.08957981318235397,0.007109270896762609,-0.009752674959599972,-0.008238681592047215,-0.01848124898970127,-0.01374577637761831,XTrueNorthZVertical,-0.4575648861727305,0.5374599139272698,0.629956540849145,-0.3239228070655998,0.2283009439706802,-0.9735841751098633,-0.003542431630194187,0.5305604934692383,-38.4279899597168,-20.12798309326172,2,0.0.0.0,10.83.46.32,1,0
2015-03-01 20:03:15.312,3,1425268993.883276,37.7656638502642,-122.4603802003026,77.69761,-1,-1,35.71042902585934,69.72230304340474,-9999,1425268995.284999,0.156005859375,-38.66796875,-20.98273468017578,49.84086227416992,36.06379699707031,10,196116.5753494167,0.2415618896484375,-0.9727020263671875,-0.0131378173828125,196116.584454625,-0.02086853030186091,-0.005313272690817088,-0.03652498803432774,196116.5326856667,2.776542735847937,1.546678174337884,1.341115485237745,-0.06530424952507019,0.05753449350595474,0.007285008672624826,0.001937363529577851,-0.005417387932538986,0.005688734818249941,XTrueNorthZVertical,-0.4574734864419834,0.5366309941797605,0.6301194139840043,-0.3251072466764837,0.2276006042957306,-0.9737390875816345,-0.005490370560437441,0.5199518203735352,-38.37471389770508,-20.22965049743652,2,0.0.0.0,10.83.46.32,1,0
2015-03-01 20:03:15.350,4,1425268993.883276,37.7656638502642,-122.4603802003026,77.69761,-1,-1,35.71042902585934,69.72230304340474,-9999,1425268995.336484,0.2583236694335938,-38.90585327148438,-21.54855346679688,49.82715225219727,36.05008697509766,10,196116.62438,0.223480224609375,-0.989288330078125,-0.0062408447265625,196116.584454625,-0.02086853030186091,-0.005313272690817088,-0.03652498803432774,196116.584454625,2.790852771280113,1.534001789700568,1.339932518154793,-0.04412803798913956,0.01419827900826931,-0.005270318128168583,0.01289821043610573,0.0007670764462091029,-0.004720444325357676,XTrueNorthZVertical,-0.4576224378293791,0.5351383165227097,0.6308927066889869,-0.3258574713948281,0.2286636829376221,-0.973469078540802,-0.008417373523116112,0.5544910430908203,-38.33257293701172,-20.30847358703613,2,0.0.0.0,10.83.46.32,1,0
2015-03-01 20:03:15.417,5,1425268993.883276,37.7656638502642,-122.4603802003026,77.69761,-1,-1,35.71042902585934,69.72230304340474,-9999,1425268995.39397,0.036651611328125,-38.51504516601562,-21.73160552978516,49.81991958618164,36.04285430908203,10,196116.6734381667,0.2190399169921875,-0.9882354736328125,-0.0106964111328125,196116.63622,-0.05289623820337185,0.01066303068856826,-0.03320109667779984,196116.63622,2.804647976753092,1.521094454465812,1.339632264254815,-0.07615281641483307,0.0301749873906374,-0.001941548776812851,-0.003470850177109241,-0.01567435264587402,0.005141704808920622,XTrueNorthZVertical,-0.4573137860335296,0.5340157547416424,0.6316470350373372,-0.326670032835558,0.2288279086351395,-0.973400354385376,-0.01138255000114441,0.6152806282043457,-38.23701095581055,-20.48609352111816,2,0.0.0.0,10.83.46.32,1,0
2015-03-01 20:03:15.449,6,1425268993.883276,37.7656638502642,-122.4603802003026,77.69761,-1,-1,35.71042902585934,69.72230304340474,-9999,1425268995.39397,0.036651611328125,-38.51504516601562,-21.73160552978516,49.81991958618164,36.04285430908203,10,196116.722453125,0.2345733642578125,-0.9739837646484375,-0.0159759521484375,196116.6879890417,-0.04834223273933635,0.07301668655502949,0.006805175533479478,196116.6879890417,2.82076610154115,1.50867705800743,1.341479519791316,-0.0715954452753067,0.09252910315990448,0.0380779504776001,-0.007895004935562611,-0.0122620640322566,0.005307074170559645,XTrueNorthZVertical,-0.4572163312868501,0.5328203530129596,0.6315141311932713,-0.3290070095845928,0.2268738895654678,-0.9738219380378723,-0.01411139592528343,0.6137776374816895,-38.16931915283203,-20.61199188232422,2,0.0.0.0,10.83.46.32,1,0
2015-03-01 20:03:15.721,7,1425268993.883276,37.7656638502642,-122.4603802003026,77.69761,-1,-1,35.71042902585934,69.72230304340474,-9999,1425268995.523091,0.6505050659179688,-38.68498229980469,-21.49861145019531,49.7628059387207,35.98574066162109,10,196116.771499125,0.243255615234375,-0.9750823974609375,-0.030303955078125,196116.739758125,-0.02862312276395364,0.05983590337190033,-0.01369157748020637,196116.739758125,2.83407069219966,1.500815434917667,1.342258250054962,-0.05182471871376038,0.0795692503452301,0.01744894869625568,0.0128464438021183,-0.001968767261132598,-0.0008210905943997204,XTrueNorthZVertical,-0.458076114006274,0.5312678422943665,0.6309746637715632,-0.3313483659715437,0.2259993851184845,-0.9739986658096313,-0.01584150642156601,0.6114363670349121,-38.13043594360352,-20.68390083312988,2,0.0.0.0,10.83.46.32,1,0
2015-03-01 20:03:15.764,8,1425268993.883276,37.7656638502642,-122.4603802003026,77.69761,-1,-1,35.71042902585934,69.72230304340474,-9999,1425268995.650792,0.599365234375,-38.39608764648438,-21.58181762695312,48.43204116821289,34.65497589111328,10,196116.8205206667,0.2290496826171875,-0.97723388671875,-0.0174102783203125,196116.7915235833,-0.007292534012963978,-0.01421941600826008,-0.01675314746936146,196116.7915235833,2.844752002341434,1.491932653172228,1.34125014666917,-0.03050289303064346,0.005511639174073935,0.01436483673751354,0.005898576229810715,-0.0011295365402475,-0.004870926029980183,XTrueNorthZVertical,-0.4583610529858038,0.5300398971594983,0.6314248959193879,-0.3320624425780991,0.226828470826149,-0.9737697839736938,-0.01792570576071739,0.7308330535888672,-38.04801559448242,-20.83127784729004,2,0.0.0.0,10.83.46.32,1,0
2015-03-01 20:03:15.768,9,1425268993.883276,37.7656638502642,-122.4603802003026,77.69761,-1,-1,35.71042902585934,69.72230304340474,-9999,1425268995.650792,0.599365234375,-38.39608764648438,-21.58181762695312,48.43204116821289,34.65497589111328,10,196116.8695700417,0.22894287109375,-0.9829254150390625,-0.01910400390625,196116.843292625,-0.01468440393458791,-0.01156078229203397,-0.02781591863755062,196116.843292625,2.85157216315545,1.485481086044,1.341572099329174,-0.03789170831441879,0.008170852437615395,0.003297780407592654,0.006880640517920256,-0.00395550113171339,0.002195867709815502,XTrueNorthZVertical,-0.4580499173474128,0.5296312590023079,0.6317093775913321,-0.3326022811131628,0.2263957262039185,-0.973842978477478,-0.01936200633645058,0.7216238975524902,-38.01605987548828,-20.88985824584961,2,0.0.0.0,10.83.46.32,1,0
2015-03-01 20:03:15.826,10,1425268993.883276,37.7656638502642,-122.4603802003026,77.69761,-1,-1,35.71042902585934,69.72230304340474,-9999,1425268995.776803,0.3265304565429688,-38.22615051269531,-21.48197174072266,48.45477294921875,34.67770767211914,10,196116.9185955417,0.2414398193359375,-0.9764862060546875,-0.030548095703125,196116.8950616667,0.004972920703504961,-0.0129027491653249,-0.03026389631155146,196116.8950616667,2.855786271074674,1.481976540488716,1.341373196197358,-0.01823282614350319,0.006829119753092527,0.0008442327380180359,0.01090734452009201,-0.0114317461848259,-0.0005642139003612101,XTrueNorthZVertical,-0.4581079476616097,0.5291983258399318,0.6318484308624172,-0.3329471625754332,0.2265194207429886,-0.9737977385520935,-0.02017248049378395,0.7259373664855957,-37.99967575073242,-20.91949653625488,2,0.0.0.0,10.83.46.32,1,0
2015-03-01 20:03:15.831,11,1425268993.883276,37.7656638502642,-122.4603802003026,77.69761,-1,-1,35.71042902585934,69.72230304340474,-9999,1425268995.827566,0.1901168823242188,-38.0902099609375,-21.91464996337891,48.47125244140625,34.69418716430664,10,196116.967645125,0.2311859130859375,-0.9786834716796875,-0.0233001708984375,196116.9468270833,0.03216193122045093,-0.03990081103211219,-0.02351491347707265,196116.9468270833,2.858738096630344,1.478264378469144,1.340729534575409,0.008950594812631607,-0.02017050050199032,0.007582200225442648,0.01115317735821009,-0.00613093888387084,-0.005982704926282167,XTrueNorthZVertical,-0.4578755027988766,0.5289749143500301,0.6323293688331207,-0.332708800107558,0.2270670384168625,-0.9736511707305908,-0.02107112854719162,0.7479605674743652,-37.9707145690918,-20.97124290466309,2,0.0.0.0,10.83.46.32,1,0
2015-03-01 20:03:15.837,12,1425268993.883276,37.7656638502642,-122.4603802003026,77.69761,-1,-1,35.71042902585934,69.72230304340474,-9999,1425268995.827566,0.1901168823242188,-38.0902099609375,-21.91464996337891,48.47125244140625,34.69418716430664,10,196117.0166705417,0.2328643798828125,-0.980377197265625,-0.020721435546875,196116.9985962083,0.02984125264655588,-0.06278135953752796,-0.0314956083157131,196116.9985962083,2.856348503025157,1.478495211018946,1.340733770783316,0.006629910320043564,-0.04305122792720795,-0.0004053200536873192,0.003660361282527447,-0.005275480449199677,0.005240744911134243,XTrueNorthZVertical,-0.4573151305345062,0.5294843765901179,0.6326728556995416,-0.3320154159448301,0.2270677834749222,-0.9736521244049072,-0.02101833187043667,0.7140059471130371,-37.97596740722656,-20.96292114257812,2,0.0.0.0,10.83.46.32,1,0
2015-03-01 20:03:15.842,13,1425268993.883276,37.7656638502642,-122.4603802003026,77.69761,-1,-1,35.71042902585934,69.72230304340474,-9999,1425268995.827566,0.1901168823242188,-38.0902099609375,-21.91464996337891,48.47125244140625,34.69418716430664,10,196117.0657184167,0.237640380859375,-0.9852447509765625,-0.0214385986328125,196117.0503652917,0.0359385599622923,-0.05557857405329966,-0.03046549760607045,196117.0503652917,2.85460052407949,1.478471205482184,1.340334251807571,0.01272784918546677,-0.03584844991564751,0.0006189151317812502,0.006477894261479378,-0.01183639094233513,0.00148261827416718,XTrueNorthZVertical,-0.4569438807032674,0.5297853032795451,0.6330439510321012,-0.3313384837463871,0.2274546027183533,-0.9735609292984009,-0.02105964533984661,0.6962995529174805,-37.98372268676758,-20.9494571685791,2,0.0.0.0,10.83.46.32,1,0
2015-03-01 20:03:15.844,14,1425268993.883276,37.7656638502642,-122.4603802003026,77.69761,-1,-1,35.71042902585934,69.72230304340474,-9999,1425268995.827566,0.1901168823242188,-38.0902099609375,-21.91464996337891,48.47125244140625,34.69418716430664,10,196117.1147541667,0.2326812744140625,-0.9822845458984375,-0.019805908203125,196117.1021307917,0.0459006466519517,-0.07544016314700161,-0.005517803462535173,196117.0503652917,2.85460052407949,1.478471205482184,1.340334251807571,0.01272784918546677,-0.03584844991564751,0.0006189151317812502,0.006477894261479378,-0.01183639094233513,0.00148261827416718,XTrueNorthZVertical,-0.4569438807032674,0.5297853032795451,0.6330439510321012,-0.3313384837463871,0.2274546027183533,-0.9735609292984009,-0.02105964533984661,0.6962995529174805,-37.98372268676758,-20.9494571685791,2,0.0.0.0,10.83.46.32,1,0
2015-03-01 20:03:15.919,15,1425268993.883276,37.7656638502642,-122.4603802003026,77.69761,-1,-1,35.71042902585934,69.72230304340474,-9999,1425268995.881434,0.0025482177734375,-38.107177734375,-21.96457672119141,48.49315643310547,34.71609115600586,10,196117.1638090833,0.237701416015625,-0.9776153564453125,-0.0223236083984375,196117.1538999167,0.02370612844334034,-0.06182022470011837,-0.01193735327017118,196117.1538999167,2.848666649039587,1.479708684181997,1.341499632397059,0.0005359627539291978,-0.04148738086223602,0.01895191892981529,0.003919917624443769,-0.005558883771300316,-0.002381088444963098,XTrueNorthZVertical,-0.4554715545946376,0.531232709828278,0.6335227316431551,-0.3301309314315961,0.2263504713773727,-0.9738264679908752,-0.02067494206130505,0.5722751617431641,-38.01898574829102,-20.88916206359863,2,0.0.0.0,10.83.46.32,1,0
2015-03-01 20:03:15.938,16,1425268993.883276,37.7656638502642,-122.4603802003026,77.69761,-1,-1,35.71042902585934,69.72230304340474,-9999,1425268995.931734,0.224212646484375,-38.26010131835938,-21.68167114257812,48.51059341430664,34.73352813720703,10,196117.2128387917,0.2397613525390625,-0.9852752685546875,-0.026611328125,196117.205669,-0.02292635487616514,-0.06752045469732397,-0.009263539535731622,196117.1538999167,2.848666649039587,1.479708684181997,1.341499632397059,0.0005359627539291978,-0.04148738086223602,0.01895191892981529,0.003919917624443769,-0.005558883771300316,-0.002381088444963098,XTrueNorthZVertical,-0.4554715545946376,0.531232709828278,0.6335227316431551,-0.3301309314315961,0.2263504713773727,-0.9738264679908752,-0.02067494206130505,0.5722751617431641,-38.01898574829102,-20.88916206359863,2,0.0.0.0,10.83.46.32,1,0
2015-03-01 20:03:16.030,17,1425268993.883276,37.7656638502642,-122.4603802003026,77.69761,-1,-1,35.71042902585934,69.72230304340474,-9999,1425268995.983474,0.4629364013671875,-38.46401977539062,-21.71494293212891,48.51857376098633,34.74150848388672,10,196117.2619044583,0.2316741943359375,-0.979156494140625,-0.0249481201171875,196117.2574345417,-0.03627518352407831,-0.09297787787350041,-0.001257810982844424,196117.205669,2.853848506003025,1.472689648052883,1.341506471466487,-0.04609830304980278,-0.04718819260597229,0.02161572501063347,0.01797799579799175,-0.009860307909548283,-0.003402753965929151,XTrueNorthZVertical,-0.4546215540381691,0.5312136838703592,0.6342633711491108,-0.3299109775745834,0.2261931449174881,-0.9738280177116394,-0.02226252853870392,0.5316591262817383,-38.01882934570312,-20.8905200958252,2,0.0.0.0,10.83.46.32,1,0
2015-03-01 20:03:16.036,18,1425268993.883276,37.7656638502642,-122.4603802003026,77.69761,-1,-1,35.71042902585934,69.72230304340474,-9999,1425268995.983474,0.4629364013671875,-38.46401977539062,-21.71494293212891,48.51857376098633,34.74150848388672,10,196117.3109342917,0.222076416015625,-0.9792327880859375,-0.0270843505859375,196117.3092036667,-0.02784388182899645,-0.06738330190118488,-0.01537416265691843,196117.2574345417,2.866934905298177,1.456787026899091,1.341994865189461,-0.05945494398474693,-0.07219447940587997,0.02952119521796703,0.006397251505404711,-0.008070952259004116,-0.001739597413688898,XTrueNorthZVertical,-0.4529276090970206,0.5309946539118074,0.6356187224563539,-0.3299850156151619,0.2253379821777344,-0.9739389419555664,-0.02580251730978489,0.4297666549682617,-37.94730377197266,-21.02249908447266,2,0.0.0.0,10.83.46.32,1,0
2015-03-01 20:03:16.126,19,1425268993.883276,37.7656638502642,-122.4603802003026,77.69761,-1,-1,35.71042902585934,69.72230304340474,-9999,1425268996.113823,-0.1338729858398438,-37.97122192382812,-21.66503143310547,48.57397079467773,34.79690551757812,10,196117.3599885,0.22540283203125,-0.97998046875,-0.0294342041015625,196117.3609728334,-0.0500951253688265,-0.04412165504377877,-0.01836782203827651,196117.3092036667,2.879105642627132,1.441625889980063,1.342590251300131,-0.0510205402970314,-0.04659933596849442,0.01540330704301596,0.001331668929196894,-0.009034718386828899,0.003918323200196028,XTrueNorthZVertical,-0.4511903465480258,0.530901799276062,0.6369207762033835,-0.3300037696461076,0.2243458181619644,-0.9740738272666931,-0.02914110198616982,0.3297624588012695,-37.89481353759766,-21.1187629699707,2,0.0.0.0,10.83.46.32,1,0
2015-03-01 20:03:16.134,20,1425268993.883276,37.7656638502642,-122.4603802003026,77.69761,-1,-1,35.71042902585934,69.72230304340474,-9999,1425268996.113823,-0.1338729858398438,-37.97122192382812,-21.66503143310547,48.57397079467773,34.79690551757812,10,196117.4090129583,0.2238006591796875,-0.9821014404296875,-0.0339202880859375,196117.3609728334,-0.0500951253688265,-0.04412165504377877,-0.01836782203827651,196117.3609728334,2.894528912269137,1.42458546023162,1.342926723036935,-0.0732688307762146,-0.02333727851510048,0.01241244003176689,0.001910399179905653,-0.005830601323395967,0.003477678867056966,XTrueNorthZVertical,-0.4497695318252579,0.5303314309966471,0.6381449315174089,-0.3304950837005413,0.2234924286603928,-0.9741498827934265,-0.03291188180446625,0.2736635208129883,-37.8586540222168,-21.18431854248047,2,0.0.0.0,10.83.46.32,1,0
2015-03-01 20:03:16.223,21,1425268993.883276,37.7656638502642,-122.4603802003026,77.69761,-1,-1,35.71042902585934,69.72230304340474,-9999,1425268996.164096,-0.048614501953125,-38.05619812011719,-21.71495819091797,48.59847259521484,34.82140731811523,10,196117.4580837083,0.2308807373046875,-0.9745941162109375,-0.040191650390625,196117.4645075417,-0.05511545033973488,-0.02809128949426481,-0.03344211275645202,196117.412738375,2.908586575892714,1.409844558643685,1.342972365568803,-0.05488203838467598,-0.01216093171387911,0.009582934901118279,0.0008615293772891164,-0.007941262796521187,0.002275254344567657,XTrueNorthZVertical,-0.4487768288136145,0.5296240050179648,0.6391218939802833,-0.3310906043617534,0.222939133644104,-0.9741601943969727,-0.0361955426633358,0.192591667175293,-37.75173568725586,-21.37514877319336,2,0.0.0.0,10.83.46.32,1,0
2015-03-01 20:03:16.232,22,1425268993.883276,37.7656638502642,-122.4603802003026,77.69761,-1,-1,35.71042902585934,69.72230304340474,-9999,1425268996.215977,-0.270294189453125,-38.24311828613281,-22.03114318847656,48.62449645996094,34.84743118286133,10,196117.507134375,0.228424072265625,-0.97979736328125,-0.04327392578125,196117.4645075417,-0.05511545033973488,-0.02809128949426481,-0.03344211275645202,196117.4645075417,2.923283647609151,1.394961500141161,1.341949957148765,-0.0782555416226387,-0.006921506486833096,-0.002743975725024939,0.007524463348090649,-0.0006653674063272774,-0.0005080151604488492,XTrueNorthZVertical,-0.4481427580546252,0.528513245603748,0.6402366587696489,-0.3315702803704088,0.2233562767505646,-0.9739287495613098,-0.03968363627791405,0.1897087097167969,-37.69089126586914,-21.48228454589844,2,0.0.0.0,10.83.46.32,1,0
2015-03-01 20:03:16.297,23,1425268993.883276,37.7656638502642,-122.4603802003026,77.69761,-1,-1,35.71042902585934,69.72230304340474,-9999,1425268996.266728,-0.4237594604492188,-37.98823547363281,-22.41389465332031,48.6612548828125,34.88418960571289,10,196117.5562014584,0.2174072265625,-0.9781494140625,-0.0404815673828125,196117.5162767083,-0.02426885438167408,-0.05032815196420844,-0.0231503267238408,196117.5162767083,2.937668113855711,1.379305254936366,1.341315237841806,-0.04740960150957108,-0.02915870770812035,0.007543409243226051,0.005109616555273533,-0.006012799218297005,1.926713230204768e-05,XTrueNorthZVertical,-0.447069866717034,0.5277138787420003,0.6414888958688291,-0.3318713687055979,0.2233144491910934,-0.9737845659255981,-0.04329319298267365,0.1868581771850586,-37.64142227172852,-21.56887054443359,2,0.0.0.0,10.83.46.32,1,0
2015-03-01 20:03:16.336,24,1425268993.883276,37.7656638502642,-122.4603802003026,77.69761,-1,-1,35.71042902585934,69.72230304340474,-9999,1425268996.318614,-0.133880615234375,-37.90327453613281,-22.46381378173828,48.67958831787109,34.90252304077148,10,196117.6052285,0.21551513671875,-0.9769439697265625,-0.044708251953125,196117.5680422917,0.02103551050220888,-0.02667954780041381,-0.01037327876196764,196117.5680422917,2.943208938577128,1.372975076809619,1.342204351782715,-0.002103124279528856,-0.005509963724762201,0.02032390609383583,-0.0059241047129035,-0.005337913054972887,0.001231315545737743,XTrueNorthZVertical,-0.446299458513733,0.5277773336051077,0.6417925826607007,-0.3322200667292518,0.2221869230270386,-0.9739864468574524,-0.04453575983643532,0.1079998016357422,-37.57210159301758,-21.6899356842041,2,0.0.0.0,10.83.46.32,1,0
2015-03-01 20:03:16.413,25,1425268993.883276,37.7656638502642,-122.4603802003026,77.69761,-1,-1,35.71042902585934,69.72230304340474,-9999,1425268996.370887,0.1901092529296875,-37.88627624511719,-22.87985229492188,48.66730117797852,34.89023590087891,10,196117.6542985417,0.2090301513671875,-0.979644775390625,-0.0471038818359375,196117.6198114583,0.03923608602402841,0.009513610362090063,-0.0100963100085994,196117.6198114583,2.942569789227821,1.374305367284416,1.343265642836917,0.0160993654280901,0.03068326227366924,0.02060579881072044,-0.008204099722206593,-0.006471257191151381,0.005647203419357538,XTrueNorthZVertical,-0.4463173651283631,0.5279977757864628,0.6413741020216389,-0.3326536217121482,0.2212320566177368,-0.9742263555526733,-0.0440383180975914,0.08182525634765625,-37.57320404052734,-21.68814086914062,2,0.0.0.0,10.83.46.32,1,0
2015-03-01 20:03:16.430,26,1425268993.883276,37.7656638502642,-122.4603802003026,77.69761,-1,-1,35.71042902585934,69.72230304340474,-9999,1425268996.423334,0.156005859375,-37.92025756835938,-22.64686584472656,48.65821075439453,34.88114547729492,10,196117.7033595,0.215728759765625,-0.9771728515625,-0.0472869873046875,196117.6715807084,0.0523369743744552,0.0781589843038635,0.01016448693250543,196117.6715807084,2.941901130970979,1.378372249722554,1.345845026092483,0.02919832803308964,0.09932766109704971,0.04087528213858604,-0.008798022754490376,-0.002505209529772401,-0.004400582518428564,XTrueNorthZVertical,-0.4468584816183159,0.528193843199145,0.6400239386942912,-0.3342127043416899,0.2189420610666275,-0.9748049974441528,-0.0426575243473053,0.05933475494384766,-37.58202362060547,-21.67293167114258,2,0.0.0.0,10.83.46.32,1,0
2015-03-01 20:03:16.508,27,1425268993.883276,37.7656638502642,-122.4603802003026,77.69761,-1,-1,35.71042902585934,69.72230304340474,-9999,1425268996.474836,0.1389617919921875,-37.97123718261719,-21.86470031738281,48.47553253173828,34.69846725463867,10,196117.7523818334,0.218292236328125,-0.97650146484375,-0.0484466552734375,196117.7233465,0.04356904911758733,0.1081800003239997,0.03266340445371285,196117.7233465,2.942308438581643,1.384151067708623,1.348769812668553,0.02042573317885399,0.1293472200632095,0.06337536871433258,0.006807901430875063,-0.0001632547500776127,-0.009674753993749619,XTrueNorthZVertical,-0.4481464407740849,0.5279522608537226,0.6380353553141956,-0.3366631486855954,0.2163823992013931,-0.9754531979560852,-0.04086235538125038,0.067474365234375,-37.60467910766602,-21.63357353210449,2,0.0.0.0,10.83.46.32,1,0
2015-03-01 20:03:16.527,28,1425268993.883276,37.7656638502642,-122.4603802003026,77.69761,-1,-1,35.71042902585934,69.72230304340474,-9999,1425268996.474836,0.1389617919921875,-37.97123718261719,-21.86470031738281,48.47553253173828,34.69846725463867,10,196117.8014124167,0.2264556884765625,-0.9942779541015625,-0.05303955078125,196117.7751155834,0.04608520371549419,0.09846052760964653,0.03290442053236502,196117.7751155834,2.941678013576548,1.39055037285232,1.351810580684296,0.02293593809008598,0.1196261420845985,0.06361278146505356,0.00483124190941453,-0.01135424617677927,-0.005107216071337461,XTrueNorthZVertical,-0.4493228991458096,0.5278602830342548,0.6360546314626417,-0.3389793092888906,0.2137203961610794,-0.976118266582489,-0.03894490748643875,0.08843088150024414,-37.61381530761719,-21.61760330200195,2,0.0.0.0,10.83.46.32,1,0
2015-03-01 20:03:16.585,29,1425268993.883276,37.7656638502642,-122.4603802003026,77.69761,-1,-1,35.71042902585934,69.72230304340474,-9999,1425268996.578537,0.4970474243164062,-38.4300537109375,-21.38209533691406,47.27564239501953,33.49857711791992,10,196117.8504658334,0.2198028564453125,-0.989837646484375,-0.0612335205078125,196117.8268849167,0.04124677264703824,0.0884808640567926,0.05395937211053148,196117.8268849167,2.944127396684512,1.393835397593956,1.354966846204729,0.01808599568903446,0.1096437051892281,0.08466102927923203,0.01553553622215986,-0.01294700335711241,-0.02165661193430424,XTrueNorthZVertical,-0.4502882329145813,0.5276272063408004,0.634222790079254,-0.3414842652372174,0.2108133435249329,-0.9767990708351135,-0.03770007565617561,0.09182643890380859,-37.62451553344727,-21.59896087646484,2,0.0.0.0,10.83.46.32,1,0
2015-03-01 20:03:16.626,30,1425268993.883276,37.7656638502642,-122.4603802003026,77.69761,-1,-1,35.71042902585934,69.72230304340474,-9999,1425268996.578537,0.4970474243164062,-38.4300537109375,-21.38209533691406,47.27564239501953,33.49857711791992,10,196117.8994974167,0.203125,-0.976898193359375,-0.0614166259765625,196117.8786504584,0.01795929312705835,0.08445469712081081,0.09202233567437998,196117.8268849167,2.944127396684512,1.393835397593956,1.354966846204729,0.01808599568903446,0.1096437051892281,0.08466102927923203,0.01553553622215986,-0.01294700335711241,-0.02165661193430424,XTrueNorthZVertical,-0.4502882329145813,0.5276272063408004,0.634222790079254,-0.3414842652372174,0.2108133435249329,-0.9767990708351135,-0.03770007565617561,0.09182643890380859,-37.62451553344727,-21.59896087646484,2,0.0.0.0,10.83.46.32,1,0
2015-03-01 20:03:16.709,31,1425268993.883276,37.7656638502642,-122.4603802003026,77.69761,-1,-1,35.71042902585934,69.72230304340474,-9999,1425268996.681845,0.01959228515625,-37.98823547363281,-21.64835357666016,47.22126388549805,33.44419860839844,10,196117.9485587917,0.19635009765625,-0.996551513671875,-0.0599365234375,196117.9304198333,-0.04496001815493571,0.1278599618313583,0.06290572916043466,196117.9304198333,2.975392594985232,1.373224076848937,1.364753623931354,-0.06816069781780243,0.1490126252174377,0.09360270202159882,-0.00352540472522378,-0.009127882309257984,-0.01712304539978504,XTrueNorthZVertical,-0.4497886543026389,0.5268879783694759,0.6313276531073301,-0.3485751447897414,0.2006079256534576,-0.9788482189178467,-0.04015845060348511,-0.07970190048217773,-37.55069351196289,-21.72709846496582,2,0.0.0.0,10.83.46.32,1,0
2015-03-01 20:03:16.723,32,1425268993.883276,37.7656638502642,-122.4603802003026,77.69761,-1,-1,35.71042902585934,69.72230304340474,-9999,1425268996.681845,0.01959228515625,-37.98823547363281,-21.64835357666016,47.22126388549805,33.44419860839844,10,196117.99762275,0.181732177734375,-1.00933837890625,-0.08660888671875,196117.9821889584,-0.1254958737316949,0.2435628596026138,0.06991516914952321,196117.9821889584,3.015635273633344,1.343876626694376,1.368497839962957,-0.1487150490283966,0.2647103369235992,0.1006193608045578,-0.00839278195053339,-0.02248310297727585,-0.02558274567127228,XTrueNorthZVertical,-0.4502843742987392,0.5240635400677657,0.6300070565201439,-0.3545313940988994,0.1957707107067108,-0.9796073436737061,-0.04520277678966522,-0.1012201309204102,-37.48671722412109,-21.83720207214355,2,0.0.0.0,10.83.46.32,1,0
2015-03-01 20:03:16.810,33,1425268993.883276,37.7656638502642,-122.4603802003026,77.69761,-1,-1,35.71042902585934,69.72230304340474,-9999,1425268996.786572,0.275360107421875,-37.90327453613281,-22.06440734863281,44.47283935546875,30.69577407836914,10,196118.046638,0.195770263671875,-1.019577026367188,-0.099365234375,196118.0339547917,-0.313208250533712,0.4112890113719133,0.06357098680073646,196118.0339547917,3.094861438961337,1.283963050917154,1.370666412890367,-0.3364541828632355,0.4324290454387665,0.09428825974464417,-0.001252186018973589,-0.03849866986274719,-0.03582870215177536,XTrueNorthZVertical,-0.4516132085721739,0.5176138468397479,0.6287569962847291,-0.3643982264758716,0.1906747967004776,-0.9800407886505127,-0.05624283105134964,0.03374195098876953,-37.11445617675781,-22.46427726745605,2,0.0.0.0,10.83.46.32,1,0
2015-03-01 20:03:16.822,34,1425268993.883276,37.7656638502642,-122.4603802003026,77.69761,-1,-1,35.71042902585934,69.72230304340474,-9999,1425268996.786572,0.275360107421875,-37.90327453613281,-22.06440734863281,44.47283935546875,30.69577407836914,10,196118.0956745,0.1511077880859375,-0.99896240234375,-0.1065673828125,196118.0857239167,-0.593008476772925,0.57603348798476,0.06603041606742463,196118.0339547917,3.094861438961337,1.283963050917154,1.370666412890367,-0.3364541828632355,0.4324290454387665,0.09428825974464417,-0.001252186018973589,-0.03849866986274719,-0.03582870215177536,XTrueNorthZVertical,-0.4516132085721739,0.5176138468397479,0.6287569962847291,-0.3643982264758716,0.1906747967004776,-0.9800407886505127,-0.05624283105134964,0.03374195098876953,-37.11445617675781,-22.46427726745605,2,0.0.0.0,10.83.46.32,1,0
2015-03-01 20:03:16.911,35,1425268993.883276,37.7656638502642,-122.4603802003026,77.69761,-1,-1,35.71042902585934,69.72230304340474,-9999,1425268996.889647,1.656547546386719,-36.62881469726562,-23.94491577148438,39.72102737426758,25.9439640045166,10,196118.144713,0.185791015625,-1.012237548828125,-0.12188720703125,196118.1374933333,-0.9989642417458456,0.8722768697424492,-0.05814745924079009,196118.1374933333,-2.883593212436805,1.049132521001006,1.350697533914783,-1.022216081619263,0.8934148550033569,-0.02742916904389858,-0.008821110241115093,-0.03910824656486511,0.001207260182127357,XTrueNorthZVertical,-0.4572599012684008,0.4863279672698202,0.6296533915064269,-0.3974105055739255,0.1892868131399155,-0.9758759140968323,-0.1087969839572906,0.6746888160705566,-36.21547317504883,-23.87701797485352,2,0.0.0.0,10.83.46.32,1,0
2015-03-01 20:03:16.920,36,1425268993.883276,37.7656638502642,-122.4603802003026,77.69761,-1,-1,35.71042902585934,69.72230304340474,-9999,1425268996.889647,1.656547546386719,-36.62881469726562,-23.94491577148438,39.72102737426758,25.9439640045166,10,196118.1937427917,0.2652435302734375,-0.9905548095703125,-0.1739959716796875,196118.1374933333,-0.9989642417458456,0.8722768697424492,-0.05814745924079009,196118.1374933333,-2.883593212436805,1.049132521001006,1.350697533914783,-1.022216081619263,0.8934148550033569,-0.02742916904389858,-0.008821110241115093,-0.03910824656486511,0.001207260182127357,XTrueNorthZVertical,-0.4572599012684008,0.4863279672698202,0.6296533915064269,-0.3974105055739255,0.1892868131399155,-0.9758759140968323,-0.1087969839572906,0.6746888160705566,-36.21547317504883,-23.87701797485352,2,0.0.0.0,10.83.46.32,1,0
2015-03-01 20:03:16.986,37,1425268993.883276,37.7656638502642,-122.4603802003026,77.69761,-1,-1,35.71042902585934,69.72230304340474,-9999,1425268996.941731,3.10595703125,-35.01445007324219,-25.62570953369141,37.20199203491211,23.4249267578125,10,196118.242790375,0.4312744140625,-0.93475341796875,-0.2501678466796875,196118.2410283333,-1.287916154755007,0.6326554885531527,-1.011799346619483,196118.1892590834,-2.697280534891054,0.9181864729425951,1.31214675865364,-1.211290240287781,1.054685115814209,-0.3198385536670685,0.02783467620611191,-0.02125506661832333,-0.01636926457285881,XTrueNorthZVertical,-0.4629967762039862,0.4560402064743427,0.6333281914701411,-0.4201865414617254,0.2032139003276825,-0.9667362570762634,-0.1553226262331009,2.526198387145996,-34.27867126464844,-26.47109222412109,2,0.0.0.0,10.83.46.32,1,0
2015-03-01 20:03:17.018,38,1425268993.883276,37.7656638502642,-122.4603802003026,77.69761,-1,-1,35.71042902585934,69.72230304340474,-9999,1425268996.993258,4.708831787109375,-33.14518737792969,-27.62271118164062,35.72019195556641,21.9431266784668,10,196118.2918317083,0.6533355712890625,-0.9828948974609375,-0.3189697265625,196118.2927975417,-1.098003740576475,-0.593172527496074,-2.008691116405029,196118.2410283333,-2.597982938659913,0.8690504791690051,1.247925353959341,-1.310918569564819,0.654221773147583,-0.9811363220214844,0.1570941209793091,-0.002263645874336362,-0.02623631246387959,XTrueNorthZVertical,-0.4713904120336955,0.4187807468083333,0.6430918996343268,-0.4345648243966852,0.2423199415206909,-0.9483283758163452,-0.2048275321722031,4.502981185913086,-32.69564819335938,-28.15751266479492,2,0.0.0.0,10.83.46.32,1,0
2015-03-01 20:03:17.111,39,1425268993.883276,37.7656638502642,-122.4603802003026,77.69761,-1,-1,35.71042902585934,69.72230304340474,-9999,1425268997.096872,8.39202880859375,-28.48905944824219,-30.88446807861328,45.17119598388672,31.39413070678711,10,196118.3408710417,0.632415771484375,-0.980224609375,-0.246124267578125,196118.3445634583,-0.4388250317788965,-1.946383266909317,-2.084577891666836,196118.2927975417,-2.604374138056056,0.8759980329985915,1.144368821997957,-1.121005773544312,-0.5716065168380737,-1.978028416633606,0.3355990946292877,-0.07244568318128586,-0.05415701121091843,XTrueNorthZVertical,-0.4739228135266409,0.3781412558389628,0.6731087254631263,-0.4234749267545631,0.3177364766597748,-0.910449206829071,-0.264812707901001,6.032203674316406,-31.39272117614746,-29.32979965209961,2,0.0.0.0,10.83.46.32,1,0
2015-03-01 20:03:17.116,40,1425268993.883276,37.7656638502642,-122.4603802003026,77.69761,-1,-1,35.71042902585934,69.72230304340474,-9999,1425268997.096872,8.39202880859375,-28.48905944824219,-30.88446807861328,45.17119598388672,31.39413070678711,10,196118.390005375,0.46954345703125,-0.9144134521484375,-0.1474456787109375,196118.3445634583,-0.4388250317788965,-1.946383266909317,-2.084577891666836,196118.3445634583,-2.683002526600167,0.8783602302059436,1.042063814803823,-0.461826890707016,-1.924817442893982,-2.053915500640869,0.244152307510376,-0.1167774721980095,0.07591693848371506,XTrueNorthZVertical,-0.4615273249415996,0.3549252381628145,0.7163464600906114,-0.3845365589847375,0.388263463973999,-0.8634471297264099,-0.3220412135124207,8.59101676940918,-27.94279670715332,-32.05498886108398,2,0.0.0.0,10.83.46.32,1,0
2015-03-01 20:03:17.184,41,1425268993.883276,37.7656638502642,-122.4603802003026,77.69761,-1,-1,35.71042902585934,69.72230304340474,-9999,1425268997.149333,8.630756378173828,-26.78974914550781,-32.34893035888672,55.13719940185547,41.36013412475586,10,196118.4389537083,0.5047607421875,-0.753265380859375,-0.207794189453125,196118.4481020833,-0.2594155923074195,-0.9625894559969983,-2.093833974351516,196118.3963325833,-2.787828537082514,0.8637863652672051,0.9554054722296935,-0.184683233499527,-1.85475766658783,-2.03661060333252,0.03063487261533737,-0.09786557406187057,0.227532759308815,XTrueNorthZVertical,-0.43939909537953,0.3455997864735297,0.7600614779464975,-0.3313544699317325,0.438908576965332,-0.8165478706359863,-0.3749784529209137,8.105281829833984,-26.68854713439941,-33.22880554199219,2,0.0.0.0,10.83.46.32,1,0
2015-03-01 20:03:17.214,42,1425268993.883276,37.7656638502642,-122.4603802003026,77.69761,-1,-1,35.71042902585934,69.72230304340474,-9999,1425268997.201559,8.033943176269531,-25.61721801757812,-33.16437530517578,66.23587036132812,52.45880889892578,10,196118.4879903333,0.35382080078125,-0.6462860107421875,-0.23431396484375,196118.4481020833,-0.2594155923074195,-0.9625894559969983,-2.093833974351516,196118.4481020833,-2.878562770105419,0.8731468387215869,0.8702579826600181,-0.2824170291423798,-0.9410240650177002,-2.063172101974487,0.01074625551700592,0.01122988481074572,0.2063273936510086,XTrueNorthZVertical,-0.430216577213305,0.3284096557993524,0.7912919130921338,-0.2844607448778519,0.4940144717693329,-0.7644952535629272,-0.4141215980052948,7.919393539428711,-26.00956344604492,-33.80700302124023,2,0.0.0.0,10.83.46.32,1,0
2015-03-01 20:03:17.282,43,1425268993.883276,37.7656638502642,-122.4603802003026,77.69761,-1,-1,35.71042902585934,69.72230304340474,-9999,1425268997.251659,8.460243225097656,-24.376708984375,-33.38070678710938,70.25138092041016,56.47431945800781,10,196118.5370545417,0.557342529296875,-0.5545196533203125,-0.314849853515625,196118.4998679167,0.1163425890650926,-0.03749890604496972,-0.9276786098993677,196118.4998679167,-2.943162065943779,0.8942725685079129,0.8145890286091618,0.09334142506122589,-0.01593374647200108,-0.8970171213150024,-0.2028731107711792,0.1065482795238495,0.2081338912248611,XTrueNorthZVertical,-0.4304417197606998,0.3161011700437391,0.8068899371791008,-0.2524452770372007,0.5350416898727417,-0.7274436354637146,-0.429599940776825,9.034194946289062,-24.45721817016602,-34.67499923706055,2,0.0.0.0,10.83.46.32,1,0
2015-03-01 20:03:17.314,44,1425268993.883276,37.7656638502642,-122.4603802003026,77.69761,-1,-1,35.71042902585934,69.72230304340474,-9999,1425268997.304718,9.705024719238281,-23.61198425292969,-33.56375885009766,72.00719451904297,58.23013305664062,10,196118.586094625,0.776824951171875,-0.55303955078125,-0.4086761474609375,196118.5516370834,-0.05201553083088264,0.7627586309706847,-1.099257290501576,196118.5516370834,-2.986236812463559,0.951087519596919,0.7729816217011417,-0.07501646876335144,0.7843235731124878,-1.068596124649048,0.04188203811645508,0.1365356147289276,0.09348820149898529,XTrueNorthZVertical,-0.4487781517725329,0.3011996982126961,0.8075912155002685,-0.2359520149688507,0.5827212333679199,-0.698272705078125,-0.4157538115978241,10.59537029266357,-24.05976486206055,-34.51077270507812,2,0.0.0.0,10.83.46.32,1,0
2015-03-01 20:03:17.371,45,1425268993.883276,37.7656638502642,-122.4603802003026,77.69761,-1,-1,35.71042902585934,69.72230304340474,-9999,1425268997.356853,11.85354614257812,-23.06820678710938,-33.33078002929688,74.65883636474609,60.88177108764648,10,196118.6351542083,0.800872802734375,-0.4814605712890625,-0.490631103515625,196118.6034064583,-0.162367339023842,0.7940997759431732,-0.4809059064793476,196118.6034064583,-3.005612530717884,1.01158864124971,0.7392650920993111,-0.185368075966835,0.8156644701957703,-0.4502450227737427,0.1565724909305573,0.1673210710287094,-0.05343384295701981,XTrueNorthZVertical,-0.4722063097314888,0.2846147896162928,0.801930455163448,-0.2300503859932423,0.6264017820358276,-0.6737450361251831,-0.3920312523841858,12.17953586578369,-23.62503814697266,-34.28766632080078,2,0.0.0.0,10.83.46.32,1,0
2015-03-01 20:03:17.413,46,1425268993.883276,37.7656638502642,-122.4603802003026,77.69761,-1,-1,35.71042902585934,69.72230304340474,-9999,1425268997.356853,11.85354614257812,-23.06820678710938,-33.33078002929688,74.65883636474609,60.88177108764648,10,196118.6841887083,0.67401123046875,-0.52423095703125,-0.3813934326171875,196118.6551723334,0.1566173079142519,-0.7357373996024137,-0.3095280282233315,196118.6551723334,-3.019372739065994,1.02044431153018,0.7220602239819385,0.1336168348789215,-0.7141728401184082,-0.2788674831390381,0.1446817964315414,0.1180244460701942,-0.03610005602240562,XTrueNorthZVertical,-0.4748599930684719,0.2797699264049437,0.8043207264260065,-0.2220471948410435,0.6396352052688599,-0.660932183265686,-0.3924735486507416,14.42582321166992,-22.85606384277344,-33.93558502197266,2,0.0.0.0,10.83.46.32,1,0
2015-03-01 20:03:17.468,47,1425268993.883276,37.7656638502642,-122.4603802003026,77.69761,-1,-1,35.71042902585934,69.72230304340474,-9999,1425268997.460511,12.39920043945312,-22.49043273925781,-33.59705352783203,76.150390625,62.37332534790039,10,196118.733245375,0.48455810546875,-0.5312957763671875,-0.27459716796875,196118.706941875,0.1848907576270781,-1.297712592824863,0.1241690868766175,196118.706941875,-3.028564791426645,0.9701270989393234,0.7252387706714961,0.161890521645546,-1.276148319244385,0.1548293083906174,-0.03556251153349876,0.1819451302289963,0.08662416785955429,XTrueNorthZVertical,-0.4529727558460918,0.28868059193218,0.8164549601618485,-0.2118502035940711,0.6173496246337891,-0.663314163684845,-0.4229584038257599,13.06752681732178,-22.99072647094727,-34.39177322387695,2,0.0.0.0,10.83.46.32,1,0
2015-03-01 20:03:17.522,48,1425268993.883276,37.7656638502642,-122.4603802003026,77.69761,-1,-1,35.71042902585934,69.72230304340474,-9999,1425268997.460511,12.39920043945312,-22.49043273925781,-33.59705352783203,76.150390625,62.37332534790039,10,196118.7822685,0.4802703857421875,-0.45928955078125,-0.277618408203125,196118.758711125,0.3711607663827083,-0.3948160284492281,0.4826827675586485,196118.758711125,-3.030937034047575,0.9263754549540232,0.7455433181853268,0.3481607437133789,-0.3732519149780273,0.5133427381515503,-0.07151596993207932,0.1276356279850006,0.1901971697807312,XTrueNorthZVertical,-0.4334976763897377,0.3023139362193286,0.8229171855766325,-0.2085506332950359,0.5873698592185974,-0.6783710718154907,-0.4413720965385437,11.65489959716797,-23.23538970947266,-34.73338317871094,2,0.0.0.0,10.83.46.32,1,0
2015-03-01 20:03:17.567,49,1425268993.883276,37.7656638502642,-122.4603802003026,77.69761,-1,-1,35.71042902585934,69.72230304340474,-9999,1425268997.510665,10.48939895629883,-23.03422546386719,-34.22943878173828,76.29608154296875,62.51902008056641,10,196118.8313199583,0.5756988525390625,-0.794677734375,-0.329742431640625,196118.8104769583,0.6860438789259712,0.3189241931813491,0.3870372012212157,196118.8104769583,-3.035115642389365,0.9322724965689098,0.7812306483443411,0.6630440354347229,0.340488076210022,0.4176968336105347,-0.0901557058095932,0.1587131023406982,0.1099330261349678,XTrueNorthZVertical,-0.4330950751392169,0.3175384609792377,0.8157461685760495,-0.2148398998683454,0.5701514482498169,-0.7041537761688232,-0.4231959581375122,9.885367393493652,-24.56699562072754,-34.36378860473633,2,0.0.0.0,10.83.46.32,1,0
2015-03-01 20:03:17.614,50,1425268993.883276,37.7656638502642,-122.4603802003026,77.69761,-1,-1,35.71042902585934,69.72230304340474,-9999,1425268997.564375,9.619758605957031,-24.4786376953125,-33.84668731689453,76.65103912353516,62.87397766113281,10,196118.8803601667,0.6642913818359375,-0.8507537841796875,-0.434356689453125,196118.862246375,1.147134801630693,1.271120663024313,0.7743931828249139,196118.862246375,-3.065724797260953,0.9991281792356428,0.8320375510348306,1.124135255813599,1.292684316635132,0.8050525188446045,0.08095798641443253,-0.1045518815517426,-0.01313901506364346,XTrueNorthZVertical,-0.4513210451565734,0.3378616421315684,0.7950007666068534,-0.2239031453604563,0.5663045644760132,-0.7393049597740173,-0.3643176555633545,10.30473041534424,-26.02319145202637,-33.14715576171875,2,0.0.0.0,10.83.46.32,1,0
2015-03-01 20:03:17.665,51,1425268993.883276,37.7656638502642,-122.4603802003026,77.69761,-1,-1,35.71042902585934,69.72230304340474,-9999,1425268997.615526,9.824382781982422,-26.008056640625,-32.74832916259766,76.04090118408203,62.26383972167969,10,196118.9294964584,0.45123291015625,-0.7159271240234375,-0.4690093994140625,196118.9140159583,1.382040523477786,0.6171550920605645,0.7745790714690014,196118.9140159583,-3.119782670019488,1.093525063537693,0.9011231224618904,1.359041213989258,0.6387184858322144,0.8052380681037903,-0.01890886761248112,0.004926048684865236,-0.2166486382484436,XTrueNorthZVertical,-0.4720659944619613,0.3668587974068115,0.7664494776118171,-0.2347840078440019,0.5513643026351929,-0.7840245366096497,-0.2851366400718689,10.89746570587158,-27.39680290222168,-31.82433319091797,2,0.0.0.0,10.83.46.32,1,0
2015-03-01 20:03:17.713,52,1425268993.883276,37.7656638502642,-122.4603802003026,77.69761,-1,-1,35.71042902585934,69.72230304340474,-9999,1425268997.668135,10.48940277099609,-28.06423950195312,-30.40186309814453,72.03602600097656,58.25896453857422,10,196118.9784185417,0.3852081298828125,-0.7539215087890625,-0.3243865966796875,196118.96578175,1.083443439948685,0.6217650239074917,0.564606662695557,196118.9140159583,-3.119782670019488,1.093525063537693,0.9011231224618904,1.359041213989258,0.6387184858322144,0.8052380681037903,-0.01890886761248112,0.004926048684865236,-0.2166486382484436,XTrueNorthZVertical,-0.4720659944619613,0.3668587974068115,0.7664494776118171,-0.2347840078440019,0.5513643026351929,-0.7840245366096497,-0.2851366400718689,10.89746570587158,-27.39680290222168,-31.82433319091797,2,0.0.0.0,10.83.46.32,1,0
2015-03-01 20:03:17.763,53,1425268993.883276,37.7656638502642,-122.4603802003026,77.69761,-1,-1,35.71042902585934,69.72230304340474,-9999,1425268997.723333,11.2737922668457,-30.34133911132812,-28.60456085205078,70.16580200195312,56.38873672485352,10,196119.027569125,0.414581298828125,-0.88958740234375,-0.286773681640625,196119.0175512917,0.6096899852089633,1.376346152434979,0.6161308403053201,196119.0175512917,3.042105568291066,1.269668207668748,1.000158739819066,0.5866910815238953,1.397909164428711,0.6467892527580261,-0.1164179220795631,-0.0301015842705965,-0.139866515994072,XTrueNorthZVertical,-0.5005818892896964,0.4114746100067567,0.7198379328289904,-0.2488770385718289,0.5158625245094299,-0.8415567278862,-0.160212829709053,11.04577350616455,-32.42519760131836,-26.62189102172852,2,0.0.0.0,10.83.46.32,1,0
2015-03-01 20:03:17.815,54,1425268993.883276,37.7656638502642,-122.4603802003026,77.69761,-1,-1,35.71042902585934,69.72230304340474,-9999,1425268997.796657,12.24574661254883,-33.28117370605469,-25.42600250244141,66.00871276855469,52.23165130615234,10,196119.0764911667,0.3730010986328125,-0.9117431640625,-0.234832763671875,196119.0693206667,-0.268541712730903,2.208050561918398,0.7630670250249159,196119.0175512917,3.042105568291066,1.269668207668748,1.000158739819066,0.5866910815238953,1.397909164428711,0.6467892527580261,-0.1164179220795631,-0.0301015842705965,-0.139866515994072,XTrueNorthZVertical,-0.5005818892896964,0.4114746100067567,0.7198379328289904,-0.2488770385718289,0.5158625245094299,-0.8415567278862,-0.160212829709053,11.04577350616455,-32.42519760131836,-26.62189102172852,2,0.0.0.0,10.83.46.32,1,0
2015-03-01 20:03:17.862,55,1425268993.883276,37.7656638502642,-122.4603802003026,77.69761,-1,-1,35.71042902585934,69.72230304340474,-9999,1425268997.848949,13.28591156005859,-34.2158203125,-23.84506225585938,61.23139572143555,47.45433044433594,10,196119.1255470417,0.3838653564453125,-0.9192657470703125,-0.130950927734375,196119.12108675,-0.9746636957471996,2.456810314072193,1.365989651587879,196119.0693206667,3.052306660516677,1.353898288426211,1.038257261310354,-0.2915403544902802,2.229613304138184,0.7937250733375549,-0.1351391077041626,-0.02232939004898071,-0.1507624536752701,XTrueNorthZVertical,-0.5260878249750648,0.4106096851666297,0.6899866795438288,-0.2802671606615732,0.4958263635635376,-0.8615207076072693,-0.1092625707387924,11.52020931243896,-33.06832885742188,-25.61050796508789,2,0.0.0.0,10.83.46.32,1,0
2015-03-01 20:03:17.917,56,1425268993.883276,37.7656638502642,-122.4603802003026,77.69761,-1,-1,35.71042902585934,69.72230304340474,-9999,1425268997.900229,14.58184814453125,-34.0458984375,-23.64536285400391,49.63724136352539,35.86017608642578,10,196119.1745797917,0.4951171875,-0.8829193115234375,-0.027984619140625,196119.1728560833,-1.303126266688776,2.990654536700135,1.817922229619927,196119.12108675,-3.137407273209412,1.391615702179456,1.084608011348091,-0.9976621270179749,2.478372812271118,1.396647453308105,-0.06079171597957611,-0.05109085887670517,-0.07504866272211075,XTrueNorthZVertical,-0.5498631614921965,0.3949838429791237,0.6567176930278654,-0.33220498418335,0.4597785174846649,-0.8841203451156616,-0.08327653259038925,13.34504890441895,-33.24005508422852,-24.47726058959961,2,0.0.0.0,10.83.46.32,1,0
2015-03-01 20:03:17.959,57,1425268993.883276,37.7656638502642,-122.4603802003026,77.69761,-1,-1,35.71042902585934,69.72230304340474,-9999,1425268997.952634,15.72432327270508,-33.38314819335938,-23.06290435791016,32.90406799316406,19.12700271606445,10,196119.22375225,0.6978759765625,-1.106674194335938,0.0490264892578125,196119.2246257083,-1.354951647817827,3.228855387763983,1.802216237091185,196119.1728560833,-2.968173178108709,1.37679838533589,1.155139752075504,-1.326124429702759,3.012216806411743,1.84857976436615,0.07529570162296295,0.02190706320106983,0.04198598116636276,XTrueNorthZVertical,-0.5667662586054736,0.3739705077393217,0.6145266805704285,-0.401595615946551,0.3962161540985107,-0.9148514270782471,-0.07784413546323776,13.9325065612793,-32.96872711181641,-24.5168514251709,2,0.0.0.0,10.83.46.32,1,0
2015-03-01 20:03:18.012,58,1425268993.883276,37.7656638502642,-122.4603802003026,77.69761,-1,-1,35.71042902585934,69.72230304340474,-9999,1425268998.004203,16.83268356323242,-33.06027221679688,-23.07954406738281,19.58992576599121,5.812861442565918,10,196119.2726805834,0.64581298828125,-0.7873382568359375,-0.2312774658203125,196119.2246257083,-1.354951647817827,3.228855387763983,1.802216237091185,196119.2246257083,-2.729216274589135,1.312261434005649,1.234332460184832,-1.377949476242065,3.250417709350586,1.832872748374939,0.378697007894516,-0.1627461761236191,0.1334344446659088,XTrueNorthZVertical,-0.5808563507825568,0.3469898059402565,0.5602173212730975,-0.477870839984573,0.319178968667984,-0.9439280033111572,-0.08440794795751572,14.31517696380615,-32.78227996826172,-24.54639434814453,2,0.0.0.0,10.83.46.32,1,0
2015-03-01 20:03:18.056,59,1425268993.883276,37.7656638502642,-122.4603802003026,77.69761,-1,-1,35.71042902585934,69.72230304340474,-9999,1425268998.004203,16.83268356323242,-33.06027221679688,-23.07954406738281,19.58992576599121,5.812861442565918,10,196119.321752375,0.5129241943359375,-0.880859375,-0.2016448974609375,196119.3281611667,-0.7072362496163858,0.8650237505136185,0.9506598258939885,196119.2763915417,-2.418375801599187,1.169992727871504,1.300458369030929,-1.122962355613708,2.546438932418823,1.707050085067749,0.3999207019805908,0.1763424426317215,-0.1270828694105148,XTrueNorthZVertical,-0.5896478181065941,0.3165725079847148,0.5024134369391621,-0.5474285785435683,0.2458923012018204,-0.9636806845664978,-0.1041945964097977,15.5508508682251,-32.39548110961914,-24.30702781677246,2,0.0.0.0,10.83.46.32,1,0
2015-03-01 20:03:18.117,60,1425268993.883276,37.7656638502642,-122.4603802003026,77.69761,-1,-1,35.71042902585934,69.72230304340474,-9999,1425268998.107993,18.04336547851562,-32.87336730957031,-23.46231079101562,357.972900390625,344.1958312988281,10,196119.3707927917,0.3020477294921875,-1.065155029296875,-0.12042236328125,196119.3281611667,-0.7072362496163858,0.8650237505136185,0.9506598258939885,196119.3281611667,-2.137791448823273,0.9762626820742463,1.337196353366488,-0.7300350069999695,0.8868960738182068,0.9812867641448975,0.3211628496646881,0.09198000282049179,-0.07198704034090042,XTrueNorthZVertical,-0.5860095733158306,0.3029254882270792,0.4677147135334534,-0.5882787500341625,0.1917613446712494,-0.97283935546875,-0.1296578645706177,15.55918884277344,-32.36418533325195,-24.34335517883301,2,0.0.0.0,10.83.46.32,1,0
2015-03-01 20:03:18.156,61,1425268993.883276,37.7656638502642,-122.4603802003026,77.69761,-1,-1,35.71042902585934,69.72230304340474,-9999,1425268998.107993,18.04336547851562,-32.87336730957031,-23.46231079101562,357.972900390625,344.1958312988281,10,196119.4198706667,0.25048828125,-1.318023681640625,0.0200653076171875,196119.3799305417,-0.4473828336257572,0.4902578629632698,0.3590585634410612,196119.3799305417,-1.941431370428904,0.8156606049916634,1.346224032549533,-0.470181405544281,0.5121299624443054,0.3896852135658264,0.139890044927597,-0.09026558697223663,0.0322062112390995,XTrueNorthZVertical,-0.5791089662717817,0.2971843151320148,0.4527280601989428,-0.6093862518669906,0.1621576845645905,-0.9748894572257996,-0.1526285707950592,15.25658798217773,-32.28136825561523,-24.64299964904785,2,0.0.0.0,10.83.46.32,1,0
2015-03-01 20:03:18.213,62,1425268993.883276,37.7656638502642,-122.4603802003026,77.69761,-1,-1,35.71042902585934,69.72230304340474,-9999,1425268998.159541,18.14567184448242,-33.07730102539062,-23.46231079101562,354.1694030761719,340.392333984375,10,196119.4689045833,0.18023681640625,-1.06329345703125,-0.1246337890625,196119.4316966667,-0.3596926620966091,1.033636734925914,0.5910489228428447,196119.4316966667,-1.807715754652749,0.722423526467017,1.344817823725539,-0.3824909627437592,1.055508613586426,0.6216751933097839,0.07902321964502335,-0.3067967295646667,0.1853335797786713,XTrueNorthZVertical,-0.5776700600159863,0.2867956213815274,0.4388528162401723,-0.6256626818249856,0.1481496244668961,-0.9745753407478333,-0.1680911481380463,15.25951957702637,-31.91383361816406,-25.11537742614746,2,0.0.0.0,10.83.46.32,1,0
2015-03-01 20:03:18.254,63,1425268993.883276,37.7656638502642,-122.4603802003026,77.69761,-1,-1,35.71042902585934,69.72230304340474,-9999,1425268998.211511,18.28208541870117,-33.3831787109375,-22.73007202148438,349.5274353027344,335.7503662109375,10,196119.51798275,0.1173095703125,-1.043899536132812,-0.0439605712890625,196119.4834660834,0.168751735105089,0.8222520518264008,1.035792563828333,196119.4834660834,-1.614996376012972,0.5877514098928722,1.369296739553722,0.1459536403417587,0.8441237211227417,1.066418647766113,0.0583820715546608,-0.06811452656984329,0.04507825523614883,XTrueNorthZVertical,-0.5805731704815021,0.2822375892300256,0.4090921992791536,-0.6449188490534905,0.1109752282500267,-0.9797675609588623,-0.1665534675121307,15.3152027130127,-32.20746231079102,-24.70326995849609,2,0.0.0.0,10.83.46.32,1,0
2015-03-01 20:03:18.312,64,1425268993.883276,37.7656638502642,-122.4603802003026,77.69761,-1,-1,35.71042902585934,69.72230304340474,-9999,1425268998.264117,17.75347900390625,-34.1138916015625,-21.88135528564453,343.4125671386719,329.635498046875,10,196119.5670392917,0.0384521484375,-0.911102294921875,-0.0939178466796875,196119.5352355833,0.1491191778651338,0.2000787653238,0.8460348793091355,196119.5352355833,-1.405238121588262,0.4054304377255818,1.400557865562247,0.1263213008642197,0.2219502478837967,0.8766606450080872,0.02757020480930805,-0.03766422346234322,0.1010109782218933,XTrueNorthZVertical,-0.5812135803249303,0.2904292769268179,0.385007180337969,-0.6554472462911883,0.0668206661939621,-0.9855443835258484,-0.1556832194328308,14.8823938369751,-32.79341125488281,-24.19161987304688,2,0.0.0.0,10.83.46.32,1,0
2015-03-01 20:03:18.352,65,1425268993.883276,37.7656638502642,-122.4603802003026,77.69761,-1,-1,35.71042902585934,69.72230304340474,-9999,1425268998.315827,16.76447296142578,-35.47334289550781,-21.44866180419922,340.3771057128906,326.6000366210938,10,196119.616120875,0.07415771484375,-0.82281494140625,-0.0222015380859375,196119.5870018333,0.20505035444676,0.06557821131432917,0.5802239719599996,196119.5870018333,-1.2064017112489,0.2144534154518169,1.418208711020508,0.1822527199983597,0.08744943886995316,0.6108493804931641,0.01426876056939363,0.1171042248606682,0.08523625880479813,XTrueNorthZVertical,-0.5792379206823844,0.3003767662077795,0.3706736211910795,-0.6609525766286489,0.03234684094786644,-0.9883810877799988,-0.1485144644975662,13.21444129943848,-33.94292831420898,-23.56658744812012,2,0.0.0.0,10.83.46.32,1,0
2015-03-01 20:03:18.413,66,1425268993.883276,37.7656638502642,-122.4603802003026,77.69761,-1,-1,35.71042902585934,69.72230304340474,-9999,1425268998.367984,15.75841522216797,-36.03413391113281,-21.29888153076172,337.918212890625,324.1411437988281,10,196119.6651677917,0.0615386962890625,-0.793243408203125,-0.0377655029296875,196119.638771375,0.07692088071308566,0.1256806971113464,0.5263386357277724,196119.638771375,-1.010074236601371,0.02830101632461963,1.428701068984844,0.05412347987294197,0.1475517153739929,0.5569637417793274,0.07878679782152176,0.1966933012008667,0.1266530901193619,XTrueNorthZVertical,-0.5784536838694077,0.3075888014982627,0.3574008331771077,-0.6656163472210825,0.00400738837197423,-0.9899214506149292,-0.1415609270334244,12.42491245269775,-34.46930313110352,-23.22964668273926,2,0.0.0.0,10.83.46.32,1,0
2015-03-01 20:03:18.450,67,1425268993.883276,37.7656638502642,-122.4603802003026,77.69761,-1,-1,35.71042902585934,69.72230304340474,-9999,1425268998.422777,14.82056427001953,-36.08511352539062,-21.34880828857422,336.7073974609375,322.9303283691406,10,196119.7143680833,-0.0204925537109375,-0.910369873046875,0.0124664306640625,196119.6905407917,0.001703357833214681,-0.4670460172182482,0.1096436736591073,196119.6905407917,-0.8853889513373663,-0.1032522143300219,1.4275941070283,-0.02109383791685104,-0.4451752007007599,0.1402684897184372,0.03489667922258377,0.166552409529686,0.1149452403187752,XTrueNorthZVertical,-0.5740977641245959,0.3153333284372846,0.3538980122513978,-0.6676322779503453,-0.01470930129289627,-0.9897640943527222,-0.1419533044099808,11.94567489624023,-34.70067977905273,-23.1363639831543,2,0.0.0.0,10.83.46.32,1,0
2015-03-01 20:03:18.512,68,1425268993.883276,37.7656638502642,-122.4603802003026,77.69761,-1,-1,35.71042902585934,69.72230304340474,-9999,1425268998.497272,13.52462005615234,-36.11909484863281,-21.68163299560547,337.5966491699219,323.819580078125,10,196119.763303875,-0.0536041259765625,-0.984619140625,0.0600433349609375,196119.742307,0.116423016530013,-0.5690554732965344,-0.09593238878683431,196119.6905407917,-0.8853889513373663,-0.1032522143300219,1.4275941070283,-0.02109383791685104,-0.4451752007007599,0.1402684897184372,0.03489667922258377,0.166552409529686,0.1149452403187752,XTrueNorthZVertical,-0.5740977641245959,0.3153333284372846,0.3538980122513978,-0.6676322779503453,-0.01470930129289627,-0.9897640943527222,-0.1419533044099808,11.94567489624023,-34.70067977905273,-23.1363639831543,2,0.0.0.0,10.83.46.32,1,0
2015-03-01 20:03:18.548,69,1425268993.883276,37.7656638502642,-122.4603802003026,77.69761,-1,-1,35.71042902585934,69.72230304340474,-9999,1425268998.497272,13.52462005615234,-36.11909484863281,-21.68163299560547,337.5966491699219,323.819580078125,10,196119.8124464584,-0.054443359375,-0.949127197265625,0.059600830078125,196119.794076625,0.1959042603151008,-0.1085632292048621,-0.06244127386632484,196119.794076625,-0.8510287043407774,-0.1821248771038541,1.457968374236587,0.1732479929924011,-0.08662337809801102,-0.03190552815794945,-0.02803934179246426,0.01749116368591785,0.1731961965560913,XTrueNorthZVertical,-0.5762014388319698,0.3356017631680401,0.3617762654775893,-0.6515222978658621,-0.02039205469191074,-0.9936416745185852,-0.1107267141342163,10.51635360717773,-35.1546516418457,-23.14485549926758,2,0.0.0.0,10.83.46.32,1,0
2015-03-01 20:03:18.618,70,1425268993.883276,37.7656638502642,-122.4603802003026,77.69761,-1,-1,35.71042902585934,69.72230304340474,-9999,1425268998.600747,13.25179290771484,-37.17263793945312,-20.91611480712891,338.8079528808594,325.0308837890625,10,196119.8613719167,-0.048309326171875,-1.02947998046875,0.0576019287109375,196119.8458462083,0.1828947183900637,0.202933940328474,-0.1375581292569908,196119.8458462083,-0.815601221519099,-0.2121375921070471,1.474908279614498,0.160302072763443,0.2249025702476501,-0.107052244246006,-0.03756566345691681,0.01753150671720505,0.1508613079786301,XTrueNorthZVertical,-0.5827180513352697,0.3371084978377415,0.3572501349802117,-0.6474333068533639,-0.02015833370387554,-0.9954062700271606,-0.09359506517648697,10.35827445983887,-35.56541061401367,-22.58174896240234,2,0.0.0.0,10.83.46.32,1,0
2015-03-01 20:03:18.646,71,1425268993.883276,37.7656638502642,-122.4603802003026,77.69761,-1,-1,35.71042902585934,69.72230304340474,-9999,1425268998.600747,13.25179290771484,-37.17263793945312,-20.91611480712891,338.8079528808594,325.0308837890625,10,196119.910442875,0.0192413330078125,-1.168197631835938,0.06494140625,196119.8976122917,0.3078859230951886,0.4322773839228277,-0.3050355417804769,196119.8976122917,-0.9050169633324977,-0.1072596112139058,1.493945270743974,0.2853376269340515,0.4542660713195801,-0.2745572626590729,-0.005117043852806091,-0.13744255900383,0.1454566866159439,XTrueNorthZVertical,-0.5929636521863703,0.3320044038895428,0.3531048478543211,-0.6430273414392119,-0.008219137787818909,-0.9970484375953674,-0.07633436471223831,10.9902811050415,-36.13284301757812,-21.3485164642334,2,0.0.0.0,10.83.46.32,1,0
2015-03-01 20:03:18.711,72,1425268993.883276,37.7656638502642,-122.4603802003026,77.69761,-1,-1,35.71042902585934,69.72230304340474,-9999,1425268998.704551,15.21274948120117,-37.73344421386719,-19.46829986572266,337.4411010742188,323.6640319824219,10,196119.9594812084,0.0383758544921875,-1.32012939453125,-0.034393310546875,196119.949381875,0.4786976133034539,0.8204070138231939,-0.2662122457254107,196119.8976122917,-0.9050169633324977,-0.1072596112139058,1.493945270743974,0.2853376269340515,0.4542660713195801,-0.2745572626590729,-0.005117043852806091,-0.13744255900383,0.1454566866159439,XTrueNorthZVertical,-0.5929636521863703,0.3320044038895428,0.3531048478543211,-0.6430273414392119,-0.008219137787818909,-0.9970484375953674,-0.07633436471223831,10.9902811050415,-36.13284301757812,-21.3485164642334,2,0.0.0.0,10.83.46.32,1,0
2015-03-01 20:03:18.745,73,1425268993.883276,37.7656638502642,-122.4603802003026,77.69761,-1,-1,35.71042902585934,69.72230304340474,-9999,1425268998.704551,15.21274948120117,-37.73344421386719,-19.46829986572266,337.4411010742188,323.6640319824219,10,196120.008647,0.292572021484375,-1.154556274414062,-0.26544189453125,196120.0011515,0.6455222850437615,0.6677048190274675,-0.123210881516407,196120.0011515,-1.525451852585451,0.5884016482247426,1.535315236895493,0.6229744553565979,0.6896930336952209,-0.0927332416176796,0.2437995672225952,-0.2702369391918182,-0.1707633137702942,XTrueNorthZVertical,-0.6246403854706546,0.3083346329567809,0.3301823580739842,-0.6369723430479812,0.01968920417129993,-0.9993706345558167,-0.02950828522443771,12.73138236999512,-36.50602340698242,-19.68120574951172,2,0.0.0.0,10.83.46.32,1,0
2015-03-01 20:03:18.784,74,1425268993.883276,37.7656638502642,-122.4603802003026,77.69761,-1,-1,35.71042902585934,69.72230304340474,-9999,1425268998.75677,16.4063835144043,-38.17526245117188,-18.27011108398438,336.6551208496094,322.8780517578125,10,196120.0575755833,0.0514068603515625,-0.9817657470703125,-0.1482391357421875,196120.0011515,0.6455222850437615,0.6677048190274675,-0.123210881516407,196120.0011515,-1.525451852585451,0.5884016482247426,1.535315236895493,0.6229744553565979,0.6896930336952209,-0.0927332416176796,0.2437995672225952,-0.2702369391918182,-0.1707633137702942,XTrueNorthZVertical,-0.6246403854706546,0.3083346329567809,0.3301823580739842,-0.6369723430479812,0.01968920417129993,-0.9993706345558167,-0.02950828522443771,12.73138236999512,-36.50602340698242,-19.68120574951172,2,0.0.0.0,10.83.46.32,1,0
2015-03-01 20:03:18.842,75,1425268993.883276,37.7656638502642,-122.4603802003026,77.69761,-1,-1,35.71042902585934,69.72230304340474,-9999,1425268998.808502,16.73036575317383,-38.05632019042969,-17.28824615478516,335.5299072265625,321.7528381347656,10,196120.106736625,-0.080078125,-1.067626953125,-0.0073699951171875,196120.10468725,0.07665110249466063,-0.9195426527691756,-0.3683513977487837,196120.0529174583,-2.307853319938367,1.367839669637807,1.555670061401233,0.3043051064014435,-0.8122541308403015,-0.03834354877471924,0.0977327898144722,0.05202488228678703,-0.1934842169284821,XTrueNorthZVertical,-0.631825050477155,0.3150755613781725,0.3253927789182781,-0.6290024229464164,0.0148160345852375,-0.999885618686676,-0.003048992482945323,13.46866798400879,-37.27326202392578,-17.64728736877441,2,0.0.0.0,10.83.46.32,1,0
2015-03-01 20:03:18.911,76,1425268993.883276,37.7656638502642,-122.4603802003026,77.69761,-1,-1,35.71042902585934,69.72230304340474,-9999,1425268998.862099,16.55984497070312,-38.15827941894531,-16.45616912841797,336.7969360351562,323.0198669433594,10,196120.1556625417,-0.029388427734375,-0.921234130859375,0.0539703369140625,196120.1564569167,0.07716669048169997,0.0333204062946354,-0.003426423058495948,196120.10468725,-2.563290775134223,1.568618455153338,1.539537696598038,0.05410372093319893,-0.897554874420166,-0.3378743529319763,-0.0971718356013298,-0.083603136241436,-0.02666533179581165,XTrueNorthZVertical,-0.6266207507281409,0.3275857158843398,0.3470336276210975,-0.616118257511039,0.03125386312603951,-0.9995114803314209,-6.806701276218519e-05,13.12405109405518,-37.32552337646484,-17.79585075378418,2,0.0.0.0,10.83.46.32,1,0
2015-03-01 20:03:18.940,77,1425268993.883276,37.7656638502642,-122.4603802003026,77.69761,-1,-1,35.71042902585934,69.72230304340474,-9999,1425268998.912167,15.99713134765625,-38.1072998046875,-16.87222290039062,339.8517150878906,326.0746459960938,10,196120.2047262084,0.0002288818359375,-0.7346954345703125,0.12335205078125,196120.2082230417,-0.09680510667605328,0.5853236591313924,0.2080211106427433,196120.1564569167,-2.699362050411817,1.688721671164758,1.533289176463619,0.05461955443024635,0.05530795827507973,0.02705029770731926,-0.06662668287754059,0.07806255668401718,0.04955853149294853,XTrueNorthZVertical,-0.6263629849569439,0.3314744530724617,0.3530085842222799,-0.6108838268724855,0.03723825514316559,-0.9992966651916504,0.004411804024130106,12.93439960479736,-37.17015075683594,-18.25401878356934,2,0.0.0.0,10.83.46.32,1,0
2015-03-01 20:03:18.984,78,1425268993.883276,37.7656638502642,-122.4603802003026,77.69761,-1,-1,35.71042902585934,69.72230304340474,-9999,1425268998.964236,16.18470001220703,-38.43017578125,-16.88886260986328,339.0570678710938,325.2799987792969,10,196120.253762,0.0840301513671875,-0.7988433837890625,0.0745849609375,196120.2082230417,-0.09680510667605328,0.5853236591313924,0.2080211106427433,196120.2082230417,-2.660038967491715,1.666795649488657,1.540743411850916,-0.1193520128726959,0.607310950756073,0.2384975254535675,-0.02968156710267067,0.2648530006408691,0.1204718127846718,XTrueNorthZVertical,-0.6275505757140863,0.3280554725555491,0.3456820115017973,-0.6156816070049496,0.02991044893860817,-0.9995484352111816,0.002880236366763711,12.93515300750732,-37.25274276733398,-18.08433151245117,2,0.0.0.0,10.83.46.32,1,0
2015-03-01 20:03:19.038,79,1425268993.883276,37.7656638502642,-122.4603802003026,77.69761,-1,-1,35.71042902585934,69.72230304340474,-9999,1425268999.02194,16.42343139648438,-38.49813842773438,-16.85556793212891,332.9357299804688,319.1586608886719,10,196120.3029398333,0.25970458984375,-0.9291839599609375,-0.04803466796875,196120.311762375,0.06522827194709277,1.023601943938496,0.4559861755272582,196120.2599925417,-2.037495839867456,1.098140233070416,1.55585206494208,-0.2379395514726639,1.357452273368835,0.3934773802757263,0.07072410732507706,0.2010449469089508,0.08138850331306458,XTrueNorthZVertical,-0.6305037890432126,0.3147430733149584,0.3253107052519092,-0.6305352704518317,0.01330604683607817,-0.9998883605003357,-0.006803539581596851,13.04160785675049,-37.273193359375,-17.96533584594727,2,0.0.0.0,10.83.46.32,1,0
2015-03-01 20:03:19.082,80,1425268993.883276,37.7656638502642,-122.4603802003026,77.69761,-1,-1,35.71042902585934,69.72230304340474,-9999,1425268999.02194,16.42343139648438,-38.49813842773438,-16.85556793212891,332.9357299804688,319.1586608886719,10,196120.3518644167,0.3044281005859375,-1.020248413085938,-0.0624847412109375,196120.311762375,0.06522827194709277,1.023601943938496,0.4559861755272582,196120.311762375,-0.2665250549815119,-0.6080913361122344,1.556250314125495,0.04281963780522346,1.045802235603333,0.4864650666713715,0.2680149376392365,0.07071024924516678,-0.03609590232372284,XTrueNorthZVertical,-0.6354793870726344,0.3003274309585805,0.2985792672840978,-0.6456158427428436,-0.008310355246067047,-0.9998942017555237,-0.01193876564502716,13.42875003814697,-37.3155517578125,-17.58823394775391,2,0.0.0.0,10.83.46.32,1,0
2015-03-01 20:03:19.137,81,1425268993.883276,37.7656638502642,-122.4603802003026,77.69761,-1,-1,35.71042902585934,69.72230304340474,-9999,1425268999.093581,16.55984497070312,-39.21183776855469,-15.65737915039062,326.3315734863281,312.5545043945312,10,196120.4009317083,0.2410430908203125,-1.019073486328125,-0.0503692626953125,196120.3635284167,0.1474666864087396,0.2314747714147442,0.4636038815093208,196120.3635284167,0.5617643906560938,-1.407697873551277,1.536898750451474,0.1250583082437515,0.2536748349666595,0.4940824508666992,0.3180791139602661,-0.02428662590682507,-0.05116797238588333,XTrueNorthZVertical,-0.6380722696858385,0.3001869322496999,0.2802183691234392,-0.6513288435215571,-0.03344167396426201,-0.9994255304336548,-0.005503168795257807,13.25252819061279,-37.86239624023438,-16.52081108093262,2,0.0.0.0,10.83.46.32,1,0
2015-03-01 20:03:19.184,82,1425268993.883276,37.7656638502642,-122.4603802003026,77.69761,-1,-1,35.71042902585934,69.72230304340474,-9999,1425268999.145464,16.04829025268555,-39.755615234375,-15.12485504150391,323.2725524902344,309.4954833984375,10,196120.4499759167,0.1884765625,-1.134658813476562,-0.129119873046875,196120.41529825,-0.2471171143934336,0.05989928660584421,0.181189230027977,196120.41529825,0.5300851655861303,-1.368386779728758,1.518085650199172,-0.2695252895355225,0.08209913969039917,0.2116674780845642,0.297918289899826,-0.03411898761987686,-0.05349533259868622,XTrueNorthZVertical,-0.6348210648104253,0.3028306863200816,0.2725329504275512,-0.6565223487894161,-0.05161091312766075,-0.9986110925674438,-0.01059158239513636,12.83135604858398,-38.07783508300781,-16.35733604431152,2,0.0.0.0,10.83.46.32,1,0
2015-03-01 20:03:19.236,83,1425268993.883276,37.7656638502642,-122.4603802003026,77.69761,-1,-1,35.71042902585934,69.72230304340474,-9999,1425268999.196303,15.60494232177734,-39.61965942382812,-14.92514801025391,322.8312072753906,309.0541381835938,10,196120.4991522084,0.1789398193359375,-1.186492919921875,-0.0787506103515625,196120.4670677083,-0.2375004396971575,-0.5574733857157798,-0.3341156629874881,196120.4670677083,0.2401701282627362,-1.090635007646503,1.515894935359305,-0.2599084079265594,-0.5352737307548523,-0.303637683391571,0.2196741551160812,-0.147762194275856,-0.09991186112165451,XTrueNorthZVertical,-0.6286233981574437,0.3035767677694695,0.2796124438173037,-0.6591590574777808,-0.04866890236735344,-0.9984933137893677,-0.02534753829240799,12.47477722167969,-38.04970550537109,-16.69513511657715,2,0.0.0.0,10.83.46.32,1,0
2015-03-01 20:03:19.282,84,1425268993.883276,37.7656638502642,-122.4603802003026,77.69761,-1,-1,35.71042902585934,69.72230304340474,-9999,1425268999.25035,15.77545928955078,-39.27978515625,-15.55752563476562,324.1939697265625,310.4169006347656,10,196120.5480866667,0.155303955078125,-1.39459228515625,0.0172119140625,196120.5188341667,-0.02351278294820059,-1.040808627741498,-0.6978233067435007,196120.5188341667,-0.2206025121103943,-0.6691553193862643,1.530340623808167,-0.04592049494385719,-1.018609285354614,-0.6673456430435181,0.1820561289787292,-0.3739108741283417,-0.007293879520148039,XTrueNorthZVertical,-0.6242042524551533,0.3074209314717476,0.3010592056136133,-0.6520926232201204,-0.02508896961808205,-0.9991818070411682,-0.03172284364700317,12.6423282623291,-37.45065689086914,-17.88148498535156,2,0.0.0.0,10.83.46.32,1,0
2015-03-01 20:03:19.333,85,1425268993.883276,37.7656638502642,-122.4603802003026,77.69761,-1,-1,35.71042902585934,69.72230304340474,-9999,1425268999.30232,15.4173698425293,-38.88894653320312,-16.60593414306641,329.9902038574219,316.213134765625,10,196120.597262875,0.0553741455078125,-1.054229736328125,-0.0046844482421875,196120.5706036667,-0.1134205687170576,-1.174837802238024,-0.4447433746693796,196120.5706036667,-1.022923051318471,0.07552967757537599,1.535556864171552,-0.1358280628919601,-1.152638673782349,-0.4142660200595856,0.102520264685154,-0.2722883224487305,0.02963889762759209,XTrueNorthZVertical,-0.6185220045699037,0.3160134474402341,0.3290208159993208,-0.639774449295812,0.002658570650964975,-0.9993791580200195,-0.03513206169009209,12.8148717880249,-37.16643905639648,-18.34564018249512,2,0.0.0.0,10.83.46.32,1,0
2015-03-01 20:03:19.383,86,1425268993.883276,37.7656638502642,-122.4603802003026,77.69761,-1,-1,35.71042902585934,69.72230304340474,-9999,1425268999.352956,15.0933837890625,-38.2261962890625,-18.02047729492188,334.882080078125,321.1050109863281,10,196120.6461977084,-0.010711669921875,-0.971435546875,0.1070098876953125,196120.6223735,-0.2649483094720591,-1.682719666347112,-0.2738563170022651,196120.6223735,-1.287976525048254,0.2709220733781591,1.522954454370828,-0.2873556017875671,-1.660520672798157,-0.2433792501688004,0.0164982508867979,-0.002792153274640441,0.09980566799640656,XTrueNorthZVertical,-0.6054242885530541,0.3322975980115728,0.356073667099781,-0.6294849428038243,0.0127986241132021,-0.9988557696342468,-0.04607947543263435,12.5860481262207,-36.79781723022461,-19.22601509094238,2,0.0.0.0,10.83.46.32,1,0
2015-03-01 20:03:19.431,87,1425268993.883276,37.7656638502642,-122.4603802003026,77.69761,-1,-1,35.71042902585934,69.72230304340474,-9999,1425268999.404421,14.00206756591797,-37.4105224609375,-19.58478546142578,339.6690063476562,325.8919372558594,10,196120.6953251667,-0.1174468994140625,-0.982421875,0.0413665771484375,196120.6741395833,-0.303159611108625,-2.065713922717478,-0.3265030170114966,196120.6741395833,-1.418241731735771,0.3048516075835505,1.503192303100982,-0.3255573809146881,-2.043512344360352,-0.2960292994976044,-0.07659624516963959,0.01858974248170853,0.1578980386257172,XTrueNorthZVertical,-0.5844316389801233,0.3552754989080775,0.39154422935189,-0.6155583710166814,0.02027605660259724,-0.9977157115936279,-0.06443795561790466,10.66375255584717,-36.14043426513672,-21.50072860717773,2,0.0.0.0,10.83.46.32,1,0
2015-03-01 20:03:19.470,88,1425268993.883276,37.7656638502642,-122.4603802003026,77.69761,-1,-1,35.71042902585934,69.72230304340474,-9999,1425268999.45579,12.02405548095703,-37.07064819335938,-20.91610717773438,345.8677062988281,332.0906372070312,10,196120.7443113333,-0.0867767333984375,-0.855560302734375,0.01507568359375,196120.7259094584,0.111013337407735,-1.710750235768523,-0.3154122826518616,196120.7259094584,-1.592261421271707,0.3824037713079017,1.492683702819149,0.08861727267503738,-1.688548564910889,-0.2849374115467072,-0.1541945785284042,0.09092964231967926,0.08211688697338104,XTrueNorthZVertical,-0.5659710512478681,0.3787852294475186,0.4248696290590314,-0.5963927647430576,0.02911828085780144,-0.9969507455825806,-0.07239703834056854,9.652102470397949,-35.87383651733398,-22.40608406066895,2,0.0.0.0,10.83.46.32,1,0
2015-03-01 20:03:19.530,89,1425268999.47627,37.76572975635248,-122.4602799973153,81.92574,-1,-1,10,65,-9999,1425268999.507936,10.13130569458008,-36.47590637207031,-22.23078918457031,352.9738159179688,339.1967468261719,10,196120.7933854584,-0.0126190185546875,-0.810272216796875,0.0247344970703125,196120.7776790417,0.2042684503507127,-1.286576052094479,-0.2137527659408119,196120.7776790417,-1.778516164643697,0.4988050304350027,1.497004599558051,0.181872621178627,-1.264374613761902,-0.1832782030105591,-0.06555697321891785,0.182794988155365,0.09481698274612427,XTrueNorthZVertical,-0.5559182676613047,0.3982259733704052,0.4455973536152295,-0.5777663582258875,0.03526827692985535,-0.99727863073349,-0.06474190950393677,8.333215713500977,-35.79867553710938,-23.04647827148438,2,0.0.0.0,10.83.46.32,1,0
2015-03-01 20:03:19.569,90,1425268999.47627,37.76572975635248,-122.4602799973153,81.92574,-1,-1,10,65,-9999,1425268999.559636,8.664848327636719,-36.54389953613281,-23.02959442138672,357.8166809082031,344.0396118164062,10,196120.8425324583,-0.0048065185546875,-0.845001220703125,0.04095458984375,196120.82944525,0.0903056620357149,-1.538487389082273,-0.3160543707906797,196120.7776790417,-1.778516164643697,0.4988050304350027,1.497004599558051,0.181872621178627,-1.264374613761902,-0.1832782030105591,-0.06555697321891785,0.182794988155365,0.09481698274612427,XTrueNorthZVertical,-0.5559182676613047,0.3982259733704052,0.4455973536152295,-0.5777663582258875,0.03526827692985535,-0.99727863073349,-0.06474190950393677,8.333215713500977,-35.79867553710938,-23.04647827148438,2,0.0.0.0,10.83.46.32,1,0
2015-03-01 20:03:19.626,91,1425268999.47627,37.76572975635248,-122.4602799973153,81.92574,-1,-1,10,65,-9999,1425268999.61153,7.266593933105469,-36.71382141113281,-23.62869262695312,3.154261589050293,349.377197265625,10,196120.8915046667,-0.0044403076171875,-0.909820556640625,0.077850341796875,196120.881215,0.1176797622484214,-1.40415674475035,-0.3977801267424863,196120.881215,-2.142607504872888,0.7177613372676978,1.489097567540352,0.09528434276580811,-1.381955623626709,-0.3673061430454254,-0.06035695970058441,0.1214203685522079,0.1355703920125961,XTrueNorthZVertical,-0.5306309389835198,0.433236600998938,0.490420383842904,-0.5387250817370461,0.05367361009120941,-0.9966645240783691,-0.06147370859980583,5.793625831604004,-35.95019149780273,-23.58273696899414,2,0.0.0.0,10.83.46.32,1,0
2015-03-01 20:03:19.666,92,1425268999.47627,37.76572975635248,-122.4602799973153,81.92574,-1,-1,10,65,-9999,1425268999.61153,7.266593933105469,-36.71382141113281,-23.62869262695312,3.154261589050293,349.377197265625,10,196120.94055675,-0.022247314453125,-0.947113037109375,0.076812744140625,196120.932984875,0.1122482452052048,-0.9193727430916285,-0.3989998545217426,196120.881215,-2.142607504872888,0.7177613372676978,1.489097567540352,0.09528434276580811,-1.381955623626709,-0.3673061430454254,-0.06035695970058441,0.1214203685522079,0.1355703920125961,XTrueNorthZVertical,-0.5306309389835198,0.433236600998938,0.490420383842904,-0.5387250817370461,0.05367361009120941,-0.9966645240783691,-0.06147370859980583,5.793625831604004,-35.95019149780273,-23.58273696899414,2,0.0.0.0,10.83.46.32,1,0
2015-03-01 20:03:19.725,93,1425268999.47627,37.76572975635248,-122.4602799973153,81.92574,-1,-1,10,65,-9999,1425268999.716617,5.561412811279297,-36.71382141113281,-23.66196441650391,11.22893810272217,357.4518737792969,10,196120.9896330417,-0.0349578857421875,-1.011642456054688,0.066925048828125,196120.9847511667,0.05445791586659431,-0.5122736830627369,-0.4409763333074626,196120.932984875,-2.341644146479892,0.8593707806099246,1.479024600701954,0.08985375612974167,-0.8971717357635498,-0.3685258328914642,-0.08361933380365372,0.04420806840062141,0.1448723077774048,XTrueNorthZVertical,-0.5220483004558875,0.4444637612546108,0.5093048677259883,-0.5201212368919294,0.06941340118646622,-0.9957919120788574,-0.05983507260680199,4.872796535491943,-35.97646713256836,-23.75031661987305,2,0.0.0.0,10.83.46.32,1,0
2015-03-01 20:03:19.764,94,1425268999.47627,37.76572975635248,-122.4602799973153,81.92574,-1,-1,10,65,-9999,1425268999.716617,5.561412811279297,-36.71382141113281,-23.66196441650391,11.22893810272217,357.4518737792969,10,196121.0386644167,0.0267486572265625,-1.100967407226562,0.080047607421875,196121.0365209167,0.03709943188145783,0.5322196943629943,-0.2703768970380767,196120.9847511667,-2.485435713800947,0.9696240930076058,1.472591115885935,0.03209349885582924,-0.4900643229484558,-0.4104636609554291,-0.1196755468845367,0.009113016538321972,0.1112732887268066,XTrueNorthZVertical,-0.5183539967920763,0.4511993090833615,0.5197622239294183,-0.5075190247677187,0.08085718750953674,-0.9951817393302917,-0.05545663461089134,4.316545486450195,-35.99036407470703,-23.83671379089355,2,0.0.0.0,10.83.46.32,1,0
2015-03-01 20:03:19.823,95,1425268999.47627,37.76572975635248,-122.4602799973153,81.92574,-1,-1,10,65,-9999,1425268999.819901,6.584522247314453,-36.64584350585938,-23.19599914550781,12.96917247772217,359.1921081542969,10,196121.087759125,0.14239501953125,-1.498367309570312,-0.0242156982421875,196121.0882905,0.3811281793945479,1.065645268067577,-0.7101374973079181,196121.0365209167,-2.639729586925531,1.12309627393053,1.466490732804927,0.01479292754083872,0.5544443726539612,-0.2398188263177872,-0.07704028487205505,-0.1107663214206696,0.1443145871162415,XTrueNorthZVertical,-0.5239241466053695,0.4505194528685101,0.520713364075388,-0.5013913801582947,0.09385547041893005,-0.9945651292800903,-0.04507142305374146,4.320440292358398,-36.08941268920898,-23.6857738494873,2,0.0.0.0,10.83.46.32,1,0
2015-03-01 20:03:19.863,96,1425268999.47627,37.76572975635248,-122.4602799973153,81.92574,-1,-1,10,65,-9999,1425268999.819901,6.584522247314453,-36.64584350585938,-23.19599914550781,12.96917247772217,359.1921081542969,10,196121.136875,0.4608917236328125,-1.12298583984375,-0.4045257568359375,196121.0882905,0.3811281793945479,1.065645268067577,-0.7101374973079181,196121.0882905,-2.762262386357755,1.293971747173653,1.450820319078169,0.3588218986988068,1.087869644165039,-0.6795797348022461,0.02726329490542412,-0.5055558085441589,0.008495465852320194,XTrueNorthZVertical,-0.5427325937090892,0.4348399129675532,0.5109123463038932,-0.5052961197587803,0.1151317209005356,-0.9928115010261536,-0.03271116316318512,5.033639907836914,-36.28130340576172,-23.24773788452148,2,0.0.0.0,10.83.46.32,1,0
2015-03-01 20:03:19.921,97,1425268999.47627,37.76572975635248,-122.4602799973153,81.92574,-1,-1,10,65,-9999,1425268999.872217,7.999824523925781,-36.76481628417969,-22.94638061523438,12.64254283905029,358.865478515625,10,196121.1858357083,0.258575439453125,-0.977874755859375,-0.1165618896484375,196121.19182675,0.2065513120371286,-1.828227331457989,0.09593372036737936,196121.1400569583,-2.989356847531913,1.574444328711506,1.444725995352585,0.6405150890350342,0.7094662189483643,0.278677761554718,0.3351558148860931,-0.1309221833944321,-0.4049844443798065,XTrueNorthZVertical,-0.565418177183025,0.4248901367865819,0.4923855774272309,-0.5072741981877359,0.1257359087467194,-0.9920636415481567,0.0004586868453770876,7.973384857177734,-36.71398544311523,-21.69414710998535,2,0.0.0.0,10.83.46.32,1,0
2015-03-01 20:03:19.961,98,1425268999.47627,37.76572975635248,-122.4602799973153,81.92574,-1,-1,10,65,-9999,1425268999.924057,8.460224151611328,-37.35958862304688,-22.09764862060547,11.10433483123779,357.3272705078125,10,196121.2349772083,-0.0207672119140625,-0.9429473876953125,0.1335296630859375,196121.19182675,0.2065513120371286,-1.828227331457989,0.09593372036737936,196121.19182675,3.057723227830145,1.768566536494668,1.457140714079814,0.1842454820871353,-1.806003332138062,0.1264908760786057,0.1473749577999115,0.01567339524626732,-0.1388453096151352,XTrueNorthZVertical,-0.558900811875094,0.4458380827230585,0.4941013695408771,-0.4946939816996665,0.1112004816532135,-0.9935481548309326,0.02228342741727829,7.788231372833252,-37.2127799987793,-20.89689445495605,2,0.0.0.0,10.83.46.32,1,0
2015-03-01 20:03:20.020,99,1425268999.47627,37.76572975635248,-122.4602799973153,81.92574,-1,-1,10,65,-9999,1425268999.974884,7.658790588378906,-38.29421997070312,-21.51519012451172,12.45791149139404,358.6808471679688,10,196121.2839274167,0.1215057373046875,-0.91107177734375,0.11309814453125,196121.2435965,-0.4786861617107666,-1.058358593009011,-0.09596754251322337,196121.2435965,-3.10508332886511,1.569178336568212,1.457853842496012,-0.5008873343467712,-1.035984754562378,-0.0654032975435257,-0.1334697008132935,0.05068138614296913,0.1337120085954666,XTrueNorthZVertical,-0.5355130176200718,0.4616650648692971,0.519172012042542,-0.4801579013025017,0.1127024814486504,-0.9936287999153137,-0.0001823516795411706,6.031519889831543,-37.54210662841797,-20.88872337341309,2,0.0.0.0,10.83.46.32,1,0
2015-03-01 20:03:20.059,100,1425268999.47627,37.76572975635248,-122.4602799973153,81.92574,-1,-1,10,65,-9999,1425269000.027758,6.396953582763672,-37.8863525390625,-22.01443481445312,15.94648551940918,2.169421672821045,10,196121.332955,0.240875244140625,-0.8149566650390625,-0.0530853271484375,196121.2953627083,-0.4648680840787814,-0.09472757470968247,0.03625201402259462,196121.2953627083,-2.88938845801029,1.33530698596724,1.453684418484842,-0.4870689809322357,-0.0723540410399437,0.06681592017412186,0.0430118516087532,0.09954977035522461,0.1236365363001823,XTrueNorthZVertical,-0.5246279527938582,0.4594937429880003,0.5304145191205377,-0.4819662453338234,0.1136196181178093,-0.9931502342224121,-0.02726202271878719,4.63607931137085,-36.79845428466797,-22.50574111938477,2,0.0.0.0,10.83.46.32,1,0
2015-03-01 20:03:20.119,101,1425268999.47627,37.76572975635248,-122.4602799973153,81.92574,-1,-1,10,65,-9999,1425269000.078433,5.527313232421875,-37.1556396484375,-23.06284332275391,17.41129875183105,3.634233713150024,10,196121.3820170833,0.3510284423828125,-0.8740234375,-0.170166015625,196121.3471325,-0.2559825113461984,-0.2932135033855061,0.2170295193460454,196121.3471325,-2.700287582239591,1.143034844657677,1.455778552227662,-0.2781831920146942,-0.2708401679992676,0.247593104839325,0.1581494510173798,0.170455738902092,-0.03866488113999367,XTrueNorthZVertical,-0.5165114808572251,0.4576152682629,0.5339481422093152,-0.4885729733206939,0.1044237837195396,-0.9933927655220032,-0.04760831221938133,4.491102695465088,-36.49129104614258,-23.0291862487793,2,0.0.0.0,10.83.46.32,1,0
2015-03-01 20:03:20.157,102,1425268999.47627,37.76572975635248,-122.4602799973153,81.92574,-1,-1,10,65,-9999,1425269000.130143,4.231376647949219,-36.61186218261719,-23.99478149414062,18.16327476501465,4.386209964752197,10,196121.4310512917,0.2891693115234375,-0.937469482421875,-0.1340789794921875,196121.3989024167,0.03762513988063948,-1.304355049215739,0.2432523350195106,196121.3989024167,-2.598693089086075,1.002420028769144,1.465263636693688,0.01542465295642614,-1.281981945037842,0.2738156616687775,0.2720338106155396,0.1023772656917572,-0.1211115047335625,XTrueNorthZVertical,-0.5013969483383067,0.4693096194392243,0.5419378563287315,-0.4844099024684727,0.08877552300691605,-0.9944366216659546,-0.05669916421175003,3.868191003799438,-36.21190643310547,-23.57673645019531,2,0.0.0.0,10.83.46.32,1,0
2015-03-01 20:03:20.216,103,1425268999.47627,37.76572975635248,-122.4602799973153,81.92574,-1,-1,10,65,-9999,1425269000.181559,2.440933227539062,-36.35697937011719,-24.51067352294922,21.30295562744141,7.525890827178955,10,196121.4802287917,0.1822357177734375,-0.972442626953125,-0.07952880859375,196121.4506685833,0.09526766377875054,-2.109183103294187,0.06775294866048788,196121.4506685833,-2.569246342995047,0.8821991142275679,1.475482850781317,0.07306739687919617,-2.086810111999512,0.09831596910953522,0.1804986596107483,0.0538870133459568,-0.05864955857396126,XTrueNorthZVertical,-0.4747734278782617,0.4943200267595291,0.5608845019845449,-0.4643775308857924,0.07348389178514481,-0.995461106300354,-0.06047580763697624,0.7422065734863281,-36.27599334716797,-23.782958984375,2,0.0.0.0,10.83.46.32,1,0
2015-03-01 20:03:20.256,104,1425268999.47627,37.76572975635248,-122.4602799973153,81.92574,-1,-1,10,65,-9999,1425269000.233556,-0.2191543579101562,-36.73080444335938,-24.21112823486328,27.08931350708008,13.31224918365479,10,196121.5291602917,0.2506561279296875,-0.9599151611328125,-0.0835418701171875,196121.5024385417,-0.07845992150704245,-1.847387177604455,-0.2296680829312344,196121.5024385417,-2.58963750040752,0.8034225898268293,1.471882466858867,-0.1006599366664886,-1.825014591217041,-0.1991053968667984,0.1190485507249832,0.03515107557177544,-0.01414378732442856,XTrueNorthZVertical,-0.4471935069572479,0.5154983438857849,0.5848606766129876,-0.4384260783426797,0.07107596099376678,-0.9951120018959045,-0.06855884939432144,-0.7926774024963379,-36.30813980102539,-23.73222351074219,2,0.0.0.0,10.83.46.32,1,0
2015-03-01 20:03:20.342,105,1425268999.47627,37.76572975635248,-122.4602799973153,81.92574,-1,-1,10,65,-9999,1425269000.291815,-2.487045288085938,-36.407958984375,-24.26105499267578,32.50852584838867,18.73146057128906,10,196121.5782111667,0.304473876953125,-1.061447143554688,-0.0672607421875,196121.5542082083,-0.1616333718274162,-1.9202949408709,-0.4050433659834594,196121.5542082083,-2.63396101818575,0.7584389729895531,1.45522370367973,-0.1838331967592239,-1.897922396659851,-0.3744809627532959,0.2114586681127548,-0.01259149517863989,0.0006247110432013869,XTrueNorthZVertical,-0.4227302071384209,0.5286253524148077,0.6096607537322747,-0.4125144682898718,0.07931282371282578,-0.9933289289474487,-0.08370881527662277,-2.49511981010437,-36.23515701293945,-23.7258358001709,2,0.0.0.0,10.83.46.32,1,0
2015-03-01 20:03:20.354,106,1425268999.47627,37.76572975635248,-122.4602799973153,81.92574,-1,-1,10,65,-9999,1425269000.291815,-2.487045288085938,-36.407958984375,-24.26105499267578,32.50852584838867,18.73146057128906,10,196121.6272427917,0.279876708984375,-1.198806762695312,0.0273590087890625,196121.605974625,0.05525526629696403,-2.445963525268409,-0.4631090661787841,196121.5542082083,-2.63396101818575,0.7584389729895531,1.45522370367973,-0.1838331967592239,-1.897922396659851,-0.3744809627532959,0.2114586681127548,-0.01259149517863989,0.0006247110432013869,XTrueNorthZVertical,-0.4227302071384209,0.5286253524148077,0.6096607537322747,-0.4125144682898718,0.07931282371282578,-0.9933289289474487,-0.08370881527662277,-2.49511981010437,-36.23515701293945,-23.7258358001709,2,0.0.0.0,10.83.46.32,1,0
2015-03-01 20:03:20.421,107,1425268999.47627,37.76572975635248,-122.4602799973153,81.92574,-1,-1,10,65,-9999,1425269000.363403,-5.89739990234375,-35.52432250976562,-24.02808380126953,42.76827239990234,28.99120903015137,10,196121.6763144583,0.308868408203125,-1.311508178710938,0.189239501953125,196121.657744375,0.1799362127350947,-2.753127731708186,-0.4947210546341336,196121.657744375,-2.898445881120824,0.7792943647182583,1.426563838145336,0.1577368527650833,-2.730755805969238,-0.4641592800617218,0.2415932565927505,-0.4225233793258667,0.2656594216823578,XTrueNorthZVertical,-0.3585424961861851,0.5659688650377503,0.66422876448891,-0.3315519312187001,0.1010123416781425,-0.9896165132522583,-0.1022530421614647,-6.276355743408203,-36.21739196777344,-23.04421234130859,2,0.0.0.0,10.83.46.32,1,0
2015-03-01 20:03:20.452,108,1425268999.47627,37.76572975635248,-122.4602799973153,81.92574,-1,-1,10,65,-9999,1425269000.414968,-8.472221374511719,-35.50732421875,-23.07949829101562,54.4625358581543,40.68547058105469,10,196121.7254660834,0.1127777099609375,-1.076309204101562,0.1807403564453125,196121.709514375,-0.152754659069201,-2.717078916876765,0.09944589721297585,196121.709514375,-2.905506392903696,0.651055954641707,1.423307923696047,-0.1749538034200668,-2.694707155227661,0.1300073564052582,0.06922116130590439,-0.1525650918483734,0.3073389530181885,XTrueNorthZVertical,-0.3133747139277446,0.5859601441983563,0.6879209811634663,-0.2919104900302361,0.08905825763940811,-0.9891433119773865,-0.1168939992785454,-8.285442352294922,-36.50472640991211,-21.9290714263916,2,0.0.0.0,10.83.46.32,1,0
2015-03-01 20:03:20.515,109,1425268999.47627,37.76572975635248,-122.4602799973153,81.92574,-1,-1,10,65,-9999,1425269000.466689,-11.57566070556641,-35.98312377929688,-21.38204956054688,63.28007125854492,49.50300598144531,10,196121.7744365,0.0660247802734375,-1.00128173828125,0.30908203125,196121.761280625,-0.3064675234986124,-2.876032616015343,0.1979216048408358,196121.761280625,-2.81062200692367,0.4183136656954673,1.416918915306133,-0.328666478395462,-2.853661060333252,0.2284827828407288,0.03658469766378403,-0.01628661155700684,0.4052377045154572,XTrueNorthZVertical,-0.2603656321863943,0.6018157028122698,0.7104125635882801,-0.2556200292495362,0.06226173788309097,-0.9881842136383057,-0.1400551944971085,-12.91142845153809,-36.15060424804688,-20.21278190612793,2,0.0.0.0,10.83.46.32,1,0
2015-03-01 20:03:20.550,110,1425268999.47627,37.76572975635248,-122.4602799973153,81.92574,-1,-1,10,65,-9999,1425269000.518167,-14.93486785888672,-35.55830383300781,-19.93421936035156,69.54048156738281,55.76342010498047,10,196121.823488,-0.0855255126953125,-1.025100708007812,0.3062896728515625,196121.813050625,-0.4075113173656358,-3.018614532352659,0.2273900149347806,196121.761280625,-2.81062200692367,0.4183136656954673,1.416918915306133,-0.328666478395462,-2.853661060333252,0.2284827828407288,0.03658469766378403,-0.01628661155700684,0.4052377045154572,XTrueNorthZVertical,-0.2603656321863943,0.6018157028122698,0.7104125635882801,-0.2556200292495362,0.06226173788309097,-0.9881842136383057,-0.1400551944971085,-12.91142845153809,-36.15060424804688,-20.21278190612793,2,0.0.0.0,10.83.46.32,1,0
2015-03-01 20:03:20.614,111,1425268999.47627,37.76572975635248,-122.4602799973153,81.92574,-1,-1,10,65,-9999,1425269000.574226,-18.58395385742188,-34.776611328125,-17.70423889160156,76.83184051513672,63.05477905273438,10,196121.8725606667,-0.253265380859375,-0.828125,0.1898956298828125,196121.8648202917,-0.1434040341658238,-2.607158274464289,0.4293670814835892,196121.8648202917,-2.583719308209274,-0.09108097572161605,1.385863422745095,-0.1656025052070618,-2.584787130355835,0.4599276185035706,-0.2186266779899597,0.1285021752119064,0.384839653968811,XTrueNorthZVertical,-0.142027619220463,0.6231122931241343,0.746879343739669,-0.1836586068334492,-0.01672488078474998,-0.9829486012458801,-0.1831184476613998,-17.80350303649902,-35.28680038452148,-17.88867568969727,2,0.0.0.0,10.83.46.32,1,0
2015-03-01 20:03:20.649,112,1425268999.47627,37.76572975635248,-122.4602799973153,81.92574,-1,-1,10,65,-9999,1425269000.574226,-18.58395385742188,-34.776611328125,-17.70423889160156,76.83184051513672,63.05477905273438,10,196121.9217119583,-0.3514862060546875,-0.8553466796875,0.197967529296875,196121.8648202917,-0.1434040341658238,-2.607158274464289,0.4293670814835892,196121.8648202917,-2.583719308209274,-0.09108097572161605,1.385863422745095,-0.1656025052070618,-2.584787130355835,0.4599276185035706,-0.2186266779899597,0.1285021752119064,0.384839653968811,XTrueNorthZVertical,-0.142027619220463,0.6231122931241343,0.746879343739669,-0.1836586068334492,-0.01672488078474998,-0.9829486012458801,-0.1831184476613998,-17.80350303649902,-35.28680038452148,-17.88867568969727,2,0.0.0.0,10.83.46.32,1,0
2015-03-01 20:03:20.713,113,1425268999.47627,37.76572975635248,-122.4602799973153,81.92574,-1,-1,10,65,-9999,1425269000.699104,-25.26826477050781,-33.11128234863281,-11.64668273925781,89.37790679931641,75.60084533691406,10,196121.9706739583,-0.397857666015625,-0.905975341796875,0.0815887451171875,196121.9683565417,-0.05962205153636696,-1.704921108774557,-0.1281023094905555,196121.916586875,-2.510291606433205,-0.2903493005413954,1.378784035188515,-0.1002504378557205,-2.462249755859375,0.1019859462976456,-0.2712637484073639,0.1315092891454697,0.3832407295703888,XTrueNorthZVertical,-0.08926723802008857,0.6329358832124885,0.7543593219906107,-0.1495511742414957,-0.05463346466422081,-0.9816222190856934,-0.1828470528125763,-22.0186824798584,-34.49028778076172,-14.41268730163574,2,0.0.0.0,10.83.46.32,1,0
2015-03-01 20:03:20.746,114,1425268999.47627,37.76572975635248,-122.4602799973153,81.92574,-1,-1,10,65,-9999,1425269000.699104,-25.26826477050781,-33.11128234863281,-11.64668273925781,89.37790679931641,75.60084533691406,10,196122.0198235,-0.284576416015625,-0.978485107421875,-0.0106201171875,196122.0201263333,0.1012488572709595,-1.520415976873323,-0.3153070877888035,196121.9683565417,-2.535181876352068,-0.3698483519167685,1.37310109094625,-0.08182009309530258,-1.682550430297852,-0.09754234552383423,-0.3409749269485474,0.08690613508224487,0.293023020029068,XTrueNorthZVertical,-0.05030923378010179,0.6371062498381251,0.7603709245676595,-0.115761292834152,-0.07099712640047073,-0.9805218577384949,-0.183129221200943,-23.03476333618164,-34.41094589233398,-12.93887138366699,2,0.0.0.0,10.83.46.32,1,0
2015-03-01 20:03:20.813,115,1425268999.47627,37.76572975635248,-122.4602799973153,81.92574,-1,-1,10,65,-9999,1425269000.806175,-26.80293273925781,-33.38314819335938,-6.587623596191406,98.99203491210938,85.21497344970703,10,196122.0687805834,-0.22100830078125,-1.116928100585938,-0.2997283935546875,196122.0718927917,0.4750879647619605,-2.222764793257195,-0.5538980919523484,196122.0201263333,-2.575011457216253,-0.4041738208699662,1.377572493263071,0.07905104756355286,-1.498045563697815,-0.284747451543808,-0.2090612798929214,0.002905176021158695,0.1659318506717682,XTrueNorthZVertical,-0.02526688193319253,0.6411595760646781,0.7618206854490898,-0.08891140732587344,-0.07551513612270355,-0.9813902974128723,-0.1765519678592682,-23.85543441772461,-34.45823669433594,-11.21052265167236,2,0.0.0.0,10.83.46.32,1,0
2015-03-01 20:03:20.844,116,1425268999.47627,37.76572975635248,-122.4602799973153,81.92574,-1,-1,10,65,-9999,1425269000.806175,-26.80293273925781,-33.38314819335938,-6.587623596191406,98.99203491210938,85.21497344970703,10,196122.117857,-0.2078857421875,-1.172653198242188,-0.1517791748046875,196122.0718927917,0.4750879647619605,-2.222764793257195,-0.5538980919523484,196122.0718927917,-2.6509635309805,-0.4189774546462981,1.395895651022817,0.4528903961181641,-2.200394630432129,-0.523338794708252,-0.1502162516117096,-0.1321842670440674,-0.1407689601182938,XTrueNorthZVertical,0.001898876131596963,0.6484725727053953,0.7594327952870451,-0.05235989489713779,-0.07079204916954041,-0.9847438335418701,-0.1589594334363937,-24.23127937316895,-35.07405471801758,-8.048831939697266,2,0.0.0.0,10.83.46.32,1,0
2015-03-01 20:03:20.912,117,1425268999.47627,37.76572975635248,-122.4602799973153,81.92574,-1,-1,10,65,-9999,1425269000.880581,-26.37664031982422,-34.18185424804688,-1.345512390136719,107.6030426025391,93.82598114013672,10,196122.1668830417,-0.1569061279296875,-1.117767333984375,-0.0595855712890625,196122.1754325,-0.189390967237094,-1.790650927425298,-0.3104098008602568,196122.1236628334,-2.711503334771709,-0.4871820096764954,1.437813823895744,0.621471107006073,-2.448574542999268,-0.475787490606308,-0.145814910531044,-0.181482344865799,-0.03461441770195961,XTrueNorthZVertical,0.04093797662431933,0.6631302304888836,0.7473834046579108,-0.000662084939979231,-0.0620708242058754,-0.9911708235740662,-0.1171647608280182,-24.15157127380371,-35.58056640625,-5.731738090515137,2,0.0.0.0,10.83.46.32,1,0
2015-03-01 20:03:20.942,118,1425268999.47627,37.76572975635248,-122.4602799973153,81.92574,-1,-1,10,65,-9999,1425269000.933494,-26.13791656494141,-34.89558410644531,1.516853332519531,113.8807220458984,100.1036605834961,10,196122.2160283334,-0.0313262939453125,-1.050521850585938,-0.1087188720703125,196122.1754325,-0.189390967237094,-1.790650927425298,-0.3104098008602568,196122.1754325,-2.818524316172378,-0.4817242166515728,1.451406300682869,-0.211588129401207,-1.768281221389771,-0.2798510491847992,-0.1017230600118637,-0.1248858645558357,0.04596646875143051,XTrueNorthZVertical,0.0724556270553368,0.6648113734645676,0.742443661892787,0.03941371802118745,-0.05518306791782379,-0.9928814768791199,-0.105552040040493,-23.79703712463379,-36.21682357788086,-2.042227268218994,2,0.0.0.0,10.83.46.32,1,0
2015-03-01 20:03:21.014,119,1425268999.47627,37.76572975635248,-122.4602799973153,81.92574,-1,-1,10,65,-9999,1425269000.984684,-25.47289276123047,-35.15046691894531,4.42913818359375,119.6302947998047,105.8532333374023,10,196122.2649772083,-0.15484619140625,-0.8039703369140625,-0.014495849609375,196122.2271991667,-0.1165085040010045,-2.023533445792258,0.05373859605616391,196122.2271991667,-2.880916247072133,-0.5120086197690116,1.445476181560077,-0.1387054175138474,-2.001163721084595,0.08429699391126633,0.008503091521561146,-0.01415943633764982,0.02427742257714272,XTrueNorthZVertical,0.1051359483125266,0.6591392728697427,0.7411688699939555,0.07176747116839727,-0.06123746559023857,-0.9921576976776123,-0.108963705599308,-23.2698917388916,-36.60315704345703,0.9212546348571777,2,0.0.0.0,10.83.46.32,1,0
2015-03-01 20:03:21.039,120,1425268999.47627,37.76572975635248,-122.4602799973153,81.92574,-1,-1,10,65,-9999,1425269000.984684,-25.47289276123047,-35.15046691894531,4.42913818359375,119.6302947998047,105.8532333374023,10,196122.3140149583,-0.13470458984375,-0.738189697265625,0.02008056640625,196122.2789688334,-0.2753341050911501,-1.960233835106601,0.04508651830671448,196122.2789688334,-2.897826848417757,-0.5955878440280451,1.432090408022693,-0.2974442839622498,-1.937760710716248,0.07566187530755997,-0.08408744633197784,0.2268001735210419,0.1080011427402496,XTrueNorthZVertical,0.1434159121291211,0.649772323105356,0.7392691854047381,0.1034837582343577,-0.07756416499614716,-0.990395724773407,-0.1144556105136871,-23.28704452514648,-36.54145812988281,2.136167049407959,2,0.0.0.0,10.83.46.32,1,0
2015-03-01 20:03:21.114,121,1425268999.47627,37.76572975635248,-122.4602799973153,81.92574,-1,-1,10,65,-9999,1425269001.08909,-24.02348327636719,-34.65766906738281,8.273361206054688,129.2351226806641,115.4580535888672,10,196122.363079875,-0.066680908203125,-0.80535888671875,-0.0430145263671875,196122.330738875,-0.3419469544889751,-1.92603698249722,-0.09143351075736346,196122.330738875,-2.96078026882219,-0.6284066168964855,1.419081837759559,-0.3640569746494293,-1.903564095497131,-0.06085842847824097,-0.03021968342363834,0.2414736151695251,0.136925220489502,XTrueNorthZVertical,0.1775748120652417,0.6382291333192559,0.7367509181472027,0.1353841074301236,-0.08884464949369431,-0.9885134100914001,-0.1222615167498589,-23.16179656982422,-36.49445724487305,3.716660022735596,2,0.0.0.0,10.83.46.32,1,0
2015-03-01 20:03:21.138,122,1425268999.47627,37.76572975635248,-122.4602799973153,81.92574,-1,-1,10,65,-9999,1425269001.08909,-24.02348327636719,-34.65766906738281,8.273361206054688,129.2351226806641,115.4580535888672,10,196122.4121167917,-0.04595947265625,-0.8800201416015625,-0.065155029296875,196122.3825052083,-0.1693546747758829,-2.019216195349131,0.03904620263830576,196122.3825052083,-3.016343782855431,-0.6700360025348568,1.407252599577778,-0.1914644539356232,-1.996743440628052,0.06962097436189651,0.04862064495682716,0.1546099931001663,0.07172191143035889,XTrueNorthZVertical,0.2119687367900207,0.6255092536857657,0.7320105400754829,0.1672363890676039,-0.1011108830571175,-0.9866564869880676,-0.1276148557662964,-22.41763687133789,-36.63876342773438,6.097412109375,2,0.0.0.0,10.83.46.32,1,0
2015-03-01 20:03:21.213,123,1425268999.47627,37.76572975635248,-122.4602799973153,81.92574,-1,-1,10,65,-9999,1425269001.191859,-22.53996276855469,-34.70864868164062,11.78475189208984,138.3745269775391,124.5974655151367,10,196122.4611762917,-0.180419921875,-0.8199615478515625,0.0118865966796875,196122.43427525,-0.03213050591958799,-2.556331845060126,0.1379834360830765,196122.43427525,-3.004629093717253,-0.7957465983011123,1.3988145190443,-0.05424004420638084,-2.533859491348267,0.16855788230896,0.03187890723347664,0.1346310824155807,0.06976442039012909,XTrueNorthZVertical,0.2551869743476407,0.6123752945174969,0.7208647233178809,0.2005745993305044,-0.1222567185759544,-0.9852475523948669,-0.1197522133588791,-22.10406112670898,-36.60820007324219,7.30601978302002,2,0.0.0.0,10.83.46.32,1,0
2015-03-01 20:03:21.237,124,1425268999.47627,37.76572975635248,-122.4602799973153,81.92574,-1,-1,10,65,-9999,1425269001.191859,-22.53996276855469,-34.70864868164062,11.78475189208984,138.3745269775391,124.5974655151367,10,196122.5102864583,-0.297821044921875,-0.79052734375,0.1402435302734375,196122.4860449584,-0.1252886797988868,-2.597353047962835,0.0217588250542744,196122.4860449584,-3.00444413419498,-0.9267085668991959,1.391713901449414,-0.1473980247974396,-2.574880838394165,0.05233298614621162,-0.08703820407390594,0.1818072348833084,0.1652024686336517,XTrueNorthZVertical,0.30293774194101,0.5956080013274112,0.7045962127282123,0.2387970324446277,-0.1424387246370316,-0.9840075373649597,-0.1069596633315086,-21.43446350097656,-36.47610092163086,9.601341247558594,2,0.0.0.0,10.83.46.32,1,0
2015-03-01 20:03:21.313,125,1425268999.47627,37.76572975635248,-122.4602799973153,81.92574,-1,-1,10,65,-9999,1425269001.295604,-19.12960815429688,-34.16487121582031,16.71067047119141,150.3327178955078,136.5556488037109,10,196122.5592682917,-0.350006103515625,-0.85748291015625,0.1652679443359375,196122.537811625,-0.2638532176318185,-1.628473738103288,0.05626220750512299,196122.537811625,-3.040475418685911,-0.9958157264583692,1.382855990840412,-0.2859623432159424,-1.606001734733582,0.0868360623717308,-0.1720946729183197,0.1997983604669571,0.2681697905063629,XTrueNorthZVertical,0.3391217986643277,0.5780951304106717,0.6913300334813146,0.2699355906613949,-0.1567932665348053,-0.9823911190032959,-0.1016048491001129,-19.60563468933105,-36.49295425415039,12.88453578948975,2,0.0.0.0,10.83.46.32,1,0
2015-03-01 20:03:21.334,126,1425268999.47627,37.76572975635248,-122.4602799973153,81.92574,-1,-1,10,65,-9999,1425269001.295604,-19.12960815429688,-34.16487121582031,16.71067047119141,150.3327178955078,136.5556488037109,10,196122.6083029583,-0.33544921875,-1.163543701171875,0.159515380859375,196122.589581375,-0.4296195491549287,-1.059493898581712,-0.2061156188827916,196122.589581375,-3.125756519729068,-0.9723653680326644,1.372511455120431,-0.4517284333705902,-1.037022113800049,-0.1755421012639999,-0.1951697468757629,-0.06411926448345184,0.2734329700469971,XTrueNorthZVertical,0.3570319942389008,0.5630646785344976,0.6863016046342423,0.2906483146105484,-0.1627556681632996,-0.980405867099762,-0.1109726428985596,-19.10894966125488,-36.57395172119141,13.39111137390137,2,0.0.0.0,10.83.46.32,1,0
2015-03-01 20:03:21.416,127,1425268999.47627,37.76572975635248,-122.4602799973153,81.92574,-1,-1,10,65,-9999,1425269001.39955,-16.04322814941406,-35.031494140625,18.25834655761719,158.422607421875,144.6455383300781,10,196122.6573576667,-0.2391204833984375,-1.23870849609375,-0.0129241943359375,196122.641351375,-0.2533063007667777,-0.5881356909264071,-0.3797950009528542,196122.641351375,3.023316857499715,-0.8840890006360119,1.373860732756784,-0.2754149436950684,-0.5656641721725464,-0.3492217659950256,-0.1412873119115829,-0.3107568323612213,0.1997189074754715,XTrueNorthZVertical,0.364064817490338,0.5526585930987055,0.6816200454721242,0.3121208326647189,-0.1513152271509171,-0.9806707501411438,-0.1240505799651146,-18.24983978271484,-36.94525527954102,13.56905078887939,2,0.0.0.0,10.83.46.32,1,0
2015-03-01 20:03:21.432,128,1425268999.47627,37.76572975635248,-122.4602799973153,81.92574,-1,-1,10,65,-9999,1425269001.39955,-16.04322814941406,-35.031494140625,18.25834655761719,158.422607421875,144.6455383300781,10,196122.7065015417,-0.3205108642578125,-0.9590911865234375,-0.102935791015625,196122.6931177917,0.1670869931076804,-0.1899462363243755,0.2002084612688869,196122.641351375,3.023316857499715,-0.8840890006360119,1.373860732756784,-0.2754149436950684,-0.5656641721725464,-0.3492217659950256,-0.1412873119115829,-0.3107568323612213,0.1997189074754715,XTrueNorthZVertical,0.364064817490338,0.5526585930987055,0.6816200454721242,0.3121208326647189,-0.1513152271509171,-0.9806707501411438,-0.1240505799651146,-18.24983978271484,-36.94525527954102,13.56905078887939,2,0.0.0.0,10.83.46.32,1,0
2015-03-01 20:03:21.513,129,1425268999.47627,37.76572975635248,-122.4602799973153,81.92574,-1,-1,10,65,-9999,1425269001.455302,-15.53167724609375,-35.16743469238281,18.39148712158203,159.8079833984375,146.0309143066406,10,196122.7554454583,-0.26397705078125,-0.891143798828125,-0.063995361328125,196122.7448878333,0.09827117685614191,-0.617843252886241,-0.1435965807126365,196122.7448878333,3.117940720351697,-1.011419572809855,1.360451658773914,0.07609783113002777,-0.5953859090805054,-0.1130800172686577,-0.1308268457651138,0.08336672186851501,0.03470424562692642,XTrueNorthZVertical,0.3830902327950244,0.5457489897601245,0.6764696605229201,0.3127118874262915,-0.1769734472036362,-0.9779590368270874,-0.1107998266816139,-17.37666893005371,-37.22921752929688,13.93429565429688,2,0.0.0.0,10.83.46.32,1,0
2015-03-01 20:03:21.531,130,1425268999.47627,37.76572975635248,-122.4602799973153,81.92574,-1,-1,10,65,-9999,1425269001.455302,-15.53167724609375,-35.16743469238281,18.39148712158203,159.8079833984375,146.0309143066406,10,196122.804608875,-0.1611480712890625,-0.8526763916015625,-0.013916015625,196122.7966577084,0.05901138869841179,-0.2059486386824437,0.04178899224497837,196122.7448878333,3.117940720351697,-1.011419572809855,1.360451658773914,0.07609783113002777,-0.5953859090805054,-0.1130800172686577,-0.1308268457651138,0.08336672186851501,0.03470424562692642,XTrueNorthZVertical,0.3830902327950244,0.5457489897601245,0.6764696605229201,0.3127118874262915,-0.1769734472036362,-0.9779590368270874,-0.1107998266816139,-17.37666893005371,-37.22921752929688,13.93429565429688,2,0.0.0.0,10.83.46.32,1,0
2015-03-01 20:03:21.614,131,1425268999.47627,37.76572975635248,-122.4602799973153,81.92574,-1,-1,10,65,-9999,1425269001.60666,-14.30394744873047,-34.82759094238281,17.95879364013672,162.0510101318359,148.2739410400391,10,196122.853545375,-0.0343170166015625,-0.90869140625,0.0063323974609375,196122.8484240833,-0.1792922603835136,0.2113652420235558,0.144216830930516,196122.7966577084,3.133221859792411,-1.047953422521024,1.36250454920057,0.03682542964816093,-0.1834947168827057,0.07229791581630707,-0.001791388494893909,0.1137157827615738,0.07298564910888672,XTrueNorthZVertical,0.390925333124781,0.5436431201364141,0.6712438073310849,0.3179014083047504,-0.1791625916957855,-0.9783855676651001,-0.1032590866088867,-17.62160110473633,-36.81745910644531,14.6997184753418,2,0.0.0.0,10.83.46.32,1,0
2015-03-01 20:03:21.629,132,1425268999.47627,37.76572975635248,-122.4602799973153,81.92574,-1,-1,10,65,-9999,1425269001.60666,-14.30394744873047,-34.82759094238281,17.95879364013672,162.0510101318359,148.2739410400391,10,196122.9025711667,-0.0113067626953125,-0.8640594482421875,-0.02642822265625,196122.9001941667,-0.1707344585366529,0.01952496553191593,0.1637228880186923,196122.8484240833,3.132749440145587,-1.043173586586931,1.353159658194538,-0.2014780044555664,0.2338189333677292,0.1747254580259323,0.1281021684408188,0.07960566133260727,0.1167237982153893,XTrueNorthZVertical,0.3908965421144389,0.5411500967373257,0.674653266743001,0.3149594390870135,-0.1865585893392563,-0.976410448551178,-0.1087129339575768,-17.66400909423828,-36.7386360168457,14.84530830383301,2,0.0.0.0,10.83.46.32,1,0
2015-03-01 20:03:21.712,133,1425268999.47627,37.76572975635248,-122.4602799973153,81.92574,-1,-1,10,65,-9999,1425269001.658439,-14.69614410400391,-35.0145263671875,17.60932159423828,161.4454193115234,147.6683502197266,10,196122.9516215,-0.0819091796875,-0.77508544921875,-0.0214385986328125,196122.951964125,0.001830923249429476,-0.4918592217267345,0.06868079398427149,196122.9001941667,3.111521398168255,-1.01325737918495,1.340400220226604,-0.192919984459877,0.04197846353054047,0.1942312270402908,0.191521555185318,0.08266109973192215,0.1015092357993126,XTrueNorthZVertical,0.3883980210901702,0.5373393224871313,0.6806445321043677,0.3116672313086309,-0.193779855966568,-0.9735760092735291,-0.1208268627524376,-17.95529174804688,-36.74195861816406,14.48322677612305,2,0.0.0.0,10.83.46.32,1,0
2015-03-01 20:03:21.728,134,1425268999.47627,37.76572975635248,-122.4602799973153,81.92574,-1,-1,10,65,-9999,1425269001.710782,-14.95191955566406,-35.23544311523438,17.19328308105469,161.1960754394531,147.4190063476562,10,196123.000767,-0.102203369140625,-0.7590789794921875,0.0291900634765625,196122.951964125,0.001830923249429476,-0.4918592217267345,0.06868079398427149,196122.951964125,3.114275685479595,-1.026795616166937,1.329877855714472,-0.0203543696552515,-0.4694059789180756,0.09918879717588425,0.1222431734204292,0.1960337907075882,0.1020492762327194,XTrueNorthZVertical,0.3938093855138687,0.5321374180951441,0.6812980463865133,0.3123730471199361,-0.2041523605585098,-0.971119225025177,-0.1234878748655319,-14.52610397338867,-34.90732192993164,17.63488960266113,2,0.0.0.0,10.83.46.32,1,0
2015-03-01 20:03:21.810,135,1425268999.47627,37.76572975635248,-122.4602799973153,81.92574,-1,-1,10,65,-9999,1425269001.762602,-14.303955078125,-35.09951782226562,17.49282836914062,162.6693572998047,148.8922882080078,10,196123.0496939583,-0.146575927734375,-0.7693939208984375,0.0243072509765625,196123.0555004167,0.02702336189714304,-0.6086177965540974,-0.07397862034076612,196123.003730625,3.120263246421574,-1.067668988055521,1.329568302565771,0.02687621675431728,-0.7722108364105225,-0.01434978470206261,0.1070877909660339,0.2119663655757904,0.144377663731575,XTrueNorthZVertical,0.406121637881307,0.5267555536946695,0.6741555564300241,0.3211045002235285,-0.2092911601066589,-0.9710453152656555,-0.1151876002550125,-14.10629844665527,-34.83493423461914,18.11236953735352,2,0.0.0.0,10.83.46.32,1,0
2015-03-01 20:03:21.824,136,1425268999.47627,37.76572975635248,-122.4602799973153,81.92574,-1,-1,10,65,-9999,1425269001.813822,-13.75829315185547,-35.43937683105469,17.39298248291016,164.2578887939453,150.4808197021484,10,196123.0987400417,-0.1279296875,-0.836212158203125,0.028564453125,196123.0555004167,0.02702336189714304,-0.6086177965540974,-0.07397862034076612,196123.0555004167,3.120764277170581,-1.102366695921644,1.331002546173924,0.004838490393012762,-0.5861649513244629,-0.04347119107842445,0.06534229218959808,0.2019930481910706,0.1315361559391022,XTrueNorthZVertical,0.4173984402856222,0.5216934829281121,0.6667113118151469,0.3303187718674824,-0.2119182199239731,-0.9713869690895081,-0.1072289049625397,-13.67616271972656,-34.83132553100586,18.44612693786621,2,0.0.0.0,10.83.46.32,1,0
2015-03-01 20:03:21.884,137,1425268999.47627,37.76572975635248,-122.4602799973153,81.92574,-1,-1,10,65,-9999,1425269001.866208,-12.92275238037109,-35.52433776855469,17.30977630615234,166.1331787109375,152.3561096191406,10,196123.1477675417,-0.1016082763671875,-0.8790130615234375,-0.0332794189453125,196123.107270375,-0.04600584151500983,-0.5368392135898458,-0.286051730582065,196123.107270375,3.100019448045486,-1.108100649488645,1.337419327443537,-0.06819049268960953,-0.5143865942955017,-0.2555446028709412,0.07901778072118759,0.1366787999868393,0.1317920535802841,XTrueNorthZVertical,0.4236872492996779,0.5185318829403408,0.6603191508395329,0.3399888713217346,-0.2069474756717682,-0.9728909730911255,-0.1032276004552841,-13.09044551849365,-34.85111618041992,18.8297176361084,2,0.0.0.0,10.83.46.32,1,0
2015-03-01 20:03:21.922,138,1425268999.47627,37.76572975635248,-122.4602799973153,81.92574,-1,-1,10,65,-9999,1425269001.866208,-12.92275238037109,-35.52433776855469,17.30977630615234,166.1331787109375,152.3561096191406,10,196123.1969360833,-0.2122955322265625,-0.8543243408203125,-0.0088653564453125,196123.1590369584,0.007344199338111515,-0.8329350562231447,-0.3667433810825939,196123.1590369584,3.055635296288048,-1.096986607892368,1.350487566959916,-0.01484020613133907,-0.8104826807975769,-0.3362365961074829,0.08473087847232819,0.1038970425724983,0.04836540669202805,XTrueNorthZVertical,0.4295245251259782,0.5154154306698615,0.6514374624868089,0.3542384240088908,-0.1944568306207657,-0.9758300185203552,-0.09971123188734055,-11.60886192321777,-35.17071151733398,19.20347785949707,2,0.0.0.0,10.83.46.32,1,0
2015-03-01 20:03:21.982,139,1425268999.47627,37.76572975635248,-122.4602799973153,81.92574,-1,-1,10,65,-9999,1425269001.970379,-9.563552856445312,-36.45893859863281,17.55940246582031,173.5083160400391,159.7312469482422,10,196123.2458548333,-0.1443939208984375,-1.037155151367188,0.026336669921875,196123.2108070417,0.0859125115015202,-1.267281716312964,-0.7669182222772795,196123.2108070417,3.013819690624014,-1.109348600723547,1.37380649976082,0.06372832506895065,-1.244829535484314,-0.7364117503166199,-0.02511524222791195,0.1053549870848656,0.09576379507780075,XTrueNorthZVertical,0.4408106951302826,0.5119713277157941,0.6346237994461178,0.375265154610855,-0.175247922539711,-0.9806601405143738,-0.08714257925748825,-10.72362518310547,-35.28260040283203,19.51050758361816,2,0.0.0.0,10.83.46.32,1,0
2015-03-01 20:03:22.021,140,1425268999.47627,37.76572975635248,-122.4602799973153,81.92574,-1,-1,10,65,-9999,1425269001.970379,-9.563552856445312,-36.45893859863281,17.55940246582031,173.5083160400391,159.7312469482422,10,196123.2948792917,-0.147247314453125,-1.055206298828125,0.02691650390625,196123.2625768333,-0.009404420757396814,-1.364103068271667,-0.9563470064018527,196123.2625768333,2.901691352320205,-1.068232076277658,1.414221029105184,-0.03139572963118553,-1.341642141342163,-0.9257745742797852,0.004635863471776247,-0.06893455237150192,0.1133185625076294,XTrueNorthZVertical,0.4511539911887689,0.5088268857081087,0.6100781785937971,0.4066446914095372,-0.1366549134254456,-0.9877671003341675,-0.07511055469512939,-8.587921142578125,-35.51132583618164,20.14228439331055,2,0.0.0.0,10.83.46.32,1,0
2015-03-01 20:03:22.082,141,1425268999.47627,37.76572975635248,-122.4602799973153,81.92574,-1,-1,10,65,-9999,1425269002.024234,-6.818206787109375,-37.01972961425781,17.54275512695312,179.2982330322266,165.5211639404297,10,196123.3439353333,-0.1072845458984375,-1.121826171875,-0.0405120849609375,196123.3143435833,-0.3327164381507605,-0.9078159555412296,-0.8975625190283155,196123.3143435833,2.669463346028523,-0.8923363396370221,1.445338597084052,-0.3547078967094421,-0.8853554129600525,-0.8669902086257935,-0.0574130043387413,-0.07766846567392349,0.09473512321710587,XTrueNorthZVertical,0.4542183360552913,0.5044011867963066,0.591105543035333,0.4357285799386988,-0.0974179282784462,-0.9921404719352722,-0.07853028923273087,-4.232104778289795,-36.06719970703125,20.53690528869629,2,0.0.0.0,10.83.46.32,1,0
2015-03-01 20:03:22.119,142,1425268999.47627,37.76572975635248,-122.4602799973153,81.92574,-1,-1,10,65,-9999,1425269002.099294,-2.521148681640625,-38.75302124023438,16.67739105224609,188.5923614501953,174.8152923583984,10,196123.3930716667,0.0133209228515625,-1.160263061523438,-0.07415771484375,196123.3661134167,-0.4736059156153314,-0.7710607693528977,-0.9643689802373893,196123.3661134167,2.246250675459626,-0.5106538177376633,1.457232520069136,-0.4955973029136658,-0.7486005425453186,-0.9337970018386841,0.01229405775666237,-0.1723044812679291,0.01208645105361938,XTrueNorthZVertical,0.4487420868991649,0.499198304530185,0.5779769112190297,0.4640843616522022,-0.05538487806916237,-0.9935585856437683,-0.09886318445205688,-2.760669708251953,-36.40234756469727,20.19321632385254,2,0.0.0.0,10.83.46.32,1,0
2015-03-01 20:03:22.182,143,1425268999.47627,37.76572975635248,-122.4602799973153,81.92574,-1,-1,10,65,-9999,1425269002.151786,-0.0486297607421875,-39.755615234375,15.69553375244141,193.7536010742188,179.9765319824219,10,196123.4420264167,0.064178466796875,-1.137161254882812,-0.077423095703125,196123.4178835,-0.5947650978279413,-1.031971992928506,-0.8731634360693367,196123.4178835,1.824439658711673,-0.1367153862731288,1.445402245332465,-0.61675626039505,-1.009511947631836,-0.8425917029380798,0.06953544169664383,-0.1557702422142029,0.05717214196920395,XTrueNorthZVertical,0.4443497418563637,0.4905139068312835,0.5641319352832476,0.4936644469107767,-0.01704520732164383,-0.9921484589576721,-0.1238988265395164,-0.5556191205978394,-36.91375350952148,19.43152236938477,2,0.0.0.0,10.83.46.32,1,0
2015-03-01 20:03:22.219,144,1425268999.47627,37.76572975635248,-122.4602799973153,81.92574,-1,-1,10,65,-9999,1425269002.205336,2.457977294921875,-40.28239440917969,14.11458587646484,198.9426574707031,185.1655883789062,10,196123.4910625417,0.0316009521484375,-1.153228759765625,-0.0785369873046875,196123.46965,-0.6655351416873799,-1.094049478989926,-0.7381395709056652,196123.46965,1.540335150303316,0.09031278069521155,1.412288284983436,-0.6875261664390564,-1.071589708328247,-0.7075681686401367,0.06069984659552574,-0.1694422513246536,0.08058752864599228,XTrueNorthZVertical,0.4413912636445576,0.4759966371096694,0.5502454441422253,0.5251960752634417,0.01423606742173433,-0.9874638915061951,-0.1572019010782242,2.449420928955078,-37.54050445556641,18.03410339355469,2,0.0.0.0,10.83.46.32,1,0
2015-03-01 20:03:22.282,145,1425268999.47627,37.76572975635248,-122.4602799973153,81.92574,-1,-1,10,65,-9999,1425269002.28038,6.533363342285156,-40.87715148925781,11.70154571533203,210.2334899902344,196.4564208984375,10,196123.54011125,0.086761474609375,-1.162811279296875,-0.09686279296875,196123.5214200834,-0.5930675989491248,-0.6937305607802668,-0.7275809361318281,196123.5214200834,1.379625166959298,0.2049079969441007,1.373662939422412,-0.6150583624839783,-0.6712709665298462,-0.6970098614692688,0.03213812783360481,-0.1406753212213516,0.08131855726242065,XTrueNorthZVertical,0.4362213213248779,0.4624176945690074,0.5395400605590688,0.5520664543837358,0.03985283896327019,-0.9806320667266846,-0.1917616724967957,4.486638069152832,-37.96958160400391,16.69428634643555,2,0.0.0.0,10.83.46.32,1,0
