loggingTime,loggingSample,locationTimestamp_since1970,locationLatitude,locationLongitude,locationAltitude,locationSpeed,locationCourse,locationVerticalAccuracy,locationHorizontalAccuracy,locationFloor,locationHeadingTimestamp_since1970,locationHeadingX,locationHeadingY,locationHeadingZ,locationTrueHeading,locationMagneticHeading,locationHeadingAccuracy,accelerometerTimestamp_sinceReboot,accelerometerAccelerationX,accelerometerAccelerationY,accelerometerAccelerationZ,gyroTimestamp_sinceReboot,gyroRotationX,gyroRotationY,gyroRotationZ,motionTimestamp_sinceReboot,motionYaw,motionRoll,motionPitch,motionRotationRateX,motionRotationRateY,motionRotationRateZ,motionUserAccelerationX,motionUserAccelerationY,motionUserAccelerationZ,motionAttitudeReferenceFrame,motionQuaternionX,motionQuaternionY,motionQuaternionZ,motionQuaternionW,motionGravityX,motionGravityY,motionGravityZ,motionMagneticFieldX,motionMagneticFieldY,motionMagneticFieldZ,motionMagneticFieldCalibrationAccuracy,IP_en0,IP_pdp_ip0,deviceOrientation,state
2015-03-08 17:25:16.885,39,1425860716.106467,33.32535530909274,-111.9416934159696,361.7235,0,345.234375,3,10,-9999,1425860716.831756,-5.319229125976562,-44.28324890136719,-3.325462818145752,112.3877258300781,101.8651809692383,10,328480.62144625,0.3315887451171875,-0.8787384033203125,0.045806884765625,328480.580642125,0.02789448188970796,-0.5075122173497842,0.3601531226490838,328480.580642125,2.17637943948497,1.281052192170311,1.321520963173207,0.027934854850173,-0.4970889687538147,0.3926645219326019,0.001893285429105163,0.05884364247322083,0.2261088192462921,XTrueNorthZVertical,-0.1895819265726925,0.6548408055474841,0.7309412690222162,-0.03109765419466917,0.2364184856414795,-0.9690914750099182,-0.07048442214727402,-8.669703483581543,-47.0816535949707,-5.890157699584961,2,0.0.0.0,10.144.231.151,1,0
2015-03-08 17:25:16.944,40,1425860716.106467,33.32535530909274,-111.9416934159696,361.7235,0,345.234375,3,10,-9999,1425860716.935063,-5.830787658691406,-44.48713684082031,-1.727867603302002,114.2760314941406,103.7534866333008,10,328480.6703610834,0.2515106201171875,-0.98760986328125,-0.043548583984375,328480.68421375,-0.03147110723368438,-1.672626818447929,0.03983476463707822,328480.6324279167,2.156867183036526,1.275318408626503,1.337869940698871,0.1993558704853058,-0.6417821049690247,0.09509959816932678,0.1988857090473175,0.0847962275147438,0.07008446007966995,XTrueNorthZVertical,-0.1759980740274167,0.6598611772299111,0.7299716556043769,-0.02737292616641404,0.2208225429058075,-0.9729951024055481,-0.06721580773591995,-9.76420783996582,-46.95254516601562,-5.163236618041992,2,0.0.0.0,10.144.231.151,1,0
2015-03-08 17:25:16.983,41,1425860716.106467,33.32535530909274,-111.9416934159696,361.7235,0,345.234375,3,10,-9999,1425860716.935063,-5.830787658691406,-44.48713684082031,-1.727867603302002,114.2760314941406,103.7534866333008,10,328480.71936275,0.189208984375,-1.000457763671875,-0.0585784912109375,328480.68421375,-0.03147110723368438,-1.672626818447929,0.03983476463707822,328480.68421375,2.150178122951526,1.21477356728577,1.344043712379456,-0.03143073618412018,-1.662203788757324,0.07234549522399902,-0.02678697369992733,0.008062479086220264,0.03110240958631039,XTrueNorthZVertical,-0.1497056629500846,0.6621244408705784,0.7342560282855721,-0.006893080451343347,0.2107164114713669,-0.974401593208313,-0.07835888117551804,-10.23476409912109,-46.92967224121094,-4.404040813446045,2,0.0.0.0,10.144.231.151,1,0
2015-03-08 17:25:17.041,42,1425860716.106467,33.32535530909274,-111.9416934159696,361.7235,0,345.234375,3,10,-9999,1425860716.987334,-6.188873291015625,-44.16427612304688,-1.112125873565674,117.3927993774414,106.8702545166016,10,328480.7683745417,0.11956787109375,-1.0020751953125,-0.0084075927734375,328480.7360013333,0.2167216579240322,-1.296747729561928,-0.03370629833658788,328480.7360013333,2.137093965057806,1.152807408727436,1.345998055498622,0.2167994230985641,-1.286433339118958,-0.001044117379933596,-0.04048021510243416,-0.07345497608184814,0.009429550729691982,XTrueNorthZVertical,-0.1219549477290583,0.6632381712113151,0.7381895229490933,0.01784201586633791,0.2037187367677689,-0.9748390913009644,-0.09048423916101456,-10.6242036819458,-46.90549468994141,-3.679784774780273,2,0.0.0.0,10.144.231.151,1,0
2015-03-08 17:25:17.080,43,1425860716.106467,33.32535530909274,-111.9416934159696,361.7235,0,345.234375,3,10,-9999,1425860717.038967,-6.478759765625,-44.04533386230469,-0.4298186302185059,121.6629257202148,111.140380859375,10,328480.8173842084,0.2625579833984375,-1.06732177734375,-0.0727996826171875,328480.7877872917,0.115448832203262,-0.7893098144065567,0.120021213478819,328480.7877872917,2.110535696657781,1.126573372134581,1.356500452204724,0.1155265942215919,-0.7789955139160156,0.1526830643415451,-0.1066010296344757,-0.001785978209227324,-0.003853618400171399,XTrueNorthZVertical,-0.1002152369352001,0.6665290952777044,0.7379709097392444,0.03308773431727262,0.1920197308063507,-0.9771263599395752,-0.09139174222946167,-11.08665561676025,-46.88452529907227,-2.338279724121094,2,0.0.0.0,10.144.231.151,1,0
2015-03-08 17:25:17.147,44,1425860717.102317,33.32535530909274,-111.9416934159696,361.4518,0,345.234375,3,10,-9999,1425860717.09077,-6.768646240234375,-43.96037292480469,0.6851716041564941,124.89501953125,114.3724746704102,10,328480.8663995417,0.3664398193359375,-0.89239501953125,-0.1923828125,328480.8395729167,-0.01207450606631026,-0.8253615587151774,0.09302634740533985,328480.8395729167,2.097894010439981,1.100762181434349,1.360657565943475,-0.01199674233794212,-0.8150473833084106,0.125687837600708,0.1309815943241119,0.01189174968749285,-0.02165822125971317,XTrueNorthZVertical,-0.08519229714650019,0.6674609062391927,0.738381256291933,0.0450701880994124,0.1859739720821381,-0.9780019521713257,-0.09447642415761948,-11.28662872314453,-46.86347579956055,-1.722455263137817,2,0.0.0.0,10.144.231.151,1,0
2015-03-08 17:25:17.179,45,1425860717.102317,33.32535530909274,-111.9416934159696,361.4518,0,345.234375,3,10,-9999,1425860717.141925,-7.160835266113281,-44.14729309082031,0.9347958564758301,126.003303527832,115.4807586669922,10,328480.9154647917,0.242767333984375,-0.953338623046875,-0.07623291015625,328480.8913609167,-0.01836675677384048,-1.193631996366823,0.1671650237276197,328480.8913609167,2.127564901141036,1.02071465231475,1.363470682925781,-0.0182889923453331,-1.183317899703979,0.1998262256383896,0.1365186125040054,0.005913403816521168,-0.02316171489655972,XTrueNorthZVertical,-0.06459890626240701,0.6648488004656506,0.7417651424935062,0.05989588934130839,0.1754778474569321,-0.978584885597229,-0.1076061055064201,-11.54925346374512,-46.81100845336914,-1.372817277908325,2,0.0.0.0,10.144.231.151,1,0
2015-03-08 17:25:17.237,46,1425860717.102317,33.32535530909274,-111.9416934159696,361.4518,0,345.234375,3,10,-9999,1425860717.194144,-7.348396301269531,-43.96037292480469,1.384121417999268,129.3635406494141,118.8409881591797,10,328480.964438375,0.1526947021484375,-0.9803314208984375,0.0023956298828125,328480.9431465,-0.2081859603142192,-1.085988889318583,0.1293153793670866,328480.9431465,2.184883846388352,0.9105408049889175,1.37230471625142,-0.2081081867218018,-1.075674891471863,0.1619762480258942,0.03874026983976364,0.06398329883813858,-0.003281034762039781,XTrueNorthZVertical,-0.04007366613306509,0.6617580508212303,0.7451214875636479,0.07255578940504713,0.1557482481002808,-0.9803651571273804,-0.1209407672286034,-12.30768203735352,-46.63152694702148,-0.7494473457336426,2,0.0.0.0,10.144.231.151,1,0
2015-03-08 17:25:17.276,47,1425860717.102317,33.32535530909274,-111.9416934159696,361.4518,0,345.234375,3,10,-9999,1425860717.250787,-7.501869201660156,-43.8414306640625,1.933297634124756,132.6047668457031,122.0822143554688,10,328481.013446375,0.156951904296875,-0.9792938232421875,-0.1082916259765625,328480.994932375,-0.0881477026044237,-0.8452399257237468,0.01048699574051402,328480.994932375,2.215844195979624,0.830677331408383,1.373042978477126,-0.08806993812322617,-0.8349260687828064,0.04314750805497169,-0.02774404920637608,-0.05286052823066711,0.05827378109097481,XTrueNorthZVertical,-0.02028399736065507,0.6582873939097859,0.7474290041353864,0.08715584086583741,0.145068883895874,-0.9805104732513428,-0.1324925273656845,-12.58819198608398,-46.56086349487305,-0.404181957244873,2,0.0.0.0,10.144.231.151,1,0
2015-03-08 17:25:17.339,48,1425860717.102317,33.32535530909274,-111.9416934159696,361.4518,0,345.234375,3,10,-9999,1425860717.323409,-7.535957336425781,-43.8414306640625,2.299410820007324,135.7556915283203,125.2331390380859,10,328481.06245525,0.21063232421875,-0.970001220703125,0.00421142578125,328481.0467201667,-0.09796757649187288,-0.4694186274333998,-0.2289463662758229,328481.0467201667,2.231835473853079,0.783408295157911,1.363912345713995,-0.09788981080055237,-0.4591048657894135,-0.1962861716747284,0.08872994780540466,0.0333021953701973,0.1114330589771271,XTrueNorthZVertical,-0.01028638281796766,0.6535487467131144,0.7502992916114074,0.09909182284614448,0.1449584066867828,-0.9786757230758667,-0.1455364525318146,-12.59522151947021,-46.55987930297852,-0.2797513008117676,2,0.0.0.0,10.144.231.151,1,0
2015-03-08 17:25:17.375,49,1425860717.102317,33.32535530909274,-111.9416934159696,361.4518,0,345.234375,3,10,-9999,1425860717.323409,-7.535957336425781,-43.8414306640625,2.299410820007324,135.7556915283203,125.2331390380859,10,328481.111559375,0.257171630859375,-1.044967651367188,-0.155364990234375,328481.098506125,-0.3776783205184592,-0.732790345540132,-0.3600183666979258,328481.0467201667,2.231835473853079,0.783408295157911,1.363912345713995,-0.09788981080055237,-0.4591048657894135,-0.1962861716747284,0.08872994780540466,0.0333021953701973,0.1114330589771271,XTrueNorthZVertical,-0.01028638281796766,0.6535487467131144,0.7502992916114074,0.09909182284614448,0.1449584066867828,-0.9786757230758667,-0.1455364525318146,-12.59522151947021,-46.55987930297852,-0.2797513008117676,2,0.0.0.0,10.144.231.151,1,0
2015-03-08 17:25:17.437,50,1425860717.102317,33.32535530909274,-111.9416934159696,361.4518,0,345.234375,3,10,-9999,1425860717.427501,-6.137702941894531,-44.28327941894531,2.432540893554688,141.7267456054688,131.2041931152344,10,328481.1604604167,0.0928955078125,-0.9204254150390625,-0.11785888671875,328481.1502918333,-0.4610315342124133,-0.5703289969298102,-0.4752823755215363,328481.1502918333,2.217994631535161,0.732925714755073,1.326883041466454,-0.4609537720680237,-0.5600154399871826,-0.4426228106021881,-0.03610307723283768,0.05273676663637161,0.191680833697319,XTrueNorthZVertical,0.003432919329925986,0.6405026787164461,0.7568324999871137,0.1301886743710758,0.1615760922431946,-0.970400333404541,-0.1794890612363815,-11.45685958862305,-46.85090637207031,-0.5222406387329102,2,0.0.0.0,10.144.231.151,1,0
2015-03-08 17:25:17.473,51,1425860717.102317,33.32535530909274,-111.9416934159696,361.4518,0,345.234375,3,10,-9999,1425860717.427501,-6.137702941894531,-44.28327941894531,2.432540893554688,141.7267456054688,131.2041931152344,10,328481.2094681667,0.273193359375,-0.95635986328125,-0.0308074951171875,328481.20207975,-0.5452161867986901,0.08905237842672362,-0.9859536345563725,328481.1502918333,2.217994631535161,0.732925714755073,1.326883041466454,-0.4609537720680237,-0.5600154399871826,-0.4426228106021881,-0.03610307723283768,0.05273676663637161,0.191680833697319,XTrueNorthZVertical,0.003432919329925986,0.6405026787164461,0.7568324999871137,0.1301886743710758,0.1615760922431946,-0.970400333404541,-0.1794890612363815,-11.45685958862305,-46.85090637207031,-0.5222406387329102,2,0.0.0.0,10.144.231.151,1,0
2015-03-08 17:25:17.539,52,1425860717.102317,33.32535530909274,-111.9416934159696,361.4518,0,345.234375,3,10,-9999,1425860717.532458,-2.966075897216797,-44.48721313476562,0.5353941917419434,146.1654357910156,135.6428833007812,10,328481.2584882917,0.2868194580078125,-0.9199371337890625,-0.0439300537109375,328481.2538654584,-0.6520129412525026,0.09077704154865893,-0.8818328243658715,328481.20207975,2.184234014238753,0.7554848056310964,1.279503029488879,-0.545138418674469,0.09936581552028656,-0.9532943964004517,0.08757457882165909,0.01869478635489941,0.1739320456981659,XTrueNorthZVertical,-0.007035117911849874,0.6288255861828963,0.7632927924657789,0.1480303772771241,0.1969102919101715,-0.9578732252120972,-0.2090577781200409,-10.25930404663086,-47.10921859741211,-1.41706657409668,2,0.0.0.0,10.144.231.151,1,0
2015-03-08 17:25:17.570,53,1425860717.102317,33.32535530909274,-111.9416934159696,361.4518,0,345.234375,3,10,-9999,1425860717.532458,-2.966075897216797,-44.48721313476562,0.5353941917419434,146.1654357910156,135.6428833007812,10,328481.3074943334,0.19378662109375,-1.005020141601562,-0.09454345703125,328481.3056514583,-0.6120538069925177,0.0141262053701073,-0.5717204985993767,328481.2538654584,2.153099084330005,0.7951758121085922,1.229625358860498,-0.6519351601600647,0.1010903865098953,-0.849173903465271,0.006437441799789667,-0.003513558534905314,0.2302690297365189,XTrueNorthZVertical,-0.02616532688341378,0.6182086720180284,0.7689728511296876,0.160667850192812,0.2388933748006821,-0.9423635005950928,-0.2342668324708939,-7.764220237731934,-47.50447463989258,-3.095458030700684,2,0.0.0.0,10.144.231.151,1,0
2015-03-08 17:25:17.657,54,1425860717.102317,33.32535530909274,-111.9416934159696,361.4518,0,345.234375,3,10,-9999,1425860717.582791,-1.226787567138672,-45.06497192382812,-1.095485210418701,147.5360717773438,137.0135192871094,10,328481.356509875,0.20880126953125,-0.9731292724609375,-0.27178955078125,328481.357439125,-0.6780903483304496,0.583126284915968,-0.4220561716591036,328481.3056514583,2.156100303555137,0.7974534914020512,1.182798301100575,-0.6119760274887085,0.02443944849073887,-0.5390619039535522,-0.02382704988121986,-0.08074035495519638,0.1096316650509834,XTrueNorthZVertical,-0.0409174597822094,0.6051330548284999,0.7764226583628934,0.171194606716765,0.2707295119762421,-0.9256683588027954,-0.2642794847488403,-6.16512393951416,-47.61917495727539,-4.57663631439209,2,0.0.0.0,10.144.231.151,1,0
2015-03-08 17:25:17.669,55,1425860717.102317,33.32535530909274,-111.9416934159696,361.4518,0,345.234375,3,10,-9999,1425860717.657919,0.20556640625,-45.26887512207031,-2.82621431350708,147.1221466064453,136.5995941162109,10,328481.4055189583,0.209228515625,-0.8343048095703125,-0.258758544921875,328481.357439125,-0.6780903483304496,0.583126284915968,-0.4220561716591036,328481.357439125,2.178241379879716,0.7888785360823735,1.145551532781083,-0.6780125498771667,0.5934394598007202,-0.3893979489803314,-0.08392472565174103,-0.06219150125980377,0.01890591345727444,XTrueNorthZVertical,-0.05441683161791179,0.5930354764885217,0.7840745530291378,0.1748565632287472,0.2927260100841522,-0.9109377861022949,-0.290695458650589,-5.142553329467773,-47.58945465087891,-5.944589138031006,2,0.0.0.0,10.144.231.151,1,0
2015-03-08 17:25:17.771,56,1425860717.102317,33.32535530909274,-111.9416934159696,361.4518,0,345.234375,3,10,-9999,1425860717.721325,2.115371704101562,-45.67671203613281,-5.622009754180908,146.0745239257812,135.5519714355469,10,328481.4545253334,0.3006591796875,-1.002471923828125,-0.2899322509765625,328481.4610107917,-0.5666490409355388,0.8396454232218173,-0.3810272455892339,328481.4092249583,2.203761574905887,0.7997152929841634,1.106828285164191,-0.71124267578125,1.003566145896912,-0.4058084189891815,-0.1116996705532074,0.05997903272509575,0.05310920253396034,XTrueNorthZVertical,-0.07664288618775258,0.5815427705680511,0.7915065235183024,0.1716137744300514,0.3209281861782074,-0.8942838311195374,-0.311867743730545,-3.801006317138672,-47.40419006347656,-8.058230400085449,2,0.0.0.0,10.144.231.151,1,0
2015-03-08 17:25:17.783,57,1425860717.102317,33.32535530909274,-111.9416934159696,361.4518,0,345.234375,3,10,-9999,1425860717.773404,3.05322265625,-45.69369506835938,-7.202968120574951,143.7832641601562,133.2607116699219,10,328481.5035265417,0.4029083251953125,-0.710296630859375,-0.4225311279296875,328481.4610107917,-0.5666490409355388,0.8396454232218173,-0.3810272455892339,328481.4610107917,2.21887364793249,0.8376958237271266,1.067078969033216,-0.5665712356567383,0.8499583601951599,-0.3483696579933167,-0.05802520737051964,-0.126677617430687,0.03306903317570686,XTrueNorthZVertical,-0.1067352860788723,0.5719326327043209,0.7964263621880593,0.1649414511721366,0.3586843907833099,-0.8757942914962769,-0.3230012953281403,-2.323423385620117,-47.19776153564453,-9.670225143432617,2,0.0.0.0,10.144.231.151,1,0
2015-03-08 17:25:17.861,58,1425860717.102317,33.32535530909274,-111.9416934159696,361.4518,0,345.234375,3,10,-9999,1425860717.773404,3.05322265625,-45.69369506835938,-7.202968120574951,143.7832641601562,133.2607116699219,10,328481.55254375,0.457855224609375,-0.9279632568359375,-0.3441009521484375,328481.5127985834,-0.681130879346993,1.040022462587706,-0.8140034429820984,328481.5127985834,2.235358011076347,0.8805602738806078,1.027683943214379,-0.6810531616210938,1.050335288047791,-0.7813461422920227,0.004403732717037201,0.1458077132701874,-0.09347272664308548,XTrueNorthZVertical,-0.1390459305448569,0.5622606396263999,0.8000163056139948,0.1565346716445663,0.3985045850276947,-0.85610431432724,-0.3290584087371826,-1.054162979125977,-46.94520568847656,-11.02618217468262,2,0.0.0.0,10.144.231.151,1,0
2015-03-08 17:25:17.865,59,1425860717.102317,33.32535530909274,-111.9416934159696,361.4518,0,345.234375,3,10,-9999,1425860717.844193,5.576892852783203,-45.01396179199219,-9.865629196166992,140.4074249267578,129.8848724365234,10,328481.6015592917,0.67669677734375,-0.820892333984375,-0.4945220947265625,328481.5645844584,-0.8425437414361506,1.125089154127017,-0.8183076439358845,328481.5645844584,2.245903433630618,0.9190964729066262,0.968973697842647,-0.8424659967422485,1.135401844978333,-0.7856507301330566,0.05833692848682404,-0.02126068435609341,-0.001886506681330502,XTrueNorthZVertical,-0.1730318582152766,0.5462282397760582,0.8043476478043288,0.1572244826185512,0.4501164555549622,-0.8243051171302795,-0.3433893620967865,1.912431716918945,-46.37008666992188,-13.14144515991211,2,0.0.0.0,10.144.231.151,1,0
2015-03-08 17:25:17.939,60,1425860717.102317,33.32535530909274,-111.9416934159696,361.4518,0,345.234375,3,10,-9999,1425860717.920552,9.15777587890625,-44.19831848144531,-11.82934188842773,139.2871551513672,128.7646026611328,10,328481.650587,0.5621337890625,-0.657958984375,-0.314178466796875,328481.6163703334,-0.4338190878778746,0.771639740573881,-0.7575204594226078,328481.6163703334,2.246632046117983,0.9758761027169234,0.9221116028116023,-0.4337413311004639,0.7819523811340332,-0.7248638272285461,0.1960979998111725,-0.1060292273759842,-0.1802594363689423,XTrueNorthZVertical,-0.2084770406793133,0.5359521778216606,0.8034280913136048,0.1542591295039043,0.5003436803817749,-0.7968791127204895,-0.3385851681232452,4.266061782836914,-45.85147094726562,-14.35211753845215,2,0.0.0.0,10.144.231.151,1,0
2015-03-08 17:25:17.962,61,1425860717.102317,33.32535530909274,-111.9416934159696,361.4518,0,345.234375,3,10,-9999,1425860717.920552,9.15777587890625,-44.19831848144531,-11.82934188842773,139.2871551513672,128.7646026611328,10,328481.6995932084,0.550994873046875,-0.9542694091796875,-0.3182525634765625,328481.6681581667,-0.1852308432982813,0.1378244453659987,-0.2673603344713439,328481.6681581667,2.239935619479303,0.9981287239506725,0.8993833611280341,-0.1851530820131302,0.1481369733810425,-0.2347040325403214,0.01017680577933788,0.08918734639883041,0.1133423000574112,XTrueNorthZVertical,-0.2216593256252663,0.5313365699843425,0.8023793996612326,0.1572764512227284,0.5228432416915894,-0.7829434275627136,-0.3370971977710724,5.900836944580078,-45.51686477661133,-14.83021545410156,2,0.0.0.0,10.144.231.151,1,0
2015-03-08 17:25:18.044,62,1425860717.102317,33.32535530909274,-111.9416934159696,361.4518,0,345.234375,3,10,-9999,1425860718.023346,12.22710800170898,-44.2322998046875,-13.42693901062012,139.2175598144531,128.6950073242188,10,328481.7486127917,0.6221771240234375,-0.89031982421875,-0.3425750732421875,328481.7199440417,-0.6516645997819203,1.256741989982866,-0.6617332129151828,328481.7199440417,2.254657282078177,1.00917264959006,0.860769043793019,-0.6516270041465759,1.266985297203064,-0.6289464831352234,0.006610270589590073,-0.199892595410347,0.02606166899204254,XTrueNorthZVertical,-0.2401500895646994,0.5184127227659745,0.8051370423404021,0.1591556369001577,0.5517240762710571,-0.7583441138267517,-0.3471523523330688,7.306121826171875,-44.97591781616211,-15.82174110412598,2,0.0.0.0,10.144.231.151,1,0
2015-03-08 17:25:18.060,63,1425860717.102317,33.32535530909274,-111.9416934159696,361.4518,0,345.234375,3,10,-9999,1425860718.023346,12.22710800170898,-44.2322998046875,-13.42693901062012,139.2175598144531,128.6950073242188,10,328481.7976164167,1.032485961914062,-0.6119842529296875,-0.378082275390625,328481.7717299584,-0.8460918709564631,1.906293637755918,-0.7903172882469337,328481.7717299584,2.277567384410061,1.085997591117907,0.814621934470818,-0.8460542559623718,1.916536808013916,-0.7575308680534363,0.245689645409584,-0.1393245309591293,-0.05512954667210579,XTrueNorthZVertical,-0.2888382302468894,0.5066464803341355,0.7995980035496619,0.143264942611868,0.6070783138275146,-0.7274662256240845,-0.3197636306285858,9.779964447021484,-44.24271392822266,-16.53706550598145,2,0.0.0.0,10.144.231.151,1,0
2015-03-08 17:25:18.144,64,1425860718.106658,33.32536934878055,-111.9416904823034,361.5008,0.16,345.234375,3,10,-9999,1425860718.074516,14.71667098999023,-43.48458862304688,-14.25901985168457,136.3707122802734,125.8481597900391,10,328481.84663725,0.98797607421875,-0.60260009765625,-0.2046051025390625,328481.8235178334,-0.9885632661085412,0.2699590470630432,-1.153635311535468,328481.8235178334,2.308815841905587,1.121073456421783,0.7501870607235066,-0.9885256290435791,0.2802021205425262,-1.120849132537842,0.3323294520378113,0.07742076367139816,-0.03257979452610016,XTrueNorthZVertical,-0.3269081020297352,0.4838598885258059,0.7995230616026614,0.1406185102251031,0.6588204503059387,-0.6817756295204163,-0.3180214166641235,12.681809425354,-43.12651824951172,-17.48756408691406,2,0.0.0.0,10.144.231.151,1,0
2015-03-08 17:25:18.158,65,1425860718.106658,33.32536934878055,-111.9416904823034,361.5008,0.16,345.234375,3,10,-9999,1425860718.126531,17.35970306396484,-42.31205749511719,-15.70684242248535,134.753173828125,124.2306213378906,10,328481.8956372084,0.6092529296875,-0.5449981689453125,-0.33770751953125,328481.8753036667,-0.9228939746849313,-0.8238241158178746,-1.142042837626462,328481.8753036667,2.328638692886337,1.087796113797731,0.6770213168097466,-0.922856330871582,-0.813581109046936,-1.109257102012634,0.2129962146282196,0.1170289069414139,0.09515709429979324,XTrueNorthZVertical,-0.3359865411762359,0.4539952026520291,0.8093146199339754,0.1612799938858089,0.6902783513069153,-0.6264740824699402,-0.3620027899742126,15.542311668396,-41.0865478515625,-19.9216480255127,2,0.0.0.0,10.144.231.151,1,0
2015-03-08 17:25:18.251,66,1425860718.106658,33.32536934878055,-111.9416904823034,361.5008,0.16,345.234375,3,10,-9999,1425860718.231582,18.02472686767578,-40.0859375,-20.54956245422363,141.3259124755859,130.8033599853516,10,328481.9446515417,0.433746337890625,-0.4488677978515625,-0.287017822265625,328481.927089625,-0.8585131205967017,-2.323514574139874,0.7415247149672649,328481.927089625,2.374692961738357,0.9704930919265935,0.6446198865709402,-0.8584755063056946,-2.313271522521973,0.7743101119995117,-0.1932990849018097,0.02330370433628559,0.1462368369102478,XTrueNorthZVertical,-0.3054545735526845,0.4253588559985514,0.8333557573685935,0.1768771300346026,0.6595771908760071,-0.6008946299552917,-0.4515346884727478,15.38532257080078,-39.71263122558594,-22.64373397827148,2,0.0.0.0,10.144.231.151,1,0
2015-03-08 17:25:18.257,67,1425860718.106658,33.32536934878055,-111.9416904823034,361.5008,0.16,345.234375,3,10,-9999,1425860718.231582,18.02472686767578,-40.0859375,-20.54956245422363,141.3259124755859,130.8033599853516,10,328481.993658875,0.37286376953125,-0.569610595703125,-0.315521240234375,328481.9788774584,-0.1870489833744783,-0.4249169393020668,1.169441971553415,328481.927089625,2.374692961738357,0.9704930919265935,0.6446198865709402,-0.8584755063056946,-2.313271522521973,0.7743101119995117,-0.1932990849018097,0.02330370433628559,0.1462368369102478,XTrueNorthZVertical,-0.3054545735526845,0.4253588559985514,0.8333557573685935,0.1768771300346026,0.6595771908760071,-0.6008946299552917,-0.4515346884727478,15.38532257080078,-39.71263122558594,-22.64373397827148,2,0.0.0.0,10.144.231.151,1,0
2015-03-08 17:25:18.343,68,1425860718.106658,33.32536934878055,-111.9416904823034,361.5008,0.16,345.234375,3,10,-9999,1425860718.284651,15.39874267578125,-39.74606323242188,-22.51327705383301,140.1495971679688,129.6270446777344,10,328482.0426665417,0.4849853515625,-0.5000457763671875,-0.3115081787109375,328482.0306633334,-0.04328062877153175,0.6801164812877818,2.347372502765348,328482.0306633334,2.53541034669792,0.8107891673614448,0.7368118968035527,-0.04324303194880486,0.6903591156005859,2.380157232284546,-0.1328592151403427,0.1225222125649452,0.1471919417381287,XTrueNorthZVertical,-0.2523730287017963,0.4256680966915792,0.8606027596505335,0.1203220938732581,0.5368204116821289,-0.671930193901062,-0.5102290511131287,7.65167236328125,-40.00453948974609,-25.8385124206543,2,0.0.0.0,10.144.231.151,1,0
2015-03-08 17:25:18.354,69,1425860718.106658,33.32536934878055,-111.9416904823034,361.5008,0.16,345.234375,3,10,-9999,1425860718.284651,15.39874267578125,-39.74606323242188,-22.51327705383301,140.1495971679688,129.6270446777344,10,328482.0916620417,0.543212890625,-0.68792724609375,-0.2770538330078125,328482.08244925,0.4218372598174991,1.355605187549333,2.525198959284882,328482.0306633334,2.53541034669792,0.8107891673614448,0.7368118968035527,-0.04324303194880486,0.6903591156005859,2.380157232284546,-0.1328592151403427,0.1225222125649452,0.1471919417381287,XTrueNorthZVertical,-0.2523730287017963,0.4256680966915792,0.8606027596505335,0.1203220938732581,0.5368204116821289,-0.671930193901062,-0.5102290511131287,7.65167236328125,-40.00453948974609,-25.8385124206543,2,0.0.0.0,10.144.231.151,1,0
2015-03-08 17:25:18.444,70,1425860718.106658,33.32536934878055,-111.9416904823034,361.5008,0.16,345.234375,3,10,-9999,1425860718.419522,4.911865234375,-40.98654174804688,-22.59648895263672,116.4473266601562,105.9247817993164,10,328482.1406769167,0.6187744140625,-0.70751953125,-0.396728515625,328482.134237125,0.7392186837793653,0.06758010950574174,2.498430994536278,328482.08244925,2.647582969650543,0.7870207706548068,0.835986131636386,0.4218748509883881,1.365847706794739,2.5579833984375,0.0853501558303833,0.1234277486801147,0.2536875307559967,XTrueNorthZVertical,-0.2481220223701134,0.4492013136556317,0.8564922109511224,0.05545020067038395,0.4748457670211792,-0.7419580221176147,-0.4733072817325592,4.237699508666992,-40.81176376342773,-25.35708808898926,2,0.0.0.0,10.144.231.151,1,0
2015-03-08 17:25:18.454,71,1425860718.106658,33.32536934878055,-111.9416904823034,361.5008,0.16,345.234375,3,10,-9999,1425860718.419522,4.911865234375,-40.98654174804688,-22.59648895263672,116.4473266601562,105.9247817993164,10,328482.1896727917,0.3572540283203125,-0.709869384765625,-0.295654296875,328482.1860230833,1.092974893490079,-0.9464600208549334,2.443886525934256,328482.134237125,2.763016901414443,0.7428784277408853,0.9453860701185159,0.7392562627792358,0.07782256603240967,2.531215190887451,0.1686298847198486,0.1204459145665169,0.01451179012656212,XTrueNorthZVertical,-0.2375605130140374,0.4774654238330301,0.8459038870323109,-0.006194832797448264,0.3959910869598389,-0.8107230067253113,-0.4311835467815399,0.8955936431884766,-41.62847900390625,-24.3476390838623,2,0.0.0.0,10.144.231.151,1,0
2015-03-08 17:25:18.565,72,1425860718.106658,33.32536934878055,-111.9416904823034,361.5008,0.16,345.234375,3,10,-9999,1425860718.492381,-3.085433959960938,-41.71723937988281,-19.08510208129883,106.5630569458008,96.04051208496094,10,328482.2386886667,0.135345458984375,-0.9575653076171875,-0.36395263671875,328482.2378089583,1.181748172634562,-1.25842963516565,1.882810415895817,328482.1860230833,2.879109983606816,0.6249196239644325,1.062461002142202,1.093012452125549,-0.9362176656723022,2.476670265197754,0.1228132620453835,0.1613519787788391,0.08081880956888199,XTrueNorthZVertical,-0.1996710056803365,0.5126036978335199,0.833761294232556,-0.04702162318515425,0.2847490012645721,-0.8735559582710266,-0.3947378695011139,-5.439905166625977,-42.53675842285156,-22.08102416992188,2,0.0.0.0,10.144.231.151,1,0
2015-03-08 17:25:18.575,73,1425860718.106658,33.32536934878055,-111.9416904823034,361.5008,0.16,345.234375,3,10,-9999,1425860718.492381,-3.085433959960938,-41.71723937988281,-19.08510208129883,106.5630569458008,96.04051208496094,10,328482.2876874167,0.2709503173828125,-1.179916381835938,-0.2263946533203125,328482.2378089583,1.181748172634562,-1.25842963516565,1.882810415895817,328482.2378089583,3.039073484018835,0.4178939881153152,1.170885836962414,1.181785702705383,-1.24818742275238,1.915593862533569,0.02960007078945637,-0.004395485855638981,0.02369377762079239,XTrueNorthZVertical,-0.1449627494477115,0.5486983520564115,0.8201412259225904,-0.07269305066261664,0.1580067425966263,-0.9210958480834961,-0.3558318316936493,-11.18028450012207,-42.71098327636719,-19.42454719543457,2,0.0.0.0,10.144.231.151,1,0
2015-03-08 17:25:18.639,74,1425860718.106658,33.32536934878055,-111.9416904823034,361.5008,0.16,345.234375,3,10,-9999,1425860718.569704,-10.60529327392578,-41.05447387695312,-14.70834732055664,103.71923828125,93.19669342041016,10,328482.3367066667,0.7459259033203125,-1.449539184570312,-0.486083984375,328482.3413827917,0.871865145037923,2.361448374390853,-0.6165164660311635,328482.2895969167,-3.090151360893108,0.2424268307998193,1.25436635852252,1.219936847686768,0.4742042124271393,1.242090821266174,0.1962497234344482,-0.2295639961957932,0.07568176835775375,XTrueNorthZVertical,-0.1128541768328487,0.5798497440870313,0.8016520332139356,-0.09160904456906191,0.07470060139894485,-0.9503523707389832,-0.3020764291286469,-15.52775764465332,-42.62182235717773,-16.3953971862793,2,0.0.0.0,10.144.231.151,1,0
2015-03-08 17:25:18.654,75,1425860718.106658,33.32536934878055,-111.9416904823034,361.5008,0.16,345.234375,3,10,-9999,1425860718.644727,-12.97550201416016,-40.96951293945312,-12.2287425994873,96.42963409423828,85.90708923339844,10,328482.3857069584,0.040924072265625,-0.96295166015625,-0.1840972900390625,328482.3413827917,0.871865145037923,2.361448374390853,-0.6165164660311635,328482.3413827917,-3.137183536251728,0.3803325481000861,1.316526794555626,0.8719027638435364,2.371690273284912,-0.5837336778640747,0.6525474786758423,-0.4816918969154358,-0.2525201439857483,XTrueNorthZVertical,-0.1508510353473834,0.6003849153258903,0.7765384510190364,-0.1173454005149308,0.09337843954563141,-0.9678472876548767,-0.2335638403892517,-16.21510314941406,-43.16329956054688,-14.16121292114258,2,0.0.0.0,10.144.231.151,1,0
2015-03-08 17:25:18.710,76,1425860718.106658,33.32536934878055,-111.9416904823034,361.5008,0.16,345.234375,3,10,-9999,1425860718.698833,-13.41886138916016,-40.8675537109375,-11.16367721557617,96.71051025390625,86.18796539306641,10,328482.4347182917,0.1795196533203125,-0.7749786376953125,0.1019744873046875,328482.39316875,0.1747438475577672,-2.168918072860774,0.9057935510094235,328482.39316875,-3.056431251908316,0.2769719003784251,1.333715503233338,0.1747814416885376,-2.158676147460938,0.9385760426521301,-0.02329869754612446,0.009076070971786976,0.04181754216551781,XTrueNorthZVertical,-0.134449153180997,0.6074257236906492,0.7739062430873395,-0.1184336635739706,0.06422276794910431,-0.9720277190208435,-0.2259148359298706,-15.96064758300781,-43.35389709472656,-13.8649730682373,2,0.0.0.0,10.144.231.151,1,0
2015-03-08 17:25:18.760,77,1425860718.106658,33.32536934878055,-111.9416904823034,361.5008,0.16,345.234375,3,10,-9999,1425860718.749206,-14.57837677001953,-40.90153503417969,-9.932195663452148,97.47117614746094,86.94863128662109,10,328482.4837285834,0.121337890625,-1.0458984375,-0.03717041015625,328482.4449567084,0.3148516872423999,0.1322999840007384,0.04624632496144399,328482.4449567084,-2.947527173716215,0.1073778776217946,1.349919509394411,0.3148892521858215,0.1425418257713318,0.07902847975492477,0.08247730880975723,0.1783424466848373,0.3020976781845093,XTrueNorthZVertical,-0.1021495825602478,0.6169714543776814,0.7726912379049011,-0.1089032987569971,0.02347972244024277,-0.9757057428359985,-0.2178233712911606,-18.64531326293945,-42.83317947387695,-12.00878620147705,2,0.0.0.0,10.144.231.151,1,0
2015-03-08 17:25:18.810,78,1425860718.106658,33.32536934878055,-111.9416904823034,361.5008,0.16,345.234375,3,10,-9999,1425860718.801644,-15.31160736083984,-40.91853332519531,-9.41630744934082,95.51767730712891,84.99513244628906,10,328482.5327482084,0.212432861328125,-1.010971069335938,-0.1756744384765625,328482.4967426667,0.4100804688692353,1.039355873366859,0.1870873328941755,328482.4967426667,-2.95518403640854,0.1670682179467865,1.376099939037468,0.410118043422699,1.04959762096405,0.2198691517114639,0.1701287180185318,-0.1259949803352356,0.08066745102405548,XTrueNorthZVertical,-0.1230701172169911,0.6240723589180809,0.7615196920921189,-0.1243993005922916,0.0321723073720932,-0.9811064600944519,-0.1907748728990555,-18.48131561279297,-43.03900527954102,-11.51630401611328,2,0.0.0.0,10.144.231.151,1,0
2015-03-08 17:25:18.854,79,1425860718.106658,33.32536934878055,-111.9416904823034,361.5008,0.16,345.234375,3,10,-9999,1425860718.801644,-15.31160736083984,-40.91853332519531,-9.41630744934082,95.51767730712891,84.99513244628906,10,328482.581760125,-0.0647430419921875,-0.897369384765625,-0.0155029296875,328482.5485285834,-0.0557548753174629,-0.9017623240673706,0.1990065766689341,328482.5485285834,-2.88258092448464,0.08621320895294766,1.382632489244957,-0.05571728199720383,-0.8915206789970398,0.2317880988121033,0.1493443697690964,0.02861400321125984,0.0773213729262352,XTrueNorthZVertical,-0.1151809532217444,0.6273380325782706,0.7596981615809547,-0.12664530996283,0.01610667817294598,-0.9823493361473083,-0.1863606870174408,-18.86271476745605,-42.91412353515625,-11.36291980743408,2,0.0.0.0,10.144.231.151,1,0
2015-03-08 17:25:18.912,80,1425860718.106658,33.32536934878055,-111.9416904823034,361.5008,0.16,345.234375,3,10,-9999,1425860718.854374,-15.37981414794922,-40.57868957519531,-8.883773803710938,96.25891876220703,85.73637390136719,10,328482.6307982084,-0.0526123046875,-1.062149047851562,-0.031005859375,328482.6003165,0.02502173002183948,0.1226042134200869,-0.02760419733088932,328482.6003165,-2.853111693314414,0.03491065549916921,1.380865694360272,0.02505932003259659,0.1328457593917847,0.005177008919417858,-0.1020179390907288,0.06005078181624413,0.1306312680244446,XTrueNorthZVertical,-0.1048475307453743,0.6282269851822372,0.7612500685404775,-0.1218038336090544,0.006589469499886036,-0.9820173382759094,-0.1886757016181946,-19.59394836425781,-42.71890258789062,-10.8495569229126,2,0.0.0.0,10.144.231.151,1,0
2015-03-08 17:25:18.952,81,1425860718.106658,33.32536934878055,-111.9416904823034,361.5008,0.16,345.234375,3,10,-9999,1425860718.931024,-15.66968536376953,-40.39175415039062,-8.767280578613281,94.85410308837891,84.33155822753906,10,328482.6798095,0.2274627685546875,-0.9688262939453125,-0.0438995361328125,328482.6521024583,0.1558276806510434,0.8313408879946232,0.06680406436409266,328482.6521024583,-2.846685659260106,0.06683691629578097,1.385569689701535,0.1558652818202972,0.8415823578834534,0.0995849072933197,0.1060928031802177,-0.1265567541122437,0.1604731380939484,XTrueNorthZVertical,-0.1192134120964018,0.6276218104062899,0.7575601707138435,-0.1340955016992924,0.01230014208704233,-0.9828945398330688,-0.1837580502033234,-19.34766960144043,-42.72991180419922,-11.2411060333252,2,0.0.0.0,10.144.231.151,1,0
2015-03-08 17:25:19.004,82,1425860718.106658,33.32536934878055,-111.9416904823034,361.5008,0.16,345.234375,3,10,-9999,1425860718.984629,-15.97662353515625,-39.98391723632812,-8.567581176757812,92.79835510253906,82.27581024169922,10,328482.7288428334,0.16925048828125,-1.026321411132812,-0.0315093994140625,328482.7038884167,0.2233438742906232,-0.3379511475894202,0.3359503146624437,328482.7038884167,-2.756879389567972,-0.01600675999333083,1.398841239867491,0.2233438789844513,-0.3277788758277893,0.3688649833202362,0.2784650921821594,0.07035038620233536,0.100621871650219,XTrueNorthZVertical,-0.1170567930099555,0.6330515195293644,0.752062916275697,-0.141226205585187,-0.002738781739026308,-0.9852521419525146,-0.1710869669914246,-19.62466812133789,-42.63082122802734,-11.13667488098145,2,0.0.0.0,10.144.231.151,1,0
2015-03-08 17:25:19.040,83,1425860718.106658,33.32536934878055,-111.9416904823034,361.5008,0.16,345.234375,3,10,-9999,1425860718.984629,-15.97662353515625,-39.98391723632812,-8.567581176757812,92.79835510253906,82.27581024169922,10,328482.7778479584,-0.1024169921875,-1.030410766601562,-0.0790863037109375,328482.7556763333,0.05404512589763203,-1.386775091263729,0.1572324981260602,328482.7556763333,-2.672255304453893,-0.1428795836357063,1.404776048871016,0.05404512584209442,-1.3766028881073,0.1901468634605408,0.03166475892066956,0.03399500995874405,0.09939617663621902,XTrueNorthZVertical,-0.09684465776314904,0.6394011188991341,0.7512093960997406,-0.1321807662787811,-0.0235318262130022,-0.9862502813339233,-0.1635746359825134,-20.508056640625,-42.42820358276367,-10.28627109527588,2,0.0.0.0,10.144.231.151,1,0
2015-03-08 17:25:19.123,84,1425860719.103785,33.32536918114249,-111.9416889735609,361.2314,0.16,345.234375,3,10,-9999,1425860719.059421,-17.25550842285156,-39.1512451171875,-7.5857253074646,94.50336456298828,83.98081970214844,10,328482.8268720834,-0.182861328125,-0.87872314453125,-0.1648712158203125,328482.8074624583,-0.07702447767948974,-0.04382125047281783,0.1333506010507746,328482.8074624583,-2.616320640692851,-0.238142718001656,1.403616741352087,-0.07702447474002838,-0.03364916518330574,0.166264608502388,-0.1473305821418762,-0.04450534284114838,0.1292501986026764,XTrueNorthZVertical,-0.07882191654279073,0.642599629475666,0.7521778475910793,-0.1228059347622006,-0.03925389796495438,-0.9860579967498779,-0.1617056429386139,-21.62536430358887,-42.19911193847656,-8.838464736938477,2,0.0.0.0,10.144.231.151,1,0
2015-03-08 17:25:19.159,85,1425860719.103785,33.32536918114249,-111.9416889735609,361.2314,0.16,345.234375,3,10,-9999,1425860719.111709,-17.75000762939453,-39.16824340820312,-7.402668476104736,94.87615203857422,84.35360717773438,10,328482.875882375,0.14959716796875,-1.014968872070312,-0.0554351806640625,328482.8592482917,-0.1728287684178912,0.3266585456191572,-0.1828558362381486,328482.8592482917,-2.663186580804791,-0.1824101601156098,1.398332649446633,-0.1728287637233734,0.3368305265903473,-0.1499421447515488,0.1840078979730606,-0.09064070135354996,0.1436621248722076,XTrueNorthZVertical,-0.08412371520064295,0.6391727360924784,0.7543837410595192,-0.1236388917422405,-0.03113009221851826,-0.9851649403572083,-0.1687628328800201,-21.51210594177246,-42.19189834594727,-9.144027709960938,2,0.0.0.0,10.144.231.151,1,0
2015-03-08 17:25:19.244,86,1425860719.103785,33.32536918114249,-111.9416889735609,361.2314,0.16,345.234375,3,10,-9999,1425860719.168544,-17.81822204589844,-39.16824340820312,-7.003269672393799,96.27100372314453,85.74845886230469,10,328482.9248978334,0.0115966796875,-1.089584350585938,-0.009246826171875,328482.9110364583,-0.1843701096339676,-0.609980003451673,-0.3377785747507831,328482.9110364583,-2.704373761782878,-0.1492999205972091,1.387655536411742,-0.1843701153993607,-0.5998080968856812,-0.3048651814460754,0.01982622034847736,0.02015703916549683,0.0951012447476387,XTrueNorthZVertical,-0.08232706296433615,0.6349613407212493,0.7587594403593985,-0.1197098680474622,-0.02708940394222736,-0.9832765460014343,-0.1800927072763443,-21.28487777709961,-42.18215179443359,-9.703607559204102,2,0.0.0.0,10.144.231.151,1,0
2015-03-08 17:25:19.246,87,1425860719.103785,33.32536918114249,-111.9416889735609,361.2314,0.16,345.234375,3,10,-9999,1425860719.241357,-17.426025390625,-39.42314147949219,-7.619007587432861,97.34540557861328,86.82286071777344,10,328482.9739122083,-0.160400390625,-1.032318115234375,0.0146026611328125,328482.96282225,-0.3308823191080229,-0.3349295250166163,-0.1768794364359018,328482.9110364583,-2.704373761782878,-0.1492999205972091,1.387655536411742,-0.1843701153993607,-0.5998080968856812,-0.3048651814460754,0.01982622034847736,0.02015703916549683,0.0951012447476387,XTrueNorthZVertical,-0.08232706296433615,0.6349613407212493,0.7587594403593985,-0.1197098680474622,-0.02708940394222736,-0.9832765460014343,-0.1800927072763443,-21.28487777709961,-42.18215179443359,-9.703607559204102,2,0.0.0.0,10.144.231.151,1,0
2015-03-08 17:25:19.340,88,1425860719.103785,33.32536918114249,-111.9416889735609,361.2314,0.16,345.234375,3,10,-9999,1425860719.292455,-16.76099395751953,-39.81399536132812,-7.868632793426514,97.49696350097656,86.97441864013672,10,328483.022924625,-0.0135955810546875,-0.9320068359375,-0.1157989501953125,328483.014608375,-0.2366857787197022,0.3332634514386628,-0.1046222834237629,328483.014608375,-2.796718601425777,-0.08295263521644448,1.3661726870358,-0.2366857826709747,0.343435138463974,-0.07170958817005157,0.02872313372790813,0.02665339969098568,0.08801321685314178,XTrueNorthZVertical,-0.07652475311998015,0.6268125774892002,0.7679589185902425,-0.1071869608127986,-0.01683653704822063,-0.9791375398635864,-0.2024999111890793,-20.88504600524902,-42.33152770996094,-9.919509887695312,2,0.0.0.0,10.144.231.151,1,0
2015-03-08 17:25:19.342,89,1425860719.103785,33.32536918114249,-111.9416889735609,361.2314,0.16,345.234375,3,10,-9999,1425860719.292455,-16.76099395751953,-39.81399536132812,-7.868632793426514,97.49696350097656,86.97441864013672,10,328483.0719352083,0.0172271728515625,-1.019073486328125,-0.1020355224609375,328483.014608375,-0.2366857787197022,0.3332634514386628,-0.1046222834237629,328483.014608375,-2.796718601425777,-0.08295263521644448,1.3661726870358,-0.2366857826709747,0.343435138463974,-0.07170958817005157,0.02872313372790813,0.02665339969098568,0.08801321685314178,XTrueNorthZVertical,-0.07652475311998015,0.6268125774892002,0.7679589185902425,-0.1071869608127986,-0.01683653704822063,-0.9791375398635864,-0.2024999111890793,-20.88504600524902,-42.33152770996094,-9.919509887695312,2,0.0.0.0,10.144.231.151,1,0
2015-03-08 17:25:19.407,90,1425860719.103785,33.32536918114249,-111.9416889735609,361.2314,0.16,345.234375,3,10,-9999,1425860719.397183,-15.34568786621094,-40.8505859375,-8.61750602722168,97.96166229248047,87.43911743164062,10,328483.120956625,-0.11956787109375,-1.006256103515625,-0.1026611328125,328483.118182375,-0.6423539222948942,-0.2437934893530147,-0.4893164355179269,328483.06639625,-2.871504921258833,-0.006493018053619291,1.349445214500344,-0.4244732558727264,-0.1007219180464745,-0.3170344531536102,0.03667332231998444,-0.05575510486960411,0.1386106908321381,XTrueNorthZVertical,-0.08159063256330136,0.6193313447202003,0.7740396281631228,-0.1031227351624796,-0.001425518654286861,-0.9756017327308655,-0.2195433080196381,-20.39335441589355,-42.39073944091797,-10.6619119644165,2,0.0.0.0,10.144.231.151,1,0
2015-03-08 17:25:19.444,91,1425860719.103785,33.32536918114249,-111.9416889735609,361.2314,0.16,345.234375,3,10,-9999,1425860719.397183,-15.34568786621094,-40.8505859375,-8.61750602722168,97.96166229248047,87.43911743164062,10,328483.1699619584,0.244415283203125,-0.838714599609375,-0.3102264404296875,328483.16996825,-0.5544182073132409,0.2470252353358258,-0.3844363581006443,328483.118182375,-2.947279291925575,0.05759168175580488,1.320599523053306,-0.642353892326355,-0.2336219996213913,-0.4564043581485748,-0.1507261246442795,-0.05345989391207695,0.1290810853242874,XTrueNorthZVertical,-0.08210584149891358,0.6080021169865997,0.7840447191508024,-0.09415904233059777,0.01425150875002146,-0.9688637256622314,-0.2471841126680374,-19.60177040100098,-42.47782516479492,-11.74501419067383,2,0.0.0.0,10.144.231.151,1,0
2015-03-08 17:25:19.540,92,1425860719.103785,33.32536918114249,-111.9416889735609,361.2314,0.16,345.234375,3,10,-9999,1425860719.526545,-13.45294189453125,-40.5277099609375,-11.29681015014648,101.3835983276367,90.86105346679688,10,328483.2189750417,0.3079986572265625,-1.1854248046875,-0.19134521484375,328483.221756375,-0.3203425927779253,-0.2524335828775588,-0.1887661896453614,328483.16996825,-3.008551367682466,0.1237396283974182,1.294678891918252,-0.5544182062149048,0.2571966052055359,-0.3515246510505676,0.2107671350240707,0.1234065592288971,-0.03968871757388115,XTrueNorthZVertical,-0.08922251311689525,0.5973026713693029,0.7919254095775113,-0.09012767578828954,0.03364814817905426,-0.9621211886405945,-0.2705377340316772,-18.83684349060059,-42.53520965576172,-12.74634552001953,2,0.0.0.0,10.144.231.151,1,0
2015-03-08 17:25:19.542,93,1425860719.103785,33.32536918114249,-111.9416889735609,361.2314,0.16,345.234375,3,10,-9999,1425860719.526545,-13.45294189453125,-40.5277099609375,-11.29681015014648,101.3835983276367,90.86105346679688,10,328483.26797975,0.255401611328125,-0.633636474609375,-0.6237030029296875,328483.221756375,-0.3203425927779253,-0.2524335828775588,-0.1887661896453614,328483.221756375,-3.082411611195206,0.1912847186551985,1.266248908555894,-0.3203426003456116,-0.2422623038291931,-0.155854806303978,0.2509889006614685,-0.2314420491456985,0.1030469760298729,XTrueNorthZVertical,-0.09437918830238816,0.5864268683688145,0.8004753535020921,-0.08022029453658294,0.05700975656509399,-0.9539827704429626,-0.2943921983242035,-17.82569694519043,-42.60563659667969,-13.91201591491699,2,0.0.0.0,10.144.231.151,1,0
2015-03-08 17:25:19.590,94,1425860719.103785,33.32536918114249,-111.9416889735609,361.2314,0.16,345.234375,3,10,-9999,1425860719.578659,-13.50409698486328,-40.74862670898438,-12.3452320098877,102.9572372436523,92.4346923828125,10,328483.3170002917,-0.15850830078125,-0.8230133056640625,-0.140899658203125,328483.3253284167,-1.139902188742256,0.03011928666436015,0.01718644377871736,328483.27354225,-3.073859593095403,0.1463685369344798,1.229239397277782,-1.210893750190735,-0.8722909688949585,-0.6851269602775574,0.2065496891736984,0.3085978329181671,-0.2923301160335541,XTrueNorthZVertical,-0.07917647276617648,0.5727518183027996,0.8129109948010977,-0.06972908770334736,0.04885192587971687,-0.9422342777252197,-0.3313728868961334,-18.04385757446289,-42.24745559692383,-14.7007360458374,2,0.0.0.0,10.144.231.151,1,0
2015-03-08 17:25:19.641,95,1425860719.103785,33.32536918114249,-111.9416889735609,361.2314,0.16,345.234375,3,10,-9999,1425860719.631855,-13.18011474609375,-40.28982543945312,-13.89290618896484,105.6533660888672,95.13082122802734,10,328483.3660043334,0.2624969482421875,-0.9054718017578125,-0.1750335693359375,328483.3253284167,-1.139902188742256,0.03011928666436015,0.01718644377871736,328483.3253284167,-3.082687423493823,0.1406391461537689,1.181641169329028,-1.139902234077454,0.04029036313295364,0.05009719729423523,-0.2116920351982117,0.1022166237235069,0.2347611635923386,XTrueNorthZVertical,-0.07468929811859068,0.5537066867766564,0.8269195280875162,-0.06351769975524392,0.05318372696638107,-0.9252299070358276,-0.3756608366966248,-17.62342643737793,-41.91178894042969,-16.10456657409668,2,0.0.0.0,10.144.231.151,1,0
2015-03-08 17:25:19.687,96,1425860719.103785,33.32536918114249,-111.9416889735609,361.2314,0.16,345.234375,3,10,-9999,1425860719.684195,-12.05469512939453,-40.45974731445312,-14.72498893737793,107.0212936401367,96.49874877929688,10,328483.4150249167,0.5189056396484375,-0.982574462890625,-0.599700927734375,328483.37711625,-0.09721043979396335,0.1723525952149851,-0.588871256019487,328483.37711625,3.141347969507693,0.2045002025734791,1.146630980664183,-0.09721043705940247,0.1825235635042191,-0.5559608340263367,0.1620572358369827,0.05425060167908669,0.3016355037689209,XTrueNorthZVertical,-0.08568542752776037,0.539597829824504,0.8357260932285411,-0.05526370422201658,0.08357874304056168,-0.9113825559616089,-0.4029843807220459,-16.95154190063477,-41.4373664855957,-17.94797897338867,2,0.0.0.0,10.144.231.151,1,0
2015-03-08 17:25:19.737,97,1425860719.103785,33.32536918114249,-111.9416889735609,361.2314,0.16,345.234375,3,10,-9999,1425860719.684195,-12.05469512939453,-40.45974731445312,-14.72498893737793,107.0212936401367,96.49874877929688,10,328483.4640245,-0.0037384033203125,-0.9821624755859375,-0.47442626953125,328483.428902375,0.009067264563392782,-1.494099417929487,-0.1641276885043844,328483.428902375,3.075944489259988,0.2412961434379614,1.145236932981596,0.009067262522876263,-1.483928561210632,-0.1312176287174225,0.4568457007408142,-0.1733900606632233,-0.2302943021059036,XTrueNorthZVertical,-0.0834498202544986,0.5409260597381437,0.8360661769527251,-0.03779501952136571,0.09865052253007889,-0.9108079671859741,-0.4008702635765076,-15.48543548583984,-42.03836822509766,-17.87503814697266,2,0.0.0.0,10.144.231.151,1,0
2015-03-08 17:25:19.786,98,1425860719.103785,33.32536918114249,-111.9416889735609,361.2314,0.16,345.234375,3,10,-9999,1425860719.760241,-10.72464752197266,-40.8336181640625,-14.4587230682373,110.5696334838867,100.0470886230469,10,328483.5130434583,-0.0446319580078125,-1.012954711914062,-0.3877410888671875,328483.4806882917,-0.3064366308299675,-0.955483609576449,-0.573478983867156,328483.4806882917,3.026383368958081,0.2302122150355276,1.125321024448378,-0.3064366281032562,-0.9453128576278687,-0.5405692458152771,-0.1932006925344467,-0.06996037065982819,-0.04418016970157623,XTrueNorthZVertical,-0.06647692452430096,0.5346225139611033,0.8423752110323359,-0.0127898498519734,0.09832154214382172,-0.9024059772491455,-0.4195191860198975,-15.7516918182373,-42.14752960205078,-17.37843894958496,2,0.0.0.0,10.144.231.151,1,0
2015-03-08 17:25:19.835,99,1425860719.103785,33.32536918114249,-111.9416889735609,361.2314,0.16,345.234375,3,10,-9999,1425860719.811824,-10.65644836425781,-40.8336181640625,-14.39215469360352,113.6057052612305,103.0831604003906,10,328483.562054375,0.1142120361328125,-0.9055633544921875,-0.6374969482421875,328483.5324762917,0.1440575738973292,0.9342057514150428,-0.07399433299119759,328483.5324762917,3.017463136118708,0.2447253049181967,1.119686943187697,0.14405757188797,0.9443764686584473,-0.0410848967730999,-0.1626975536346436,-0.2097314298152924,0.05352836847305298,XTrueNorthZVertical,-0.0705326098769974,0.5324829256982294,0.8434038445986975,-0.01253116312392494,0.1056296899914742,-0.8999639749526978,-0.422974169254303,-15.57279205322266,-42.17995452880859,-17.46081161499023,2,0.0.0.0,10.144.231.151,1,0
2015-03-08 17:25:19.888,100,1425860719.103785,33.32536918114249,-111.9416889735609,361.2314,0.16,345.234375,3,10,-9999,1425860719.868413,-9.803855895996094,-41.13948059082031,-15.0245361328125,112.0442047119141,101.5216598510742,10,328483.6110719584,-0.0162200927734375,-0.97137451171875,-0.351654052734375,328483.5842625417,-0.6741608541420376,1.382815503355,-0.02758369099049571,328483.5842625417,2.995617698246368,0.3185916145443388,1.106604780847425,-0.6741608381271362,1.392986059188843,0.005325383506715298,0.1001999452710152,-0.1870387345552444,-0.2895357608795166,XTrueNorthZVertical,-0.09676044361117224,0.527306450529508,0.8438641352695544,-0.02187773610814056,0.1402327865362167,-0.8941838145256042,-0.4251706600189209,-14.01033496856689,-42.32760238647461,-18.40175628662109,2,0.0.0.0,10.144.231.151,1,0
2015-03-08 17:25:19.943,101,1425860719.103785,33.32536918114249,-111.9416889735609,361.2314,0.16,345.234375,3,10,-9999,1425860719.868413,-9.803855895996094,-41.13948059082031,-15.0245361328125,112.0442047119141,101.5216598510742,10,328483.660076875,0.3780517578125,-0.599884033203125,-0.3629913330078125,328483.636048375,-1.01103235622554,2.045513845849227,0.01255893506859567,328483.636048375,3.07327406038855,0.3388703304081978,1.062311229273342,-1.011032342910767,2.055684328079224,0.04546771198511124,-0.1905734091997147,0.2595914304256439,0.4392700493335724,XTrueNorthZVertical,-0.1282563377567096,0.5039509409707368,0.8522967266984278,-0.05633862732087503,0.1618411093950272,-0.8734830617904663,-0.4591675102710724,-13.26076698303223,-41.25760650634766,-21.1778678894043,2,0.0.0.0,10.144.231.151,1,0
2015-03-08 17:25:19.989,102,1425860719.103785,33.32536918114249,-111.9416889735609,361.2314,0.16,345.234375,3,10,-9999,1425860719.941124,-8.0645751953125,-40.39176940917969,-18.7189826965332,107.5340118408203,97.01146697998047,10,328483.7090940417,0.54132080078125,-1.170364379882812,-0.47784423828125,328483.6878365,-0.5189387763228782,1.725025045527457,0.1677748876172479,328483.6878365,3.09842473527963,0.4181127921144308,1.033416096021748,-0.5189387798309326,1.735195398330688,0.2006833404302597,0.3292034268379211,0.01109122857451439,0.09668263047933578,XTrueNorthZVertical,-0.1699710466776127,0.4870462231496044,0.8525344627184449,-0.0841474897647224,0.2078449130058289,-0.8590526580810547,-0.4677916467189789,-11.15487957000732,-40.39350891113281,-23.88458251953125,2,0.0.0.0,10.144.231.151,1,0
2015-03-08 17:25:20.039,103,1425860719.103785,33.32536918114249,-111.9416889735609,361.2314,0.16,345.234375,3,10,-9999,1425860719.993142,-6.802726745605469,-39.61007690429688,-21.38164710998535,101.9570159912109,91.43447113037109,10,328483.7580996667,0.5115966796875,-0.63885498046875,-0.534393310546875,328483.7396225417,0.2538226877021441,-0.3687956130186089,-0.3483228284547338,328483.7396225417,3.093145894251883,0.4419688301418755,1.021257535754452,0.253860741853714,-0.3587296605110168,-0.3152562379837036,0.3356101810932159,0.1555761694908142,0.3045659363269806,XTrueNorthZVertical,-0.1796240554824416,0.4813330294253259,0.8535664987229981,-0.08647506047034577,0.2233955413103104,-0.8527655005455017,-0.4721074402332306,-9.644166946411133,-39.84242248535156,-25.41872024536133,2,0.0.0.0,10.144.231.151,1,0
2015-03-08 17:25:20.085,104,1425860719.103785,33.32536918114249,-111.9416889735609,361.2314,0.16,345.234375,3,10,-9999,1425860720.045788,-5.847824096679688,-39.30422973632812,-22.18044471740723,100.3072662353516,89.78472137451172,10,328483.8072369584,0.0963287353515625,-1.057113647460938,-0.33795166015625,328483.7914087084,-0.1583049530970351,-1.204651890641462,0.1738098769634764,328483.7914087084,3.075585939552768,0.4132446600686907,1.027026589128335,-0.1582668870687485,-1.194585919380188,0.2068761438131332,0.008039816282689571,-0.234918549656868,-0.126999631524086,XTrueNorthZVertical,-0.162732989444965,0.4864261315158214,0.8553580960830796,-0.07259552699233775,0.2077652364969254,-0.8557644486427307,-0.4738151729106903,-9.967782020568848,-40.26618194580078,-24.61336326599121,2,0.0.0.0,10.144.231.151,1,0
2015-03-08 17:25:20.154,105,1425860720.104341,33.32536863631879,-111.941686710447,360.5875,0.17,345.234375,3,10,-9999,1425860720.097722,-6.052444458007812,-38.93037414550781,-22.0140266418457,96.77239227294922,86.24984741210938,10,328483.8561462084,0.1320953369140625,-0.6587982177734375,-0.5573577880859375,328483.843196625,-0.08725181521372104,-0.4253720735323613,-0.3401666313002571,328483.7914087084,3.075585939552768,0.4132446600686907,1.027026589128335,-0.1582668870687485,-1.194585919380188,0.2068761438131332,0.008039816282689571,-0.234918549656868,-0.126999631524086,XTrueNorthZVertical,-0.162732989444965,0.4864261315158214,0.8553580960830796,-0.07259552699233775,0.2077652364969254,-0.8557644486427307,-0.4738151729106903,-9.967782020568848,-40.26618194580078,-24.61336326599121,2,0.0.0.0,10.144.231.151,1,0
2015-03-08 17:25:20.178,106,1425860720.104341,33.32536863631879,-111.941686710447,360.5875,0.17,345.234375,3,10,-9999,1425860720.15007,-6.240020751953125,-39.21926879882812,-21.46485137939453,99.37306976318359,88.85052490234375,10,328483.905208625,0.2354583740234375,-0.9698638916015625,-0.40313720703125,328483.8949827083,-0.1331303576286251,1.063018592284432,-0.1782751991632123,328483.8949827083,3.058736684054638,0.3989426846787076,1.011914819058744,-0.1330922991037369,1.073084235191345,-0.1452095508575439,0.02884951047599316,-0.08832377940416336,0.1745738983154297,XTrueNorthZVertical,-0.1535021531962112,0.4818061854038839,0.8606083129079591,-0.06044179657910284,0.2059679925441742,-0.8478487133979797,-0.4885997772216797,-10.91232967376709,-40.111572265625,-24.46472549438477,2,0.0.0.0,10.144.231.151,1,0
2015-03-08 17:25:20.242,107,1425860720.104341,33.32536863631879,-111.941686710447,360.5875,0.17,345.234375,3,10,-9999,1425860720.201176,-5.643196105957031,-39.30422973632812,-21.61462593078613,100.073486328125,89.55094146728516,10,328483.9541749167,0.1644134521484375,-0.931182861328125,-0.36956787109375,328483.9467687084,-1.254068708880645,0.3920806956936078,-0.2865393553776585,328483.8949827083,3.058736684054638,0.3989426846787076,1.011914819058744,-0.1330922991037369,1.073084235191345,-0.1452095508575439,0.02884951047599316,-0.08832377940416336,0.1745738983154297,XTrueNorthZVertical,-0.1535021531962112,0.4818061854038839,0.8606083129079591,-0.06044179657910284,0.2059679925441742,-0.8478487133979797,-0.4885997772216797,-10.91232967376709,-40.111572265625,-24.46472549438477,2,0.0.0.0,10.144.231.151,1,0
2015-03-08 17:25:20.276,108,1425860720.104341,33.32536863631879,-111.941686710447,360.5875,0.17,345.234375,3,10,-9999,1425860720.253141,-4.347267150878906,-38.59049987792969,-22.91267204284668,100.9863357543945,90.46379089355469,10,328484.003307625,0.355377197265625,-0.752899169921875,-0.48968505859375,328483.9985570417,-1.212170527030973,0.9728716546496853,-0.2535718179274586,328483.9467687084,3.06338849195639,0.4327022539805169,0.9713840005757914,-1.254030704498291,0.4021462500095367,-0.2534740567207336,-0.006112086120992899,-0.1838999688625336,-0.05064286664128304,XTrueNorthZVertical,-0.1718727638520258,0.4630103652343946,0.8669926596960893,-0.06636921811945139,0.236565575003624,-0.8256673216819763,-0.5121623277664185,-9.452149391174316,-39.68454360961914,-25.73584747314453,2,0.0.0.0,10.144.231.151,1,0
2015-03-08 17:25:20.339,109,1425860720.104341,33.32536863631879,-111.941686710447,360.5875,0.17,345.234375,3,10,-9999,1425860720.30437,-3.341209411621094,-37.38398742675781,-25.52541160583496,98.59012603759766,88.06758117675781,10,328484.0521915834,0.5755767822265625,-0.465972900390625,-0.343536376953125,328484.0503429584,-0.2812481869238891,0.9559129111441697,-0.4566437100003987,328483.9985570417,3.106428193621654,0.4379661191379634,0.9114606209464415,-1.212132453918457,0.9829370975494385,-0.2205068618059158,-0.04155281186103821,0.1031740084290504,0.1017549186944962,XTrueNorthZVertical,-0.1874826100718964,0.4329708034191708,0.8780414961767129,-0.08018525829761289,0.2597992718219757,-0.7903993725776672,-0.5547730922698975,-8.541105270385742,-38.17996215820312,-28.21134567260742,2,0.0.0.0,10.144.231.151,1,0
2015-03-08 17:25:20.374,110,1425860720.104341,33.32536863631879,-111.941686710447,360.5875,0.17,345.234375,3,10,-9999,1425860720.356655,-1.738334655761719,-36.432373046875,-26.95659446716309,98.16977691650391,87.64723205566406,10,328484.1013107917,0.6040496826171875,-0.781585693359375,-0.529388427734375,328484.102129125,-0.04629665870604648,-0.7460829814890445,-0.8581237664453322,328484.0503429584,3.11779894639407,0.4715895305993215,0.8714893720070446,-0.2812101244926453,0.9659782648086548,-0.423579066991806,0.1705073267221451,0.2126914262771606,0.1559315025806427,XTrueNorthZVertical,-0.2068884164683021,0.4128965629365043,0.8825813287750874,-0.08811242757618626,0.2924290597438812,-0.7652884721755981,-0.5734272003173828,-6.59867000579834,-36.45842742919922,-30.88334274291992,2,0.0.0.0,10.144.231.151,1,0
2015-03-08 17:25:20.436,111,1425860720.104341,33.32536863631879,-111.941686710447,360.5875,0.17,345.234375,3,10,-9999,1425860720.408568,-0.8175392150878906,-36.05851745605469,-27.6888256072998,99.22081756591797,88.69827270507812,10,328484.1502006667,0.2408294677734375,-0.8841094970703125,-0.655914306640625,328484.102129125,-0.04629665870604648,-0.7460829814890445,-0.8581237664453322,328484.102129125,3.065543017968611,0.5386796568937765,0.8505961714042871,-0.0462586022913456,-0.7360177040100098,-0.8250594735145569,0.2657061219215393,-0.0299119595438242,0.03674780204892159,XTrueNorthZVertical,-0.2270955635628171,0.4066441811392225,0.881613298261762,-0.076328878106664,0.3383435606956482,-0.7516737580299377,-0.5661362409591675,-4.188204765319824,-36.4753532409668,-31.28174209594727,2,0.0.0.0,10.144.231.151,1,0
2015-03-08 17:25:20.472,112,1425860720.104341,33.32536863631879,-111.941686710447,360.5875,0.17,345.234375,3,10,-9999,1425860720.46021,-1.175628662109375,-35.63371276855469,-28.03830146789551,102.8559646606445,92.33341979980469,10,328484.19922425,-0.0395965576171875,-0.57061767578125,-0.3264312744140625,328484.205703375,-0.6467294959658945,0.2437570040460806,-0.7474814073774452,328484.153917125,3.055726691285284,0.461593880852308,0.8173806703029632,-1.05158007144928,-1.965446352958679,-0.2258730828762054,-0.06386721134185791,-0.1547531336545944,-0.04337922483682632,XTrueNorthZVertical,-0.1931159253590103,0.3955233223567899,0.8963888480059742,-0.05248394387247345,0.3046966791152954,-0.7293563485145569,-0.6125350594520569,-4.753488540649414,-36.34592056274414,-31.35153198242188,2,0.0.0.0,10.144.231.151,1,0
2015-03-08 17:25:20.537,113,1425860720.104341,33.32536863631879,-111.941686710447,360.5875,0.17,345.234375,3,10,-9999,1425860720.511454,-1.533706665039062,-34.97097778320312,-29.5194034576416,105.7121887207031,95.18964385986328,10,328484.2482265,0.3886260986328125,-0.4985809326171875,-0.557586669921875,328484.205703375,-0.6467294959658945,0.2437570040460806,-0.7474814073774452,328484.205703375,3.052649908455512,0.3954952097031884,0.7626472953908566,-0.6466914415359497,0.2538220584392548,-0.7144177556037903,-0.3181470334529877,0.1202202066779137,0.3407663404941559,XTrueNorthZVertical,-0.1659476770264834,0.3726426815452816,0.9124347912194043,-0.03258132136615408,0.2785504758358002,-0.6908378601074219,-0.667197585105896,-7.32628059387207,-34.54050445556641,-32.86060333251953,2,0.0.0.0,10.144.231.151,1,0
2015-03-08 17:25:20.571,114,1425860720.104341,33.32536863631879,-111.941686710447,360.5875,0.17,345.234375,3,10,-9999,1425860720.564045,1.672035217285156,-34.32522583007812,-30.81744956970215,107.615966796875,97.09342193603516,10,328484.297246,0.849578857421875,-0.6642608642578125,-0.71356201171875,328484.2574893333,-0.4817088495480065,2.11195279082787,-1.360063052898017,328484.2574893333,2.999641262444847,0.5113256270475698,0.7078624249980711,-0.4816707968711853,2.122017621994019,-1.32699978351593,0.01685307733714581,0.1516302973031998,0.1049917563796043,XTrueNorthZVertical,-0.2128351682844593,0.3513004085265751,0.9114587482834429,-0.02306847713380661,0.3717730343341827,-0.6502112150192261,-0.6625784039497375,-4.097285270690918,-33.77621459960938,-34.18946838378906,2,0.0.0.0,10.144.231.151,1,0
2015-03-08 17:25:20.636,115,1425860720.104341,33.32536863631879,-111.941686710447,360.5875,0.17,345.234375,3,10,-9999,1425860720.616901,5.321121215820312,-32.99972534179688,-32.71460342407227,105.8478851318359,95.32534027099609,10,328484.3462433334,0.3940887451171875,-0.534515380859375,-0.4741363525390625,328484.3092775834,-1.147433874621109,0.3771893641423207,-0.7915407444517161,328484.3092775834,2.972945999201033,0.6035406135627565,0.6513935990666238,-1.147395849227905,0.3872542083263397,-0.7584778070449829,0.3486254215240479,0.04426826164126396,-0.1068205088376999,XTrueNorthZVertical,-0.2548543836529419,0.3281408478279245,0.9094107709752188,-0.01857059781519874,0.4513471126556396,-0.6062952280044556,-0.6547456383705139,0.7419776916503906,-33.01840209960938,-35.15358352661133,2,0.0.0.0,10.144.231.151,1,0
2015-03-08 17:25:20.669,116,1425860720.104341,33.32536863631879,-111.941686710447,360.5875,0.17,345.234375,3,10,-9999,1425860720.616901,5.321121215820312,-32.99972534179688,-32.71460342407227,105.8478851318359,95.32534027099609,10,328484.3952729583,0.4445037841796875,-0.42401123046875,-0.479095458984375,328484.3610635417,-1.086858145098385,-0.4853485918098178,-0.7637586479600095,328484.3610635417,2.976956891752105,0.5795216099760351,0.5859744932016727,-1.086820125579834,-0.4752838313579559,-0.7306960225105286,0.04664881899952888,0.04468026757240295,0.1150141209363937,XTrueNorthZVertical,-0.2498630675510496,0.2983286512764222,0.9211526404422744,-0.006801959798670385,0.4562655985355377,-0.5530115962028503,-0.6971369385719299,3.632165908813477,-35.30242919921875,-35.92441177368164,2,0.0.0.0,10.144.231.151,1,0
2015-03-08 17:25:20.739,117,1425860720.104341,33.32536863631879,-111.941686710447,360.5875,0.17,345.234375,3,10,-9999,1425860720.719135,7.827735900878906,-28.90437316894531,-35.46047592163086,110.575080871582,100.0525360107422,10,328484.44427925,0.5318450927734375,-0.514495849609375,-0.6314849853515625,328484.4128495834,-0.7540002930937411,0.2989102712732946,-0.8844579022523626,328484.4128495834,2.964513301876903,0.590515665458479,0.5300105441437092,-0.7539622783660889,0.3089749217033386,-0.8513955473899841,-0.06641268730163574,0.1178929060697556,0.2100518643856049,XTrueNorthZVertical,-0.2575711490051188,0.2744310250715523,0.9264512288455262,0.005729450085277655,0.4803988933563232,-0.5055424571037292,-0.71668940782547,4.650308609008789,-33.68058013916016,-37.33644866943359,2,0.0.0.0,10.144.231.151,1,0
2015-03-08 17:25:20.766,118,1425860720.104341,33.32536863631879,-111.941686710447,360.5875,0.17,345.234375,3,10,-9999,1425860720.719135,7.827735900878906,-28.90437316894531,-35.46047592163086,110.575080871582,100.0525360107422,10,328484.493306,0.7200469970703125,-0.4457855224609375,-0.7190093994140625,328484.46463775,-0.6087783851678292,0.02734001175075346,-1.112719037179708,328484.46463775,2.936119183705511,0.6264098334845573,0.4762080842276043,-0.6087403297424316,0.03740455582737923,-1.079657077789307,0.03582429513335228,-0.1054455786943436,0.1159515008330345,XTrueNorthZVertical,-0.2748255697213878,0.2539100524078667,0.9270885269425529,0.02252654155306397,0.5210146903991699,-0.4584124684333801,-0.7200011610984802,6.834646224975586,-32.29855346679688,-38.21136474609375,2,0.0.0.0,10.144.231.151,1,0
2015-03-08 17:25:20.839,119,1425860720.104341,33.32536863631879,-111.941686710447,360.5875,0.17,345.234375,3,10,-9999,1425860720.822593,11.54502868652344,-26.11747741699219,-37.75702285766602,112.3099060058594,101.7873611450195,10,328484.5423167917,0.611846923828125,-0.3795166015625,-0.6630096435546875,328484.5164240417,-0.8367865197916172,0.1881065246433488,-0.8044496188875482,328484.5164240417,2.916088644283712,0.6448706210247209,0.4208517522589146,-0.836748480796814,0.1981709599494934,-0.7713879942893982,0.002152237109839916,-0.08702166378498077,0.08800862729549408,XTrueNorthZVertical,-0.2856296716163301,0.2317207757402538,0.9291026455884041,0.03859322599390543,0.5486442446708679,-0.4085380434989929,-0.7294423580169678,9.212786674499512,-30.39066696166992,-39.26256942749023,2,0.0.0.0,10.144.231.151,1,0
2015-03-08 17:25:20.864,120,1425860720.104341,33.32536863631879,-111.941686710447,360.5875,0.17,345.234375,3,10,-9999,1425860720.822593,11.54502868652344,-26.11747741699219,-37.75702285766602,112.3099060058594,101.7873611450195,10,328484.5914469584,0.63916015625,-0.4580230712890625,-0.5864410400390625,328484.5682100417,-0.6221253496029794,0.6310962077349113,-0.8111253647920498,328484.5682100417,2.906757740509329,0.6654732781756582,0.368539962624715,-0.622087299823761,0.6411605477333069,-0.7780640125274658,0.1795500516891479,0.06162405386567116,0.06319768726825714,XTrueNorthZVertical,-0.298602506917606,0.2096030486664746,0.9297642498719503,0.04941188988083301,0.5759736299514771,-0.3602538108825684,-0.7338061928749084,10.64542961120605,-28.64452171325684,-40.20178604125977,2,0.0.0.0,10.144.231.151,1,0
2015-03-08 17:25:20.907,121,1425860720.104341,33.32536863631879,-111.941686710447,360.5875,0.17,345.234375,3,10,-9999,1425860720.874439,13.18200302124023,-24.45217895507812,-38.15642547607422,115.0426559448242,104.5201110839844,10,328484.640349625,0.6698760986328125,-0.235809326171875,-0.6681976318359375,328484.6199983333,-0.7505269984000598,-0.05660229317632611,-0.7788555755474507,328484.5682100417,2.906757740509329,0.6654732781756582,0.368539962624715,-0.622087299823761,0.6411605477333069,-0.7780640125274658,0.1795500516891479,0.06162405386567116,0.06319768726825714,XTrueNorthZVertical,-0.298602506917606,0.2096030486664746,0.9297642498719503,0.04941188988083301,0.5759736299514771,-0.3602538108825684,-0.7338061928749084,10.64542961120605,-28.64452171325684,-40.20178604125977,2,0.0.0.0,10.144.231.151,1,0
2015-03-08 17:25:20.962,122,1425860720.104341,33.32536863631879,-111.941686710447,360.5875,0.17,345.234375,3,10,-9999,1425860720.926037,15.00654602050781,-22.56594848632812,-38.47261810302734,115.9213027954102,105.3987579345703,10,328484.6894853333,0.8088226318359375,-0.2283172607421875,-0.7384185791015625,328484.6717842917,-0.9147566859741941,0.0961635511694532,-0.6931230937356198,328484.6717842917,2.897952995432314,0.6907651259990736,0.2625710282869679,-0.9147186279296875,0.1062276884913445,-0.6600624322891235,-0.1074775904417038,-0.04184254631400108,0.14470174908638,XTrueNorthZVertical,-0.31818735568574,0.1630521065696262,0.9313211167715052,0.06936703128796928,0.615290105342865,-0.2595643103122711,-0.7443416118621826,14.00923252105713,-24.51005172729492,-41.86903381347656,2,0.0.0.0,10.144.231.151,1,0
2015-03-08 17:25:21.038,123,1425860720.104341,33.32536863631879,-111.941686710447,360.5875,0.17,345.234375,3,10,-9999,1425860721.031195,17.76894760131836,-18.48757934570312,-39.50440216064453,119.1979904174805,108.6754455566406,10,328484.738383125,0.76947021484375,-0.188385009765625,-0.654022216796875,328484.7235705833,-0.7085052458758084,0.7161951235234123,-0.6247440359028543,328484.7235705833,2.89416376196023,0.7326453170465264,0.2157046522168069,-0.7084312438964844,0.7261574268341064,-0.5915247201919556,0.1445128321647644,0.02081375755369663,0.08181644231081009,XTrueNorthZVertical,-0.3409798801011976,0.1436760182605035,0.925889389508375,0.07628074388792565,0.6533387303352356,-0.2140358090400696,-0.726179838180542,15.90444755554199,-22.67797470092773,-42.22292327880859,2,0.0.0.0,10.144.231.151,1,0
2015-03-08 17:25:21.061,124,1425860720.104341,33.32536863631879,-111.941686710447,360.5875,0.17,345.234375,3,10,-9999,1425860721.031195,17.76894760131836,-18.48757934570312,-39.50440216064453,119.1979904174805,108.6754455566406,10,328484.78741325,0.8178863525390625,0.0165252685546875,-0.6947479248046875,328484.7753587083,-0.4181506459205024,0.635725314341687,-0.59754650327042,328484.7753587083,2.895167178823072,0.7488079562049509,0.174013812298319,-0.4180766940116882,0.6456875205039978,-0.5643274784088135,0.1898665875196457,0.09905550628900528,0.2045164853334427,XTrueNorthZVertical,-0.3516324685983429,0.1250414447462814,0.9240816441498034,0.08241571098947698,0.6704849600791931,-0.1731369346380234,-0.721438467502594,17.27797317504883,-20.88759613037109,-42.60513305664062,2,0.0.0.0,10.144.231.151,1,0
2015-03-08 17:25:21.157,125,1425860721.103672,33.32536645702396,-111.9416836091428,360.5415,0.21,345.234375,3,10,-9999,1425860721.133631,19.90042877197266,-15.07196044921875,-39.78730773925781,119.3669204711914,108.8443756103516,10,328484.8364195,0.7259063720703125,-0.0946197509765625,-0.695037841796875,328484.827144875,-0.5646687143489558,0.1088979885538851,-0.4579931337247419,328484.7753587083,2.895167178823072,0.7488079562049509,0.174013812298319,-0.4180766940116882,0.6456875205039978,-0.5643274784088135,0.1898665875196457,0.09905550628900528,0.2045164853334427,XTrueNorthZVertical,-0.3516324685983429,0.1250414447462814,0.9240816441498034,0.08241571098947698,0.6704849600791931,-0.1731369346380234,-0.721438467502594,17.27797317504883,-20.88759613037109,-42.60513305664062,2,0.0.0.0,10.144.231.151,4,0
2015-03-08 17:25:21.161,126,1425860721.103672,33.32536645702396,-111.9416836091428,360.5415,0.21,345.234375,3,10,-9999,1425860721.133631,19.90042877197266,-15.07196044921875,-39.78730773925781,119.3669204711914,108.8443756103516,10,328484.885444375,0.8692169189453125,-0.0783233642578125,-0.6678619384765625,328484.8789309167,-0.6392095279958376,0.2623522600414499,-0.3100553341191672,328484.8789309167,2.897343014233809,0.7778734776354017,0.104785005116091,-0.6391355395317078,0.2723142802715302,-0.2768369913101196,0.0600481703877449,0.01745041087269783,0.0239296518266201,XTrueNorthZVertical,-0.3699608792732784,0.09422826504355067,0.919580013989738,0.092857795010252,0.6979169249534607,-0.1045933589339256,-0.7084999680519104,19.79058456420898,-17.72440719604492,-42.94409942626953,2,0.0.0.0,10.144.231.151,4,0
2015-03-08 17:25:21.207,127,1425860721.103672,33.32536645702396,-111.9416836091428,360.5415,0.21,345.234375,3,10,-9999,1425860721.185579,20.63365936279297,-13.72946166992188,-39.63753509521484,120.5939483642578,110.071403503418,10,328484.9344454167,0.848358154296875,0.0608673095703125,-0.6356048583984375,328484.8789309167,-0.6392095279958376,0.2623522600414499,-0.3100553341191672,328484.8789309167,2.897343014233809,0.7778734776354017,0.104785005116091,-0.6391355395317078,0.2723142802715302,-0.2768369913101196,0.0600481703877449,0.01745041087269783,0.0239296518266201,XTrueNorthZVertical,-0.3699608792732784,0.09422826504355067,0.919580013989738,0.092857795010252,0.6979169249534607,-0.1045933589339256,-0.7084999680519104,19.79058456420898,-17.72440719604492,-42.94409942626953,2,0.0.0.0,10.144.231.151,4,0
2015-03-08 17:25:21.257,128,1425860721.103672,33.32536645702396,-111.9416836091428,360.5415,0.21,345.234375,3,10,-9999,1425860721.237129,21.60561370849609,-12.42095947265625,-39.62088775634766,120.4555892944336,109.9330444335938,10,328484.98356425,0.70556640625,0.0587158203125,-0.5820465087890625,328484.98250525,-0.1819668730662801,0.008915997013476281,-0.2396477464840883,328484.9307190417,2.900161819080548,0.7996585187926075,0.08256908454320983,-0.3088415563106537,0.0758298933506012,-0.3703267574310303,0.1474465876817703,0.130769357085228,0.1804628074169159,XTrueNorthZVertical,-0.3815208871238444,0.08457669025772546,0.9155797055145231,0.09488092196290576,0.7146750092506409,-0.08247529715299606,-0.6945772171020508,20.85821723937988,-16.53180313110352,-42.91447067260742,2,0.0.0.0,10.144.231.151,4,0
2015-03-08 17:25:21.334,129,1425860721.103672,33.32536645702396,-111.9416836091428,360.5415,0.21,345.234375,3,10,-9999,1425860721.289698,21.94665145874023,-11.6392822265625,-39.52103424072266,121.9991607666016,111.4766159057617,10,328485.0324599583,0.828643798828125,-0.0723114013671875,-0.667388916015625,328485.0342915417,-0.2079055294514339,0.2437644608971328,-0.1317716128404667,328484.98250525,2.898460536731903,0.796910714209229,0.06272065147672498,-0.181892916560173,0.01887782663106918,-0.2064300179481506,0.005993549712002277,0.05344796925783157,0.1517078131437302,XTrueNorthZVertical,-0.38143790089891,0.07571340859982023,0.9158849469740765,0.09963614691281052,0.7137940526008606,-0.06267953664064407,-0.6975452303886414,21.34049606323242,-15.42283344268799,-43.08987045288086,2,0.0.0.0,10.144.231.151,4,0
2015-03-08 17:25:21.357,130,1425860721.103672,33.32536645702396,-111.9416836091428,360.5415,0.21,345.234375,3,10,-9999,1425860721.341337,22.35589599609375,-11.16348266601562,-39.55431747436523,124.1123428344727,113.5897979736328,10,328485.0814839583,0.9854736328125,0.0655670166015625,-0.7286376953125,328485.0342915417,-0.2079055294514339,0.2437644608971328,-0.1317716128404667,328485.0342915417,2.896791981198287,0.8058666418014619,0.04572692057034765,-0.2078315764665604,0.2537261843681335,-0.09855424612760544,0.1079668551683426,-0.02660041488707066,0.0243735034018755,XTrueNorthZVertical,-0.3865153227372563,0.06873642112156327,0.9138882090442613,0.1033902385135813,0.7206769585609436,-0.04571098834276199,-0.6917624473571777,21.76077651977539,-14.75358486175537,-43.11400985717773,2,0.0.0.0,10.144.231.151,4,0
2015-03-08 17:25:21.406,131,1425860721.103672,33.32536645702396,-111.9416836091428,360.5415,0.21,345.234375,3,10,-9999,1425860721.394243,22.69692993164062,-11.1295166015625,-39.48775482177734,123.9510498046875,113.4285049438477,10,328485.1304887917,0.879974365234375,0.107452392578125,-0.654937744140625,328485.0860797084,-0.0277480080297536,-0.2757650045555249,0.05960900204702557,328485.0860797084,2.897682085727753,0.8178903896088762,0.04736463736269846,-0.02767406031489372,-0.2658033668994904,0.09282603859901428,0.2565869987010956,0.1129139438271523,-0.04564241319894791,XTrueNorthZVertical,-0.3919344154427484,0.06992690762105871,0.9116160122998227,0.1022442079043385,0.728886604309082,-0.04734693095088005,-0.6829952597618103,22.45767593383789,-14.55889320373535,-42.82182693481445,2,0.0.0.0,10.144.231.151,4,0
2015-03-08 17:25:21.452,132,1425860721.103672,33.32536645702396,-111.9416836091428,360.5415,0.21,345.234375,3,10,-9999,1425860721.445274,22.66282653808594,-11.57135009765625,-39.98700332641602,124.2997055053711,113.7771606445312,10,328485.179508,0.8645477294921875,-0.0619049072265625,-0.5859222412109375,328485.1896520417,0.07714964625072347,-0.09507405196750178,0.695821142235979,328485.1378657083,2.905686110463769,0.8085158477840778,0.06096832261354167,0.2234356552362442,0.06948264688253403,0.3689188361167908,0.1580551266670227,0.1683829575777054,0.03435179963707924,XTrueNorthZVertical,-0.3871243607991564,0.07409424344235364,0.9139928249459496,0.09623865471411092,0.7219192385673523,-0.06093055754899979,-0.6892895698547363,21.88798332214355,-14.93416595458984,-42.98725891113281,2,0.0.0.0,10.144.231.151,4,0
2015-03-08 17:25:21.506,133,1425860721.103672,33.32536645702396,-111.9416836091428,360.5415,0.21,345.234375,3,10,-9999,1425860721.498337,22.35589218139648,-12.2510986328125,-40.28655242919922,121.7339019775391,111.2113571166992,10,328485.2286372083,0.818695068359375,-0.0781402587890625,-0.618560791015625,328485.1896520417,0.07714964625072347,-0.09507405196750178,0.695821142235979,328485.1896520417,2.921174268249907,0.8062599360353613,0.08667520960509249,0.07722359150648117,-0.08511263132095337,0.7290375232696533,0.1600799858570099,0.05296687036752701,0.1036817505955696,XTrueNorthZVertical,-0.3851701107423195,0.08271631959642897,0.9152679636481004,0.08418159734727974,0.7189940810203552,-0.08656672388315201,-0.6896039843559265,21.58991622924805,-15.74441432952881,-42.84864807128906,2,0.0.0.0,10.144.231.151,4,0
2015-03-08 17:25:21.551,134,1425860721.103672,33.32536645702396,-111.9416836091428,360.5415,0.21,345.234375,3,10,-9999,1425860721.498337,22.35589218139648,-12.2510986328125,-40.28655242919922,121.7339019775391,111.2113571166992,10,328485.2775410833,0.925140380859375,-0.0642242431640625,-0.59686279296875,328485.241440125,0.255296481049394,0.1011117044748204,0.7614949610334421,328485.241440125,2.942522775586404,0.8034096188572663,0.1188726313096964,0.2553704082965851,0.1110730245709419,0.7947109937667847,0.1531953513622284,0.02859653159976006,0.04258306324481964,XTrueNorthZVertical,-0.3829329478552828,0.09318625957303504,0.9165309517960044,0.06818858572275935,0.7146483063697815,-0.1185928732156754,-0.6893573403358459,20.93542098999023,-16.63045120239258,-42.83869552612305,2,0.0.0.0,10.144.231.151,4,0
2015-03-08 17:25:21.589,135,1425860721.103672,33.32536645702396,-111.9416836091428,360.5415,0.21,345.234375,3,10,-9999,1425860721.552576,21.77613067626953,-13.71249389648438,-40.12014007568359,121.2765579223633,110.7540130615234,10,328485.3265505417,0.9923858642578125,-0.2187042236328125,-0.5607452392578125,328485.29322625,0.247199672387226,-0.3517455230877036,1.055503418004337,328485.29322625,2.966337363080816,0.8004144808143107,0.1623334889009602,0.2472736090421677,-0.3417842984199524,1.088719129562378,0.1805688887834549,0.1320804357528687,0.1270118057727814,XTrueNorthZVertical,-0.3803017249369348,0.1083690260961586,0.9171906704528062,0.04886733649998421,0.7082098126411438,-0.1616214513778687,-0.687253475189209,20.18301391601562,-18.33485412597656,-42.50289916992188,2,0.0.0.0,10.144.231.151,4,0
2015-03-08 17:25:21.649,136,1425860721.103672,33.32536645702396,-111.9416836091428,360.5415,0.21,345.234375,3,10,-9999,1425860721.626254,20.46313858032227,-16.14251708984375,-39.73738098144531,117.6358108520508,107.1132659912109,10,328485.37558225,0.755889892578125,-0.1674041748046875,-0.6590728759765625,328485.3450124583,0.6872431003648338,-0.6091237971612126,1.077112839721458,328485.3450124583,2.983342098758603,0.7737173363314693,0.2177281331670733,0.6873170733451843,-0.5991626381874084,1.110328197479248,0.3241382241249084,0.03440184518694878,0.1570327132940292,XTrueNorthZVertical,-0.3659209468294903,0.1299498351860979,0.92097609148702,0.03190501943450406,0.6823009848594666,-0.2160119563341141,-0.6984298229217529,18.51644515991211,-20.05248069763184,-42.4859619140625,2,0.0.0.0,10.144.231.151,4,0
2015-03-08 17:25:21.688,137,1425860721.103672,33.32536645702396,-111.9416836091428,360.5415,0.21,345.234375,3,10,-9999,1425860721.678433,18.50218200683594,-18.19866943359375,-39.38790512084961,116.2312774658203,105.7087326049805,10,328485.42470125,0.73516845703125,-0.2534332275390625,-0.51776123046875,328485.396800875,1.097424503039383,-1.039909544557487,0.7325208336378161,328485.396800875,2.988661590111333,0.7236008721597716,0.2841625354288957,1.097498416900635,-1.029948472976685,0.7657358646392822,0.08023883402347565,0.02930081449449062,0.1254389733076096,XTrueNorthZVertical,-0.339251168804213,0.1588162616362143,0.9269603323938612,0.02075022945520893,0.635535717010498,-0.2803536653518677,-0.7193720936775208,15.99929046630859,-22.35021781921387,-42.36163330078125,2,0.0.0.0,10.144.231.151,4,0
2015-03-08 17:25:21.747,138,1425860721.103672,33.32536645702396,-111.9416836091428,360.5415,0.21,345.234375,3,10,-9999,1425860721.731272,15.99556350708008,-20.76467895507812,-38.87201309204102,114.2502365112305,103.7276916503906,10,328485.4737185,0.6794891357421875,-0.4629974365234375,-0.63177490234375,328485.448586875,1.054390482984793,-0.6081906255152487,0.9700108870067221,328485.448586875,2.986466176469671,0.6950090783885686,0.356918270013859,1.054464340209961,-0.5982296466827393,1.003225564956665,0.1241180151700974,-0.01401493698358536,-0.0326143354177475,XTrueNorthZVertical,-0.3212039027451643,0.192369618280255,0.9271954604577486,0.01142590389579627,0.6000335812568665,-0.3493883907794952,-0.7196439504623413,12.82211208343506,-25.90197563171387,-41.40892028808594,2,0.0.0.0,10.144.231.151,4,0
2015-03-08 17:25:21.785,139,1425860721.103672,33.32536645702396,-111.9416836091428,360.5415,0.21,345.234375,3,10,-9999,1425860721.731272,15.99556350708008,-20.76467895507812,-38.87201309204102,114.2502365112305,103.7276916503906,10,328485.5226135834,0.54595947265625,-0.33380126953125,-0.5986328125,328485.5003732084,1.118725797018382,-0.4662497320523145,1.158356030883742,328485.5003732084,2.994067363395317,0.654728609668477,0.434421762351276,1.118799686431885,-0.4562889039516449,1.191570520401001,0.1246511116623878,0.02777376212179661,0.2102876454591751,XTrueNorthZVertical,-0.2981004612812375,0.2266470392274954,0.9272358348350936,-0.0009651633534719806,0.5523813366889954,-0.4208859503269196,-0.7195344567298889,10.15148735046387,-28.45655632019043,-40.46219635009766,2,0.0.0.0,10.144.231.151,4,0
2015-03-08 17:25:21.844,140,1425860721.103672,33.32536645702396,-111.9416836091428,360.5415,0.21,345.234375,3,10,-9999,1425860721.833688,11.28926086425781,-26.54240417480469,-36.74187850952148,111.7380752563477,101.2155303955078,10,328485.5717494167,0.6744384765625,-0.490753173828125,-0.4833984375,328485.5521613333,1.34179722992949,-0.4044726505618554,1.036521737334797,328485.5521613333,3.007319081538149,0.6253391258511458,0.5166820692030881,1.34187114238739,-0.3945119380950928,1.069735765457153,0.1822025775909424,0.008234494365751743,0.1703381985425949,XTrueNorthZVertical,-0.2804141789277837,0.2624937161087777,0.9231393703174987,-0.01669223109059149,0.5089595317840576,-0.4939980506896973,-0.7049298882484436,6.848079681396484,-31.81461334228516,-38.61284255981445,2,0.0.0.0,10.144.231.151,4,0
2015-03-08 17:25:21.884,141,1425860721.103672,33.32536645702396,-111.9416836091428,360.5415,0.21,345.234375,3,10,-9999,1425860721.833688,11.28926086425781,-26.54240417480469,-36.74187850952148,111.7380752563477,101.2155303955078,10,328485.620657125,0.58941650390625,-0.559295654296875,-0.5569305419921875,328485.6039475,1.434239812423885,-0.6480632070398061,1.142808496439859,328485.6039475,3.016799775447269,0.6027205049526076,0.6067696947547875,1.434313654899597,-0.6381025314331055,1.176022171974182,0.1159259006381035,0.200145348906517,0.1500869542360306,XTrueNorthZVertical,-0.2649232288710492,0.3023965123794192,0.915078478473393,-0.03167650058687262,0.4656933546066284,-0.5702167749404907,-0.6767440438270569,4.619115829467773,-34.43051528930664,-36.64997863769531,2,0.0.0.0,10.144.231.151,4,0
2015-03-08 17:25:21.943,142,1425860721.103672,33.32536645702396,-111.9416836091428,360.5415,0.21,345.234375,3,10,-9999,1425860721.937421,6.310134887695312,-32.32009887695312,-33.14728546142578,108.1345443725586,97.61199951171875,10,328485.6697960834,0.3055419921875,-0.4593505859375,-0.4178009033203125,328485.6557337084,1.22425941416717,-1.055595297061945,1.126562681158158,328485.6557337084,3.022619922350287,0.5601122868266013,0.6976510454761646,1.2243332862854,-1.045634746551514,1.159776091575623,0.04008590057492256,0.04569386690855026,0.1752062439918518,XTrueNorthZVertical,-0.2397748755257278,0.3433401907936586,0.9071802539567332,-0.04061403246049278,0.4071491956710815,-0.6424193382263184,-0.6492510437965393,1.773115158081055,-37.0036506652832,-34.31622695922852,2,0.0.0.0,10.144.231.151,4,0
2015-03-08 17:25:21.982,143,1425860721.103672,33.32536645702396,-111.9416836091428,360.5415,0.21,345.234375,3,10,-9999,1425860721.937421,6.310134887695312,-32.32009887695312,-33.14728546142578,108.1345443725586,97.61199951171875,10,328485.718701875,0.26666259765625,-0.6277618408203125,-0.55218505859375,328485.707522125,1.335808579586229,-0.6234848933394648,1.09710598897301,328485.6557337084,3.022619922350287,0.5601122868266013,0.6976510454761646,1.2243332862854,-1.045634746551514,1.159776091575623,0.04008590057492256,0.04569386690855026,0.1752062439918518,XTrueNorthZVertical,-0.2397748755257278,0.3433401907936586,0.9071802539567332,-0.04061403246049278,0.4071491956710815,-0.6424193382263184,-0.6492510437965393,1.773115158081055,-37.0036506652832,-34.31622695922852,2,0.0.0.0,10.144.231.151,4,0
2015-03-08 17:25:22.041,144,1425860721.103672,33.32536645702396,-111.9416836091428,360.5415,0.21,345.234375,3,10,-9999,1425860721.989733,2.831558227539062,-34.35928344726562,-30.71760749816895,108.6466598510742,98.12411499023438,10,328485.7677263333,0.34588623046875,-0.963836669921875,-0.4313201904296875,328485.7593082084,1.586539869895009,-0.4776869436697688,0.8556725929780232,328485.7593082084,3.06330791585355,0.4415291959864435,0.8649266479160437,1.586647748947144,-0.4678260385990143,0.8890447020530701,0.01224159449338913,-0.1317898482084274,0.2320085912942886,XTrueNorthZVertical,-0.1826610106209921,0.4164038871699841,0.888813556436037,-0.05703691956513232,0.2772023677825928,-0.7610476613044739,-0.5864855051040649,-5.781352996826172,-41.09922790527344,-28.76537704467773,2,0.0.0.0,10.144.231.151,4,0
2015-03-08 17:25:22.079,145,1425860721.103672,33.32536645702396,-111.9416836091428,360.5415,0.21,345.234375,3,10,-9999,1425860722.057899,-0.6129074096679688,-36.36447143554688,-28.18807792663574,107.0083541870117,96.48580932617188,10,328485.8167407917,0.1179046630859375,-0.7231903076171875,-0.4661712646484375,328485.8110944167,0.8114537325544565,-0.8482801904241812,0.9581598201558695,328485.7593082084,3.06330791585355,0.4415291959864435,0.8649266479160437,1.586647748947144,-0.4678260385990143,0.8890447020530701,0.01224159449338913,-0.1317898482084274,0.2320085912942886,XTrueNorthZVertical,-0.1826610106209921,0.4164038871699841,0.888813556436037,-0.05703691956513232,0.2772023677825928,-0.7610476613044739,-0.5864855051040649,-5.781352996826172,-41.09922790527344,-28.76537704467773,2,0.0.0.0,10.144.231.151,4,0
2015-03-08 17:25:22.151,146,1425860722.110116,33.32536264325802,-111.9416793343722,360.3502,0.25,345.234375,3,10,-9999,1425860722.057899,-0.6129074096679688,-36.36447143554688,-28.18807792663574,107.0083541870117,96.48580932617188,10,328485.8657639584,0.034515380859375,-0.8524169921875,-0.764678955078125,328485.8628826667,0.1981698114544312,-0.1807689832079625,0.9191682123199104,328485.8110944167,3.099784084112704,0.3987056574017586,0.933272898082217,0.811561644077301,-0.8384193778038025,0.9915316104888916,-0.07108639925718307,0.1716905832290649,-0.04126106947660446,XTrueNorthZVertical,-0.1676061767144036,0.4445754681344515,0.8770699389240982,-0.07077524457889636,0.2310748100280762,-0.8035722970962524,-0.5485216379165649,-7.84964656829834,-42.3782958984375,-26.31502532958984,2,0.0.0.0,10.144.231.151,4,0
2015-03-08 17:25:22.178,147,1425860722.110116,33.32536264325802,-111.9416793343722,360.3502,0.25,345.234375,3,10,-9999,1425860722.172014,-7.416587829589844,-37.29911804199219,-24.34385871887207,100.7376174926758,90.21507263183594,10,328485.914879,0.127166748046875,-0.7826385498046875,-0.329071044921875,328485.8628826667,0.1981698114544312,-0.1807689832079625,0.9191682123199104,328485.8628826667,-3.117077552830351,0.3003031836371587,0.9821782394260853,0.1982777416706085,-0.1709082573652267,0.9525397419929504,-0.04355546459555626,-0.06985682249069214,-0.1491549462080002,XTrueNorthZVertical,-0.1376150782720274,0.4646286041796668,0.8709677169340464,-0.08122546902446261,0.1642372310161591,-0.8317087292671204,-0.5303646922111511,-11.85116195678711,-42.86091995239258,-23.92716217041016,2,0.0.0.0,10.144.231.151,4,0
2015-03-08 17:25:22.242,148,1425860722.110116,33.32536264325802,-111.9416793343722,360.3502,0.25,345.234375,3,10,-9999,1425860722.172014,-7.416587829589844,-37.29911804199219,-24.34385871887207,100.7376174926758,90.21507263183594,10,328485.9638015,0.2081298828125,-0.9915924072265625,-0.3539581298828125,328485.966455125,0.5977843235557642,0.5022362289142283,0.4926568384732132,328485.9146690417,-3.052975724615334,0.2528634077204349,1.012201360535029,0.2400283813476562,0.4121079444885254,0.7640506625175476,-0.07816469669342041,0.0155726308003068,0.3243902027606964,XTrueNorthZVertical,-0.1314808058985207,0.475543995822472,0.8641010257298588,-0.09949931356240341,0.1325927972793579,-0.8480005860328674,-0.513141393661499,-10.17981338500977,-40.162353515625,-26.9046630859375,2,0.0.0.0,10.144.231.151,4,0
2015-03-08 17:25:22.275,149,1425860722.110116,33.32536264325802,-111.9416793343722,360.3502,0.25,345.234375,3,10,-9999,1425860722.249186,-9.667427062988281,-37.40109252929688,-22.9792366027832,97.91049957275391,87.38795471191406,10,328486.0128199167,0.2123565673828125,-0.7916259765625,-0.512359619140625,328485.966455125,0.5977843235557642,0.5022362289142283,0.4926568384732132,328485.966455125,-3.008493299245287,0.2414439686561074,1.03683257431784,0.5978922843933105,0.5120967626571655,0.5260276198387146,0.08643758296966553,-0.1307959258556366,0.1402284502983093,XTrueNorthZVertical,-0.1370851998365515,0.4838536521180073,0.8564061838955518,-0.1168834028107012,0.1216922998428345,-0.8607965111732483,-0.4941865801811218,-10.72498321533203,-40.17830657958984,-26.66800689697266,2,0.0.0.0,10.144.231.151,1,0
2015-03-08 17:25:22.343,150,1425860722.110116,33.32536264325802,-111.9416793343722,360.3502,0.25,345.234375,3,10,-9999,1425860722.300333,-9.923210144042969,-37.92790222167969,-22.59647941589355,96.00997161865234,85.4874267578125,10,328486.0618410417,0.046417236328125,-0.6651611328125,-0.4717559814453125,328486.070029625,-0.3097045958036038,0.4215517689486426,-0.1311841195039952,328486.0182435417,-2.972013183540382,0.2298920586672094,1.04529371290621,-0.1077708676457405,-0.01259428076446056,0.1344334632158279,0.09804485738277435,0.07344593852758408,-0.02390961907804012,XTrueNorthZVertical,-0.1410199160738182,0.4856834184263539,0.8528419780706433,-0.1299444155248257,0.1143117100000381,-0.8650718927383423,-0.4884499907493591,-11.08333396911621,-40.25610733032227,-26.40283393859863,2,0.0.0.0,10.144.231.151,1,0
2015-03-08 17:25:22.374,151,1425860722.110116,33.32536264325802,-111.9416793343722,360.3502,0.25,345.234375,3,10,-9999,1425860722.352066,-9.701545715332031,-38.11483764648438,-22.61312294006348,95.7373046875,85.21475982666016,10,328486.1109777917,0.322509765625,-1.032913208007812,-0.43304443359375,328486.070029625,-0.3097045958036038,0.4215517689486426,-0.1311841195039952,328486.070029625,-2.96438333124344,0.2359306767725391,1.03633371338485,-0.3095966875553131,0.4314121007919312,-0.09781394898891449,-0.07264899462461472,0.1953813582658768,0.02351147308945656,XTrueNorthZVertical,-0.1453641386479474,0.4808695668170285,0.8541487101170872,-0.13440125839802,0.1190662309527397,-0.8605424761772156,-0.4952674508094788,-10.98539161682129,-40.04060745239258,-26.7689208984375,2,0.0.0.0,10.144.231.151,1,0
2015-03-08 17:25:22.442,152,1425860722.110116,33.32536264325802,-111.9416793343722,360.3502,0.25,345.234375,3,10,-9999,1425860722.403471,-9.002418518066406,-37.45210266113281,-22.8294620513916,95.05132293701172,84.52877807617188,10,328486.1598942917,0.424835205078125,-0.7146148681640625,-0.5306549072265625,328486.121816,-0.1713834708943053,0.5102976175338981,0.008219047756202545,328486.121816,-2.976886589232834,0.275737243534933,1.036596368555639,-0.1712755411863327,0.5201578140258789,0.04158884286880493,0.1934569627046585,-0.03005556389689445,-0.06640094518661499,XTrueNorthZVertical,-0.1593429212217465,0.4792183341564386,0.8519042476396096,-0.1386317599533014,0.138620063662529,-0.8606762290000916,-0.4899192452430725,-10.04019832611084,-40.0922966003418,-27.06115913391113,2,0.0.0.0,10.144.231.151,1,0
2015-03-08 17:25:22.473,153,1425860722.110116,33.32536264325802,-111.9416793343722,360.3502,0.25,345.234375,3,10,-9999,1425860722.456296,-8.542015075683594,-37.06124877929688,-23.71146965026855,96.48245239257812,85.95990753173828,10,328486.2089239584,0.1246490478515625,-0.7276458740234375,-0.2769622802734375,328486.1736041667,-1.009893854859531,-0.4087859062633478,-0.6643031633671093,328486.1736041667,-2.999066109814586,0.2897672519816186,1.00104225202823,-1.009786009788513,-0.39892578125,-0.6309337019920349,0.2349238842725754,0.08074215799570084,-0.04400703310966492,XTrueNorthZVertical,-0.1601564734250699,0.4646306265241698,0.8610038174123206,-0.1309225025216244,0.1541294604539871,-0.8420336842536926,-0.5169365406036377,-9.177679061889648,-39.5284538269043,-28.17402648925781,2,0.0.0.0,10.144.231.151,1,0
2015-03-08 17:25:22.541,154,1425860722.110116,33.32536264325802,-111.9416793343722,360.3502,0.25,345.234375,3,10,-9999,1425860722.507274,-7.894050598144531,-36.68740844726562,-24.90966606140137,100.2338256835938,89.71128082275391,10,328486.2579577084,0.0409393310546875,-0.700836181640625,-0.76495361328125,328486.2253905,-0.725461059904125,-0.5359489188374323,-0.748451330646452,328486.2253905,-3.034673700500384,0.2921861310985159,0.9538317661841992,-0.7253531217575073,-0.5260888934135437,-0.7150821685791016,-0.09873582422733307,0.02439389377832413,0.3578582406044006,XTrueNorthZVertical,-0.1534124236692068,0.4465919628309759,0.8741245407644391,-0.1136948749125735,0.1666526943445206,-0.8156384229660034,-0.5540404915809631,-8.728244781494141,-38.69077301025391,-29.45073699951172,2,0.0.0.0,10.144.231.151,1,0
2015-03-08 17:25:22.571,155,1425860722.110116,33.32536264325802,-111.9416793343722,360.3502,0.25,345.234375,3,10,-9999,1425860722.559806,-6.819786071777344,-35.95669555664062,-26.09122276306152,102.740592956543,92.21804809570312,10,328486.307031375,0.1182861328125,-0.677886962890625,-0.523681640625,328486.277176625,-0.665639537602111,0.5133117832556497,-0.8496629036621504,328486.277176625,-3.069907041095544,0.3160137731780617,0.8885992959479356,-0.6655315756797791,0.5231717228889465,-0.8162940740585327,-0.174752414226532,0.1213126555085182,0.1028644517064095,XTrueNorthZVertical,-0.1571931347133475,0.4191073848279963,0.8886678645656019,-0.09954263016091645,0.1959468722343445,-0.776189386844635,-0.5992786288261414,-7.827865600585938,-37.42879104614258,-31.27802276611328,2,0.0.0.0,10.144.231.151,1,0
2015-03-08 17:25:22.642,156,1425860722.110116,33.32536264325802,-111.9416793343722,360.3502,0.25,345.234375,3,10,-9999,1425860722.611793,-4.364326477050781,-35.00508117675781,-28.22135734558105,102.552848815918,92.03030395507812,10,328486.356009125,0.536895751953125,-0.7849273681640625,-0.3069305419921875,328486.328964875,-1.21035398485143,0.7577244575621079,-1.461567839949733,328486.328964875,-3.1285060739203,0.4058038646996027,0.8130629218591433,-1.210246086120605,0.7675842642784119,-1.428199410438538,0.03797276318073273,0.3022776246070862,0.007268544752150774,XTrueNorthZVertical,-0.1876192070956366,0.3860947017238056,0.8991151092972791,-0.08556824768722626,0.271307647228241,-0.7263956665992737,-0.6314598321914673,-3.838313102722168,-35.79799270629883,-33.8271369934082,2,0.0.0.0,10.144.231.151,1,0
2015-03-08 17:25:22.669,157,1425860722.110116,33.32536264325802,-111.9416793343722,360.3502,0.25,345.234375,3,10,-9999,1425860722.611793,-4.364326477050781,-35.00508117675781,-28.22135734558105,102.552848815918,92.03030395507812,10,328486.4050197083,0.465118408203125,-0.4904327392578125,-0.604156494140625,328486.3807511667,-1.2674867797169,0.47493509931539,-1.323442457380555,328486.3807511667,3.09708762330219,0.5055227221801086,0.7450628855157783,-1.267378926277161,0.4847948253154755,-1.290074348449707,0.1750187575817108,-0.01132827810943127,-0.128362238407135,XTrueNorthZVertical,-0.2250263687525311,0.3575048214584854,0.9036159801623418,-0.07093367849298945,0.3559565842151642,-0.6780180335044861,-0.6431068778038025,0.2651605606079102,-34.63878631591797,-35.22198867797852,2,0.0.0.0,10.144.231.151,1,0
2015-03-08 17:25:22.742,158,1425860722.110116,33.32536264325802,-111.9416793343722,360.3502,0.25,345.234375,3,10,-9999,1425860722.669094,-1.073326110839844,-34.00248718261719,-30.60111427307129,105.2880477905273,94.7655029296875,10,328486.4540426667,0.2273712158203125,-0.717681884765625,-0.77154541015625,328486.4325375,-0.7899846594267828,0.1272402442456968,-1.202986882327944,328486.4325375,3.061967788788398,0.5196403702165269,0.6676805914633729,-0.7898766994476318,0.137099876999855,-1.169618964195251,0.09280737489461899,-0.1054735779762268,0.2271513342857361,XTrueNorthZVertical,-0.2299265613382848,0.3260856467850126,0.9157072135119317,-0.04777255303493314,0.3899349272251129,-0.6191663146018982,-0.6816038489341736,2.074019432067871,-32.59057998657227,-37.06827163696289,2,0.0.0.0,10.144.231.151,1,0
2015-03-08 17:25:22.767,159,1425860722.110116,33.32536264325802,-111.9416793343722,360.3502,0.25,345.234375,3,10,-9999,1425860722.740638,3.121425628662109,-31.9293212890625,-33.7297477722168,113.1324768066406,102.6099319458008,10,328486.503054875,0.5204620361328125,-0.503387451171875,-0.4391326904296875,328486.484326,-0.9489223795988208,0.3950975245764495,-1.352579037602676,328486.4325375,3.061967788788398,0.5196403702165269,0.6676805914633729,-0.7898766994476318,0.137099876999855,-1.169618964195251,0.09280737489461899,-0.1054735779762268,0.2271513342857361,XTrueNorthZVertical,-0.2299265613382848,0.3260856467850126,0.9157072135119317,-0.04777255303493314,0.3899349272251129,-0.6191663146018982,-0.6816038489341736,2.074019432067871,-32.59057998657227,-37.06827163696289,2,0.0.0.0,10.144.231.151,1,0
2015-03-08 17:25:22.839,160,1425860722.110116,33.32536264325802,-111.9416793343722,360.3502,0.25,345.234375,3,10,-9999,1425860722.7931,5.883815765380859,-30.16201782226562,-34.72824859619141,116.1553115844727,105.6327667236328,10,328486.552067375,0.610504150390625,-0.3265380859375,-0.5535430908203125,328486.5361119167,-0.8142705580394334,0.8510338989913232,-1.524571040806064,328486.5361119167,2.982324049799758,0.6307013354937634,0.5218461338468851,-0.8141626119613647,0.8608933091163635,-1.491203904151917,0.1668185889720917,-0.1135486289858818,-0.1128367632627487,XTrueNorthZVertical,-0.279192581434047,0.2683113931927474,0.9219629851551312,-0.006689028951108554,0.5112209916114807,-0.4984813928604126,-0.7001209855079651,4.348352432250977,-32.58341979980469,-37.85486221313477,2,0.0.0.0,10.144.231.151,1,0
2015-03-08 17:25:22.864,161,1425860722.110116,33.32536264325802,-111.9416793343722,360.3502,0.25,345.234375,3,10,-9999,1425860722.84484,9.225967407226562,-28.25875854492188,-35.49376678466797,118.6024551391602,108.0799102783203,10,328486.601072875,0.5538482666015625,-0.6904144287109375,-0.672943115234375,328486.587898375,-1.150599840524995,0.43900665936524,-1.337424053103471,328486.587898375,2.958317015521074,0.6552201568562431,0.4426003426413146,-1.150491952896118,0.4488660097122192,-1.304057240486145,0.04174241423606873,-0.02314058691263199,-0.02583066001534462,XTrueNorthZVertical,-0.2935987213736973,0.235680029794597,0.926311605396089,0.01419557753592766,0.5506190061569214,-0.4282906949520111,-0.7165094017982483,6.950639724731445,-30.63039779663086,-39.07742309570312,2,0.0.0.0,10.144.231.151,1,0
2015-03-08 17:25:22.943,162,1425860722.110116,33.32536264325802,-111.9416793343722,360.3502,0.25,345.234375,3,10,-9999,1425860722.898193,12.39760971069336,-26.3895263671875,-36.62539672851562,123.2953186035156,112.7727737426758,10,328486.6501040834,0.891021728515625,-0.1303863525390625,-0.685577392578125,328486.6396864583,-0.8896374842564577,0.7641908790049293,-1.118584383164499,328486.587898375,2.958317015521074,0.6552201568562431,0.4426003426413146,-1.150491952896118,0.4488660097122192,-1.304057240486145,0.04174241423606873,-0.02314058691263199,-0.02583066001534462,XTrueNorthZVertical,-0.2935987213736973,0.235680029794597,0.926311605396089,0.01419557753592766,0.5506190061569214,-0.4282906949520111,-0.7165094017982483,6.950639724731445,-30.63039779663086,-39.07742309570312,2,0.0.0.0,10.144.231.151,1,0
2015-03-08 17:25:22.963,163,1425860722.110116,33.32536264325802,-111.9416793343722,360.3502,0.25,345.234375,3,10,-9999,1425860722.948441,14.7678108215332,-23.99346923828125,-38.00665283203125,124.0183486938477,113.4958038330078,10,328486.69926125,0.8296051025390625,-0.0950775146484375,-0.5791778564453125,328486.691472875,-0.9072787959493607,0.2266467266745395,-1.218741078072417,328486.6396864583,2.949064001110891,0.6826696789907384,0.359788042213516,-0.8895295262336731,0.7740501165390015,-1.085217952728271,0.04938887804746628,0.1173804178833961,0.1860814839601517,XTrueNorthZVertical,-0.3116131347218817,0.1994773348682197,0.9285667766443727,0.02949201255026276,0.5904731750488281,-0.3520758450031281,-0.7262120842933655,10.03830528259277,-27.13967895507812,-40.9420166015625,2,0.0.0.0,10.144.231.151,1,0
2015-03-08 17:25:23.037,164,1425860722.110116,33.32536264325802,-111.9416793343722,360.3502,0.25,345.234375,3,10,-9999,1425860723.00147,17.06980895996094,-21.4954833984375,-38.78881072998047,124.6049728393555,114.0824279785156,10,328486.748145125,0.7633209228515625,-0.3826751708984375,-0.613616943359375,328486.7432589583,-0.8020032391102013,0.6826960191196325,-1.225550248347531,328486.7432589583,2.90724562651946,0.7633723850739952,0.2221199715993065,-0.8018630743026733,0.6924579739570618,-1.192025065422058,0.08578535914421082,-0.1939018219709396,0.02929762192070484,XTrueNorthZVertical,-0.3556281892036345,0.1454282383196323,0.9208223157006722,0.06682418574104365,0.6743769645690918,-0.2202980071306229,-0.7047584652900696,15.35284042358398,-22.87910461425781,-41.88573455810547,2,0.0.0.0,10.144.231.151,1,0
2015-03-08 17:25:23.060,165,1425860722.110116,33.32536264325802,-111.9416793343722,360.3502,0.25,345.234375,3,10,-9999,1425860723.05204,19.28654098510742,-19.01446533203125,-39.15492630004883,127.9394683837891,117.4169235229492,10,328486.79717225,0.929046630859375,-0.132110595703125,-0.80987548828125,328486.7432589583,-0.8020032391102013,0.6826960191196325,-1.225550248347531,328486.7432589583,2.90724562651946,0.7633723850739952,0.2221199715993065,-0.8018630743026733,0.6924579739570618,-1.192025065422058,0.08578535914421082,-0.1939018219709396,0.02929762192070484,XTrueNorthZVertical,-0.3556281892036345,0.1454282383196323,0.9208223157006722,0.06682418574104365,0.6743769645690918,-0.2202980071306229,-0.7047584652900696,15.35284042358398,-22.87910461425781,-41.88573455810547,2,0.0.0.0,10.144.231.151,4,0
2015-03-08 17:25:23.156,166,1425860723.103637,33.32536084114884,-111.9416767359822,360.3091,0.25,345.234375,3,10,-9999,1425860723.104855,21.00877380371094,-16.04061889648438,-39.53768157958984,127.2788772583008,116.7563323974609,10,328486.8461853333,0.72320556640625,0.021820068359375,-0.4863739013671875,328486.8468335834,-0.7087963293829541,0.1645948069595843,-0.6095951766741565,328486.7950472917,2.904682581128487,0.7915356676247285,0.1650477442760454,-0.6265400648117065,0.3638818562030792,-0.9650905132293701,0.2300737053155899,0.09697765111923218,0.004177676979452372,XTrueNorthZVertical,-0.3725240041853835,0.1209300973574458,0.9168723004565668,0.07711648892163001,0.7017652988433838,-0.1642994284629822,-0.6932035684585571,18.0396842956543,-19.96161651611328,-42.30462646484375,2,0.0.0.0,10.144.231.151,4,0
2015-03-08 17:25:23.159,167,1425860723.103637,33.32536084114884,-111.9416767359822,360.3091,0.25,345.234375,3,10,-9999,1425860723.155605,22.32176208496094,-13.98443603515625,-39.6541748046875,129.9672088623047,119.4446563720703,10,328486.895193,0.8510589599609375,-0.0472259521484375,-0.5141448974609375,328486.8986198333,-0.6042400923542253,0.5392190143399406,-0.6008924988639956,328486.8468335834,2.900482262826424,0.8024727002580888,0.1105775132342242,-0.7086562514305115,0.1743565648794174,-0.5760706663131714,0.008520661853253841,0.1321723759174347,0.2043126076459885,XTrueNorthZVertical,-0.3810116862829881,0.09740041965956797,0.915096390116375,0.08911700349104512,0.7146849036216736,-0.1103523075580597,-0.6906865239143372,19.26661491394043,-17.88405799865723,-42.69116973876953,2,0.0.0.0,10.144.231.151,4,0
2015-03-08 17:25:23.239,168,1425860723.103637,33.32536084114884,-111.9416767359822,360.3091,0.25,345.234375,3,10,-9999,1425860723.207201,23.82232666015625,-11.80929565429688,-39.88715362548828,131.1527862548828,120.630241394043,10,328486.944238375,0.9868927001953125,0.0072021484375,-0.732818603515625,328486.8986198333,-0.6042400923542253,0.5392190143399406,-0.6008924988639956,328486.8986198333,2.891824214892259,0.8242862398045261,0.06296672727989448,-0.6040999889373779,0.548980712890625,-0.5673683285713196,0.1184504255652428,0.01569917425513268,0.1635904163122177,XTrueNorthZVertical,-0.393664723089441,0.07848840227384785,0.910248752516289,0.1015620765604075,0.7326085567474365,-0.06292513012886047,-0.6777353286743164,20.46353149414062,-16.07336235046387,-42.85404205322266,2,0.0.0.0,10.144.231.151,4,0
2015-03-08 17:25:23.258,169,1425860723.103637,33.32536084114884,-111.9416767359822,360.3091,0.25,345.234375,3,10,-9999,1425860723.207201,23.82232666015625,-11.80929565429688,-39.88715362548828,131.1527862548828,120.630241394043,10,328486.9933947084,0.9030609130859375,0.13671875,-0.603668212890625,328486.9504081667,-0.3630889914347871,0.06611270774510808,-0.6236316335155282,328486.9504081667,2.888284397649636,0.842081441824347,0.0272709673316948,-0.3629488945007324,0.07587428390979767,-0.590107798576355,0.2411393076181412,0.03446973487734795,-0.06715476512908936,XTrueNorthZVertical,-0.4038271737125863,0.06396634128181648,0.9059734793003987,0.1097450049340001,0.7457534074783325,-0.02726758643984795,-0.6656638383865356,22.12309837341309,-14.11413955688477,-42.71928787231445,2,0.0.0.0,10.144.231.151,4,0
2015-03-08 17:25:23.339,170,1425860723.103637,33.32536084114884,-111.9416767359822,360.3091,0.25,345.234375,3,10,-9999,1425860723.310769,25.23762893676758,-8.903472900390625,-39.73738479614258,130.6877136230469,120.165168762207,10,328487.0422895417,0.9136505126953125,0.07379150390625,-0.534271240234375,328487.0539806667,-0.2072916708201706,0.1537259139187529,-0.03041942491921208,328487.0021945834,2.890963175661784,0.8485952866092384,0.004125468115495521,-0.1994925886392593,0.2753074169158936,-0.4131775200366974,0.152714729309082,0.1408442109823227,0.05736398696899414,XTrueNorthZVertical,-0.4082167392687548,0.05331972871742789,0.9042860221535952,0.113061402773995,0.7503461837768555,-0.00412545632570982,-0.6610321998596191,22.51310920715332,-13.062255859375,-42.84991836547852,2,0.0.0.0,10.144.231.151,4,0
2015-03-08 17:25:23.355,171,1425860723.103637,33.32536084114884,-111.9416767359822,360.3091,0.25,345.234375,3,10,-9999,1425860723.310769,25.23762893676758,-8.903472900390625,-39.73738479614258,130.6877136230469,120.165168762207,10,328487.09131325,0.8422088623046875,0.0701446533203125,-0.5459747314453125,328487.0539806667,-0.2072916708201706,0.1537259139187529,-0.03041942491921208,328487.0539806667,2.896649424248306,0.8546581474812308,-0.01081099652961459,-0.2071515619754791,0.1634872853755951,0.003103743772953749,0.2027135342359543,0.09548193961381912,0.1424610018730164,XTrueNorthZVertical,-0.4119322277022451,0.0457472497258224,0.9029723308800633,0.1134018912413947,0.754302442073822,0.01081078592687845,-0.6564380526542664,22.95988464355469,-12.26080226898193,-42.84967422485352,2,0.0.0.0,10.144.231.151,4,0
2015-03-08 17:25:23.439,172,1425860723.103637,33.32536084114884,-111.9416767359822,360.3091,0.25,345.234375,3,10,-9999,1425860723.41576,25.3228874206543,-8.20672607421875,-39.38790512084961,131.7027435302734,121.1801910400391,10,328487.1403452917,0.919219970703125,0.1334686279296875,-0.5347747802734375,328487.105769125,-0.236915076889558,-0.007163903332313151,0.1241499121167689,328487.105769125,2.907462233503013,0.8520322352306775,-0.01938439214041018,-0.2367749959230423,0.002597374375909567,0.1576727479696274,0.1470727026462555,0.08706213533878326,0.125662237405777,XTrueNorthZVertical,-0.4114294614738417,0.03949872123383761,0.9038764521475233,0.1103313140262216,0.7524787187576294,0.01938317902386189,-0.6583312749862671,22.90338134765625,-11.55953311920166,-43.07424163818359,2,0.0.0.0,10.144.231.151,4,0
2015-03-08 17:25:23.452,173,1425860723.103637,33.32536084114884,-111.9416767359822,360.3091,0.25,345.234375,3,10,-9999,1425860723.41576,25.3228874206543,-8.20672607421875,-39.38790512084961,131.7027435302734,121.1801910400391,10,328487.1893560417,0.9046478271484375,0.020965576171875,-0.616973876953125,328487.15755525,0.08199446890579562,-0.139682532858547,0.131815554998453,328487.15755525,2.913912839077176,0.8557537969196235,-0.01447296968431077,0.08213455975055695,-0.1299213469028473,0.1653380841016769,0.1710238605737686,0.1003651842474937,0.07177959382534027,XTrueNorthZVertical,-0.4129913443089429,0.04059210716685276,0.9035947586316989,0.1063340626717475,0.7549862861633301,0.01447246409952641,-0.6555808782577515,23.03003311157227,-11.57354736328125,-43.00289154052734,2,0.0.0.0,10.144.231.151,4,0
2015-03-08 17:25:23.538,174,1425860723.103637,33.32536084114884,-111.9416767359822,360.3091,0.25,345.234375,3,10,-9999,1425860723.518678,25.03300094604492,-8.63153076171875,-39.17156219482422,129.95068359375,119.4281311035156,10,328487.2383875833,0.9579620361328125,0.0401763916015625,-0.6061553955078125,328487.2093416667,0.1913633043404067,-0.1136221700115767,0.5003706845706277,328487.2093416667,2.920261335724082,0.853008281161822,0.003255209784648182,0.1915033906698227,-0.1038610860705376,0.5338928699493408,0.106742188334465,0.1687367707490921,0.1651323884725571,XTrueNorthZVertical,-0.4109958248557799,0.04716063262094761,0.9049214683968647,0.09987708979381456,0.7532584071159363,-0.003255204064771533,-0.6577166318893433,22.7686653137207,-12.05055999755859,-43.01104354858398,2,0.0.0.0,10.144.231.151,4,0
2015-03-08 17:25:23.550,175,1425860723.103637,33.32536084114884,-111.9416767359822,360.3091,0.25,345.234375,3,10,-9999,1425860723.518678,25.03300094604492,-8.63153076171875,-39.17156219482422,129.95068359375,119.4281311035156,10,328487.2874738334,0.8212127685546875,0.080352783203125,-0.5783843994140625,328487.261129875,0.2824303641317753,-0.1382513500887385,0.5534272450716223,328487.261129875,2.925011398443926,0.8482450018333781,0.03091821270747525,0.2825704514980316,-0.1284903585910797,0.5869490504264832,0.1400690674781799,0.006392412818968296,0.08478217571973801,XTrueNorthZVertical,-0.407539023210093,0.05847786778923286,0.9066407564016122,0.09216730830729256,0.7497624754905701,-0.03091328777372837,-0.6609845757484436,22.18535995483398,-13.37301445007324,-42.9249382019043,2,0.0.0.0,10.144.231.151,4,0
2015-03-08 17:25:23.637,176,1425860723.103637,33.32536084114884,-111.9416767359822,360.3091,0.25,345.234375,3,10,-9999,1425860723.622596,24.09514999389648,-11.12957763671875,-39.45447158813477,128.7358856201172,118.2133331298828,10,328487.336420875,0.87530517578125,-0.0338592529296875,-0.5257415771484375,328487.3129162917,0.5468303287353871,-0.1992137706017423,0.5092326194139755,328487.3129162917,2.931347053227404,0.8336199414842834,0.06653874894250231,0.5469703674316406,-0.1894528716802597,0.5427541732788086,0.1829759627580643,0.04726358503103256,0.122357465326786,XTrueNorthZVertical,-0.3991964671993756,0.07270415955109943,0.9102471841133651,0.08250054498308602,0.7387312054634094,-0.06648965924978256,-0.6707125902175903,21.23775863647461,-14.62831497192383,-42.99474334716797,2,0.0.0.0,10.144.231.151,4,0
2015-03-08 17:25:23.649,177,1425860723.103637,33.32536084114884,-111.9416767359822,360.3091,0.25,345.234375,3,10,-9999,1425860723.622596,24.09514999389648,-11.12957763671875,-39.45447158813477,128.7358856201172,118.2133331298828,10,328487.3854374583,0.9652099609375,-0.176727294921875,-0.5689544677734375,328487.3647024167,0.3002623581587278,-0.6111070532249946,0.8723580961556967,328487.3647024167,2.944634607186671,0.8147065561891599,0.1046406334801311,0.30040243268013,-0.6013462543487549,0.9058792591094971,0.1631281077861786,0.1052584871649742,0.07034490257501602,XTrueNorthZVertical,-0.3890004720718448,0.08668365903096893,0.9145106741825777,0.06953267678093777,0.7235448360443115,-0.1044497713446617,-0.6823291778564453,20.29234313964844,-15.99180126190186,-42.96581268310547,2,0.0.0.0,10.144.231.151,4,0
2015-03-08 17:25:23.742,178,1425860723.103637,33.32536084114884,-111.9416767359822,360.3091,0.25,345.234375,3,10,-9999,1425860723.726695,20.63362884521484,-14.06939697265625,-40.00363922119141,125.1712188720703,114.6486740112305,10,328487.4344700833,0.7531585693359375,-0.022735595703125,-0.6979827880859375,328487.4164909167,0.399954065140318,-1.043699755420888,0.8941086654105919,328487.4164909167,2.958743554623587,0.7690995380676223,0.1495618232943116,0.4000941216945648,-1.033939003944397,0.9276294708251953,0.2253157645463943,0.1984891146421432,0.1830957531929016,XTrueNorthZVertical,-0.3662082733838595,0.1031193432743099,0.9230750709227656,0.0564827879812012,0.6877244114875793,-0.1490048617124557,-0.7105157971382141,17.40909576416016,-17.96750831604004,-43.44732284545898,2,0.0.0.0,10.144.231.151,4,0
2015-03-08 17:25:23.748,179,1425860723.103637,33.32536084114884,-111.9416767359822,360.3091,0.25,345.234375,3,10,-9999,1425860723.726695,20.63362884521484,-14.06939697265625,-40.00363922119141,125.1712188720703,114.6486740112305,10,328487.483478875,0.716583251953125,-0.0913543701171875,-0.526702880859375,328487.4682770417,0.7165173660153119,-0.6268758963554627,0.5649834999898032,328487.4164909167,2.958743554623587,0.7690995380676223,0.1495618232943116,0.4000941216945648,-1.033939003944397,0.9276294708251953,0.2253157645463943,0.1984891146421432,0.1830957531929016,XTrueNorthZVertical,-0.3662082733838595,0.1031193432743099,0.9230750709227656,0.0564827879812012,0.6877244114875793,-0.1490048617124557,-0.7105157971382141,17.40909576416016,-17.96750831604004,-43.44732284545898,2,0.0.0.0,10.144.231.151,4,0
2015-03-08 17:25:23.838,180,1425860723.103637,33.32536084114884,-111.9416767359822,360.3091,0.25,345.234375,3,10,-9999,1425860723.832905,17.2232666015625,-18.89547729492188,-39.77066421508789,121.8142700195312,111.2917251586914,10,328487.5325189167,0.726165771484375,-0.407745361328125,-0.74859619140625,328487.5200634584,0.73883891700792,0.1607859539685529,0.7872543866772336,328487.5200634584,2.968165931651041,0.736275333159495,0.252869083368302,0.7389789819717407,0.1705464720726013,0.8207745552062988,0.1599273532629013,-0.003937045577913523,0.01922974362969398,XTrueNorthZVertical,-0.3454755342757523,0.1481256480618856,0.9260043706857157,0.03494772415183712,0.650177001953125,-0.2501828372478485,-0.7174109220504761,14.24015140533447,-21.63573455810547,-42.92657852172852,2,0.0.0.0,10.144.231.151,4,0
2015-03-08 17:25:23.844,181,1425860723.103637,33.32536084114884,-111.9416767359822,360.3091,0.25,345.234375,3,10,-9999,1425860723.832905,17.2232666015625,-18.89547729492188,-39.77066421508789,121.8142700195312,111.2917251586914,10,328487.58154075,0.7208709716796875,-0.1508331298828125,-0.6174163818359375,328487.5718516667,0.653135197335862,-0.2580680327958394,1.041400914767931,328487.5200634584,2.968165931651041,0.736275333159495,0.252869083368302,0.7389789819717407,0.1705464720726013,0.8207745552062988,0.1599273532629013,-0.003937045577913523,0.01922974362969398,XTrueNorthZVertical,-0.3454755342757523,0.1481256480618856,0.9260043706857157,0.03494772415183712,0.650177001953125,-0.2501828372478485,-0.7174109220504761,14.24015140533447,-21.63573455810547,-42.92657852172852,2,0.0.0.0,10.144.231.151,4,0
2015-03-08 17:25:23.941,182,1425860723.103637,33.32536084114884,-111.9416767359822,360.3091,0.25,345.234375,3,10,-9999,1425860723.906432,15.19410705566406,-21.8353271484375,-39.02179336547852,120.6534423828125,110.1308975219727,10,328487.6305555417,0.72686767578125,-0.384735107421875,-0.5420074462890625,328487.6236380417,0.6813045174500661,-0.4617553813966968,0.8764662884532529,328487.6236380417,3.000095740226579,0.6831408107387278,0.3606286765969142,0.6814445853233337,-0.4519950747489929,0.9099857807159424,0.1089719906449318,-0.08173829317092896,0.1085165143013,XTrueNorthZVertical,-0.3167671220456449,0.1918504163323822,0.9288813698086038,0.005603509241014366,0.5906282067298889,-0.352862536907196,-0.7257040143013,10.5522632598877,-25.69906425476074,-41.73470687866211,2,0.0.0.0,10.144.231.151,4,0
2015-03-08 17:25:23.944,183,1425860723.103637,33.32536084114884,-111.9416767359822,360.3091,0.25,345.234375,3,10,-9999,1425860723.906432,15.19410705566406,-21.8353271484375,-39.02179336547852,120.6534423828125,110.1308975219727,10,328487.6795664167,0.6928253173828125,-0.335296630859375,-0.6735992431640625,328487.6754242083,0.8613917314189684,-0.1714306088455997,1.043733044934514,328487.6236380417,3.000095740226579,0.6831408107387278,0.3606286765969142,0.6814445853233337,-0.4519950747489929,0.9099857807159424,0.1089719906449318,-0.08173829317092896,0.1085165143013,XTrueNorthZVertical,-0.3167671220456449,0.1918504163323822,0.9288813698086038,0.005603509241014366,0.5906282067298889,-0.352862536907196,-0.7257040143013,10.5522632598877,-25.69906425476074,-41.73470687866211,2,0.0.0.0,10.144.231.151,4,0
2015-03-08 17:25:24.040,184,1425860723.103637,33.32536084114884,-111.9416767359822,360.3091,0.25,345.234375,3,10,-9999,1425860724.011467,11.95426559448242,-25.06405639648438,-37.19121551513672,115.4869689941406,104.9644241333008,10,328487.7286113334,0.6331329345703125,-0.4239654541015625,-0.5027313232421875,328487.72721275,0.7390011035183058,-0.2249601467561923,1.2030979361454,328487.6754242083,3.019069712051337,0.6737445647562627,0.4259143897688759,0.8615317940711975,-0.1616703867912292,1.077252149581909,0.120818555355072,0.1683568954467773,0.09282279014587402,XTrueNorthZVertical,-0.3102516900190426,0.2188769969400752,0.9250195320332316,-0.01325159451368037,0.568176805973053,-0.4131536483764648,-0.7116734981536865,9.041114807128906,-27.54665374755859,-40.90254592895508,2,0.0.0.0,10.144.231.151,4,0
