loggingTime,loggingSample,locationTimestamp_since1970,locationLatitude,locationLongitude,locationAltitude,locationSpeed,locationCourse,locationVerticalAccuracy,locationHorizontalAccuracy,locationFloor,locationHeadingTimestamp_since1970,locationHeadingX,locationHeadingY,locationHeadingZ,locationTrueHeading,locationMagneticHeading,locationHeadingAccuracy,accelerometerTimestamp_sinceReboot,accelerometerAccelerationX,accelerometerAccelerationY,accelerometerAccelerationZ,gyroTimestamp_sinceReboot,gyroRotationX,gyroRotationY,gyroRotationZ,motionTimestamp_sinceReboot,motionYaw,motionRoll,motionPitch,motionRotationRateX,motionRotationRateY,motionRotationRateZ,motionUserAccelerationX,motionUserAccelerationY,motionUserAccelerationZ,motionAttitudeReferenceFrame,motionQuaternionX,motionQuaternionY,motionQuaternionZ,motionQuaternionW,motionGravityX,motionGravityY,motionGravityZ,motionMagneticFieldX,motionMagneticFieldY,motionMagneticFieldZ,motionMagneticFieldCalibrationAccuracy,IP_en0,IP_pdp_ip0,deviceOrientation,state
2015-02-21 18:55:31.849,1,1424570129.013581,39.63827755088256,-106.370176759083,2518.466,-1,-1,10,65,-9999,1424570131.778547,-19.25051498413086,-35.887451171875,2.615516662597656,135.6250305175781,126.4989776611328,25,21999.34359975,-0.124481201171875,-0.9225311279296875,-0.27459716796875,21999.33665870834,0.04308462011530192,0.1880234340173383,0.04165743208712845,21999.28488466667,-2.721269390451931,-0.6099332642346411,1.238350616149773,-0.09179332852363586,0.4142575562000275,-0.03258642181754112,0.004277855157852173,-0.007160837296396494,-0.002037072321400046,XTrueNorthZVertical,0.1236523126744344,0.5924148776836315,0.7960430881575626,0.008376155735034342,-0.1869408190250397,-0.9452469944953918,-0.2675094306468964,-19.60014724731445,-36.58399963378906,1.934896469116211,1,192.168.1.118,10.97.20.126,1,0
2015-02-21 18:55:31.903,2,1424570129.013581,39.63827755088256,-106.370176759083,2518.466,-1,-1,10,65,-9999,1424570131.882194,-19.59155654907227,-36.397216796875,1.716873168945312,134.058349609375,124.9322967529297,25,21999.39262445833,-0.186187744140625,-0.951141357421875,-0.2779998779296875,21999.38843433333,0.0210901053045555,-0.03836603129589952,-0.03821236690100195,21999.33665870834,-2.729070472873602,-0.5819306300173092,1.234943630277151,0.0287034809589386,0.2018688023090363,0.07776017487049103,0.02378267981112003,0.03865782544016838,-0.0006277099600993097,XTrueNorthZVertical,0.1153546254431378,0.5907872419641983,0.7985342687743683,0.002608952504211017,-0.181146577000618,-0.9441296458244324,-0.2753275036811829,-19.56462669372559,-36.63142013549805,1.28955078125,1,192.168.1.118,10.97.20.126,1,0
2015-02-21 18:55:31.912,3,1424570129.013581,39.63827755088256,-106.370176759083,2518.466,-1,-1,10,65,-9999,1424570131.882194,-19.59155654907227,-36.397216796875,1.716873168945312,134.058349609375,124.9322967529297,25,21999.44169220834,-0.1757659912109375,-0.947784423828125,-0.2685546875,21999.44020995833,-0.009449161863710144,0.1320310047306404,-0.06936975375827499,21999.44020995833,-2.727502179068728,-0.578125647826894,1.235927739655586,-0.02382923290133476,0.1458791196346283,-0.03327818959951401,0.001550282351672649,-0.005421372130513191,0.007612587418407202,XTrueNorthZVertical,0.1132133721425402,0.5912397889081856,0.7985093801552398,0.001026695178260694,-0.1795898377895355,-0.9444534778594971,-0.2752364873886108,-19.64922714233398,-36.58814239501953,1.23058032989502,1,192.168.1.118,10.97.20.126,1,0
2015-02-21 18:55:31.962,4,1424570129.013581,39.63827755088256,-106.370176759083,2518.466,-1,-1,10,65,-9999,1424570131.934338,-19.57451248168945,-36.312255859375,1.733512878417969,133.9407348632812,124.8146667480469,25,21999.490739625,-0.1509552001953125,-0.9491729736328125,-0.2830810546875,21999.44020995833,-0.009449161863710144,0.1320310047306404,-0.06936975375827499,21999.44020995833,-2.727502179068728,-0.578125647826894,1.235927739655586,-0.02382923290133476,0.1458791196346283,-0.03327818959951401,0.001550282351672649,-0.005421372130513191,0.007612587418407202,XTrueNorthZVertical,0.1132133721425402,0.5912397889081856,0.7985093801552398,0.001026695178260694,-0.1795898377895355,-0.9444534778594971,-0.2752364873886108,-19.64922714233398,-36.58814239501953,1.23058032989502,1,192.168.1.118,10.97.20.126,1,0
2015-02-21 18:55:32.011,5,1424570129.013581,39.63827755088256,-106.370176759083,2518.466,-1,-1,10,65,-9999,1424570131.986195,-19.28462600708008,-36.36323547363281,2.082984924316406,135.1608276367188,126.0347595214844,25,21999.53992329167,-0.1647491455078125,-0.9391632080078125,-0.2710723876953125,21999.54375995833,0.02573971825172484,0.004080495422219409,-0.04296184838904926,21999.491984125,-2.729842486495256,-0.5725782028423381,1.236246556977248,0.005556948948651552,-0.03452591970562935,0.01891772262752056,0.02694186754524708,-0.004614737816154957,-0.007105638738721609,XTrueNorthZVertical,0.1116388511056016,0.5912267407939784,0.7987412639841432,0.0003755288804434491,-0.1778970658779144,-0.9445582628250122,-0.2759754061698914,-19.61966705322266,-36.60887145996094,1.076128005981445,1,192.168.1.118,10.97.20.126,1,0
2015-02-21 18:55:32.061,6,1424570129.013581,39.63827755088256,-106.370176759083,2518.466,-1,-1,10,65,-9999,1424570132.037989,-19.13116073608398,-36.34623718261719,2.299324035644531,135.8042907714844,126.6782379150391,25,21999.58891641667,-0.1729736328125,-0.9461517333984375,-0.2772369384765625,21999.54375995833,0.02573971825172484,0.004080495422219409,-0.04296184838904926,21999.54375995833,-2.728924577112402,-0.5748604554213497,1.236297593758649,0.01136426907032728,0.01793219707906246,-0.006886383052915335,0.01375109329819679,0.005411784164607525,0.004455844406038523,XTrueNorthZVertical,0.1122706957415094,0.5912961819061869,0.7986010748323841,0.000692341259801986,-0.178500235080719,-0.9445750117301941,-0.275528222322464,-19.61823272705078,-36.60881423950195,1.103853225708008,1,192.168.1.118,10.97.20.126,1,0
2015-02-21 18:55:32.109,7,1424570129.013581,39.63827755088256,-106.370176759083,2518.466,-1,-1,10,65,-9999,1424570132.089328,-19.16526412963867,-36.38021850585938,2.299324035644531,135.8137969970703,126.6877365112305,25,21999.63804804167,-0.182891845703125,-0.932373046875,-0.2750396728515625,21999.59553558334,0.04208699997095823,-0.05684357557108729,-0.03044445863345883,21999.59553558334,-2.732151560293872,-0.5725689001116083,1.237743762434506,0.02770929038524628,-0.04298649355769157,0.005613148678094149,0.004154467023909092,-0.00110295822378248,-0.002448826329782605,XTrueNorthZVertical,0.1120786958842143,0.5916454257716083,0.798368147508099,0.001548242838984943,-0.1771281063556671,-0.9450487494468689,-0.274788111448288,-19.55818748474121,-36.64057922363281,1.115234375,1,192.168.1.118,10.97.20.126,1,0
2015-02-21 18:55:32.148,8,1424570129.013581,39.63827755088256,-106.370176759083,2518.466,-1,-1,10,65,-9999,1424570132.141587,-19.64271926879883,-36.312255859375,2.199462890625,135.7594757080078,126.633415222168,25,21999.6869805,-0.148956298828125,-0.9447021484375,-0.27410888671875,21999.647309625,0.07006483880278568,-0.01652757772503175,-0.06698515931821804,21999.647309625,-2.728577425750477,-0.5764587216552757,1.238696175186206,0.05568445846438408,-0.002674010116606951,-0.03091504983603954,-0.00518688652664423,0.012986671179533,-0.001697380794212222,XTrueNorthZVertical,0.1124206300265942,0.5921912325498633,0.7979154888036155,0.001434810705653194,-0.1777049601078033,-0.9453597068786621,-0.2733422815799713,-19.56997680664062,-36.63192749023438,1.190146446228027,1,192.168.1.118,10.97.20.126,1,0
2015-02-21 18:55:32.208,9,1424570129.013581,39.63827755088256,-106.370176759083,2518.466,-1,-1,10,65,-9999,1424570132.193471,-19.48925399780273,-36.1593017578125,1.916557312011719,134.1785888671875,125.0525207519531,25,21999.736054875,-0.1663970947265625,-0.9584503173828125,-0.2559051513671875,21999.75086108334,0.1570934811171581,-0.1850976852437773,-0.02863617225329503,21999.69908525,-2.724774939216005,-0.5813392589084276,1.244864160054221,0.1422975063323975,-0.1033483222126961,0.005702369846403599,0.03636614233255386,-0.003498774720355868,0.007537952158600092,XTrueNorthZVertical,0.1122410364363709,0.5946471244196663,0.7961098662657033,0.002422377445992791,-0.1758314669132233,-0.9473526477813721,-0.2675935029983521,-19.52274894714355,-36.6524772644043,1.325531959533691,1,192.168.1.118,10.97.20.126,1,0
2015-02-21 18:55:32.247,10,1424570129.013581,39.63827755088256,-106.370176759083,2518.466,-1,-1,10,65,-9999,1424570132.193471,-19.48925399780273,-36.1593017578125,1.916557312011719,134.1785888671875,125.0525207519531,25,21999.78520154167,-0.19647216796875,-0.952423095703125,-0.244873046875,21999.75086108334,0.1570934811171581,-0.1850976852437773,-0.02863617225329503,21999.75086108334,-2.714591880747714,-0.5991618719977364,1.251865059286976,0.1427252888679504,-0.1712352335453033,0.00739650521427393,-0.007803530432283878,-0.01020676828920841,0.008369349874556065,XTrueNorthZVertical,0.1151368281588056,0.5977261481086724,0.7933743942893379,0.004906431870614542,-0.1768278181552887,-0.9495710730552673,-0.2589339315891266,-19.43490219116211,-36.68585586547852,1.652653694152832,1,192.168.1.118,10.97.20.126,1,0
2015-02-21 18:55:32.306,11,1424570129.013581,39.63827755088256,-106.370176759083,2518.466,-1,-1,10,65,-9999,1424570132.297365,-19.14822006225586,-35.64950561523438,2.981620788574219,134.6818237304688,125.5557632446289,25,21999.834198625,-0.1444244384765625,-0.9588623046875,-0.2542266845703125,21999.80263516667,0.1256524676037916,0.1330142438050976,-0.05128875416940001,21999.80263516667,-2.700141332299953,-0.6119913998244368,1.2572434287593,0.1112913116812706,0.1468724608421326,-0.01524523366242647,-0.004152170848101377,0.001399358850903809,0.002917908597737551,XTrueNorthZVertical,0.1149837309913469,0.600457050224375,0.7913370003869026,0.003982986415669385,-0.1771985441446304,-0.9512436985969543,-0.2524601519107819,-19.44470977783203,-36.65755844116211,2.103673934936523,1,192.168.1.118,10.97.20.126,1,0
2015-02-21 18:55:32.344,12,1424570129.013581,39.63827755088256,-106.370176759083,2518.466,-1,-1,10,65,-9999,1424570132.297365,-19.14822006225586,-35.64950561523438,2.981620788574219,134.6818237304688,125.5557632446289,25,21999.88329670834,-0.16912841796875,-0.96173095703125,-0.2486572265625,21999.85441095833,0.1157471062453509,-0.05360943274329506,-0.04533658913307292,21999.85441095833,-2.69444620658505,-0.6137291047655238,1.262640832573177,0.1013854742050171,-0.03974844515323639,-0.009303582832217216,0.02334081381559372,-0.01037746295332909,-0.001392955076880753,XTrueNorthZVertical,0.1130317456264035,0.6027008926477323,0.7899145940738698,0.003229933492288011,-0.1746774762868881,-0.9528946280479431,-0.2479509115219116,-19.4201602935791,-36.66618728637695,2.17873477935791,1,192.168.1.118,10.97.20.126,1,0
2015-02-21 18:55:32.403,13,1424570129.013581,39.63827755088256,-106.370176759083,2518.466,-1,-1,10,65,-9999,1424570132.400478,-18.65370559692383,-36.21029663085938,3.297813415527344,136.1024780273438,126.9764099121094,25,21999.93225883333,-0.1813201904296875,-0.9703216552734375,-0.248046875,21999.9061865,0.06912793873129579,-0.06065482540709969,-0.03406635771596659,21999.9061865,-2.686669328321477,-0.6249053899880793,1.266054772648987,0.05476754903793335,-0.04679331928491592,0.001963372575119138,-0.006122371647506952,-0.01235354598611593,-0.0009192401776090264,XTrueNorthZVertical,0.114502200387384,0.6043322914969104,0.7884506843807182,0.004157616996978811,-0.1755335181951523,-0.9539245367050171,-0.2433434575796127,-19.37983322143555,-36.67508316040039,2.378853797912598,1,192.168.1.118,10.97.20.126,1,0
2015-02-21 18:55:32.442,14,1424570129.013581,39.63827755088256,-106.370176759083,2518.466,-1,-1,10,65,-9999,1424570132.400478,-18.65370559692383,-36.21029663085938,3.297813415527344,136.1024780273438,126.9764099121094,25,21999.98129775,-0.1599273681640625,-0.9657440185546875,-0.24420166015625,21999.957960875,0.03673750828931607,0.0136084868541959,-0.03832927967285643,21999.957960875,-2.68380871185713,-0.6271318293767743,1.267516645604245,0.02237565256655216,0.0274700503796339,-0.002299700397998095,0.004861444234848022,-0.01283146254718304,-0.01180897187441587,XTrueNorthZVertical,0.1142582311134215,0.6050072287808211,0.7879692655763835,0.003973181568139047,-0.1752563416957855,-0.954362154006958,-0.2418226152658463,-19.37480163574219,-36.66748046875,2.5321044921875,1,192.168.1.118,10.97.20.126,1,0
2015-02-21 18:55:32.501,15,1424570129.013581,39.63827755088256,-106.370176759083,2518.466,-1,-1,10,65,-9999,1424570132.452808,-19.09704971313477,-36.31228637695312,3.197967529296875,135.0586242675781,125.9325714111328,25,22000.03037541667,-0.171783447265625,-0.959320068359375,-0.2420654296875,22000.00973641667,0.0002106560422252678,-0.0381870668706462,-0.03817934370348497,22000.00973641667,-2.687154938304115,-0.6239140752371523,1.268274630374966,-0.01418180484324694,-0.02417896874248981,-0.002022013766691089,0.005475541111081839,-0.01121681369841099,-0.001228607841767371,XTrueNorthZVertical,0.1138698388235712,0.6050905692696621,0.7879589011216871,0.004457897406672394,-0.1740546375513077,-0.9545882344245911,-0.2417981326580048,-19.33919525146484,-36.68648529052734,2.529068946838379,1,192.168.1.118,10.97.20.126,1,0
2015-02-21 18:55:32.540,16,1424570129.013581,39.63827755088256,-106.370176759083,2518.466,-1,-1,10,65,-9999,1424570132.504278,-18.84127426147461,-36.39724731445312,3.014915466308594,135.0540466308594,125.9279937744141,25,22000.07940670833,-0.170196533203125,-0.9562530517578125,-0.2413177490234375,22000.06151229167,-0.004761732029061678,-0.02740499288135139,-0.02743375502112425,22000.06151229167,-2.688216326860127,-0.6240399629160073,1.267940044943098,-0.01914969086647034,-0.01339687686413527,0.008720370940864086,-7.522661326220259e-05,-0.005502950865775347,0.003006461774930358,XTrueNorthZVertical,0.1142990119526244,0.6049115965139725,0.7880318446377947,0.004852630760700049,-0.1742717027664185,-0.9544885158538818,-0.2420353889465332,-19.31888580322266,-36.69660949707031,2.537384986877441,1,192.168.1.118,10.97.20.126,1,0
2015-02-21 18:55:32.599,17,1424570129.013581,39.63827755088256,-106.370176759083,2518.466,-1,-1,10,65,-9999,1424570132.555363,-18.75600814819336,-36.24430847167969,3.164695739746094,135.7088012695312,126.5827407836914,25,22000.128473375,-0.167083740234375,-0.9501190185546875,-0.2335205078125,22000.113286375,-0.001108673961799987,-0.0235905472520309,-0.04099164181460864,22000.113286375,-2.691930622913206,-0.6206120975030124,1.267684478769381,-0.01549623161554337,-0.009581330232322216,-0.004842649213969707,0.003645726945251226,0.006017475854605436,-0.0005631564999930561,XTrueNorthZVertical,0.1141158263826795,0.6046178001369987,0.7882813899762362,0.005232978368277714,-0.1735828667879105,-0.9544122219085693,-0.2428297847509384,-19.3001880645752,-36.70795440673828,2.51545524597168,1,192.168.1.118,10.97.20.126,1,0
2015-02-21 18:55:32.639,18,1424570129.013581,39.63827755088256,-106.370176759083,2518.466,-1,-1,10,65,-9999,1424570132.608802,-18.73895645141602,-36.43122863769531,3.114768981933594,135.688232421875,126.5621643066406,25,22000.177511625,-0.1593780517578125,-0.950531005859375,-0.222930908203125,22000.16506220834,0.02467232328682109,-0.02146268154105759,-0.03619901711690204,22000.113286375,-2.691930622913206,-0.6206120975030124,1.267684478769381,-0.01549623161554337,-0.009581330232322216,-0.004842649213969707,0.003645726945251226,0.006017475854605436,-0.0005631564999930561,XTrueNorthZVertical,0.1141158263826795,0.6046178001369987,0.7882813899762362,0.005232978368277714,-0.1735828667879105,-0.9544122219085693,-0.2428297847509384,-19.3001880645752,-36.70795440673828,2.51545524597168,1,192.168.1.118,10.97.20.126,1,0
2015-02-21 18:55:32.698,19,1424570129.013581,39.63827755088256,-106.370176759083,2518.466,-1,-1,10,65,-9999,1424570132.659018,-19.11410140991211,-36.39724731445312,3.214614868164062,135.669677734375,126.5436172485352,25,22000.22668875,-0.166595458984375,-0.9515838623046875,-0.2231903076171875,22000.21683775,0.07633125684774211,-0.0371518961549324,-0.06892234269514168,22000.21683775,-2.691713744242189,-0.6220809110489752,1.272115903557494,0.06196911260485649,-0.0231412835419178,-0.03279354423284531,0.01003506686538458,0.003577181370928884,0.01783687621355057,XTrueNorthZVertical,0.113858270292435,0.6061920049494675,0.787100115238894,0.006402806513923045,-0.1714730560779572,-0.9557256102561951,-0.2391351014375687,-19.24032783508301,-36.73506927490234,2.577442169189453,1,192.168.1.118,10.97.20.126,1,0
2015-02-21 18:55:32.737,20,1424570129.013581,39.63827755088256,-106.370176759083,2518.466,-1,-1,10,65,-9999,1424570132.71201,-19.01177597045898,-36.36325073242188,3.51416015625,135.6558837890625,126.5298156738281,25,22000.275627375,-0.1803436279296875,-0.9537353515625,-0.2041778564453125,22000.26861216667,0.1178752382724332,-0.008656871439411571,-0.1320999806028734,22000.21683775,-2.691713744242189,-0.6220809110489752,1.272115903557494,0.06196911260485649,-0.0231412835419178,-0.03279354423284531,0.01003506686538458,0.003577181370928884,0.01783687621355057,XTrueNorthZVertical,0.113858270292435,0.6061920049494675,0.787100115238894,0.006402806513923045,-0.1714730560779572,-0.9557256102561951,-0.2391351014375687,-19.24032783508301,-36.73506927490234,2.577442169189453,1,192.168.1.118,10.97.20.126,1,0
2015-02-21 18:55:32.796,21,1424570129.013581,39.63827755088256,-106.370176759083,2518.466,-1,-1,10,65,-9999,1424570132.763979,-19.14818954467773,-36.32926940917969,3.480880737304688,135.0252380371094,125.899169921875,25,22000.32480858333,-0.186859130859375,-0.96429443359375,-0.2228546142578125,22000.32038770834,0.2075859501206244,-0.02311756984243283,-0.1869403264020031,22000.26861216667,-2.687688899513619,-0.627413231190549,1.278935573766332,0.1035354733467102,0.005350306630134583,-0.0959697961807251,-0.006942025851458311,0.001991136232391,0.03061914630234241,XTrueNorthZVertical,0.1135395153376192,0.6088029754913252,0.7851169086173808,0.007693842464630496,-0.1689155250787735,-0.9577101469039917,-0.2329354286193848,-19.12052536010742,-36.77939605712891,2.824929237365723,1,192.168.1.118,10.97.20.126,1,0
2015-02-21 18:55:32.835,22,1424570129.013581,39.63827755088256,-106.370176759083,2518.466,-1,-1,10,65,-9999,1424570132.815663,-18.77305221557617,-36.60116577148438,3.747146606445312,135.3228759765625,126.1968078613281,25,22000.37385508333,-0.188446044921875,-0.9671630859375,-0.205230712890625,22000.37216354167,0.2521259877716546,0.1242844017518179,-0.1834020505777239,22000.32038770834,-2.686451179343631,-0.6280893327525702,1.288991624752071,0.1932510286569595,-0.009113524109125137,-0.1507996916770935,-0.01731962524354458,-0.006241741124540567,-0.00278168823570013,XTrueNorthZVertical,0.1116579815407391,0.6123921197487682,0.7825742533658832,0.009271715896439998,-0.1634054780006409,-0.9605551362037659,-0.2250167727470398,-18.97111320495605,-36.83618927001953,3.080687522888184,1,192.168.1.118,10.97.20.126,1,0
2015-02-21 18:55:32.894,23,1424570129.013581,39.63827755088256,-106.370176759083,2518.466,-1,-1,10,65,-9999,1424570132.867205,-18.32970809936523,-36.56718444824219,4.113265991210938,136.1709442138672,127.0448837280273,25,22000.422934875,-0.196807861328125,-0.9601287841796875,-0.1861572265625,22000.42393770834,0.2497230175200761,0.1178826951234854,-0.1599952614409084,22000.37216354167,-2.676059883142544,-0.636360861330687,1.301209651892809,0.2378033101558685,0.1382796615362167,-0.1472310721874237,-0.03525272011756897,0.004438922274857759,0.01580733992159367,XTrueNorthZVertical,0.1095212163158266,0.617174242713657,0.7791023505414808,0.01003118174698705,-0.1582745015621185,-0.9638810753822327,-0.2142021209001541,-18.78546524047852,-36.90063858032227,3.427492141723633,1,192.168.1.118,10.97.20.126,1,0
2015-02-21 18:55:32.933,24,1424570129.013581,39.63827755088256,-106.370176759083,2518.466,-1,-1,10,65,-9999,1424570132.918592,-17.81815719604492,-36.90702819824219,4.412811279296875,136.602783203125,127.4767303466797,25,22000.47186995834,-0.1977081298828125,-0.9705963134765625,-0.1876373291015625,22000.42393770834,0.2497230175200761,0.1178826951234854,-0.1599952614409084,22000.42393770834,-2.656294033300655,-0.6488098813336937,1.313730273366155,0.2354097962379456,0.1318696141242981,-0.1237937733530998,-0.04318369179964066,0.007011293899267912,0.01642546616494656,XTrueNorthZVertical,0.1059545920275927,0.6224807449231782,0.7753822963280592,0.008583768878106071,-0.1536241620779037,-0.9671400785446167,-0.2025826871395111,-18.61200523376465,-36.94639205932617,3.85435152053833,1,192.168.1.118,10.97.20.126,1,0
2015-02-21 18:55:32.991,25,1424570129.013581,39.63827755088256,-106.370176759083,2518.466,-1,-1,10,65,-9999,1424570132.971292,-17.6646842956543,-37.05998229980469,4.862136840820312,136.5686187744141,127.4425582885742,25,22000.52093895834,-0.1924591064453125,-0.9974212646484375,-0.1373138427734375,22000.527489125,0.2667890864175219,0.3289403420411371,-0.2607644833995447,22000.475713375,-2.636519798055016,-0.6600999108755778,1.327604287421,0.293882817029953,0.2029232531785965,-0.2063781321048737,-0.0500493012368679,-2.204201155109331e-05,0.002579702297225595,XTrueNorthZVertical,0.1015403582622276,0.6281568593459983,0.7713995484480678,0.007161862442363786,-0.1476588249206543,-0.9705742597579956,-0.1902170330286026,-18.53505706787109,-36.94858932495117,4.189512252807617,1,192.168.1.118,10.97.20.126,1,0
2015-02-21 18:55:33.031,26,1424570129.013581,39.63827755088256,-106.370176759083,2518.466,-1,-1,10,65,-9999,1424570133.022873,-17.35775375366211,-37.263916015625,5.228248596191406,136.9123992919922,127.7863388061523,25,22000.56998108334,-0.151153564453125,-1.003707885742188,-0.1325531005859375,22000.527489125,0.2667890864175219,0.3289403420411371,-0.2607644833995447,22000.527489125,-2.625154294644369,-0.6589886842730456,1.344480260304287,0.2525014877319336,0.3429056406021118,-0.2244861274957657,-0.05506164208054543,-0.02292162366211414,0.04009093344211578,XTrueNorthZVertical,0.09430476230232634,0.6343533908471978,0.7672478113055259,0.005763965095339789,-0.1373974680900574,-0.9744996428489685,-0.1774047762155533,-18.36048698425293,-36.99333572387695,4.548007965087891,1,192.168.1.118,10.97.20.126,1,0
2015-02-21 18:55:33.090,27,1424570129.013581,39.63827755088256,-106.370176759083,2518.466,-1,-1,10,65,-9999,1424570133.074734,-17.18723678588867,-37.16195678710938,5.494514465332031,136.5097503662109,127.3836898803711,25,22000.61909966667,-0.1547393798828125,-1.010787963867188,-0.122283935546875,22000.57926358333,0.2425692341999053,0.27859035215599,-0.2044053368307428,22000.57926358333,-2.623384001501727,-0.6431833567416461,1.361280694893893,0.2282847315073013,0.2925546169281006,-0.1681265085935593,-0.02641465701162815,-0.02557611465454102,0.03387559205293655,XTrueNorthZVertical,0.08447805509866593,0.6400383680799886,0.7636773918634797,0.003350622005102361,-0.124738909304142,-0.9781317710876465,-0.1664286851882935,-18.00311851501465,-37.13544845581055,4.81093692779541,1,192.168.1.118,10.97.20.126,1,0
2015-02-21 18:55:33.129,28,1424570129.013581,39.63827755088256,-106.370176759083,2518.466,-1,-1,10,65,-9999,1424570133.074734,-17.18723678588867,-37.16195678710938,5.494514465332031,136.5097503662109,127.3836898803711,25,22000.66809883334,-0.1470489501953125,-1.009246826171875,-0.13165283203125,22000.63103933333,0.181190295292413,0.2763114852112092,-0.1797734935924909,22000.63103933333,-2.619386552049599,-0.6335986573341625,1.373543748483376,0.1669201403856277,0.2902701795101166,-0.1434843689203262,-0.03181500360369682,-0.03481793031096458,0.02857354655861855,XTrueNorthZVertical,0.0772061660703952,0.6442595965888182,0.760899157374905,0.001136815314397488,-0.116027407348156,-0.9806087017059326,-0.1579375565052032,-17.81045150756836,-37.20864868164062,4.960166454315186,1,192.168.1.118,10.97.20.126,1,0
2015-02-21 18:55:33.191,29,1424570129.013581,39.63827755088256,-106.370176759083,2518.466,-1,-1,10,65,-9999,1424570133.17743,-16.55631637573242,-37.38288879394531,5.744140625,136.4805908203125,127.3545379638672,25,22000.71715891667,-0.1564483642578125,-0.9969482421875,-0.119598388671875,22000.682815,0.08575458604887849,0.2166857052493162,-0.1891057426843465,22000.682815,-2.629092678374622,-0.6116290197692809,1.382932637864626,0.07149046659469604,0.2306416928768158,-0.1528102457523346,-0.04576147720217705,-0.02267572097480297,0.02689653262495995,XTrueNorthZVertical,0.07022396144229327,0.6470060191861262,0.7592441164239884,-0.0004668734370779866,-0.1072383970022202,-0.9824054837226868,-0.1529036164283752,-17.63965606689453,-37.28176116943359,5.021107196807861,1,192.168.1.118,10.97.20.126,1,0
2015-02-21 18:55:33.227,30,1424570129.013581,39.63827755088256,-106.370176759083,2518.466,-1,-1,10,65,-9999,1424570133.17743,-16.55631637573242,-37.38288879394531,5.744140625,136.4805908203125,127.3545379638672,25,22000.76630395833,-0.144012451171875,-0.96923828125,-0.1572113037109375,22000.734589375,0.03965207178629879,0.3248585150383727,-0.184414584424172,22000.734589375,-2.628956678042326,-0.5978683249813156,1.388557982055464,0.02542619220912457,0.3387972116470337,-0.1480688154697418,-0.04970622435212135,-0.006900687702000141,0.01568510383367538,XTrueNorthZVertical,0.06391835278834331,0.6488583386471061,0.7582097250426397,-0.003918330598914737,-0.1020119190216064,-0.9834405183792114,-0.1497946083545685,-17.5279369354248,-37.33411407470703,5.023353576660156,1,192.168.1.118,10.97.20.126,1,0
2015-02-21 18:55:33.293,31,1424570129.013581,39.63827755088256,-106.370176759083,2518.466,-1,-1,10,65,-9999,1424570133.28215,-16.16411972045898,-37.90966796875,5.6942138671875,136.7609252929688,127.6348648071289,25,22000.81526545834,-0.09271240234375,-0.975494384765625,-0.138824462890625,22000.78636508334,0.08048419025161169,0.2696748877747318,-0.243032091597361,22000.78636508334,-2.635144967111875,-0.5781916037862377,1.393899224712534,0.06627433001995087,0.2836024165153503,-0.2066364288330078,-0.03386260941624641,0.01526299677789211,0.04518352076411247,XTrueNorthZVertical,0.05749835346399103,0.6503907472141875,0.757388391753586,-0.006977051167395728,-0.09617278724908829,-0.9843944907188416,-0.1473716348409653,-17.45691108703613,-37.38934707641602,4.857119560241699,1,192.168.1.118,10.97.20.126,1,0
2015-02-21 18:55:33.326,32,1424570129.013581,39.63827755088256,-106.370176759083,2518.466,-1,-1,10,65,-9999,1424570133.28215,-16.16411972045898,-37.90966796875,5.6942138671875,136.7609252929688,127.6348648071289,25,22000.86441270834,-0.105316162109375,-0.9662322998046875,-0.115509033203125,22000.83814070834,0.02909689912187873,0.2395614600647698,-0.2262776125474545,22000.83814070834,-2.67699327274053,-0.5214194653212887,1.39954726207042,0.01488886587321758,0.2534882128238678,-0.1898813098669052,-0.007522318512201309,0.007970944978296757,0.004686075262725353,XTrueNorthZVertical,0.04863261031733566,0.6509615956904446,0.7575023573615757,-0.008607477011508283,-0.08488490432500839,-0.9853726625442505,-0.1477677375078201,-17.28171730041504,-37.48508071899414,4.744450092315674,1,192.168.1.118,10.97.20.126,1,0
2015-02-21 18:55:33.395,33,1424570129.013581,39.63827755088256,-106.370176759083,2518.466,-1,-1,10,65,-9999,1424570133.384869,-15.19215774536133,-38.74234008789062,5.178321838378906,136.8253479003906,127.6992950439453,25,22000.91337725,-0.0299530029296875,-0.9804840087890625,-0.1382904052734375,22000.88991495833,-0.00214730678693089,0.3198230100492508,-0.305310380004973,22000.88991495833,-2.736100146990883,-0.4509694010458902,1.406758384659542,-0.01634836941957474,0.333746999502182,-0.268908828496933,-0.00595928356051445,0.01431639771908522,0.04463651403784752,XTrueNorthZVertical,0.040079664206874,0.6518473861837704,0.757247717750555,-0.008033649419923614,-0.07117389887571335,-0.9865759015083313,-0.1469772160053253,-16.88713073730469,-37.68528366088867,4.576355457305908,1,192.168.1.118,10.97.20.126,1,0
2015-02-21 18:55:33.424,34,1424570129.013581,39.63827755088256,-106.370176759083,2518.466,-1,-1,10,65,-9999,1424570133.384869,-15.19215774536133,-38.74234008789062,5.178321838378906,136.8253479003906,127.6992950439453,25,22000.962519125,0.011688232421875,-0.9720001220703125,-0.12451171875,22000.94169075,0.005643504665986914,0.2538756846078367,-0.2767487762622002,22000.94169075,-2.808246239860569,-0.3631852829634641,1.411386431909726,-0.008552920073270798,0.2677989304065704,-0.2403531819581985,0.04719041287899017,0.008103596977889538,0.008275283500552177,XTrueNorthZVertical,0.02972921086314491,0.6518630466412564,0.757703853833846,-0.008697830151638022,-0.05639146268367767,-0.987321138381958,-0.1483814865350723,-16.51077270507812,-37.88306427001953,4.308886528015137,1,192.168.1.118,10.97.20.126,1,0
2015-02-21 18:55:33.491,35,1424570129.013581,39.63827755088256,-106.370176759083,2518.466,-1,-1,10,65,-9999,1424570133.438095,-14.33956527709961,-39.32011413574219,4.812202453613281,136.8188171386719,127.692756652832,25,22001.01147145834,0.053558349609375,-0.9641571044921875,-0.1617584228515625,22000.993466625,0.003843207769093349,0.1503543519787126,-0.2423290170695801,22000.993466625,-2.87855301721205,-0.2828409937441828,1.414104090955497,-0.01035306043922901,0.1642774492502213,-0.2059338241815567,0.07799085229635239,0.03082443028688431,-0.003636619541794062,XTrueNorthZVertical,0.02189755010931317,0.6516093365560004,0.758197058561163,-0.007939151115450698,-0.04355176538228989,-0.9877488613128662,-0.1498515456914902,-16.15009880065918,-38.06171417236328,4.096203327178955,1,192.168.1.118,10.97.20.126,1,0
2015-02-21 18:55:33.522,36,1424570129.013581,39.63827755088256,-106.370176759083,2518.466,-1,-1,10,65,-9999,1424570133.489354,-13.58929061889648,-39.38809204101562,4.645790100097656,137.5684204101562,128.4423522949219,25,22001.06050708333,0.0489654541015625,-1.044540405273438,-0.1985626220703125,22001.04524104167,0.03263837073946611,0.06261544460161603,-0.2267101099084834,22000.993466625,-2.87855301721205,-0.2828409937441828,1.414104090955497,-0.01035306043922901,0.1642774492502213,-0.2059338241815567,0.07799085229635239,0.03082443028688431,-0.003636619541794062,XTrueNorthZVertical,0.02189755010931317,0.6516093365560004,0.758197058561163,-0.007939151115450698,-0.04355176538228989,-0.9877488613128662,-0.1498515456914902,-16.15009880065918,-38.06171417236328,4.096203327178955,1,192.168.1.118,10.97.20.126,1,0
2015-02-21 18:55:33.595,37,1424570129.013581,39.63827755088256,-106.370176759083,2518.466,-1,-1,10,65,-9999,1424570133.54166,-12.94132614135742,-39.38809204101562,4.878776550292969,139.0750122070312,129.9489440917969,25,22001.109561875,0.002044677734375,-1.0062255859375,-0.2190399169921875,22001.09701658334,0.1509130831754112,-0.008288023628435597,-0.3303286479173954,22001.09701658334,-3.017345284398667,-0.1389729280892253,1.422095282677981,0.1368281096220016,0.005670303013175726,-0.2938115298748016,0.04234323278069496,-0.03332873433828354,-0.07545774430036545,XTrueNorthZVertical,0.01208475604471035,0.6530629496922103,0.7572053146316928,-0.001701124082051286,-0.02052316442131996,-0.9889643788337708,-0.1467254906892776,-15.38238143920898,-38.38936614990234,3.992165565490723,1,192.168.1.118,10.97.20.126,1,0
2015-02-21 18:55:33.621,38,1424570129.013581,39.63827755088256,-106.370176759083,2518.466,-1,-1,10,65,-9999,1424570133.592522,-12.70260238647461,-39.38809204101562,4.812210083007812,138.8359680175781,129.7098999023438,25,22001.158596375,-0.03192138671875,-0.9832000732421875,-0.2198944091796875,22001.1487925,0.139379997758714,0.05269596848939789,-0.5055433423558886,22001.09701658334,-3.017345284398667,-0.1389729280892253,1.422095282677981,0.1368281096220016,0.005670303013175726,-0.2938115298748016,0.04234323278069496,-0.03332873433828354,-0.07545774430036545,XTrueNorthZVertical,0.01208475604471035,0.6530629496922103,0.7572053146316928,-0.001701124082051286,-0.02052316442131996,-0.9889643788337708,-0.1467254906892776,-15.38238143920898,-38.38936614990234,3.992165565490723,1,192.168.1.118,10.97.20.126,1,0
2015-02-21 18:55:33.692,39,1424570129.013581,39.63827755088256,-106.370176759083,2518.466,-1,-1,10,65,-9999,1424570133.644312,-12.24219131469727,-39.7789306640625,4.895416259765625,139.3701477050781,130.2440795898438,25,22001.20764733334,-0.00738525390625,-0.9348297119140625,-0.226287841796875,22001.20056666667,0.1339924228734837,0.3270953040379302,-0.5369249673769464,22001.1487925,3.136138776702223,-0.00871187723693125,1.427767958657112,0.1252755373716354,0.06665784120559692,-0.469022810459137,-0.02092923223972321,-0.001208446105010808,-0.07973874360322952,XTrueNorthZVertical,0.005077812144394188,0.654756592918917,0.7558068008585827,0.004913201392841651,-0.001241787918843329,-0.9897888898849487,-0.1425360441207886,-14.81073760986328,-38.59858322143555,4.134010791778564,1,192.168.1.118,10.97.20.126,1,0
2015-02-21 18:55:33.717,40,1424570129.013581,39.63827755088256,-106.370176759083,2518.466,-1,-1,10,65,-9999,1424570133.698411,-11.20203018188477,-40.101806640625,5.078483581542969,141.1075439453125,131.9814758300781,25,22001.25668729167,0.018707275390625,-0.9610748291015625,-0.1947021484375,22001.252342625,0.1499263819915368,0.3392116217333547,-0.4675365714910408,22001.20056666667,2.964163959481778,0.1709603314209592,1.430525719792351,0.1198707297444344,0.3410588204860687,-0.500392735004425,-0.04429373890161514,0.04651364684104919,-0.05592194572091103,XTrueNorthZVertical,-0.006306883864649084,0.6565620012109467,0.75416739199131,0.01086952426716424,0.02378592640161514,-0.9901782274246216,-0.1377731263637543,-13.7858943939209,-38.9694938659668,4.198391437530518,1,192.168.1.118,10.97.20.126,1,0
2015-02-21 18:55:33.790,41,1424570129.013581,39.63827755088256,-106.370176759083,2518.466,-1,-1,10,65,-9999,1424570133.748534,-10.04251480102539,-40.271728515625,5.31146240234375,142.3671264648438,133.2410583496094,25,22001.305738125,0.083160400390625,-0.989715576171875,-0.17694091796875,22001.30411820834,0.1562780211913758,0.5177155864342048,-0.3387242632538702,22001.30411820834,2.66336244031801,0.5092646632480547,1.426836392552273,0.1421236246824265,0.5316830277442932,-0.3021785318851471,-0.001507831970229745,0.0004436161543708295,-0.04814248159527779,XTrueNorthZVertical,-0.03504442819426621,0.660410999861733,0.7499707431407957,0.0131576466732827,0.06994350254535675,-0.9896556735038757,-0.1252584010362625,-12.34602737426758,-39.45063400268555,4.18592643737793,1,192.168.1.118,10.97.20.126,1,0
2015-02-21 18:55:33.816,42,1424570129.013581,39.63827755088256,-106.370176759083,2518.466,-1,-1,10,65,-9999,1424570133.799953,-9.292232513427734,-40.50961303710938,5.544448852539062,143.6119995117188,134.4859466552734,25,22001.3548775,0.1063690185546875,-0.9732208251953125,-0.18121337890625,22001.30411820834,0.1562780211913758,0.5177155864342048,-0.3387242632538702,22001.30411820834,2.66336244031801,0.5092646632480547,1.426836392552273,0.1421236246824265,0.5316830277442932,-0.3021785318851471,-0.001507831970229745,0.0004436161543708295,-0.04814248159527779,XTrueNorthZVertical,-0.03504442819426621,0.660410999861733,0.7499707431407957,0.0131576466732827,0.06994350254535675,-0.9896556735038757,-0.1252584010362625,-12.34602737426758,-39.45063400268555,4.18592643737793,1,192.168.1.118,10.97.20.126,1,0
2015-02-21 18:55:33.895,43,1424570129.013581,39.63827755088256,-106.370176759083,2518.466,-1,-1,10,65,-9999,1424570133.850688,-8.541957855224609,-40.67953491210938,6.110267639160156,143.5537719726562,134.4277191162109,25,22001.40383383333,0.08154296875,-0.93133544921875,-0.17626953125,22001.40766841667,0.2496351332041035,0.3208483270689313,-0.2764307948280448,22001.35589283333,2.559050211192418,0.6391366965966436,1.427267006401816,0.1965159177780151,0.4815680384635925,-0.2263955026865005,0.02104688808321953,0.01649651303887367,-0.06641008704900742,XTrueNorthZVertical,-0.04903512002051773,0.6634711074975965,0.746537615760985,0.009125496883114731,0.08532212674617767,-0.9897173643112183,-0.1148032918572426,-11.78668785095215,-39.62944030761719,4.108548164367676,1,192.168.1.118,10.97.20.126,1,0
2015-02-21 18:55:33.914,44,1424570129.013581,39.63827755088256,-106.370176759083,2518.466,-1,-1,10,65,-9999,1424570133.903971,-8.200916290283203,-40.71353149414062,5.977134704589844,143.4995422363281,134.3734741210938,25,22001.45297320834,0.0825042724609375,-0.93328857421875,-0.1478424072265625,22001.40766841667,0.2496351332041035,0.3208483270689313,-0.2764307948280448,22001.40766841667,2.446328167908143,0.7705209572949668,1.428204803521524,0.2354810386896133,0.3348154723644257,-0.2398858219385147,-0.01743729412555695,0.05851559340953827,-0.07429946959018707,XTrueNorthZVertical,-0.06023259799879288,0.6673732112444228,0.7422490931858633,0.007166214855822239,0.09898026287555695,-0.9898510575294495,-0.1019700616598129,-11.46239852905273,-39.71068572998047,4.239533424377441,1,192.168.1.118,10.97.20.126,1,0
2015-02-21 18:55:33.992,45,1424570129.013581,39.63827755088256,-106.370176759083,2518.466,-1,-1,10,65,-9999,1424570133.954863,-7.876934051513672,-41.24032592773438,6.52630615234375,144.1250305175781,134.9989624023438,25,22001.50195120833,0.06695556640625,-0.9475250244140625,-0.1555023193359375,22001.45944433333,0.2683552914545975,0.4753460250715892,-0.2473381567639102,22001.45944433333,2.334155371964539,0.9014566686018657,1.427343109587544,0.2541906535625458,0.489313542842865,-0.2107868790626526,-0.02961100824177265,0.05643964558839798,-0.05913904681801796,XTrueNorthZVertical,-0.07136252330488825,0.6712344676045094,0.7377844871601286,0.005076434978276172,0.112115278840065,-0.9897282123565674,-0.08870335668325424,-11.11641502380371,-39.78662872314453,4.443904399871826,1,192.168.1.118,10.97.20.126,1,0
2015-02-21 18:55:34.011,46,1424570129.013581,39.63827755088256,-106.370176759083,2518.466,-1,-1,10,65,-9999,1424570134.007986,-7.399486541748047,-41.54618835449219,7.191978454589844,146.0327453613281,136.9066925048828,25,22001.55100320833,0.0120391845703125,-1.068862915039062,-0.026947021484375,22001.511218625,0.313878834496194,0.4711078705128371,-0.1555720171863958,22001.511218625,2.227770236742442,1.032258838624925,1.428631891082531,0.2997063398361206,0.4850755631923676,-0.119016170501709,-0.05467641726136208,0.04238662123680115,-0.08283410221338272,XTrueNorthZVertical,-0.08325558966573028,0.6758212760969702,0.7323483434343144,-0.0002309806536512072,0.1216319799423218,-0.9899116158485413,-0.07266821712255478,-10.80156707763672,-39.84079360961914,4.726094722747803,1,192.168.1.118,10.97.20.126,1,0
2015-02-21 18:55:34.091,47,1424570129.013581,39.63827755088256,-106.370176759083,2518.466,-1,-1,10,65,-9999,1424570134.058539,-7.348331451416016,-41.76708984375,7.807708740234375,145.5736389160156,136.4475860595703,25,22001.600079125,0.16485595703125,-1.324798583984375,0.0440826416015625,22001.56299454167,0.3260082016809598,0.6900668500686449,-0.2161661225206417,22001.56299454167,2.118585548779537,1.166428916976336,1.430301572831016,0.311829537153244,0.7040314674377441,-0.1795903891324997,-0.1095595061779022,-0.1632039994001389,0.06160981208086014,XTrueNorthZVertical,-0.09465125495140876,0.6808039251148851,0.7262960142874355,-0.006426121182132537,0.1287398040294647,-0.990146815776825,-0.05509430915117264,-10.70758819580078,-39.83383178710938,4.991195201873779,1,192.168.1.118,10.97.20.126,1,0
2015-02-21 18:55:34.111,48,1424570129.013581,39.63827755088256,-106.370176759083,2518.466,-1,-1,10,65,-9999,1424570134.058539,-7.348331451416016,-41.76708984375,7.807708740234375,145.5736389160156,136.4475860595703,25,22001.64912029167,0.0734100341796875,-0.8546905517578125,0.1310577392578125,22001.61477025,0.3898146119220594,1.118051218314265,-0.03137123869280641,22001.61477025,1.979755161442276,1.353941933544641,1.430567798194385,0.375636100769043,1.132015585899353,0.005204134155064821,0.04705182835459709,-0.2375686019659042,0.09158085286617279,XTrueNorthZVertical,-0.1147803264772747,0.6868690858827688,0.7173670500034692,-0.02051562820467153,0.1364961415529251,-0.9901840686798096,-0.03007267042994499,-7.359810829162598,-41.74185943603516,7.930620193481445,1,192.168.1.118,10.97.20.126,1,0
2015-02-21 18:55:34.192,49,1424570129.013581,39.63827755088256,-106.370176759083,2518.466,-1,-1,10,65,-9999,1424570134.163847,-7.024345397949219,-41.92001342773438,8.689720153808594,142.9447631835938,133.8187103271484,25,22001.6981905,0.2490081787109375,-0.99139404296875,0.3080902099609375,22001.66654475,0.1036643443796614,1.090639567530188,-0.2931557127898514,22001.66654475,1.897773768874057,1.488075395903112,1.427523906586117,0.08948595076799393,1.104603886604309,-0.256580650806427,-0.07973376661539078,0.1375506818294525,0.2023189216852188,XTrueNorthZVertical,-0.1354751140832361,0.6897446289727216,0.7103352542367539,-0.03636903593436705,0.1422948092222214,-0.9897540807723999,-0.01179768051952124,-7.765644073486328,-41.61032104492188,8.229247093200684,1,192.168.1.118,10.97.20.126,1,0
2015-02-21 18:55:34.208,50,1424570129.013581,39.63827755088256,-106.370176759083,2518.466,-1,-1,10,65,-9999,1424570134.163847,-7.024345397949219,-41.92001342773438,8.689720153808594,142.9447631835938,133.8187103271484,25,22001.74722145834,0.5112152099609375,-1.218978881835938,0.0892333984375,22001.71832033333,-0.2373752711259237,2.059347103499426,0.02060700788281513,22001.71832033333,1.941145633827106,1.529370081809413,1.417840082045828,-0.2515535056591034,2.073311328887939,0.05718164891004562,0.2512275874614716,-0.1464406400918961,0.2572254538536072,XTrueNorthZVertical,-0.1683143308694382,0.684481790111915,0.7065713710088173,-0.06254520460318386,0.1522300690412521,-0.9883249998092651,-0.006309930235147476,-7.768389225006104,-41.70393371582031,7.738133907318115,1,192.168.1.118,10.97.20.126,1,0
2015-02-21 18:55:34.290,51,1424570129.013581,39.63827755088256,-106.370176759083,2518.466,-1,-1,10,65,-9999,1424570134.267178,-8.559009552001953,-41.7840576171875,6.659446716308594,133.4327087402344,124.3066558837891,25,22001.79628154167,0.233428955078125,-0.958648681640625,0.0948486328125,22001.77009625,-0.1538899646419017,0.9129236321958926,0.5252267659726643,22001.77009625,2.02640115358223,1.527045339853987,1.439006821863462,-0.168068066239357,0.9268876910209656,0.5618010759353638,0.300159364938736,-0.1350602209568024,0.02121983654797077,XTrueNorthZVertical,-0.189388636481341,0.6791599461783062,0.7021696466754219,-0.09915411784441197,0.1312828958034515,-0.9913282990455627,-0.005747423972934484,-8.681818008422852,-41.72693634033203,6.552372932434082,1,192.168.1.118,10.97.20.126,1,0
2015-02-21 18:55:34.307,52,1424570129.013581,39.63827755088256,-106.370176759083,2518.466,-1,-1,10,65,-9999,1424570134.267178,-8.559009552001953,-41.7840576171875,6.659446716308594,133.4327087402344,124.3066558837891,25,22001.845322,0.1199798583984375,-0.8589630126953125,0.1727294921875,22001.82187058334,-0.1381253825691777,0.1079315273942953,0.1492006705944902,22001.82187058334,2.094261906278777,1.474336933815747,1.456404146757797,-0.1523033529520035,0.1218954399228096,0.1857746094465256,0.04234747961163521,0.1066998168826103,0.1544409990310669,XTrueNorthZVertical,-0.1880754343166965,0.6775921130770088,0.7022512765435531,-0.1110843995092998,0.113612599670887,-0.9934643507003784,-0.01099311839789152,-10.15048980712891,-41.51868438720703,5.710605621337891,1,192.168.1.118,10.97.20.126,1,0
2015-02-21 18:55:34.395,53,1424570129.013581,39.63827755088256,-106.370176759083,2518.466,-1,-1,10,65,-9999,1424570134.369682,-9.394557952880859,-41.90303039550781,5.710868835449219,129.6010131835938,120.4749450683594,25,22001.89437316667,0.165740966796875,-0.923614501953125,0.1403656005859375,22001.87364654167,-0.2215441100259477,0.4707818995954114,-0.07264810506016253,22001.87364654167,2.17715032037467,1.408896839566481,1.457594358043706,-0.2357219308614731,0.4847456812858582,-0.03607452660799026,0.02398403361439705,0.112923227250576,0.1804399341344833,XTrueNorthZVertical,-0.1926850292028003,0.6736232141734674,0.7036044616157108,-0.1185117984048875,0.1114834919571877,-0.9935994744300842,-0.01820848882198334,-10.45078659057617,-41.49653625488281,5.316312789916992,1,192.168.1.118,10.97.20.126,1,0
2015-02-21 18:55:34.404,54,1424570129.013581,39.63827755088256,-106.370176759083,2518.466,-1,-1,10,65,-9999,1424570134.369682,-9.394557952880859,-41.90303039550781,5.710868835449219,129.6010131835938,120.4749450683594,25,22001.943412,0.19000244140625,-0.9622039794921875,0.1509246826171875,22001.92542220834,-0.2357281059917097,0.1842950084912274,-0.03236353251496993,22001.92542220834,2.277737288186262,1.326915729995097,1.45302668196254,-0.2499057799577713,0.198258638381958,0.004209645092487335,0.06499516218900681,0.04158085584640503,0.1704315692186356,XTrueNorthZVertical,-0.1989754791274811,0.6679989783024028,0.7060926709678934,-0.1249772123922336,0.1140209510922432,-0.9930731654167175,-0.02837224677205086,-10.47830581665039,-41.56533813476562,4.687452793121338,1,192.168.1.118,10.97.20.126,1,0
2015-02-21 18:55:34.499,55,1424570129.013581,39.63827755088256,-106.370176759083,2518.466,-1,-1,10,65,-9999,1424570134.473668,-10.34945297241211,-42.54879760742188,4.446098327636719,126.0539474487305,116.9278869628906,25,22001.992468875,0.1804046630859375,-0.991363525390625,0.1751556396484375,22001.97719675,-0.2742826890927869,-0.3146306448719233,0.2017019620082033,22001.97719675,2.404559850049363,1.196972812408718,1.455693781439623,-0.2884602248668671,-0.3006671369075775,0.2382747679948807,0.08165093511343002,0.0225883349776268,0.2207885086536407,XTrueNorthZVertical,-0.1943979002403689,0.6642584878152199,0.7104437516275507,-0.1274356050714087,0.106917180120945,-0.99338299036026,-0.04194023460149765,-10.63648700714111,-41.59922409057617,3.97675085067749,1,192.168.1.118,10.97.20.126,1,0
2015-02-21 18:55:34.502,56,1424570129.013581,39.63827755088256,-106.370176759083,2518.466,-1,-1,10,65,-9999,1424570134.473668,-10.34945297241211,-42.54879760742188,4.446098327636719,126.0539474487305,116.9278869628906,25,22002.04151408334,0.1112060546875,-0.959442138671875,0.1061248779296875,22002.02897241667,-0.2461850080119058,-0.692625082611775,0.1806134546003019,22001.97719675,2.404559850049363,1.196972812408718,1.455693781439623,-0.2884602248668671,-0.3006671369075775,0.2382747679948807,0.08165093511343002,0.0225883349776268,0.2207885086536407,XTrueNorthZVertical,-0.1943979002403689,0.6642584878152199,0.7104437516275507,-0.1274356050714087,0.106917180120945,-0.99338299036026,-0.04194023460149765,-10.63648700714111,-41.59922409057617,3.97675085067749,1,192.168.1.118,10.97.20.126,1,0
2015-02-21 18:55:34.591,57,1424570129.013581,39.63827755088256,-106.370176759083,2518.466,-1,-1,10,65,-9999,1424570134.577395,-10.38354873657227,-42.00503540039062,3.747146606445312,125.7833557128906,116.6572952270508,25,22002.09057891667,0.120269775390625,-1.1209716796875,0.0160980224609375,22002.080748375,-0.2468747667342364,-1.002951526529912,-0.04640717989128477,22002.080748375,2.631037335504171,0.904693241936908,1.459395255739311,-0.2610409259796143,-0.9888880848884583,-0.009821053594350815,0.0348161943256855,0.01437016297131777,0.1688390523195267,XTrueNorthZVertical,-0.1638227972001226,0.6624305859049959,0.7222596744440035,-0.1126446295484451,0.0874067023396492,-0.9938012957572937,-0.06869561970233917,-11.21097660064697,-41.47023391723633,3.738749265670776,1,192.168.1.118,10.97.20.126,1,0
2015-02-21 18:55:34.600,58,1424570129.013581,39.63827755088256,-106.370176759083,2518.466,-1,-1,10,65,-9999,1424570134.577395,-10.38354873657227,-42.00503540039062,3.747146606445312,125.7833557128906,116.6572952270508,25,22002.13962083334,0.09661865234375,-1.398757934570312,-0.1213836669921875,22002.13252283333,0.2587809610196536,-1.160324106929311,-0.1803412795368958,22002.080748375,2.631037335504171,0.904693241936908,1.459395255739311,-0.2610409259796143,-0.9888880848884583,-0.009821053594350815,0.0348161943256855,0.01437016297131777,0.1688390523195267,XTrueNorthZVertical,-0.1638227972001226,0.6624305859049959,0.7222596744440035,-0.1126446295484451,0.0874067023396492,-0.9938012957572937,-0.06869561970233917,-11.21097660064697,-41.47023391723633,3.738749265670776,1,192.168.1.118,10.97.20.126,1,0
2015-02-21 18:55:34.663,59,1424570129.013581,39.63827755088256,-106.370176759083,2518.466,-1,-1,10,65,-9999,1424570134.629998,-9.906101226806641,-42.85469055175781,4.845489501953125,130.4390563964844,121.3130035400391,25,22002.1886905,0.323822021484375,-0.8626861572265625,-0.08172607421875,22002.18429866667,0.2432083928615243,-0.4245132040808107,-0.1878798896345831,22002.13252283333,2.597756727163843,0.8810980198114009,1.456209688825917,0.244615763425827,-1.146260738372803,-0.1437560319900513,0.00180817348882556,-0.4028286337852478,-0.03827020525932312,XTrueNorthZVertical,-0.1449496696102054,0.6652918316064864,0.7265742637503761,-0.09201223425257683,0.08820342272520065,-0.9934421181678772,-0.07275274395942688,-10.89028453826904,-41.52490615844727,4.065505981445312,1,192.168.1.118,10.97.20.126,1,0
2015-02-21 18:55:34.699,60,1424570129.013581,39.63827755088256,-106.370176759083,2518.466,-1,-1,10,65,-9999,1424570134.681089,-9.582118988037109,-43.31350708007812,6.193466186523438,134.0081024169922,124.8820419311523,25,22002.23774183333,0.3607635498046875,-0.7261810302734375,-0.0997161865234375,22002.236074375,0.1303116679308852,-0.6320032804021922,-0.1078234030540381,22002.18429866667,2.460021637369413,0.9794993944396597,1.457127401362387,0.2290433347225189,-0.4104500114917755,-0.1512949764728546,0.1693825870752335,0.05099598318338394,-0.008855292573571205,XTrueNorthZVertical,-0.1344294720679653,0.6710552163815945,0.725238313264033,-0.07512018703047274,0.09416721761226654,-0.9935466647148132,-0.06322722882032394,-10.38333797454834,-41.54891204833984,5.031776905059814,1,192.168.1.118,10.97.20.126,1,0
2015-02-21 18:55:34.790,61,1424570129.013581,39.63827755088256,-106.370176759083,2518.466,-1,-1,10,65,-9999,1424570134.785287,-8.900051116943359,-43.44943237304688,7.325096130371094,137.7022094726562,128.5761566162109,25,22002.28679858334,0.1656646728515625,-0.9747772216796875,-0.0511322021484375,22002.28784891667,0.2110278195134428,-0.8019662211710492,-0.3666680136237446,22002.236074375,2.374508166493343,1.045283769731797,1.458133423147273,0.1161467507481575,-0.6179401874542236,-0.07123885303735733,0.3096814453601837,0.2816546261310577,-0.05557024106383324,XTrueNorthZVertical,-0.1292235100282043,0.6746124124738707,0.7237201056161138,-0.06654792286877999,0.09725519269704819,-0.9936602711677551,-0.05639875307679176,-10.02970123291016,-41.55877685546875,5.631841659545898,1,192.168.1.118,10.97.20.126,1,0
2015-02-21 18:55:34.798,62,1424570129.013581,39.63827755088256,-106.370176759083,2518.466,-1,-1,10,65,-9999,1424570134.785287,-8.900051116943359,-43.44943237304688,7.325096130371094,137.7022094726562,128.5761566162109,25,22002.3359385,0.2621307373046875,-0.950836181640625,-0.0815582275390625,22002.28784891667,0.2110278195134428,-0.8019662211710492,-0.3666680136237446,22002.28784891667,2.283998818062326,1.094266569678813,1.451426184010325,0.196863055229187,-0.7879033088684082,-0.3300838768482208,0.05984475463628769,0.01810661889612675,0.003492883173748851,XTrueNorthZVertical,-0.1182659103957095,0.6772744139440771,0.7245482182213701,-0.04839898806991542,0.1058199182152748,-0.9928838610649109,-0.05462508648633957,-9.464451789855957,-41.59279632568359,6.317269325256348,1,192.168.1.118,10.97.20.126,1,0
2015-02-21 18:55:34.861,63,1424570129.013581,39.63827755088256,-106.370176759083,2518.466,-1,-1,10,65,-9999,1424570134.83656,-8.11566162109375,-43.72134399414062,8.190452575683594,140.0389709472656,130.9129028320312,25,22002.38487991667,0.24383544921875,-0.889007568359375,-0.1023101806640625,22002.391400625,0.2941006023446115,-1.103747912731667,-0.09743174848054893,22002.33962475,2.114219680465409,1.228047920665529,1.44315058959814,0.3709108829498291,-0.7259407639503479,-0.2805856466293335,0.1422354876995087,0.04102815687656403,-0.0387757420539856,XTrueNorthZVertical,-0.1114298915274602,0.6827826424408686,0.721453229915457,-0.02994193412541983,0.1198952421545982,-0.9918643236160278,-0.0427824854850769,-8.633908271789551,-41.65079879760742,7.078927040100098,1,192.168.1.118,10.97.20.126,1,0
2015-02-21 18:55:34.895,64,1424570129.013581,39.63827755088256,-106.370176759083,2518.466,-1,-1,10,65,-9999,1424570134.888446,-7.228973388671875,-43.55142211914062,9.322097778320312,143.5873413085938,134.4612731933594,25,22002.43391754167,0.10601806640625,-0.90093994140625,-0.1038360595703125,22002.391400625,0.2941006023446115,-1.103747912731667,-0.09743174848054893,22002.391400625,1.972114481579703,1.322284811732805,1.439633065402548,0.2799361348152161,-1.089685201644897,-0.06084829568862915,0.117065504193306,0.1024028584361076,-0.07014141976833344,XTrueNorthZVertical,-0.09777201027642912,0.6887352571831309,0.7183213730073279,-0.009941052219580131,0.126769945025444,-0.9914104342460632,-0.03216876089572906,-7.879519939422607,-41.62607955932617,8.039098739624023,1,192.168.1.118,10.97.20.126,1,0
2015-02-21 18:55:34.962,65,1424570129.013581,39.63827755088256,-106.370176759083,2518.466,-1,-1,10,65,-9999,1424570134.941359,-6.666263580322266,-43.7723388671875,10.30394744873047,146.759765625,137.6336975097656,25,22002.48296241667,0.18975830078125,-0.9031829833984375,-0.1523590087890625,22002.44317508334,0.180248068898743,-0.7581681401997151,-0.04846074340784488,22002.44317508334,1.894269899583561,1.35158914898534,1.440952038432987,0.1660837233066559,-0.7441056966781616,-0.01187765598297119,-0.02036353945732117,0.09064212441444397,-0.07567986845970154,XTrueNorthZVertical,-0.0809655199495202,0.6923629747007062,0.7169539551848708,0.007427106208747784,0.1263816058635712,-0.9915820956230164,-0.02815619111061096,-7.19978141784668,-41.52251052856445,9.137224197387695,1,192.168.1.118,10.97.20.126,1,0
2015-02-21 18:55:34.994,66,1424570129.013581,39.63827755088256,-106.370176759083,2518.466,-1,-1,10,65,-9999,1424570134.941359,-6.666263580322266,-43.7723388671875,10.30394744873047,146.759765625,137.6336975097656,25,22002.53198683334,0.118896484375,-0.8910980224609375,-0.166015625,22002.49495070833,0.1252489986986446,-0.5857130132827619,0.1136410784553162,22002.49495070833,1.847299089207036,1.368844570999841,1.445621412029121,0.1110848039388657,-0.5716506838798523,0.1502237617969513,0.06276256591081619,0.09982660412788391,-0.1399356722831726,XTrueNorthZVertical,-0.06926755313891543,0.6947523502591502,0.7157118135549949,0.01666786574004351,0.1223112866282463,-0.992175817489624,-0.02504235506057739,-6.94248104095459,-41.45220565795898,9.641648292541504,1,192.168.1.118,10.97.20.126,1,0
2015-02-21 18:55:35.061,67,1424570129.013581,39.63827755088256,-106.370176759083,2518.466,-1,-1,10,65,-9999,1424570135.044087,-6.444583892822266,-43.65339660644531,11.68520355224609,150.7380065917969,141.6119537353516,25,22002.58104041667,0.0463104248046875,-0.9159698486328125,-0.1256866455078125,22002.546726625,0.1471050291327069,-0.5384347133989122,0.1784616204395179,22002.546726625,1.815940935764617,1.371407577843329,1.456679528518445,0.1329409629106522,-0.5243725180625916,0.2150439471006393,-0.008357388898730278,0.09267786890268326,-0.1414472907781601,XTrueNorthZVertical,-0.05548180487268985,0.6968821125147358,0.7146605185755223,0.02318347888923531,0.1116136163473129,-0.993495762348175,-0.0225541815161705,-6.984768867492676,-41.35126113891602,10.0364818572998,1,192.168.1.118,10.97.20.126,1,0
2015-02-21 18:55:35.093,68,1424570129.013581,39.63827755088256,-106.370176759083,2518.466,-1,-1,10,65,-9999,1424570135.044087,-6.444583892822266,-43.65339660644531,11.68520355224609,150.7380065917969,141.6119537353516,25,22002.63007308334,0.07415771484375,-1.30401611328125,0.04736328125,22002.59850104167,0.1725451417617978,-0.2921216073385736,0.06577821471219412,22002.59850104167,1.757476539030316,1.408369572393946,1.465992236699067,0.1583812087774277,-0.2780595719814301,0.1023602038621902,-0.07514434307813644,0.04811720177531242,-0.08386701345443726,XTrueNorthZVertical,-0.04503685913297541,0.6996520834309456,0.7125164053396921,0.02791156589930371,0.1032357737421989,-0.9945130944252014,-0.01691728644073009,-7.155998229980469,-41.1801643371582,10.60332012176514,1,192.168.1.118,10.97.20.126,1,0
2015-02-21 18:55:35.161,69,1424570129.013581,39.63827755088256,-106.370176759083,2518.466,-1,-1,10,65,-9999,1424570135.147765,-6.495731353759766,-43.19454956054688,12.40080261230469,152.4539489746094,143.327880859375,25,22002.67914704167,0.2035064697265625,-1.14862060546875,-0.0796051025390625,22002.65027708334,0.1393307292785476,0.5322726912686869,0.2162755784414439,22002.65027708334,1.714393678607539,1.460046638947347,1.472353795941678,0.1251669526100159,0.5463345646858215,0.2528571486473083,0.07234681397676468,-0.4185225963592529,0.02796778827905655,XTrueNorthZVertical,-0.04610835535632755,0.7017426001012929,0.7105676993847816,0.02291129152631378,0.09768187254667282,-0.9951584339141846,-0.01086268573999405,-7.262758731842041,-41.09033966064453,10.87570762634277,1,192.168.1.118,10.97.20.126,1,0
2015-02-21 18:55:35.196,70,1424570129.013581,39.63827755088256,-106.370176759083,2518.466,-1,-1,10,65,-9999,1424570135.147765,-6.495731353759766,-43.19454956054688,12.40080261230469,152.4539489746094,143.327880859375,25,22002.72818429167,0.2164764404296875,-0.9350433349609375,0.1420135498046875,22002.70205279167,0.2663022605702554,0.2685539632719174,0.3511423171008007,22002.70205279167,1.577861469129063,1.619686626601589,1.49185719948897,0.2521386444568634,0.2826157212257385,0.3877235352993011,0.1250634491443634,-0.01107916329056025,-0.006966632790863514,XTrueNorthZVertical,-0.04766092082432436,0.7068630394375941,0.7056961135369391,0.008131135287040774,0.078763447701931,-0.9968858957290649,0.003853839822113514,-8.029346466064453,-40.91468811035156,10.99830341339111,1,192.168.1.118,10.97.20.126,1,0
2015-02-21 18:55:35.248,71,1424570129.013581,39.63827755088256,-106.370176759083,2518.466,-1,-1,10,65,-9999,1424570135.199669,-7.331268310546875,-43.44943237304688,12.45072937011719,150.2098388671875,141.0837707519531,25,22002.777358375,0.29681396484375,-1.186386108398438,0.12103271484375,22002.75382745833,-0.1422863054563175,0.4127289825733191,0.4228516578767103,22002.75382745833,1.553549745907923,1.658731039535252,1.510529251331759,-0.1564497947692871,0.4267905950546265,0.4594325423240662,0.1930684745311737,0.01736478693783283,0.1844076663255692,XTrueNorthZVertical,-0.04625019860852139,0.7074642867847653,0.7052244700921911,-0.003699831747135534,0.05999854579567909,-0.9981845021247864,0.005289596039801836,-9.151460647583008,-40.61428070068359,11.2327880859375,1,192.168.1.118,10.97.20.126,1,0
2015-02-21 18:55:35.291,72,1424570129.013581,39.63827755088256,-106.370176759083,2518.466,-1,-1,10,65,-9999,1424570135.251727,-8.507846832275391,-43.29647827148438,12.76692199707031,147.8192749023438,138.6932220458984,25,22002.82630429167,0.1926422119140625,-1.047988891601562,-0.01800537109375,22002.80560316667,0.023661121020918,0.2093249943124461,0.6319649308824952,22002.80560316667,1.61750707510898,1.619774959659861,1.542717543266865,0.009497762657701969,0.2233864814043045,0.6685454249382019,0.2383756041526794,-0.2227147370576859,0.001082065282389522,XTrueNorthZVertical,-0.04374158316401123,0.7062393176253351,0.7062168031465902,-0.02388654463897903,0.02804284729063511,-0.9996058344841003,0.001374599756672978,-10.39217376708984,-40.44633483886719,10.74900913238525,1,192.168.1.118,10.97.20.126,1,0
2015-02-21 18:55:35.346,73,1424570129.013581,39.63827755088256,-106.370176759083,2518.466,-1,-1,10,65,-9999,1424570135.303296,-9.889049530029297,-43.10957336425781,12.85012054443359,145.8170776367188,136.6910247802734,25,22002.875357,0.0300445556640625,-0.8656463623046875,0.037811279296875,22002.857379125,0.03115046263843883,-0.6540478626414322,0.1962667165394606,22002.857379125,1.268511141338146,1.950793645085005,1.563190737576908,0.01698725856840611,-0.639986515045166,0.2328468412160873,0.08024292439222336,0.08561865985393524,0.02673329971730709,XTrueNorthZVertical,-0.030000553843759,0.7074683412619763,0.7056678374276556,-0.0249290196406495,0.007067867554724216,-0.9999710917472839,0.002822974231094122,-11.52801513671875,-40.14406204223633,10.72397518157959,1,192.168.1.118,10.97.20.126,1,0
2015-02-21 18:55:35.391,74,1424570129.013581,39.63827755088256,-106.370176759083,2518.466,-1,-1,10,65,-9999,1424570135.354729,-11.03152084350586,-42.71871948242188,13.06645965576172,144.642822265625,135.5167694091797,25,22002.92439054167,-0.014862060546875,-0.875091552734375,0.0738372802734375,22002.9091535,0.006523679406258102,-0.6692076408305992,-0.06262636356208535,22002.857379125,1.268511141338146,1.950793645085005,1.563190737576908,0.01698725856840611,-0.639986515045166,0.2328468412160873,0.08024292439222336,0.08561865985393524,0.02673329971730709,XTrueNorthZVertical,-0.030000553843759,0.7074683412619763,0.7056678374276556,-0.0249290196406495,0.007067867554724216,-0.9999710917472839,0.002822974231094122,-11.52801513671875,-40.14406204223633,10.72397518157959,1,192.168.1.118,10.97.20.126,1,0
2015-02-21 18:55:35.444,75,1424570129.013581,39.63827755088256,-106.370176759083,2518.466,-1,-1,10,65,-9999,1424570135.407631,-11.33845901489258,-42.44685363769531,13.46585845947266,145.3800659179688,136.2540130615234,25,22002.9736095,0.001434326171875,-0.892120361328125,0.1000823974609375,22002.96092954167,-0.0754129989038828,-0.5276739446983381,-0.07950787539598864,22002.96092954167,1.571623226214098,1.585928069390042,1.564398895542441,-0.08957593142986298,-0.5136128664016724,-0.04292844235897064,-0.01770965382456779,0.1224160566926003,0.08455886691808701,XTrueNorthZVertical,-0.007901712548903156,0.7070968887592436,0.7070645023724357,-0.003373758969572345,0.006402892060577869,-0.999979555606842,9.689430589787662e-05,-11.18288230895996,-40.03305435180664,11.47790813446045,1,192.168.1.118,10.97.20.126,1,0
2015-02-21 18:55:35.493,76,1424570129.013581,39.63827755088256,-106.370176759083,2518.466,-1,-1,10,65,-9999,1424570135.458015,-11.28729629516602,-42.59977722167969,13.84862518310547,146.8179016113281,137.6918334960938,25,22003.022487375,-0.000946044921875,-0.987518310546875,0.061065673828125,22003.01270525,-0.09223991593543945,-0.7775455666072406,0.02346378078414313,22002.96092954167,1.571623226214098,1.585928069390042,1.564398895542441,-0.08957593142986298,-0.5136128664016724,-0.04292844235897064,-0.01770965382456779,0.1224160566926003,0.08455886691808701,XTrueNorthZVertical,-0.007901712548903156,0.7070968887592436,0.7070645023724357,-0.003373758969572345,0.006402892060577869,-0.999979555606842,9.689430589787662e-05,-11.18288230895996,-40.03305435180664,11.47790813446045,1,192.168.1.118,10.97.20.126,1,0
2015-02-21 18:55:35.542,77,1424570129.013581,39.63827755088256,-106.370176759083,2518.466,-1,-1,10,65,-9999,1424570135.510054,-10.77573776245117,-42.32791137695312,13.78205871582031,148.2869262695312,139.1608581542969,25,22003.07164570834,-0.06976318359375,-1.081710815429688,0.0600128173828125,22003.064479875,0.03843793664533166,-1.075285112265336,-0.1502893708481146,22003.01270525,2.418192812206985,0.7082597477167023,1.562366857601328,-0.1064026951789856,-0.7634846568107605,0.06004280969500542,0.003821386490017176,0.03223681077361107,0.08009032905101776,XTrueNorthZVertical,0.003398054365080026,0.7048302168490977,0.7093302447309108,0.007311803604069045,0.005486474838107824,-0.9999644756317139,-0.006405637133866549,-10.95004653930664,-40.07913589477539,11.54140758514404,1,192.168.1.118,10.97.20.126,1,0
2015-02-21 18:55:35.595,78,1424570129.013581,39.63827755088256,-106.370176759083,2518.466,-1,-1,10,65,-9999,1424570135.561964,-9.684421539306641,-42.42988586425781,14.38115692138672,151.7142028808594,142.588134765625,25,22003.12057683333,0.1457672119140625,-1.382064819335938,-0.10894775390625,22003.11625558334,0.1635311404202066,-0.862856736334621,-0.3210097146309902,22003.064479875,2.567575419609472,0.5107259650096475,1.560868230876856,0.02438771724700928,-1.061222434043884,-0.1136251091957092,-0.07049813866615295,-0.03728072717785835,0.03301753103733063,XTrueNorthZVertical,0.02056176171608701,0.7037364290438941,0.7097515687529695,0.02418683450454516,0.004854827653616667,-0.9999507069587708,-0.008664504624903202,-10.36584758758545,-40.14215469360352,11.85753726959229,1,192.168.1.118,10.97.20.126,1,0
2015-02-21 18:55:35.640,79,1424570135.596722,39.63835059937986,-106.3702941257583,2518.112,-1,-1,10,65,-9999,1424570135.614255,-8.763622283935547,-42.59980773925781,15.31309509277344,155.364990234375,146.2389221191406,25,22003.16963275,0.2400970458984375,-1.080673217773438,0.0641021728515625,22003.168031625,0.377201348367226,-0.6596412998789256,-0.3375327649821688,22003.168031625,1.113946252932102,1.876605750877541,1.53742719360044,0.3631514012813568,-0.6455788612365723,-0.3008691966533661,0.1665480881929398,-0.152076467871666,0.004817278124392033,XTrueNorthZVertical,0.04239331567963738,0.7093836747361111,0.700602568983426,0.06429377152084341,0.03181617334485054,-0.9994432926177979,0.01004478242248297,-8.484333992004395,-40.21297454833984,13.0528736114502,1,192.168.1.118,10.97.20.126,1,0
2015-02-21 18:55:35.693,80,1424570135.596722,39.63835059937986,-106.3702941257583,2518.112,-1,-1,10,65,-9999,1424570135.665862,-7.859867095947266,-42.75273132324219,15.89554595947266,157.4896545410156,148.3636016845703,25,22003.21865708334,0.5518341064453125,-0.7436981201171875,-0.0352935791015625,22003.168031625,0.377201348367226,-0.6596412998789256,-0.3375327649821688,22003.168031625,1.113946252932102,1.876605750877541,1.53742719360044,0.3631514012813568,-0.6455788612365723,-0.3008691966533661,0.1665480881929398,-0.152076467871666,0.004817278124392033,XTrueNorthZVertical,0.04239331567963738,0.7093836747361111,0.700602568983426,0.06429377152084341,0.03181617334485054,-0.9994432926177979,0.01004478242248297,-8.484333992004395,-40.21297454833984,13.0528736114502,1,192.168.1.118,10.97.20.126,1,0
2015-02-21 18:55:35.738,81,1424570135.596722,39.63835059937986,-106.3702941257583,2518.112,-1,-1,10,65,-9999,1424570135.717087,-6.802654266357422,-42.68476867675781,16.62776947021484,159.8374938964844,150.71142578125,25,22003.267830875,0.3410186767578125,-0.775360107421875,0.0731353759765625,22003.27158204167,0.3721045906730324,-1.617712969402713,-0.2081409528917969,22003.219806,0.9124199652924397,2.051842775823426,1.526793774705101,0.2411771714687347,-0.748121976852417,0.04932995140552521,0.5128371119499207,0.2553339302539825,-0.05564773082733154,XTrueNorthZVertical,0.04949955935226836,0.7125495561777722,0.6957677427668895,0.07569816152873869,0.03899699077010155,-0.9990320205688477,0.02035415358841419,-7.421016216278076,-40.07466888427734,14.08524990081787,1,192.168.1.118,10.97.20.126,1,0
2015-02-21 18:55:35.792,82,1424570135.596722,39.63835059937986,-106.3702941257583,2518.112,-1,-1,10,65,-9999,1424570135.768714,-5.097465515136719,-42.44686889648438,17.59298706054688,164.5819396972656,155.4558715820312,25,22003.316759375,0.366058349609375,-1.029891967773438,0.0287628173828125,22003.27158204167,0.3721045906730324,-1.617712969402713,-0.2081409528917969,22003.27158204167,0.648975027007277,2.249589319464862,1.516094044672323,0.3580549359321594,-1.60365092754364,-0.1714781671762466,0.298462837934494,0.2231440991163254,0.0388069786131382,XTrueNorthZVertical,0.07221181124889736,0.7155065705329806,0.6877537984920591,0.09914915238670996,0.04255584627389908,-0.9985042214393616,0.0343283973634243,-6.822833061218262,-39.88304901123047,14.90757942199707,1,192.168.1.118,10.97.20.126,1,0
2015-02-21 18:55:35.837,83,1424570135.596722,39.63835059937986,-106.3702941257583,2518.112,-1,-1,10,65,-9999,1424570135.820806,-3.375225067138672,-42.05606079101562,18.80782318115234,169.7918090820312,160.6657409667969,25,22003.36592691667,0.1705474853515625,-0.92791748046875,0.082489013671875,22003.32335775,0.5507299955195901,-2.114791986866003,-0.2913231916437679,22003.32335775,0.5178573132363106,2.28969573729591,1.49284409031304,0.5366804599761963,-2.100729942321777,-0.2546607255935669,0.3074558675289154,-0.0329287052154541,-0.02252154052257538,XTrueNorthZVertical,0.1000337400061337,0.718077593386248,0.6753974303993426,0.1348931861360586,0.05860248580574989,-0.9969632625579834,0.05128435790538788,-5.372422218322754,-39.67161560058594,16.02325057983398,1,192.168.1.118,10.97.20.126,1,0
2015-02-21 18:55:35.892,84,1424570135.596722,39.63835059937986,-106.3702941257583,2518.112,-1,-1,10,65,-9999,1424570135.872532,-0.6469345092773438,-41.75016784667969,19.90618133544922,176.9891357421875,167.8630676269531,25,22003.41486091667,0.15631103515625,-0.9155731201171875,-0.02484130859375,22003.37513220833,0.5731375666154078,-2.363480099986475,-0.2863084593111487,22003.37513220833,0.3696367791373955,2.322452435980187,1.464391702891573,0.5590881705284119,-2.349418163299561,-0.2496463656425476,0.09295893460512161,0.06642688810825348,0.009967413730919361,XTrueNorthZVertical,0.1363087854211324,0.7195003231960113,0.6571943098128987,0.1784233140774268,0.07758855074644089,-0.9943443536758423,0.07252159714698792,-2.611623764038086,-39.18083572387695,17.81815147399902,1,192.168.1.118,10.97.20.126,1,0
2015-02-21 18:55:35.937,85,1424570135.596722,39.63835059937986,-106.3702941257583,2518.112,-1,-1,10,65,-9999,1424570135.923866,2.320075988769531,-41.58024597167969,21.27079010009766,185.320556640625,176.1944885253906,25,22003.46391545833,-0.032501220703125,-0.9731292724609375,-0.0789947509765625,22003.426908125,0.5668652896160532,-2.534321617598949,-0.2061451799708915,22003.426908125,0.2719831726748998,2.299077583895264,1.438025690375294,0.5528160333633423,-2.520259857177734,-0.169483482837677,0.03134352341294289,0.05638446658849716,-0.1378244757652283,XTrueNorthZVertical,0.1737435853783786,0.7168464530132382,0.6372250383097514,0.2233576052260464,0.09879868477582932,-0.9911988973617554,0.08811134099960327,-0.2172346115112305,-38.75135040283203,18.91376495361328,1,192.168.1.118,10.97.20.126,1,0
2015-02-21 18:55:35.997,86,1424570135.596722,39.63835059937986,-106.3702941257583,2518.112,-1,-1,10,65,-9999,1424570135.976237,4.204803466796875,-44.52947998046875,20.00254821777344,183.4111328125,174.2850799560547,25,22003.51294616667,0.0216217041015625,-0.9673919677734375,-0.153839111328125,22003.478684125,0.5237588315798126,-2.317731786148876,-0.239669850721136,22003.478684125,0.1653824639882499,2.28002577434714,1.41366759318652,0.5097097158432007,-2.303670406341553,-0.2030085176229477,-0.1642664521932602,0.002634271513670683,-0.1932181864976883,XTrueNorthZVertical,0.2131935920747209,0.7109875435351575,0.6143081263357463,0.2677139725022913,0.1187494844198227,-0.9876806735992432,0.1019095927476883,1.432217121124268,-38.43486404418945,19.4975528717041,1,192.168.1.118,10.97.20.126,1,0
2015-02-21 18:55:36.034,87,1424570135.596722,39.63835059937986,-106.3702941257583,2518.112,-1,-1,10,65,-9999,1424570136.028708,7.171825408935547,-44.01976013183594,20.668212890625,191.606689453125,182.4806213378906,25,22003.56201491667,0.0371551513671875,-0.9329376220703125,-0.1406402587890625,22003.53045854167,0.499942980899561,-1.630533959522573,-0.1554484465118161,22003.53045854167,0.08705084743760715,2.262226387957561,1.391222195724371,0.4858940243721008,-1.616472482681274,-0.1187874525785446,-0.09895490109920502,0.03863786533474922,-0.2821174561977386,XTrueNorthZVertical,0.2422979676096814,0.7058585889248232,0.5935692684151698,0.3012157214444967,0.137590155005455,-0.9839198589324951,0.1138893067836761,5.321364402770996,-37.60058212280273,20.42851066589355,1,192.168.1.118,10.97.20.126,1,0
2015-02-21 18:55:36.093,88,1424570135.596722,39.63835059937986,-106.3702941257583,2518.112,-1,-1,10,65,-9999,1424570136.079971,9.013431549072266,-43.37411499023438,21.23401641845703,197.0307922363281,187.9047241210938,25,22003.61103745833,-0.0860748291015625,-1.136199951171875,0.231414794921875,22003.58223454167,0.4325668695333194,-1.062196474455924,-0.1965857632380521,22003.58223454167,0.01942064188989489,2.261614180706193,1.372157113287693,0.4185180366039276,-1.048135280609131,-0.1599251627922058,-0.1406475007534027,0.02664644084870815,-0.2195469886064529,XTrueNorthZVertical,0.2630196108926573,0.7026298166261011,0.5763431845732856,0.3239762315182146,0.1520915925502777,-0.9803360104560852,0.1257359534502029,6.946402549743652,-37.13629913330078,20.78671264648438,1,192.168.1.118,10.97.20.126,1,0
2015-02-21 18:55:36.135,89,1424570135.596722,39.63835059937986,-106.3702941257583,2518.112,-1,-1,10,65,-9999,1424570136.079971,9.013431549072266,-43.37411499023438,21.23401641845703,197.0307922363281,187.9047241210938,25,22003.6601975,0.3314056396484375,-1.05712890625,0.0364837646484375,22003.63401033334,0.2867127271646227,0.6640653430817652,-0.4710897610174246,22003.63401033334,0.006002998628998493,2.268565448961525,1.350405837419567,0.2726640701293945,0.6781264543533325,-0.4344295263290405,-0.1910761743783951,-0.4004237949848175,0.06954707205295563,XTrueNorthZVertical,0.2621382681767698,0.7081760730578714,0.5674328898330517,0.3283140773105853,0.1675166040658951,-0.9758121371269226,0.1404596418142319,8.078420639038086,-36.70130920410156,21.14704513549805,1,192.168.1.118,10.97.20.126,1,0
2015-02-21 18:55:36.195,90,1424570135.596722,39.63835059937986,-106.3702941257583,2518.112,-1,-1,10,65,-9999,1424570136.135559,9.524986267089844,-42.52456665039062,22.16595458984375,198.301025390625,189.1749725341797,25,22003.70912004167,0.572296142578125,-0.984405517578125,0.299835205078125,22003.68578479167,0.2250624121420514,0.92012934715732,-0.3049708269659879,22003.68578479167,-0.01161531397580542,2.326894143464712,1.327138801513639,0.2110138684511185,0.9341903328895569,-0.268310934305191,0.2482503354549408,0.1229278966784477,-0.01119396649301052,XTrueNorthZVertical,0.2482150738369469,0.7219071661672498,0.5637113539648296,0.3153868575045601,0.1755167543888092,-0.9704620838165283,0.1655213534832001,8.019193649291992,-36.08816528320312,22.19868469238281,1,192.168.1.118,10.97.20.126,1,0
2015-02-21 18:55:36.229,91,1424570135.596722,39.63835059937986,-106.3702941257583,2518.112,-1,-1,10,65,-9999,1424570136.21136,9.951278686523438,-41.92987060546875,23.08123016357422,197.9196472167969,188.7935791015625,25,22003.75818529167,0.484771728515625,-1.209243774414062,0.139556884765625,22003.73756075,-0.2594123965141114,-0.1313095543913379,0.2496452532162458,22003.73756075,0.02187632064563073,2.319473341796425,1.331054389868839,-0.2734608054161072,-0.1172487065196037,0.286304771900177,0.4648236036300659,-0.1129970774054527,0.05883239582180977,XTrueNorthZVertical,0.2388290711709752,0.723722301149427,0.5694409917326407,0.3080969042949105,0.1739550679922104,-0.9713993072509766,0.1616265922784805,7.540585517883301,-35.97725296020508,22.54377174377441,1,192.168.1.118,10.97.20.126,1,0
2015-02-21 18:55:36.296,92,1424570135.596722,39.63835059937986,-106.3702941257583,2518.112,-1,-1,10,65,-9999,1424570136.21136,9.951278686523438,-41.92987060546875,23.08123016357422,197.9196472167969,188.7935791015625,25,22003.80723095833,0.3152008056640625,-1.015914916992188,0.095062255859375,22003.78933658333,0.06125510191680355,-0.9299556126313854,0.4673914292116315,22003.78933658333,-0.04417748062899435,2.355350023766574,1.352308233090009,0.04720684885978699,-0.9158949255943298,0.5040505528450012,0.190489649772644,-0.1652989983558655,-0.05026406794786453,XTrueNorthZVertical,0.2555814702986863,0.7150157510087309,0.5713202476158528,0.3114864402064969,0.1533976793289185,-0.976226270198822,0.1531388312578201,7.299367427825928,-36.20923233032227,22.24984359741211,1,192.168.1.118,10.97.20.126,1,0
2015-02-21 18:55:36.328,93,1424570135.596722,39.63835059937986,-106.3702941257583,2518.112,-1,-1,10,65,-9999,1424570136.287841,9.848972320556641,-42.30366516113281,22.41556549072266,198.6039733886719,189.4779052734375,25,22003.85640475,0.1273651123046875,-0.8145294189453125,0.146514892578125,22003.84111133333,0.05890566120313565,-1.374146647690683,0.1997171080477673,22003.84111133333,-0.1163771941036812,2.364464963213483,1.361547924549421,0.04485755041241646,-1.36008608341217,0.2363758683204651,0.07651929557323456,0.09877752512693405,-0.02094200998544693,XTrueNorthZVertical,0.2798718520262841,0.7040727919116296,0.5643685299137425,0.3277826299472179,0.1456639319658279,-0.9781873226165771,0.14809350669384,7.494004249572754,-36.42917251586914,21.82200622558594,1,192.168.1.118,10.97.20.126,1,0
2015-02-21 18:55:36.396,94,1424570135.596722,39.63835059937986,-106.3702941257583,2518.112,-1,-1,10,65,-9999,1424570136.339485,10.27527236938477,-42.6944580078125,21.89968872070312,201.0982666015625,191.9722137451172,25,22003.90533533333,0.04766845703125,-0.7766876220703125,0.2159881591796875,22003.892887,-0.1564087824008987,-1.131527346062284,-0.01029711235479137,22003.84111133333,-0.1163771941036812,2.364464963213483,1.361547924549421,0.04485755041241646,-1.36008608341217,0.2363758683204651,0.07651929557323456,0.09877752512693405,-0.02094200998544693,XTrueNorthZVertical,0.2798718520262841,0.7040727919116296,0.5643685299137425,0.3277826299472179,0.1456639319658279,-0.9781873226165771,0.14809350669384,7.494004249572754,-36.42917251586914,21.82200622558594,1,192.168.1.118,10.97.20.126,1,0
2015-02-21 18:55:36.425,95,1424570135.596722,39.63835059937986,-106.3702941257583,2518.112,-1,-1,10,65,-9999,1424570136.391322,11.57121276855469,-42.66050720214844,21.23402404785156,211.0960998535156,201.9700469970703,25,22003.9545125,0.0965423583984375,-0.857421875,0.2347412109375,22003.94466291667,-0.3946549072032783,-0.7134027991204642,0.1960829584242451,22003.94466291667,-0.07496996392631546,2.218198786566961,1.379963067091902,-0.4087027311325073,-0.6993425488471985,0.2327409833669662,-0.0702725425362587,0.1280409842729568,0.1262335777282715,XTrueNorthZVertical,0.3092289545340385,0.6793940075784246,0.5566014881940359,0.3646862478946396,0.1512967050075531,-0.9818465113639832,0.1143975257873535,9.192295074462891,-36.58494186401367,20.89230346679688,1,192.168.1.118,10.97.20.126,1,0
2015-02-21 18:55:36.491,96,1424570135.596722,39.63835059937986,-106.3702941257583,2518.112,-1,-1,10,65,-9999,1424570136.444152,12.59432983398438,-43.47610473632812,20.43523406982422,213.9041137695312,204.7780609130859,25,22004.00344558333,0.2203521728515625,-1.008956909179688,0.1396026611328125,22003.9964375,-0.3534073356079131,-1.212290102963918,0.3835220948984201,22003.94466291667,-0.07496996392631546,2.218198786566961,1.379963067091902,-0.4087027311325073,-0.6993425488471985,0.2327409833669662,-0.0702725425362587,0.1280409842729568,0.1262335777282715,XTrueNorthZVertical,0.3092289545340385,0.6793940075784246,0.5566014881940359,0.3646862478946396,0.1512967050075531,-0.9818465113639832,0.1143975257873535,9.192295074462891,-36.58494186401367,20.89230346679688,1,192.168.1.118,10.97.20.126,1,0
2015-02-21 18:55:36.523,97,1424570135.596722,39.63835059937986,-106.3702941257583,2518.112,-1,-1,10,65,-9999,1424570136.494449,13.5662841796875,-44.24069213867188,19.25368499755859,217.0614624023438,207.9354095458984,25,22004.05253704167,0.0731201171875,-1.114425659179688,0.064971923828125,22004.04821354167,0.1337607278586468,-2.372160407243479,0.1256972087101049,22003.9964375,-0.04334971369667606,2.143781245563027,1.406945203139489,-0.367455005645752,-1.198229908943176,0.4201797544956207,0.06956765055656433,0.02144222520291805,0.0881408229470253,XTrueNorthZVertical,0.3239451318510612,0.6627793701189003,0.559979102601777,0.3771027746690202,0.1370668709278107,-0.9866064190864563,0.0884338840842247,9.759991645812988,-37.30197906494141,19.30672264099121,1,192.168.1.118,10.97.20.126,1,0
2015-02-21 18:55:36.596,98,1424570135.596722,39.63835059937986,-106.3702941257583,2518.112,-1,-1,10,65,-9999,1424570136.547287,14.5552864074707,-44.64848327636719,17.75594329833984,221.1095275878906,211.9834594726562,25,22004.10157541667,0.141265869140625,-1.025360107421875,0.169891357421875,22004.09998925,0.06147960639669723,-1.640622280047902,-0.277951193494371,22004.04821354167,-0.06584634644648393,2.071962331377427,1.424384880988814,0.1196777299046516,-2.358035326004028,0.1623826324939728,-0.01991596072912216,-0.117907278239727,-0.03463082388043404,XTrueNorthZVertical,0.3543309598872456,0.6399185071545928,0.5492386290212272,0.4040926173246381,0.1279481947422028,-0.9893009662628174,0.07009225338697433,10.30743789672852,-37.72021102905273,18.17654991149902,1,192.168.1.118,10.97.20.126,1,0
2015-02-21 18:55:36.621,99,1424570135.596722,39.63835059937986,-106.3702941257583,2518.112,-1,-1,10,65,-9999,1424570136.59964,16.56740570068359,-44.41062927246094,15.85881042480469,228.0445251464844,218.91845703125,25,22004.15076454167,0.302093505859375,-1.3804931640625,-0.1239166259765625,22004.15176379167,0.3775515540505714,-1.13437373263536,-0.5126995225210406,22004.09998925,-0.09692604131336009,1.997140154449931,1.41761099517044,0.04739676043391228,-1.626497387886047,-0.241266131401062,-0.04383541271090508,-0.03337742760777473,0.1311885267496109,XTrueNorthZVertical,0.3829839607138504,0.6203822217902888,0.5266761851690114,0.4371057316225294,0.1389281898736954,-0.9882900714874268,0.063101626932621,11.31729698181152,-37.73480224609375,17.5341968536377,1,192.168.1.118,10.97.20.126,1,0
2015-02-21 18:55:36.661,100,1424570135.596722,39.63835059937986,-106.3702941257583,2518.112,-1,-1,10,65,-9999,1424570136.650112,18.95466613769531,-43.73098754882812,15.1265869140625,234.0885009765625,224.9624481201172,25,22004.19970045834,0.4145355224609375,-0.938232421875,-0.2502288818359375,22004.15176379167,0.3775515540505714,-1.13437373263536,-0.5126995225210406,22004.15176379167,-0.09735211176780885,1.932419016876664,1.395838132324092,0.3634688556194305,-1.120248913764954,-0.4760148823261261,0.1392842680215836,-0.3957593441009521,-0.185500293970108,XTrueNorthZVertical,0.3955210870644026,0.61184548849281,0.5068940634266672,0.4607240131360223,0.1628092378377914,-0.9847338199615479,0.06158366426825523,14.17236328125,-37.34861755371094,16.2379093170166,1,192.168.1.118,10.97.20.126,1,0
2015-02-21 18:55:36.720,101,1424570135.596722,39.63835059937986,-106.3702941257583,2518.112,-1,-1,10,65,-9999,1424570136.703023,20.69395065307617,-42.81343078613281,14.79375457763672,240.4825744628906,231.3565216064453,25,22004.2487695,0.3537750244140625,-0.5908203125,-0.060882568359375,22004.25531583334,0.05745130893184337,-1.81306009641777,-0.5647147870358142,22004.20353975,-0.249816256491349,2.027156861139238,1.370522050554028,0.7668319344520569,-1.36528205871582,-0.05833171308040619,0.235956072807312,0.04177962988615036,-0.3378978371620178,XTrueNorthZVertical,0.4139418759605583,0.6103168025857316,0.4819447177415687,0.4731752875708478,0.1785794496536255,-0.980012059211731,0.08766895532608032,15.58349895477295,-36.68961715698242,16.44600677490234,1,192.168.1.118,10.97.20.126,1,0
2015-02-21 18:55:36.763,102,1424570135.596722,39.63835059937986,-106.3702941257583,2518.112,-1,-1,10,65,-9999,1424570136.753217,22.45028877258301,-42.21873474121094,13.97832489013672,245.631591796875,236.5055389404297,25,22004.297807625,0.1107635498046875,-1.16241455078125,-0.0220489501953125,22004.25531583334,0.05745130893184337,-1.81306009641777,-0.5647147870358142,22004.25531583334,-0.2932827755969065,1.98510308163998,1.348993247345922,0.04336888343095779,-1.798935532569885,-0.5280308127403259,0.1523979753255844,0.3846820592880249,-0.1494403630495071,XTrueNorthZVertical,0.4332293302336006,0.5971526172471617,0.4549885690334485,0.4987048637301206,0.2013770490884781,-0.9755023717880249,0.08855780214071274,16.34224319458008,-36.26622009277344,16.64743232727051,1,192.168.1.118,10.97.20.126,1,0
2015-02-21 18:55:36.818,103,1424570135.596722,39.63835059937986,-106.3702941257583,2518.112,-1,-1,10,65,-9999,1424570136.80572,24.05316543579102,-42.01486206054688,12.81341552734375,249.1123657226562,239.9862976074219,25,22004.34689570834,0.2981414794921875,-0.930694580078125,-0.1509246826171875,22004.30709020833,-0.2034900083640825,-0.3116865202868407,-0.4957293274228377,22004.30709020833,-0.2189716194914426,1.859448626411737,1.328609787209221,-0.2175722867250443,-0.2975621819496155,-0.4590457379817963,-0.1191405579447746,-0.1915986388921738,-0.0903179794549942,XTrueNorthZVertical,0.4354503986468958,0.5869561008870502,0.4396968094975752,0.522046206371003,0.2299041152000427,-0.970815896987915,0.0682690292596817,19.35200500488281,-35.5936393737793,14.76608848571777,1,192.168.1.118,10.97.20.126,1,0
2015-02-21 18:55:36.881,104,1424570135.596722,39.63835059937986,-106.3702941257583,2518.112,-1,-1,10,65,-9999,1424570136.856546,24.02563285827637,-44.70252990722656,15.65568542480469,240.8551025390625,231.7290344238281,25,22004.3959395,0.45208740234375,-0.798736572265625,-0.2044677734375,22004.35886608333,0.1016975999146379,0.2107945266019519,-0.2868424231097095,22004.35886608333,-0.195966487328642,1.846944837510529,1.311579215146581,0.0876154750585556,0.2249187082052231,-0.2501592636108398,0.1317900717258453,0.08132178336381912,-0.2384358793497086,XTrueNorthZVertical,0.4278184519081268,0.5932242587084836,0.43733556195838,0.523253282122744,0.2466126382350922,-0.966590940952301,0.06988729536533356,20.07529830932617,-35.30350494384766,14.49446296691895,1,192.168.1.118,10.97.20.126,1,0
2015-02-21 18:55:36.920,105,1424570135.596722,39.63835059937986,-106.3702941257583,2518.112,-1,-1,10,65,-9999,1424570136.856546,24.02563285827637,-44.70252990722656,15.65568542480469,240.8551025390625,231.7290344238281,25,22004.44503216667,0.1544189453125,-0.8422088623046875,-0.1728668212890625,22004.410642,0.1686723729046046,-1.060611094659,0.08151616517401739,22004.410642,-0.2198918397626586,1.844014855031964,1.309204027850331,0.1545903831720352,-1.046487092971802,0.1181989759206772,0.1536989063024521,0.1693790555000305,-0.2693839371204376,XTrueNorthZVertical,0.4350129500521257,0.5879248201237337,0.4296135598944495,0.5296606160960173,0.2490263134241104,-0.9659793972969055,0.06978372484445572,26.5677318572998,-38.62353897094727,14.61413097381592,1,192.168.1.118,10.97.20.126,1,0
2015-02-21 18:55:36.963,106,1424570135.596722,39.63835059937986,-106.3702941257583,2518.112,-1,-1,10,65,-9999,1424570136.913306,24.57124710083008,-44.36271667480469,15.28955841064453,240.6926879882812,231.5666198730469,25,22004.49407308333,0.229461669921875,-0.8624420166015625,-0.173370361328125,22004.46241658333,0.1395645548222565,-0.1220643906671278,0.05787501786127498,22004.46241658333,-0.2525168079051088,1.83975185902466,1.31432492292531,0.1254826933145523,-0.1079404726624489,0.0945575013756752,-0.118389792740345,0.1246549859642982,-0.2398914992809296,XTrueNorthZVertical,0.4465046405054013,0.5782185379981137,0.4216887607983942,0.5370992061600477,0.2445494532585144,-0.9672911167144775,0.06740614026784897,27.13353157043457,-38.65282821655273,13.45084857940674,1,192.168.1.118,10.97.20.126,1,0
2015-02-21 18:55:37.018,107,1424570135.596722,39.63835059937986,-106.3702941257583,2518.112,-1,-1,10,65,-9999,1424570136.986016,24.8781566619873,-44.36270141601562,15.05654907226562,242.1876220703125,233.0615539550781,25,22004.54315325,0.2179107666015625,-0.7677764892578125,-0.2568511962890625,22004.51419245833,0.1127073741771344,0.8503497329072818,0.0370443044468932,22004.51419245833,-0.2742528874960287,1.889981606554059,1.315363393460027,0.09862566739320755,0.8644734621047974,0.07372638583183289,0.03324482589960098,0.1167239248752594,-0.2889248728752136,XTrueNorthZVertical,0.442380462241633,0.5864654402921498,0.4274208930519448,0.5269432930320533,0.2399027496576309,-0.967553973197937,0.07928436994552612,26.89638900756836,-38.67005920410156,13.8710355758667,1,192.168.1.118,10.97.20.126,1,0
2015-02-21 18:55:37.061,108,1424570135.596722,39.63835059937986,-106.3702941257583,2518.112,-1,-1,10,65,-9999,1424570137.038296,24.45189666748047,-44.51559448242188,15.97189331054688,240.9236145019531,231.7975616455078,25,22004.59219495834,-0.0154571533203125,-0.77874755859375,-0.00018310546875,22004.56596854167,0.2551087281925434,0.6559837144378108,-0.01090271518667539,22004.56596854167,-0.3111809460153854,1.963316169571047,1.316211831676033,0.2410271465778351,0.6701073050498962,0.02577900141477585,-0.1180205196142197,0.2356818467378616,-0.3072873950004578,XTrueNorthZVertical,0.4376696898441406,0.5971704578426158,0.4342478670493189,0.5130901643511245,0.2326903194189072,-0.9677680134773254,0.09633462876081467,26.45930862426758,-38.68209457397461,14.65590286254883,1,192.168.1.118,10.97.20.126,1,0
2015-02-21 18:55:37.112,109,1424570135.596722,39.63835059937986,-106.3702941257583,2518.112,-1,-1,10,65,-9999,1424570137.091461,24.00858497619629,-44.345703125,17.20342254638672,239.3846130371094,230.258544921875,25,22004.641362125,0.1162261962890625,-1.46826171875,0.2617950439453125,22004.61774295833,-0.1608916814638291,1.364456203432211,-0.3778791228646512,22004.61774295833,-0.3118605086425134,2.011394956963523,1.306812687070434,-0.1749731153249741,1.378579616546631,-0.3411977291107178,-0.2483837306499481,-0.0471997857093811,0.1254133284091949,XTrueNorthZVertical,0.4257175998234843,0.6118864537521711,0.4411273803441917,0.4997661124413775,0.2360088527202606,-0.9653581976890564,0.1112810149788857,25.59059143066406,-38.46132659912109,16.64460563659668,1,192.168.1.118,10.97.20.126,1,0
2015-02-21 18:55:37.161,110,1424570135.596722,39.63835059937986,-106.3702941257583,2518.112,-1,-1,10,65,-9999,1424570137.14155,23.30951309204102,-44.22677612304688,18.85102844238281,235.7262878417969,226.6002197265625,25,22004.69028358334,0.28570556640625,-0.917816162109375,0.1582489013671875,22004.66951904167,0.007038734761079427,2.052048177899846,-0.0346916679399172,22004.66951904167,-0.2687823145538701,2.057927446777504,1.297709196257462,-0.007042562589049339,2.066171646118164,0.001989350188523531,-0.005285808816552162,-0.2085811793804169,0.09117527306079865,XTrueNorthZVertical,0.4002847199259156,0.6347406955068383,0.4579970050417589,0.4765660245475735,0.2383332997560501,-0.962942898273468,0.1262472122907639,25.03430938720703,-38.18599319458008,18.06400871276855,1,192.168.1.118,10.97.20.126,1,0
2015-02-21 18:55:37.210,111,1424570135.596722,39.63835059937986,-106.3702941257583,2518.112,-1,-1,10,65,-9999,1424570137.19312,21.91136932373047,-43.7850341796875,20.54854583740234,231.5047302246094,222.378662109375,25,22004.73933666667,0.3520965576171875,-0.8870086669921875,0.0680999755859375,22004.72129479167,0.03141917559242783,0.8717551564849028,-0.12603676174909,22004.72129479167,-0.2593329659925782,2.128908509064734,1.298495567823314,0.01733803376555443,0.885878324508667,-0.08935614675283432,0.1466950327157974,0.05426489189267159,-0.08080095052719116,XTrueNorthZVertical,0.3808240488984749,0.6528312518428566,0.4743369788120789,0.4514298072217461,0.2281371206045151,-0.963154673576355,0.1424311995506287,23.94904327392578,-38.16936111450195,19.51251029968262,1,192.168.1.118,10.97.20.126,1,0
2015-02-21 18:55:37.251,112,1424570135.596722,39.63835059937986,-106.3702941257583,2518.112,-1,-1,10,65,-9999,1424570137.19312,21.91136932373047,-43.7850341796875,20.54854583740234,231.5047302246094,222.378662109375,25,22004.78837054167,0.232879638671875,-0.7880706787109375,0.066741943359375,22004.7730695,0.2657605736045333,0.1078002335525544,-0.1438676905116066,22004.72129479167,-0.2593329659925782,2.128908509064734,1.298495567823314,0.01733803376555443,0.885878324508667,-0.08935614675283432,0.1466950327157974,0.05426489189267159,-0.08080095052719116,XTrueNorthZVertical,0.3808240488984749,0.6528312518428566,0.4743369788120789,0.4514298072217461,0.2281371206045151,-0.963154673576355,0.1424311995506287,23.94904327392578,-38.16936111450195,19.51251029968262,1,192.168.1.118,10.97.20.126,1,0
2015-02-21 18:55:37.309,113,1424570135.596722,39.63835059937986,-106.3702941257583,2518.112,-1,-1,10,65,-9999,1424570137.297659,20.39388275146484,-43.05445861816406,22.29598999023438,227.4459228515625,218.3198699951172,25,22004.83744858333,0.156707763671875,-0.5124053955078125,0.0088958740234375,22004.82484533334,0.3775515540505714,0.2832743198812214,-0.3466580864573253,22004.82484533334,-0.3045015148747224,2.199978341740982,1.27303900252032,0.3634706735610962,0.297397255897522,-0.3099781572818756,-0.04389974102377892,0.339251846075058,-0.1433049738407135,XTrueNorthZVertical,0.3751980616969049,0.6674954874867193,0.4682799052945708,0.4408969935257361,0.2371980845928192,-0.9559968709945679,0.172647625207901,22.66180229187012,-37.61500549316406,21.9715518951416,1,192.168.1.118,10.97.20.126,1,0
2015-02-21 18:55:37.352,114,1424570135.596722,39.63835059937986,-106.3702941257583,2518.112,-1,-1,10,65,-9999,1424570137.349833,20.95655059814453,-42.56173706054688,23.31118011474609,228.0476379394531,218.9215698242188,25,22004.88659908334,0.0331573486328125,-0.311004638671875,0.0484771728515625,22004.87662133333,0.3405133748741854,0.2763138820561903,-0.736619971187666,22004.82484533334,-0.3045015148747224,2.199978341740982,1.27303900252032,0.3634706735610962,0.297397255897522,-0.3099781572818756,-0.04389974102377892,0.339251846075058,-0.1433049738407135,XTrueNorthZVertical,0.3751980616969049,0.6674954874867193,0.4682799052945708,0.4408969935257361,0.2371980845928192,-0.9559968709945679,0.172647625207901,22.66180229187012,-37.61500549316406,21.9715518951416,1,192.168.1.118,10.97.20.126,1,0
2015-02-21 18:55:37.406,115,1424570135.596722,39.63835059937986,-106.3702941257583,2518.112,-1,-1,10,65,-9999,1424570137.40057,21.67266845703125,-40.38697814941406,24.47615051269531,229.2540893554688,220.1280212402344,25,22004.93567116667,0.056884765625,-0.30419921875,-0.0435791015625,22004.92839579167,0.9186038884849226,0.9000552378086297,-1.11302716491783,22004.87662133333,-0.2984588933767296,2.208480065864937,1.241811968296024,0.3264326453208923,0.2904366552829742,-0.6999403834342957,-0.1782291829586029,0.5744837522506714,-0.1743218153715134,XTrueNorthZVertical,0.3667822604779383,0.6794424132233524,0.4594249922058401,0.4390415663323429,0.2595890462398529,-0.9463709592819214,0.1923424452543259,22.79270553588867,-37.16847991943359,22.5874195098877,1,192.168.1.118,10.97.20.126,1,0
2015-02-21 18:55:37.446,116,1424570135.596722,39.63835059937986,-106.3702941257583,2518.112,-1,-1,10,65,-9999,1424570137.40057,21.67266845703125,-40.38697814941406,24.47615051269531,229.2540893554688,220.1280212402344,25,22004.98470683333,0.1672210693359375,-0.5028533935546875,0.3399810791015625,22004.98017183333,0.5518466589646603,1.609746123001742,-1.27340059523353,22004.92839579167,-0.2792270761003258,2.218492479293449,1.18746904365463,0.9045233130455017,0.9141778349876404,-1.076348066329956,-0.2454826086759567,0.6307944655418396,-0.3347738981246948,XTrueNorthZVertical,0.3499987436930557,0.7002356921006965,0.4446791887400035,0.4352370778576268,0.298262745141983,-0.9274253249168396,0.2256582975387573,24.11843681335449,-35.23915481567383,24.24247932434082,1,192.168.1.118,10.97.20.126,1,0
2015-02-21 18:55:37.504,117,1424570135.596722,39.63835059937986,-106.3702941257583,2518.112,-1,-1,10,65,-9999,1424570137.452214,22.50813674926758,-37.9913330078125,26.55645751953125,230.686767578125,221.5606994628906,25,22005.03366166667,0.55426025390625,-0.8972320556640625,0.377532958984375,22005.03194766667,0.1042821977525598,2.565768223750605,-0.5517971241683849,22005.03194766667,-0.215955542753129,2.33411103211645,1.075650672587437,0.09029875695705414,2.579879522323608,-0.5150613784790039,0.1364407688379288,0.05835104733705521,0.06874436140060425,XTrueNorthZVertical,0.2851910700101919,0.7634853631156799,0.4319775557668983,0.3862014825543639,0.343326061964035,-0.8798995018005371,0.3284876942634583,24.49595260620117,-31.63906478881836,28.46248245239258,1,192.168.1.118,10.97.20.126,1,0
2015-02-21 18:55:37.544,118,1424570135.596722,39.63835059937986,-106.3702941257583,2518.112,-1,-1,10,65,-9999,1424570137.504133,21.94547080993652,-35.93551635742188,29.03617858886719,228.7423400878906,219.6162719726562,25,22005.08282604167,0.564178466796875,-0.9057464599609375,0.20635986328125,22005.03194766667,0.1042821977525598,2.565768223750605,-0.5517971241683849,22005.03194766667,-0.215955542753129,2.33411103211645,1.075650672587437,0.09029875695705414,2.579879522323608,-0.5150613784790039,0.1364407688379288,0.05835104733705521,0.06874436140060425,XTrueNorthZVertical,0.2851910700101919,0.7634853631156799,0.4319775557668983,0.3862014825543639,0.343326061964035,-0.8798995018005371,0.3284876942634583,24.49595260620117,-31.63906478881836,28.46248245239258,1,192.168.1.118,10.97.20.126,1,0
2015-02-21 18:55:37.602,119,1424570135.596722,39.63835059937986,-106.3702941257583,2518.112,-1,-1,10,65,-9999,1424570137.554666,20.24042510986328,-35.01800537109375,31.33283996582031,224.7919006347656,215.6658325195312,25,22005.13176004167,0.4194183349609375,-0.8567962646484375,0.364898681640625,22005.13549816667,0.2979568596030462,0.05772960926575665,-0.214830813550076,22005.08372220834,-0.2110580284912305,2.423163409040202,1.070031072394965,0.07726725935935974,0.7538937926292419,0.02645787969231606,0.2481771409511566,-0.0285310372710228,-0.1550766825675964,XTrueNorthZVertical,0.2630671300892118,0.781993579213395,0.442802324716508,0.3510097837386854,0.3160013258457184,-0.8772154450416565,0.3614365458488464,20.6258430480957,-30.47509765625,32.51212310791016,1,192.168.1.118,10.97.20.126,1,0
2015-02-21 18:55:37.642,120,1424570135.596722,39.63835059937986,-106.3702941257583,2518.112,-1,-1,10,65,-9999,1424570137.60895,18.79113388061523,-34.3214111328125,32.48116302490234,221.8861389160156,212.7600860595703,25,22005.18092879167,0.5618896484375,-1.049087524414062,0.3555145263671875,22005.13549816667,0.2979568596030462,0.05772960926575665,-0.214830813550076,22005.13549816667,-0.2184216489862446,2.434055542453583,1.057883638760034,0.2839736938476562,0.07184049487113953,-0.1780959069728851,0.1004697307944298,0.01452263444662094,-0.008029288612306118,XTrueNorthZVertical,0.2620485185143051,0.7859990833255691,0.4379514872225509,0.3489047860295872,0.3189485967159271,-0.8713188767433167,0.3729279637336731,20.01176643371582,-30.23613166809082,33.11344909667969,1,192.168.1.118,10.97.20.126,1,0
2015-02-21 18:55:37.700,121,1424570135.596722,39.63835059937986,-106.3702941257583,2518.112,-1,-1,10,65,-9999,1424570137.659733,18.05796432495117,-34.16848754882812,33.46307373046875,219.97900390625,210.8529510498047,25,22005.22985104167,0.4835662841796875,-1.039794921875,0.40032958984375,22005.18727425,-0.06194938801298721,0.6731184928913806,-0.1587742020811071,22005.18727425,-0.209772750563785,2.448531794378407,1.049878004769048,-0.07593241333961487,0.6872292160987854,-0.1220396086573601,0.2439263761043549,-0.1817250102758408,-0.02734541334211826,XTrueNorthZVertical,0.2544890711155243,0.7916219313941049,0.4380089390305132,0.3416405123327187,0.3179632723331451,-0.8673624992370605,0.3828599452972412,20.09885215759277,-29.86050605773926,33.40031814575195,1,192.168.1.118,10.97.20.126,1,0
2015-02-21 18:55:37.739,122,1424570135.596722,39.63835059937986,-106.3702941257583,2518.112,-1,-1,10,65,-9999,1424570137.712084,17.75105667114258,-34.13450622558594,33.86248397827148,218.9553527832031,209.8292846679688,25,22005.278881,0.407958984375,-1.198089599609375,0.3223876953125,22005.239048875,-0.5279184228864073,0.5651195875215063,-0.04756885075877734,22005.239048875,-0.1875155711381347,2.460048771683933,1.059954714684286,-0.5419012904167175,0.5792301893234253,-0.01083463244140148,0.1755554527044296,-0.1674615740776062,0.02064027078449726,XTrueNorthZVertical,0.2443406664324506,0.7938150278095079,0.4473556018088405,0.3317052091848422,0.3080108165740967,-0.8723333477973938,0.3796893060207367,18.91933059692383,-29.91302108764648,34.03623199462891,1,192.168.1.118,10.97.20.126,1,0
2015-02-21 18:55:37.800,123,1424570135.596722,39.63835059937986,-106.3702941257583,2518.112,-1,-1,10,65,-9999,1424570137.764408,17.08608627319336,-34.69520568847656,33.97898101806641,216.8226318359375,207.6965789794922,25,22005.32794645834,0.5752716064453125,-1.294281005859375,0.27685546875,22005.29082479167,-0.8521002286917909,0.377939043989178,0.1681298869905554,22005.29082479167,-0.1449575635269967,2.44752418553811,1.091702532910085,-0.8660829067230225,0.3920494914054871,0.2048637121915817,0.1191905662417412,-0.3795394897460938,-0.07521485537290573,XTrueNorthZVertical,0.2343059837677998,0.7888377641321028,0.4658652543043292,0.3252772549696718,0.2948719263076782,-0.8874130249023438,0.3543286323547363,18.03678894042969,-30.87809753417969,33.65133666992188,1,192.168.1.118,10.97.20.126,1,0
2015-02-21 18:55:37.838,124,1424570135.596722,39.63835059937986,-106.3702941257583,2518.112,-1,-1,10,65,-9999,1424570137.816294,16.64277648925781,-35.85057067871094,33.18015289306641,214.9497375488281,205.8236846923828,25,22005.377081875,0.3764801025390625,-1.191497802734375,0.3181610107421875,22005.34260075,-0.9607904906806498,-0.07463295902059859,0.6555789139521188,22005.34260075,-0.1165242944467814,2.433592135268202,1.141492282324472,-0.9747730493545532,-0.06052263826131821,0.6923123598098755,0.3057448267936707,-0.3458102643489838,-3.895836562151089e-05,XTrueNorthZVertical,0.2329263436442724,0.777075190896343,0.4889146680433787,0.3207209899911895,0.2706864476203918,-0.9092556238174438,0.3162010610103607,17.45116806030273,-31.83279418945312,33.06546401977539,1,192.168.1.118,10.97.20.126,1,0
2015-02-21 18:55:37.897,125,1424570135.596722,39.63835059937986,-106.3702941257583,2518.112,-1,-1,10,65,-9999,1424570137.867461,15.32989501953125,-37.4306640625,31.53255462646484,211.9108581542969,202.7847900390625,25,22005.42605354167,0.4965362548828125,-1.196060180664062,0.25439453125,22005.394375125,-1.075974604671558,0.08688216845441804,0.6969668341369312,22005.394375125,-0.09802023422114685,2.4107755239572,1.204817610908104,-1.089956998825073,0.1009923592209816,0.7336999177932739,0.1524302512407303,-0.2716093361377716,0.05981831625103951,XTrueNorthZVertical,0.2399326566767673,0.7587292894774693,0.5141590208529502,0.3200042605084376,0.2388661354780197,-0.933773934841156,0.2664756178855896,15.86716079711914,-34.93175888061523,30.64638137817383,1,192.168.1.118,10.97.20.126,1,0
2015-02-21 18:55:37.936,126,1424570135.596722,39.63835059937986,-106.3702941257583,2518.112,-1,-1,10,65,-9999,1424570137.91933,13.99995040893555,-39.29962158203125,29.13603973388672,208.6675415039062,199.5414733886719,25,22005.47520925,0.389739990234375,-1.153091430664062,0.0894775390625,22005.44615104167,-0.8754502924973877,0.02875867766343867,0.6613776809096572,22005.44615104167,-0.07743241930120966,2.398558357003953,1.267723411805199,-0.8894326090812683,0.0428687110543251,0.6981104016304016,0.2880627810955048,-0.2493267357349396,-0.01129162404686213,XTrueNorthZVertical,0.2439069540377512,0.7418916743697216,0.5401196691192649,0.3136509592244007,0.2019121795892715,-0.9544238448143005,0.2197877168655396,14.4825439453125,-36.88022232055664,29.00517654418945,1,192.168.1.118,10.97.20.126,1,0
2015-02-21 18:55:37.995,127,1424570135.596722,39.63835059937986,-106.3702941257583,2518.112,-1,-1,10,65,-9999,1424570137.9706,12.68706893920898,-41.08363342285156,27.55500030517578,205.9840698242188,196.8580169677734,25,22005.52429004167,0.2220611572265625,-1.013595581054688,0.18963623046875,22005.49792720834,-0.3294857574323853,-0.08109724993454792,0.6448234715737248,22005.49792720834,-0.09323699247565757,2.410883449866795,1.312382705207208,-0.3434679210186005,-0.06698735803365707,0.6815558075904846,0.1421008110046387,-0.1188662499189377,-0.09364201128482819,XTrueNorthZVertical,0.2522277307322161,0.7290640517085439,0.5560238338892414,0.3093288160228223,0.1705517768859863,-0.9667965769767761,0.1903064399957657,13.63862419128418,-37.95691680908203,28.00813293457031,1,192.168.1.118,10.97.20.126,1,0
2015-02-21 18:55:38.034,128,1424570135.596722,39.63835059937986,-106.3702941257583,2518.112,-1,-1,10,65,-9999,1424570138.022959,11.85159301757812,-42.56178283691406,26.50653839111328,204.2771606445312,195.1510925292969,25,22005.57322604167,0.8632965087890625,-1.084518432617188,0.676239013671875,22005.54970179167,-0.04070641726186115,0.1037024275832495,0.7582911782420768,22005.54970179167,-0.1631919794850145,2.480375991351005,1.347084497971344,-0.0546884685754776,0.1178121939301491,0.7950232028961182,0.2182586640119553,0.006010262761265039,-0.05845651403069496,XTrueNorthZVertical,0.2620659540821829,0.7203254716659232,0.5673358025907815,0.3009697287069046,0.1362335234880447,-0.975080668926239,0.1750946938991547,11.7935962677002,-39.53769683837891,26.6247386932373,1,192.168.1.118,10.97.20.126,1,0
2015-02-21 18:55:38.093,129,1424570135.596722,39.63835059937986,-106.3702941257583,2518.112,-1,-1,10,65,-9999,1424570138.074475,11.34008026123047,-42.49380493164062,26.97252655029297,204.6553649902344,195.529296875,25,22005.62241566667,-0.2586822509765625,-1.053451538085938,-0.0534515380859375,22005.6014775,1.568797358080683,-1.331296385751308,-0.5857052901156008,22005.6014775,-0.3746195511659259,2.654927988781465,1.288640532040183,1.554815411567688,-1.317186713218689,-0.5489736199378967,1.120288729667664,-1.034079909324646,0.1150135099887848,XTrueNorthZVertical,0.2866849396390069,0.7354333685061835,0.5368921273594592,0.2978193905208907,0.1302148550748825,-0.960457444190979,0.2461009919643402,10.74938011169434,-39.02096557617188,27.80306243896484,1,192.168.1.118,10.97.20.126,1,0
2015-02-21 18:55:38.132,130,1424570135.596722,39.63835059937986,-106.3702941257583,2518.112,-1,-1,10,65,-9999,1424570138.126225,12.46540832519531,-41.40644836425781,27.60493469238281,208.4447937011719,199.3187255859375,25,22005.67146745833,0.179901123046875,-1.023223876953125,0.31927490234375,22005.65325366667,0.9727046744493373,-0.4502563844419527,-0.4943420868110154,22005.65325366667,-0.4204633526478573,2.60648151666665,1.247548291318323,0.9587228894233704,-0.4361469149589539,-0.4576108455657959,-0.4535453915596008,-0.1184417009353638,-0.004552769940346479,XTrueNorthZVertical,0.3143818661470534,0.7333392363401473,0.5061359163682131,0.3274203426224883,0.161980465054512,-0.9482086896896362,0.2732447981834412,12.37616348266602,-37.40895462036133,29.30180358886719,1,192.168.1.118,10.97.20.126,1,0
2015-02-21 18:55:38.192,131,1424570135.596722,39.63835059937986,-106.3702941257583,2518.112,-1,-1,10,65,-9999,1424570138.177595,14.22161102294922,-39.6904296875,28.71997833251953,212.9906616210938,203.8645935058594,25,22005.72043395833,0.43121337890625,-0.888092041015625,0.2708892822265625,22005.705028125,1.041647523484873,-0.4554956212544656,-0.2729322001040076,22005.705028125,-0.4549680425555341,2.642588271243858,1.192757632515218,1.027665972709656,-0.4413862824440002,-0.2362013310194016,0.3440124690532684,0.02509346231818199,-0.05903000757098198,XTrueNorthZVertical,0.3159282126880462,0.7498230323748709,0.484162579289678,0.3217785283116769,0.1766326725482941,-0.9293903112411499,0.3240904211997986,14.89522171020508,-35.05437850952148,30.99222755432129,1,192.168.1.118,10.97.20.126,1,0
2015-02-21 18:55:38.231,132,1424570135.596722,39.63835059937986,-106.3702941257583,2518.112,-1,-1,10,65,-9999,1424570138.177595,14.22161102294922,-39.6904296875,28.71997833251953,212.9906616210938,203.8645935058594,25,22005.76958229167,0.1448822021484375,-0.9253387451171875,0.2827606201171875,22005.75680416667,0.9222675991965447,-1.023896223238949,-0.3586718724507817,22005.705028125,-0.4549680425555341,2.642588271243858,1.192757632515218,1.027665972709656,-0.4413862824440002,-0.2362013310194016,0.3440124690532684,0.02509346231818199,-0.05903000757098198,XTrueNorthZVertical,0.3159282126880462,0.7498230323748709,0.484162579289678,0.3217785283116769,0.1766326725482941,-0.9293903112411499,0.3240904211997986,14.89522171020508,-35.05437850952148,30.99222755432129,1,192.168.1.118,10.97.20.126,1,0
2015-02-21 18:55:38.292,133,1424570135.596722,39.63835059937986,-106.3702941257583,2518.112,-1,-1,10,65,-9999,1424570138.281995,17.37594604492188,-35.45982360839844,30.66714477539062,222.8738708496094,213.747802734375,25,22005.81854620833,0.2867584228515625,-0.6754608154296875,0.384063720703125,22005.80857995834,1.122721870234046,-0.6752817786448519,-0.4448949085354051,22005.80857995834,-0.5127817853005566,2.602684516360171,1.092009303103987,1.108740568161011,-0.6611726880073547,-0.4081647396087646,-0.04266107082366943,0.1065943166613579,-0.1262881308794022,XTrueNorthZVertical,0.3426159761871069,0.7617860530938459,0.4264855086552296,0.3469963299505026,0.2364324331283569,-0.887554407119751,0.3954074084758759,17.74540710449219,-32.43447875976562,32.31563568115234,1,192.168.1.118,10.97.20.126,1,0
2015-02-21 18:55:38.328,134,1424570135.596722,39.63835059937986,-106.3702941257583,2518.112,-1,-1,10,65,-9999,1424570138.281995,17.37594604492188,-35.45982360839844,30.66714477539062,222.8738708496094,213.747802734375,25,22005.86758591667,0.29486083984375,-0.9792022705078125,0.4907073974609375,22005.86035479167,0.8773065157771729,-0.6991735294161708,-0.3313158817334878,22005.80857995834,-0.5127817853005566,2.602684516360171,1.092009303103987,1.108740568161011,-0.6611726880073547,-0.4081647396087646,-0.04266107082366943,0.1065943166613579,-0.1262881308794022,XTrueNorthZVertical,0.3426159761871069,0.7617860530938459,0.4264855086552296,0.3469963299505026,0.2364324331283569,-0.887554407119751,0.3954074084758759,17.74540710449219,-32.43447875976562,32.31563568115234,1,192.168.1.118,10.97.20.126,1,0
2015-02-21 18:55:38.392,135,1424570135.596722,39.63835059937986,-106.3702941257583,2518.112,-1,-1,10,65,-9999,1424570138.386193,20.68373107910156,-31.72198486328125,31.73225402832031,233.8317260742188,224.7056579589844,25,22005.91666283333,0.4497833251953125,-0.9007415771484375,0.5385894775390625,22005.91213054167,0.7970657384491945,-0.6036187768719097,-0.04123691895100494,22005.86035479167,-0.5255723088663352,2.585265923178871,1.040205576544203,0.863325297832489,-0.6850646138191223,-0.2945860922336578,0.07905658334493637,-0.09815456718206406,0.0847180038690567,XTrueNorthZVertical,0.3485350720640342,0.7703176862101673,0.3995627062465832,0.3542367140049311,0.267226368188858,-0.8625082969665527,0.4297320544719696,20.21843338012695,-29.30015182495117,33.82175445556641,1,192.168.1.118,10.97.20.126,1,0
2015-02-21 18:55:38.427,136,1424570135.596722,39.63835059937986,-106.3702941257583,2518.112,-1,-1,10,65,-9999,1424570138.386193,20.68373107910156,-31.72198486328125,31.73225402832031,233.8317260742188,224.7056579589844,25,22005.965712875,0.4392242431640625,-0.7521820068359375,0.549530029296875,22005.963906625,0.5629701502057033,-0.4795929680619385,-0.01703704044156391,22005.91213054167,-0.5591931359548814,2.577244575108734,1.000644326184558,0.7830846905708313,-0.5895100235939026,-0.004507475532591343,0.1066411137580872,-0.04003225639462471,0.07478972524404526,XTrueNorthZVertical,0.3609508695674449,0.7731405077432499,0.3754219539902365,0.3619759956490766,0.2886988520622253,-0.8418189287185669,0.4560635387897491,21.62918472290039,-27.74959754943848,34.25395202636719,1,192.168.1.118,10.97.20.126,1,0
2015-02-21 18:55:38.493,137,1424570135.596722,39.63835059937986,-106.3702941257583,2518.112,-1,-1,10,65,-9999,1424570138.437811,21.68624114990234,-29.673583984375,32.45576095581055,239.4732971191406,230.3472442626953,25,22006.01478233334,0.5051116943359375,-0.662139892578125,0.5169525146484375,22006.015681125,0.3803691784838753,-0.5298979505246633,0.1240061014179046,22005.963906625,-0.593037507720535,2.57709754658128,0.9736721007426969,0.5489892363548279,-0.4654843509197235,0.01969203539192677,0.1434529274702072,0.05895061418414116,0.08052121102809906,XTrueNorthZVertical,0.372638612112836,0.7737302397622766,0.3577869562279778,0.3667022153084436,0.3008067309856415,-0.8269559741020203,0.4750360250473022,22.2910270690918,-26.91632270812988,34.49372100830078,1,192.168.1.118,10.97.20.126,1,0
2015-02-21 18:55:38.525,138,1424570135.596722,39.63835059937986,-106.3702941257583,2518.112,-1,-1,10,65,-9999,1424570138.489191,22.33414268493652,-28.48426818847656,32.25604629516602,242.874267578125,233.7481994628906,25,22006.06393879167,0.4312286376953125,-0.79864501953125,0.509918212890625,22006.015681125,0.3803691784838753,-0.5298979505246633,0.1240061014179046,22006.015681125,-0.6200553244623699,2.580323073701992,0.9593107702107998,0.3663884103298187,-0.5157894492149353,0.1607347726821899,0.1995486319065094,0.1566561907529831,0.03094397857785225,XTrueNorthZVertical,0.3817880638030383,0.772814429552127,0.3473177207571279,0.3692779069760242,0.3055630624294281,-0.8187960982322693,0.4860085248947144,23.38724899291992,-25.61630439758301,34.75682067871094,1,192.168.1.118,10.97.20.126,1,0
2015-02-21 18:55:38.592,139,1424570135.596722,39.63835059937986,-106.3702941257583,2518.112,-1,-1,10,65,-9999,1424570138.541594,22.67514419555664,-28.07649230957031,31.95647430419922,245.4611206054688,236.3350677490234,25,22006.112889125,0.4191741943359375,-0.782440185546875,0.5008392333984375,22006.11923304167,0.1913894033190895,-0.5581311865050294,0.09570096008810643,22006.06745729167,-0.6441339374834323,2.570837738003845,0.9515900962461848,0.2120690494775772,-0.5682952404022217,0.192963719367981,0.1176633238792419,0.0156943891197443,0.02152468264102936,XTrueNorthZVertical,0.3923095177687486,0.7683033300488418,0.3377097596480074,0.3765041745603482,0.3135653138160706,-0.8143393993377686,0.4883935153484344,24.07503128051758,-25.25603294372559,34.55026245117188,1,192.168.1.118,10.97.20.126,1,0
2015-02-21 18:55:38.623,140,1424570135.596722,39.63835059937986,-106.3702941257583,2518.112,-1,-1,10,65,-9999,1424570138.593128,23.08434295654297,-27.90660095214844,31.19091033935547,248.18798828125,239.0619201660156,25,22006.16192991667,0.389495849609375,-0.7623443603515625,0.488250732421875,22006.11923304167,0.1913894033190895,-0.5581311865050294,0.09570096008810643,22006.11923304167,-0.6649800628027452,2.560446391513247,0.946960614203619,0.1774952262639999,-0.544035792350769,0.1324758231639862,0.09848460555076599,0.02920360490679741,0.01258452143520117,XTrueNorthZVertical,0.4017981213017269,0.7633384739891447,0.3297194057742351,0.3836115186242245,0.3206895887851715,-0.8116437792778015,0.488254725933075,24.52715301513672,-25.14997291564941,34.30878448486328,1,192.168.1.118,10.97.20.126,1,0
2015-02-21 18:55:38.689,141,1424570135.596722,39.63835059937986,-106.3702941257583,2518.112,-1,-1,10,65,-9999,1424570138.645286,24.09029388427734,-27.92359924316406,31.07441711425781,250.7744445800781,241.6483917236328,25,22006.21099808333,0.400299072265625,-0.765411376953125,0.496002197265625,22006.17100779167,0.1654115984659116,-0.5360088399619591,0.01201112283236637,22006.17100779167,-0.6819625457804712,2.545845292080358,0.9428549506274675,0.1515175551176071,-0.5219135880470276,0.04878561571240425,0.05984454602003098,0.04689426347613335,0.001976130297407508,XTrueNorthZVertical,0.4104306652370578,0.7580791318185818,0.3217224517701135,0.3916087369815056,0.3296512961387634,-0.809238612651825,0.4862746000289917,25.68428802490234,-24.91594314575195,33.62600326538086,1,192.168.1.118,10.97.20.126,1,0
2015-02-21 18:55:38.721,142,1424570135.596722,39.63835059937986,-106.3702941257583,2518.112,-1,-1,10,65,-9999,1424570138.69732,25.3349437713623,-27.3629150390625,30.69163513183594,254.5791320800781,245.4530639648438,25,22006.26014220834,0.4380340576171875,-0.7819671630859375,0.5831756591796875,22006.222783625,0.1675415947057569,-0.299495101448676,-0.1590967108891157,22006.222783625,-0.6834926968574124,2.529575982032962,0.9361372911294603,0.15364770591259,-0.2854000329971313,-0.1223226189613342,0.06915580481290817,0.04323471710085869,0.02557838521897793,XTrueNorthZVertical,0.4132473540100983,0.7562205770528585,0.3152245011111973,0.397480335442727,0.3406342267990112,-0.8052738904953003,0.4852858781814575,26.3448314666748,-24.72576522827148,33.25329208374023,1,192.168.1.118,10.97.20.126,1,0
2015-02-21 18:55:38.789,143,1424570135.596722,39.63835059937986,-106.3702941257583,2518.112,-1,-1,10,65,-9999,1424570138.749164,26.56254959106445,-27.19300842285156,30.39205932617188,259.295166015625,250.1691131591797,25,22006.30911116667,0.6139984130859375,-0.7078857421875,0.7413177490234375,22006.27455970833,0.09253925524196437,-0.09079515104407147,-0.2131591473338332,22006.27455970833,-0.6766507694710742,2.515532934262351,0.9272600801969776,0.0786455050110817,-0.07670021802186966,-0.1763854175806046,0.09262353926897049,0.03407925739884377,0.08391621708869934,XTrueNorthZVertical,0.4123483096082582,0.7570225152212368,0.3099283813239004,0.4010364339810578,0.3515903353691101,-0.7999789118766785,0.4862284362316132,26.70801162719727,-24.49671173095703,33.13288879394531,1,192.168.1.118,10.97.20.126,1,0
2015-02-21 18:55:38.819,144,1424570135.596722,39.63835059937986,-106.3702941257583,2518.112,-1,-1,10,65,-9999,1424570138.800486,26.85373306274414,-26.05424499511719,30.59927368164062,260.9763793945312,251.8503265380859,25,22006.358156875,0.57244873046875,-0.8195953369140625,0.4721832275390625,22006.32633425,-0.03173635807825627,0.1571320969529642,-0.1127758174171495,22006.32633425,-0.6674466704318452,2.513761477670749,0.9236119516361929,-0.04562998190522194,0.171226903796196,-0.07600242644548416,0.2616664469242096,0.03421955555677414,0.2087375521659851,XTrueNorthZVertical,0.4089135541370414,0.7594547089306923,0.3098592313876333,0.400006933650965,0.3541630208492279,-0.7977846264839172,0.4879634976387024,29.19368743896484,-21.49431228637695,29.19218063354492,1,192.168.1.118,10.97.20.126,1,0
2015-02-21 18:55:38.892,145,1424570135.596722,39.63835059937986,-106.3702941257583,2518.112,-1,-1,10,65,-9999,1424570138.852257,26.3251895904541,-26.37704467773438,30.54934692382812,259.9460754394531,250.8200225830078,25,22006.40722366667,0.46319580078125,-0.802398681640625,0.387237548828125,22006.378110375,-0.2477722520215931,-0.211405988388234,0.4069935988497245,22006.378110375,-0.6782655921712087,2.523329612869136,0.9379733154044868,-0.2616657018661499,-0.1973113417625427,0.4437665939331055,0.242998868227005,0.0471448190510273,-0.1035556197166443,XTrueNorthZVertical,0.4123588875072187,0.7556002129057409,0.315754018858236,0.3991589979500059,0.3428013026714325,-0.8063611388206482,0.4819430708885193,28.9671516418457,-21.71046447753906,29.25782012939453,1,192.168.1.118,10.97.20.126,1,0
2015-02-21 18:55:38.918,146,1424570135.596722,39.63835059937986,-106.3702941257583,2518.112,-1,-1,10,65,-9999,1424570138.90493,25.79664611816406,-26.86979675292969,30.36627197265625,257.13330078125,248.0072326660156,25,22006.45639666667,0.44305419921875,-0.761322021484375,0.4060821533203125,22006.42988616667,-0.3496725184951859,-0.2198330290255718,0.38170209060946,22006.42988616667,-0.6913903953205103,2.51812963500896,0.9649977003688616,-0.3635658621788025,-0.2057385146617889,0.4184747040271759,0.02876602299511433,0.07255114614963531,-0.0943693071603775,XTrueNorthZVertical,0.4195914217063031,0.7450420470008978,0.323441242273805,0.4052668130337658,0.3324552774429321,-0.8220475912094116,0.4622892141342163,28.82246017456055,-22.30256843566895,28.95378494262695,1,192.168.1.118,10.97.20.126,1,0
2015-02-21 18:55:38.993,147,1424570135.596722,39.63835059937986,-106.3702941257583,2518.112,-1,-1,10,65,-9999,1424570138.95631,25.83074188232422,-27.82127380371094,29.86698913574219,256.0880126953125,246.9619445800781,25,22006.505329,0.4747772216796875,-0.7815399169921875,0.472503662109375,22006.48166095834,-0.286086351676236,0.01200446492964117,0.2436286396815388,22006.48166095834,-0.7001451422062274,2.525148578200473,0.9865980136166143,-0.299979567527771,0.02609885111451149,0.2804009318351746,0.1744712442159653,0.04135360568761826,-0.01446895767003298,XTrueNorthZVertical,0.4227812649512147,0.7390966907385202,0.3322119058360621,0.4057429892005056,0.318860650062561,-0.834154486656189,0.4500158429145813,28.52496528625488,-23.87034225463867,27.98201751708984,1,192.168.1.118,10.97.20.126,1,0
