loggingTime,loggingSample,locationTimestamp_since1970,locationLatitude,locationLongitude,locationAltitude,locationSpeed,locationCourse,locationVerticalAccuracy,locationHorizontalAccuracy,locationFloor,locationHeadingTimestamp_since1970,locationHeadingX,locationHeadingY,locationHeadingZ,locationTrueHeading,locationMagneticHeading,locationHeadingAccuracy,accelerometerTimestamp_sinceReboot,accelerometerAccelerationX,accelerometerAccelerationY,accelerometerAccelerationZ,gyroTimestamp_sinceReboot,gyroRotationX,gyroRotationY,gyroRotationZ,motionTimestamp_sinceReboot,motionYaw,motionRoll,motionPitch,motionRotationRateX,motionRotationRateY,motionRotationRateZ,motionUserAccelerationX,motionUserAccelerationY,motionUserAccelerationZ,motionAttitudeReferenceFrame,motionQuaternionX,motionQuaternionY,motionQuaternionZ,motionQuaternionW,motionGravityX,motionGravityY,motionGravityZ,motionMagneticFieldX,motionMagneticFieldY,motionMagneticFieldZ,motionMagneticFieldCalibrationAccuracy,IP_en0,IP_pdp_ip0,deviceOrientation,state
2015-02-27 16:45:36.209,1,1425084329.88347,37.78775198007429,-122.3968167463903,12.11705,-1,-1,10,65,-9999,1425084336.163331,10.57773590087891,-32.99032592773438,-0.3942718505859375,228.1424865722656,214.3692321777344,10,136182.7159159583,0.106170654296875,-0.8783111572265625,-0.44171142578125,136182.719346375,-0.04421380041749551,-0.2048913637296822,-0.04734674312386473,136182.66756725,0.5769119906382731,0.1616221802538187,1.136176196544224,-0.1426204591989517,0.3507757186889648,-0.01058710925281048,0.04093064367771149,-0.01823239400982857,-0.0189613364636898,XTrueNorthZVertical,-0.4947527220330633,-0.2177854798962978,-0.2806444551910091,-0.7931128503901547,0.06775771081447601,-0.9070300459861755,-0.4155784547328949,8.316243171691895,-32.32649993896484,0.3991308212280273,2,10.3.35.51,10.83.46.32,1,0
2015-02-27 16:45:36.213,2,1425084329.88347,37.78775198007429,-122.3968167463903,12.11705,-1,-1,10,65,-9999,1425084336.163331,10.57773590087891,-32.99032592773438,-0.3942718505859375,228.1424865722656,214.3692321777344,10,136182.7649453333,0.0813751220703125,-0.9076385498046875,-0.413055419921875,136182.719346375,-0.04421380041749551,-0.2048913637296822,-0.04734674312386473,136182.719346375,0.5792053704794803,0.1634115276703114,1.130767267112559,-0.05331877246499062,-0.1928778141736984,-0.01048186048865318,0.03687230125069618,0.02642812766134739,-0.02142027579247952,XTrueNorthZVertical,-0.4920373932442041,-0.2185260360891894,-0.2822308289749024,-0.7940348917226334,0.06929834932088852,-0.9047392606735229,-0.4202911555767059,8.321182250976562,-32.32663345336914,0.2618865966796875,2,10.3.35.51,10.83.46.32,1,0
2015-02-27 16:45:36.229,3,1425084329.88347,37.78775198007429,-122.3968167463903,12.11705,-1,-1,10,65,-9999,1425084336.216665,10.71414184570312,-32.85441589355469,-0.727142333984375,229.1802673339844,215.4070129394531,10,136182.8140135834,0.0314483642578125,-0.901214599609375,-0.4123992919921875,136182.7711254167,-0.01891483532617878,-0.3260880965136622,-0.06023431227097618,136182.7711254167,0.5761921146126602,0.1514293040537937,1.128443638900333,-0.02802015841007233,-0.3140741288661957,-0.02337178774178028,0.01680068857967854,-0.003891492262482643,0.01011296827346087,XTrueNorthZVertical,-0.4930893319320382,-0.2127879613478278,-0.2781843555379697,-0.7963653266374774,0.06457443535327911,-0.9037470817565918,-0.4231683909893036,8.36663818359375,-32.31581115722656,0.09806060791015625,2,10.3.35.51,10.83.46.32,1,0
2015-02-27 16:45:36.302,4,1425084336.260546,37.78781902418435,-122.396807393267,12.16978,-1,-1,10,65,-9999,1425084336.273824,10.78234481811523,-32.92237854003906,-0.9268722534179688,229.8179321289062,216.044677734375,10,136182.8630380417,0.095123291015625,-0.9057464599609375,-0.4177093505859375,136182.82290425,-0.05105892336732618,-0.08661878182260921,-0.01240074329984497,136182.82290425,0.578034108250427,0.139445975277245,1.126885882107908,-0.06016132235527039,-0.07460470497608185,0.02446331642568111,-0.0282461941242218,0.001864537596702576,0.01290614809840918,XTrueNorthZVertical,-0.4939177233895848,-0.2083088146685745,-0.2760338369052061,-0.7977832512861205,0.0596945583820343,-0.9030791521072388,-0.4253054261207581,8.401645660400391,-32.30683517456055,-0.05143833160400391,2,10.3.35.51,10.83.46.32,1,0
2015-02-27 16:45:36.325,5,1425084336.260546,37.78781902418435,-122.396807393267,12.16978,-1,-1,10,65,-9999,1425084336.273824,10.78234481811523,-32.92237854003906,-0.9268722534179688,229.8179321289062,216.044677734375,10,136182.9120875833,0.047088623046875,-0.89056396484375,-0.4179534912109375,136182.8746834167,-0.02934377415492908,-0.02365286522153875,-0.02136840563846878,136182.8746834167,0.5787172939101721,0.1382870338393676,1.124875267675735,-0.03844510763883591,-0.01163716241717339,0.015490697696805,0.01316478848457336,-0.0002672736591193825,0.01201075315475464,XTrueNorthZVertical,-0.4931831035745572,-0.207808766658946,-0.2761165463366715,-0.7983393204544066,0.05945178866386414,-0.9022138118743896,-0.4271718859672546,8.363911628723145,-32.3162841796875,-0.1574897766113281,2,10.3.35.51,10.83.46.32,1,0
2015-02-27 16:45:36.384,6,1425084336.260546,37.78781902418435,-122.396807393267,12.16978,-1,-1,10,65,-9999,1425084336.345818,10.18556976318359,-33.61900329589844,-0.976806640625,227.7944641113281,214.0212097167969,10,136182.9611132917,0.0976715087890625,-0.8957977294921875,-0.424468994140625,136182.9264625,-0.04808656927468874,0.0265144318128289,-0.04217248744194978,136182.9264625,0.5824813656619799,0.13588815635067,1.122737020022207,-0.0571858286857605,0.03852881491184235,-0.005308457650244236,0.006100723054260015,0.01255663111805916,0.007348667364567518,XTrueNorthZVertical,-0.4922480157514156,-0.2075573591019011,-0.2771316354129814,-0.7986300552953189,0.05868809670209885,-0.9012895226478577,-0.4292236566543579,8.317502021789551,-32.32789611816406,-0.2198619842529297,2,10.3.35.51,10.83.46.32,1,0
2015-02-27 16:45:36.426,7,1425084336.260546,37.78781902418435,-122.396807393267,12.16978,-1,-1,10,65,-9999,1425084336.408965,10.04916381835938,-33.890869140625,-1.109954833984375,227.2013092041016,213.4280548095703,10,136183.0101628334,0.0722808837890625,-0.9079132080078125,-0.44012451171875,136182.9782413333,-0.03333159157121373,0.02917040236796492,0.01277811322630919,136182.9782413333,0.5798435364875284,0.142050722611445,1.120688773902803,-0.04247604310512543,0.04117831960320473,0.04966386407613754,0.03766511380672455,-0.001348341931588948,-0.003218508558347821,XTrueNorthZVertical,-0.4908283360392279,-0.2091586381069163,-0.2776907166302986,-0.7988918258686925,0.06159330904483795,-0.9004003405570984,-0.4306804239749908,8.367921829223633,-32.31465148925781,-0.2513084411621094,2,10.3.35.51,10.83.46.32,1,0
2015-02-27 16:45:36.472,8,1425084336.260546,37.78781902418435,-122.396807393267,12.16978,-1,-1,10,65,-9999,1425084336.408965,10.04916381835938,-33.890869140625,-1.109954833984375,227.2013092041016,213.4280548095703,10,136183.0591946667,0.0810394287109375,-0.8928375244140625,-0.4350433349609375,136183.0300204583,-0.003070092104643346,-0.1025993462597387,-0.02431545970075047,136183.0300204583,0.582028676463734,0.1372535510946233,1.119835115682557,-0.01221586391329765,-0.09059114754199982,0.01256734039634466,0.016555430367589,-0.0046344930306077,-0.001770014991052449,XTrueNorthZVertical,-0.4909162233268485,-0.2076900828964865,-0.2774270107436224,-0.7993124669033078,0.05963170528411865,-0.9000285863876343,-0.431732177734375,8.342368125915527,-32.32073211669922,-0.3114633560180664,2,10.3.35.51,10.83.46.32,1,0
2015-02-27 16:45:36.523,9,1425084336.260546,37.78781902418435,-122.396807393267,12.16978,-1,-1,10,65,-9999,1425084336.473994,10.33903121948242,-33.9078369140625,-1.159881591796875,227.3687591552734,213.5955047607422,10,136183.1082540417,0.0188140869140625,-0.8809814453125,-0.4012298583984375,136183.0817995417,-0.005233111542005703,-0.1509575579656155,-0.03042981124746339,136183.0817995417,0.5800917878760522,0.135571027382434,1.118706469263874,-0.01438223291188478,-0.138946995139122,0.006442394107580185,0.01523730903863907,0.00585936289280653,-0.007179579697549343,XTrueNorthZVertical,-0.4908866825284798,-0.2064248160284538,-0.2762939796747192,-0.8000504808670184,0.05904247611761093,-0.8995361328125,-0.43283811211586,8.345126152038574,-32.31963729858398,-0.3490762710571289,2,10.3.35.51,10.83.46.32,1,0
2015-02-27 16:45:36.604,10,1425084336.260546,37.78781902418435,-122.396807393267,12.16978,-1,-1,10,65,-9999,1425084336.582526,9.998012542724609,-33.26222229003906,-1.592620849609375,227.4169464111328,213.6436920166016,10,136183.1572792917,0.08709716796875,-0.9017486572265625,-0.4468536376953125,136183.1335785417,-0.02409681417525496,0.1196728720082367,-0.04579065809893143,136183.1335785417,0.5817702361311436,0.1318737169690125,1.118746294192001,-0.03324146568775177,0.1316831409931183,-0.008914317935705185,-0.02765187248587608,0.01858733035624027,0.03392431885004044,XTrueNorthZVertical,-0.4912407806636616,-0.2053619295504986,-0.2760557130769779,-0.8001889098694461,0.05743702873587608,-0.8995535373687744,-0.4330179393291473,8.339805603027344,-32.32044219970703,-0.398228645324707,2,10.3.35.51,10.83.46.32,1,0
2015-02-27 16:45:36.622,11,1425084336.260546,37.78781902418435,-122.396807393267,12.16978,-1,-1,10,65,-9999,1425084336.582526,9.998012542724609,-33.26222229003906,-1.592620849609375,227.4169464111328,213.6436920166016,10,136183.2063343333,0.099884033203125,-0.8986663818359375,-0.4414215087890625,136183.1853575,0.001287105754835296,-0.0170367741254549,-0.07418821111855535,136183.1853575,0.5788595902077553,0.1387920615124132,1.117595218848302,-0.007858065888285637,-0.005025936756283045,-0.03731471300125122,0.02467624470591545,-0.01362383086234331,-0.01259259972721338,XTrueNorthZVertical,-0.4901127657424026,-0.2072963172674262,-0.2766440503830729,-0.8001786412967929,0.06057460978627205,-0.8990501165390015,-0.433635413646698,8.379474639892578,-32.31022644042969,-0.3943424224853516,2,10.3.35.51,10.83.46.32,1,0
2015-02-27 16:45:36.704,12,1425084336.260546,37.78781902418435,-122.396807393267,12.16978,-1,-1,10,65,-9999,1425084336.65645,10.20262145996094,-33.63601684570312,-1.625900268554688,227.4589996337891,213.6857452392578,10,136183.2553535833,0.0764312744140625,-0.8961181640625,-0.414398193359375,136183.237136625,0.03253637166971607,-0.1047399951439444,-0.06224473257787699,136183.237136625,0.5742184601122011,0.1402114685755104,1.117403474595343,0.02339018695056438,-0.09272751957178116,-0.02537740953266621,0.01117355097085238,0.006052330136299133,0.0101814903318882,XTrueNorthZVertical,-0.4903185689454671,-0.2067071640936536,-0.2751434426784198,-0.800722180351546,0.0612141452729702,-0.8989661335945129,-0.4337196946144104,8.42754077911377,-32.29747009277344,-0.4145069122314453,2,10.3.35.51,10.83.46.32,1,0
2015-02-27 16:45:36.723,13,1425084336.260546,37.78781902418435,-122.396807393267,12.16978,-1,-1,10,65,-9999,1425084336.707728,10.23672485351562,-33.77194213867188,-1.526039123535156,227.5130004882812,213.73974609375,10,136183.3044055417,0.0883026123046875,-0.8739166259765625,-0.44195556640625,136183.288915375,0.006012885109180904,0.01324816115870818,-0.07618451667167875,136183.288915375,0.570554219177566,0.1440947475855835,1.117595599743953,-0.003132332116365433,0.02526148408651352,-0.0393194779753685,0.001091713085770607,0.02629332803189754,-0.001872878754511476,XTrueNorthZVertical,-0.4902431436672278,-0.2073831415652109,-0.2746195334608242,-0.8007734257702455,0.06287313252687454,-0.8990502953529358,-0.4333077967166901,8.488773345947266,-32.28161239624023,-0.4002113342285156,2,10.3.35.51,10.83.46.32,1,0
2015-02-27 16:45:36.776,14,1425084336.260546,37.78781902418435,-122.396807393267,12.16978,-1,-1,10,65,-9999,1425084336.762525,10.13441848754883,-33.805908203125,-1.692474365234375,227.7723999023438,213.9991455078125,10,136183.35343925,0.0497283935546875,-0.893463134765625,-0.41583251953125,136183.3406945,0.01956571189659415,-0.1867437851135553,-0.002660764245098167,136183.288915375,0.570554219177566,0.1440947475855835,1.117595599743953,-0.003132332116365433,0.02526148408651352,-0.0393194779753685,0.001091713085770607,0.02629332803189754,-0.001872878754511476,XTrueNorthZVertical,-0.4902431436672278,-0.2073831415652109,-0.2746195334608242,-0.8007734257702455,0.06287313252687454,-0.8990502953529358,-0.4333077967166901,8.488773345947266,-32.28161239624023,-0.4002113342285156,2,10.3.35.51,10.83.46.32,1,0
2015-02-27 16:45:36.820,15,1425084336.260546,37.78781902418435,-122.396807393267,12.16978,-1,-1,10,65,-9999,1425084336.762525,10.13441848754883,-33.805908203125,-1.692474365234375,227.7723999023438,213.9991455078125,10,136183.4024900833,0.0796356201171875,-0.9130859375,-0.423675537109375,136183.3924736667,0.05191273281280558,-0.05692773146153379,-0.03045990496778129,136183.3924736667,0.5632901535527701,0.1429381309880803,1.119391132989165,0.04276863113045692,-0.04490971565246582,0.006392392795532942,0.02820542827248573,-0.01155720930546522,0.01376718003302813,XTrueNorthZVertical,-0.4918887799891102,-0.2053157928723559,-0.2713454576882006,-0.8014128591470434,0.06214186176657677,-0.8998349905014038,-0.4317817091941833,8.575222969055176,-32.25845718383789,-0.4236631393432617,2,10.3.35.51,10.83.46.32,1,0
2015-02-27 16:45:36.907,16,1425084336.887336,37.78782199157441,-122.3968069764392,12.17803,-1,-1,10,65,-9999,1425084336.864325,10.3560791015625,-34.33261108398438,-1.742408752441406,228.4256896972656,214.6524353027344,10,136183.4515222083,0.0751495361328125,-0.8917999267578125,-0.42681884765625,136183.4442524583,0.04718562187791493,-0.09031817889283827,-0.06263488567757361,136183.3924736667,0.5632901535527701,0.1429381309880803,1.119391132989165,0.04276863113045692,-0.04490971565246582,0.006392392795532942,0.02820542827248573,-0.01155720930546522,0.01376718003302813,XTrueNorthZVertical,-0.4918887799891102,-0.2053157928723559,-0.2713454576882006,-0.8014128591470434,0.06214186176657677,-0.8998349905014038,-0.4317817091941833,8.575222969055176,-32.25845718383789,-0.4236631393432617,2,10.3.35.51,10.83.46.32,1,0
2015-02-27 16:45:36.914,17,1425084336.887336,37.78782199157441,-122.3968069764392,12.17803,-1,-1,10,65,-9999,1425084336.864325,10.3560791015625,-34.33261108398438,-1.742408752441406,228.4256896972656,214.6524353027344,10,136183.5006824167,0.071929931640625,-0.90362548828125,-0.4325714111328125,136183.4960315417,0.01897209328961549,-0.09505860563317932,-0.05390238046320378,136183.4442524583,0.5562409896155528,0.1484820454542586,1.121134084277266,0.03804458677768707,-0.07829491794109344,-0.02579503692686558,0.0151347192004323,0.006810394581407309,-0.001426133094355464,XTrueNorthZVertical,-0.4925805642929521,-0.2059732711274908,-0.269809479770298,-0.8013378306208918,0.06430253386497498,-0.9005939364433289,-0.4298788011074066,8.65059757232666,-32.23938751220703,-0.3332271575927734,2,10.3.35.51,10.83.46.32,1,0
2015-02-27 16:45:36.955,18,1425084336.887336,37.78782199157441,-122.3968069764392,12.17803,-1,-1,10,65,-9999,1425084336.920987,10.32198333740234,-34.33261108398438,-1.942131042480469,228.6350860595703,214.8618316650391,10,136183.549608625,0.063262939453125,-0.89300537109375,-0.41839599609375,136183.5478106667,0.03234355880679433,-0.07219696557150311,-0.05083388625521448,136183.4960315417,0.5513736449930099,0.1491740062838706,1.121749032527844,0.009830336086452007,-0.08303314447402954,-0.01706966385245323,0.01318009477108717,0.001172367134131491,-0.006519822869449854,XTrueNorthZVertical,-0.493240851706491,-0.2051103029147507,-0.2680033544411268,-0.8017590054066224,0.06451766192913055,-0.9008610844612122,-0.4292864501476288,8.734992980957031,-32.21670913696289,-0.3247175216674805,2,10.3.35.51,10.83.46.32,1,0
2015-02-27 16:45:37.012,19,1425084336.887336,37.78782199157441,-122.3968069764392,12.17803,-1,-1,10,65,-9999,1425084336.993132,10.8846549987793,-34.17971801757812,-2.025352478027344,228.7570343017578,214.9837799072266,10,136183.5986523333,0.0771026611328125,-0.8946685791015625,-0.43035888671875,136183.5995895417,0.07636108425195101,-0.03885791714923716,-0.03707599606386514,136183.5478106667,0.5491137961561994,0.1466553767680595,1.122492877956965,0.02320286445319653,-0.06017100065946579,-0.01400232408195734,-0.002760910196229815,0.003448151750490069,0.009656141512095928,XTrueNorthZVertical,-0.4941144892515728,-0.2036138301115601,-0.2664443054737577,-0.8021220522313315,0.06333830207586288,-0.9011837244033813,-0.4287845492362976,8.770934104919434,-32.20668029785156,-0.3499307632446289,2,10.3.35.51,10.83.46.32,1,0
2015-02-27 16:45:37.057,20,1425084336.887336,37.78782199157441,-122.3968069764392,12.17803,-1,-1,10,65,-9999,1425084337.045342,11.05515670776367,-34.28164672851562,-1.492759704589844,228.8334350585938,215.0601806640625,10,136183.6476847917,0.094268798828125,-0.8997650146484375,-0.4256744384765625,136183.5995895417,0.07636108425195101,-0.03885791714923716,-0.03707599606386514,136183.5995895417,0.5438750411518356,0.1507762996592222,1.124622747826132,0.06722147017717361,-0.02682880498468876,-0.0002525529998820275,0.01228636596351862,0.007436288520693779,-0.00373757747001946,XTrueNorthZVertical,-0.4949775727289503,-0.2041728381411368,-0.2652744182344027,-0.8018355271421858,0.06481629610061646,-0.9021048545837402,-0.4266213178634644,8.80433177947998,-32.19805145263672,-0.3017711639404297,2,10.3.35.51,10.83.46.32,1,0
2015-02-27 16:45:37.115,21,1425084336.887336,37.78782199157441,-122.3968069764392,12.17803,-1,-1,10,65,-9999,1425084337.096906,10.6288948059082,-34.36659240722656,-1.276397705078125,228.8412322998047,215.0679779052734,10,136183.6967471667,0.0897216796875,-0.89544677734375,-0.39813232421875,136183.70314775,0.08282644043033636,-0.09007583123364106,-0.01989274807845588,136183.651368625,0.5389186677854387,0.1544969175150551,1.126098239387141,0.03049983270466328,-0.048161581158638,-0.01066589169204235,0.02807055786252022,0.00297557027079165,-0.0006128952954895794,XTrueNorthZVertical,-0.4955991596129649,-0.2045744397562194,-0.264149763276663,-0.8017204930937418,0.06619823724031448,-0.9027405977249146,-0.4250615537166595,8.878413200378418,-32.17831802368164,-0.226841926574707,2,10.3.35.51,10.83.46.32,1,0
2015-02-27 16:45:37.154,22,1425084336.887336,37.78782199157441,-122.3968069764392,12.17803,-1,-1,10,65,-9999,1425084337.096906,10.6288948059082,-34.36659240722656,-1.276397705078125,228.8412322998047,215.0679779052734,10,136183.745872875,0.08441162109375,-0.908203125,-0.400115966796875,136183.70314775,0.08282644043033636,-0.09007583123364106,-0.01989274807845588,136183.70314775,0.5312869226245778,0.1584915649640074,1.129860061651641,0.07369402796030045,-0.07803510874509811,0.01690740510821342,0.02236245945096016,0.008905696682631969,0.0233050063252449,XTrueNorthZVertical,-0.4974036484510661,-0.2046239110597402,-0.2619377750229134,-0.8013160066056755,0.06735922396183014,-0.9043524861335754,-0.4214373230934143,8.975526809692383,-32.15184783935547,-0.1436386108398438,2,10.3.35.51,10.83.46.32,1,0
2015-02-27 16:45:37.208,23,1425084336.887336,37.78782199157441,-122.3968069764392,12.17803,-1,-1,10,65,-9999,1425084337.154484,11.14041519165039,-34.43455505371094,-0.8436660766601562,228.8615264892578,215.0882720947266,10,136183.7948212917,0.0764312744140625,-0.9066314697265625,-0.3984832763671875,136183.7549265417,0.1156632166710134,-0.03709277397873264,-0.01639628388329084,136183.7549265417,0.5282294378231426,0.1602166332456486,1.135644238434688,0.1065401136875153,-0.02504639513790607,0.02039786241948605,0.01716112904250622,-0.001397184794768691,0.01603358052670956,XTrueNorthZVertical,-0.4998715526556379,-0.2050698839264834,-0.2609263726429826,-0.7999951728027074,0.06725049018859863,-0.9068059325218201,-0.4161495566368103,8.987993240356445,-32.148681640625,-0.01024055480957031,2,10.3.35.51,10.83.46.32,1,0
2015-02-27 16:45:37.248,24,1425084336.887336,37.78782199157441,-122.3968069764392,12.17803,-1,-1,10,65,-9999,1425084337.228478,11.39617538452148,-33.94184875488281,-0.5940093994140625,228.9615020751953,215.1882476806641,10,136183.8439784583,0.0760650634765625,-0.9216461181640625,-0.3828277587890625,136183.8067057084,0.1572825655545537,-0.01339356975422651,-0.004837365804019928,136183.8067057084,0.5244221873483252,0.1636491002279555,1.143861039389579,0.1481687277555466,-0.001341033726930618,0.03194866701960564,0.006268181372433901,0.008658257313072681,0.01197488605976105,XTrueNorthZVertical,-0.5031917756545343,-0.206210160271169,-0.2599615983939123,-0.7979319826722675,0.06746228784322739,-0.910239040851593,-0.4085507988929749,9.008554458618164,-32.14164733886719,0.286778450012207,2,10.3.35.51,10.83.46.32,1,0
2015-02-27 16:45:37.308,25,1425084336.887336,37.78782199157441,-122.3968069764392,12.17803,-1,-1,10,65,-9999,1425084337.304296,10.90169906616211,-34.26467895507812,-0.3443603515625,229.8881988525391,216.1149444580078,10,136183.8929206667,0.0858612060546875,-0.940185546875,-0.378265380859375,136183.8584847917,0.1923723760774377,0.07550141585207343,0.02588219737004408,136183.8584847917,0.5250736981618928,0.1657905453298093,1.154090820992127,0.1832671612501144,0.08755800127983093,0.06266550719738007,0.01010752748697996,-0.01246779412031174,0.01820363290607929,XTrueNorthZVertical,-0.5070378176811344,-0.2081165138354526,-0.2603845392275477,-0.7948585627252353,0.06679677218198776,-0.9144273400306702,-0.3992003500461578,8.957721710205078,-32.15221786499023,0.5621881484985352,2,10.3.35.51,10.83.46.32,1,0
2015-02-27 16:45:37.346,26,1425084336.887336,37.78782199157441,-122.3968069764392,12.17803,-1,-1,10,65,-9999,1425084337.304296,10.90169906616211,-34.26467895507812,-0.3443603515625,229.8881988525391,216.1149444580078,10,136183.9419508333,0.1347198486328125,-0.938629150390625,-0.4383392333984375,136183.9102637917,0.1640904042491232,0.2806361925053889,0.01953109080242312,136183.9102637917,0.5242695570564115,0.1758842383332639,1.166366166875707,0.1549957692623138,0.2926982045173645,0.05630884692072868,0.02153977006673813,-0.0244903638958931,0.004901725798845291,XTrueNorthZVertical,-0.5108180760084892,-0.2129618249042388,-0.262188006677274,-0.7905502377504403,0.06885329633951187,-0.9193267822265625,-0.3874243199825287,8.897261619567871,-32.15924453735352,0.9714689254760742,2,10.3.35.51,10.83.46.32,1,0
2015-02-27 16:45:37.406,27,1425084336.887336,37.78782199157441,-122.3968069764392,12.17803,-1,-1,10,65,-9999,1425084337.356518,10.71414184570312,-34.24769592285156,-0.4941482543945312,229.8524475097656,216.0791931152344,10,136183.9910017083,0.09149169921875,-0.9402618408203125,-0.3909454345703125,136183.9620427917,-0.003455185198268804,-0.04275785024954919,-0.05395910579442247,136183.9620427917,0.520313353547094,0.1910915623272227,1.167631255327763,-0.01260290015488863,-0.03071028180420399,-0.0171497855335474,0.07242629677057266,-0.03163794800639153,-0.06239575147628784,XTrueNorthZVertical,-0.5097582278539056,-0.2180628221947239,-0.2644628469208713,-0.7890846799973145,0.07451584190130234,-0.9198238253593445,-0.3851903080940247,8.894540786743164,-32.14771270751953,1.31663990020752,2,10.3.35.51,10.83.46.32,1,0
2015-02-27 16:45:37.445,28,1425084336.887336,37.78782199157441,-122.3968069764392,12.17803,-1,-1,10,65,-9999,1425084337.408297,10.76530075073242,-33.92486572265625,-0.2112197875976562,229.5647277832031,215.7914733886719,10,136184.0401537917,0.0072479248046875,-0.9451446533203125,-0.36810302734375,136184.0138219167,0.02977174414210481,-0.2486569541357174,-0.001115864496743201,136184.0138219167,0.5208162908253795,0.1784558698019486,1.167877937635033,0.02062283828854561,-0.2366097569465637,0.03569163382053375,-0.0438304990530014,-0.009126031771302223,0.01417367998510599,XTrueNorthZVertical,-0.5114658834201009,-0.2132223237089541,-0.2614272049439768,-0.7903130912371805,0.0696025937795639,-0.9199206233024597,-0.385877788066864,8.942343711853027,-32.13792419433594,1.228939056396484,2,10.3.35.51,10.83.46.32,1,0
2015-02-27 16:45:37.505,29,1425084336.887336,37.78782199157441,-122.3968069764392,12.17803,-1,-1,10,65,-9999,1425084337.460065,10.39018630981445,-33.89088439941406,-0.1779327392578125,228.7758483886719,215.0025939941406,10,136184.0890878333,0.0561676025390625,-0.9295806884765625,-0.392120361328125,136184.06560075,-0.000373907817047125,0.06377844704965363,0.02897039897009997,136184.06560075,0.5272485331677195,0.1704312993531736,1.168121026801647,-0.00952273141592741,0.07582554221153259,0.06577756255865097,-0.03983936831355095,-0.01550046913325787,0.01845141313970089,XTrueNorthZVertical,-0.5119315177426932,-0.211717682340909,-0.2619070196028997,-0.7902572569137353,0.06646595150232315,-0.9200158715248108,-0.3862034976482391,8.866872787475586,-32.16048812866211,1.184707641601562,2,10.3.35.51,10.83.46.32,1,0
2015-02-27 16:45:37.542,30,1425084336.887336,37.78782199157441,-122.3968069764392,12.17803,-1,-1,10,65,-9999,1425084337.512022,10.40723419189453,-33.83992004394531,0.038421630859375,228.8917999267578,215.1185455322266,10,136184.138116875,-0.0333404541015625,-0.8805084228515625,-0.380157470703125,136184.1173798333,0.09578990966851508,0.01826582296852647,0.175508707422838,136184.1173798333,0.544598147030389,0.1579820055985798,1.170880313236029,0.08664117753505707,0.03031279891729355,0.2123155146837234,-0.03491667658090591,0.01778864301741123,-0.01569971069693565,XTrueNorthZVertical,-0.5128594000374374,-0.2114922229595637,-0.2654554360551034,-0.7885301273799852,0.06125334650278091,-0.9210937023162842,-0.3844925463199615,8.661972045898438,-32.21420669555664,1.239751815795898,2,10.3.35.51,10.83.46.32,1,0
2015-02-27 16:45:37.608,31,1425084336.887336,37.78782199157441,-122.3968069764392,12.17803,-1,-1,10,65,-9999,1425084337.563394,10.66299438476562,-33.61904907226562,-0.1779403686523438,230.4306640625,216.6574096679688,10,136184.1871719583,-0.011993408203125,-0.8628082275390625,-0.391754150390625,136184.1691590417,0.1433824625609941,0.2843430464266702,0.3387325190532495,136184.1691590417,0.5820681619542398,0.1298063901587261,1.178761345289944,0.1341988444328308,0.2963880002498627,0.3755708932876587,-0.08569557964801788,0.05819718912243843,-0.005665927659720182,XTrueNorthZVertical,-0.5158799299843841,-0.2108082527009539,-0.2725640193075199,-0.7843065145130736,0.04945595562458038,-0.9241334795951843,-0.3788555562496185,8.26935863494873,-32.31005859375,1.414069175720215,2,10.3.35.51,10.83.46.32,1,0
2015-02-27 16:45:37.642,32,1425084336.887336,37.78782199157441,-122.3968069764392,12.17803,-1,-1,10,65,-9999,1425084337.619558,9.980953216552734,-33.75497436523438,0.4545211791992188,228.6452789306641,214.8720245361328,10,136184.2361992083,0.0413818359375,-0.8558807373046875,-0.4414215087890625,136184.2209379583,0.2424435329964535,0.5724627215951817,0.5367803577297551,136184.1691590417,0.5820681619542398,0.1298063901587261,1.178761345289944,0.1341988444328308,0.2963880002498627,0.3755708932876587,-0.08569557964801788,0.05819718912243843,-0.005665927659720182,XTrueNorthZVertical,-0.5158799299843841,-0.2108082527009539,-0.2725640193075199,-0.7843065145130736,0.04945595562458038,-0.9241334795951843,-0.3788555562496185,8.26935863494873,-32.31005859375,1.414069175720215,2,10.3.35.51,10.83.46.32,1,0
2015-02-27 16:45:37.710,33,1425084336.887336,37.78782199157441,-122.3968069764392,12.17803,-1,-1,10,65,-9999,1425084337.703281,8.173572540283203,-34.29869079589844,1.020401000976562,224.1769409179688,210.4036865234375,10,136184.2852578333,0.0864410400390625,-0.93170166015625,-0.48162841796875,136184.272717,0.2753476872127095,0.8333606293653394,0.7295181195087517,136184.272717,0.7359847211748769,0.04620626126314167,1.206280102674056,0.2661615312099457,0.8454039096832275,0.7663576006889343,0.02604443207383156,0.03100654110312462,-0.08989741653203964,XTrueNorthZVertical,-0.5222705551266567,-0.2217543119204742,-0.3084166525599407,-0.7635035924685156,0.01646655425429344,-0.9342963099479675,-0.3561169803142548,8.761082649230957,-34.3334846496582,0.3384122848510742,2,10.3.35.51,10.83.46.32,1,0
2015-02-27 16:45:37.738,34,1425084336.887336,37.78782199157441,-122.3968069764392,12.17803,-1,-1,10,65,-9999,1425084337.703281,8.173572540283203,-34.29869079589844,1.020401000976562,224.1769409179688,210.4036865234375,10,136184.3342957083,0.1606597900390625,-0.8892974853515625,-0.4663848876953125,136184.324496125,0.2134451708349077,0.5338269120808572,0.9341279871112125,136184.272717,0.7359847211748769,0.04620626126314167,1.206280102674056,0.2661615312099457,0.8454039096832275,0.7663576006889343,0.02604443207383156,0.03100654110312462,-0.08989741653203964,XTrueNorthZVertical,-0.5222705551266567,-0.2217543119204742,-0.3084166525599407,-0.7635035924685156,0.01646655425429344,-0.9342963099479675,-0.3561169803142548,8.761082649230957,-34.3334846496582,0.3384122848510742,2,10.3.35.51,10.83.46.32,1,0
2015-02-27 16:45:37.801,35,1425084336.887336,37.78782199157441,-122.3968069764392,12.17803,-1,-1,10,65,-9999,1425084337.770261,5.752372741699219,-34.36663818359375,1.386550903320312,219.2255401611328,205.4522857666016,10,136184.3833699167,0.142730712890625,-0.8820953369140625,-0.4358062744140625,136184.3762749167,0.08651252169511504,0.6270748344888917,1.164411260254255,136184.324496125,0.8559238483921887,-0.02944436555632398,1.218820586150236,0.2042589336633682,0.5458700656890869,0.9709669351577759,0.1720453202724457,0.01770341210067272,-0.1257636249065399,XTrueNorthZVertical,-0.5257161112871402,-0.2265406576315828,-0.3326049428475401,-0.7494504170808096,-0.01014957390725613,-0.9386934041976929,-0.3446038067340851,7.503596305847168,-34.61650085449219,1.026192665100098,2,10.3.35.51,10.83.46.32,1,0
2015-02-27 16:45:37.841,36,1425084336.887336,37.78782199157441,-122.3968069764392,12.17803,-1,-1,10,65,-9999,1425084337.822327,3.740379333496094,-34.1287841796875,1.819282531738281,214.3951568603516,200.6219024658203,10,136184.4324113333,0.0916748046875,-0.848968505859375,-0.4476318359375,136184.42805425,0.03330655785696698,0.2844418497031121,1.096094520390998,136184.3762749167,1.02354218392423,-0.1570299246641878,1.221052902457762,0.07732638716697693,0.6391178965568542,1.201249837875366,0.1923652142286301,0.06577291339635849,-0.0937795490026474,XTrueNorthZVertical,-0.5297790005899012,-0.2238610190203185,-0.3608107606031494,-0.734190795792459,-0.05358652770519257,-0.9394606351852417,-0.3384408950805664,5.833571434020996,-34.91944885253906,1.503581047058105,2,10.3.35.51,10.83.46.32,1,0
2015-02-27 16:45:37.904,37,1425084336.887336,37.78782199157441,-122.3968069764392,12.17803,-1,-1,10,65,-9999,1425084337.875567,1.643135070800781,-34.51954650878906,2.135505676269531,209.9838409423828,196.2105865478516,10,136184.4814712083,0.001617431640625,-0.8824920654296875,-0.4593353271484375,136184.47983325,0.12865677962951,-0.05608883571815883,0.9662971088666067,136184.47983325,1.330764736422874,-0.4153221873259703,1.194081583070002,0.1194708123803139,-0.04404602572321892,1.003134965896606,0.176978200674057,0.04329676926136017,-0.1231991499662399,XTrueNorthZVertical,-0.5380310209778524,-0.2054888110750068,-0.4084059382477476,-0.7081678003755357,-0.1484290063381195,-0.9298781752586365,-0.3365939259529114,1.519529819488525,-35.35400390625,1.856001853942871,2,10.3.35.51,10.83.46.32,1,0
2015-02-27 16:45:37.938,38,1425084336.887336,37.78782199157441,-122.3968069764392,12.17803,-1,-1,10,65,-9999,1425084337.92734,-0.420013427734375,-34.3326416015625,2.185432434082031,205.6370391845703,191.8637847900391,10,136184.5305077917,-0.1084747314453125,-0.9028778076171875,-0.4086761474609375,136184.47983325,0.12865677962951,-0.05608883571815883,0.9662971088666067,136184.47983325,1.330764736422874,-0.4153221873259703,1.194081583070002,0.1194708123803139,-0.04404602572321892,1.003134965896606,0.176978200674057,0.04329676926136017,-0.1231991499662399,XTrueNorthZVertical,-0.5380310209778524,-0.2054888110750068,-0.4084059382477476,-0.7081678003755357,-0.1484290063381195,-0.9298781752586365,-0.3365939259529114,1.519529819488525,-35.35400390625,1.856001853942871,2,10.3.35.51,10.83.46.32,1,0
2015-02-27 16:45:38.009,39,1425084336.887336,37.78782199157441,-122.3968069764392,12.17803,-1,-1,10,65,-9999,1425084337.978271,-2.312644958496094,-34.28167724609375,2.102226257324219,202.5344390869141,188.7611846923828,10,136184.5795680417,-0.0293426513671875,-0.878814697265625,-0.4598388671875,136184.58339125,0.1902077587434213,0.06696172350062535,0.4211983674719891,136184.5316120833,1.447021809319131,-0.5294028515864515,1.181217211074508,0.1781203746795654,-0.01894826255738735,0.7589769959449768,0.08333072811365128,0.02219118550419807,-0.08086808770895004,XTrueNorthZVertical,-0.5466862014280374,-0.1929512047283054,-0.4215322410474281,-0.6972909539179821,-0.1918054670095444,-0.9250689744949341,-0.3278080523014069,-0.0150446891784668,-35.37410736083984,2.081277847290039,2,10.3.35.51,10.83.46.32,1,0
2015-02-27 16:45:38.040,40,1425084336.887336,37.78782199157441,-122.3968069764392,12.17803,-1,-1,10,65,-9999,1425084338.029562,-3.591453552246094,-33.95884704589844,2.485023498535156,198.8052368164062,185.031982421875,10,136184.6286133333,-0.0030975341796875,-0.9212493896484375,-0.4356536865234375,136184.58339125,0.1902077587434213,0.06696172350062535,0.4211983674719891,136184.58339125,1.523049620073237,-0.5938011013107366,1.172725228144717,0.1810220032930374,0.07900428026914597,0.4580354392528534,0.1875485479831696,0.04299573227763176,-0.1385542005300522,XTrueNorthZVertical,-0.5511242091893318,-0.188732010758889,-0.432448062999916,-0.6882086034511619,-0.2168911993503571,-0.9218104481697083,-0.321284681558609,-1.460584163665771,-35.32147216796875,2.433012962341309,2,10.3.35.51,10.83.46.32,1,0
2015-02-27 16:45:38.113,41,1425084336.887336,37.78782199157441,-122.3968069764392,12.17803,-1,-1,10,65,-9999,1425084338.081054,-4.256431579589844,-33.77195739746094,2.901123046875,197.2401580810547,183.4669036865234,10,136184.6776838333,-0.0554046630859375,-1.094589233398438,-0.281402587890625,136184.6351705,0.2312731701202252,-0.429999848558592,0.3284740225342642,136184.6351705,1.580255351841821,-0.6568258625171931,1.169300648122422,0.222087487578392,-0.4179573953151703,0.3653107583522797,0.2355247288942337,-0.0007718703709542751,-0.1261691749095917,XTrueNorthZVertical,-0.5587363690111289,-0.1818554849118006,-0.4355019122650252,-0.6819680431380176,-0.2386222630739212,-0.9204775094985962,-0.3094845116138458,-2.127611637115479,-35.26426696777344,2.750263214111328,2,10.3.35.51,10.83.46.32,1,0
2015-02-27 16:45:38.131,42,1425084336.887336,37.78782199157441,-122.3968069764392,12.17803,-1,-1,10,65,-9999,1425084338.081054,-4.256431579589844,-33.77195739746094,2.901123046875,197.2401580810547,183.4669036865234,10,136184.7268365417,-0.2174835205078125,-1.159515380859375,-0.219635009765625,136184.68694925,0.009510947200999983,-0.9102844395556241,0.3997109185327938,136184.68694925,1.62993548481489,-0.7360140704345512,1.161626182447272,0.0003253539325669408,-0.8982421159744263,0.4365472793579102,0.2116864174604416,-0.1771379411220551,0.01346277818083763,XTrueNorthZVertical,-0.5700192974227781,-0.1662688106892471,-0.4322445502681183,-0.6786732695615585,-0.2670910656452179,-0.9174513220787048,-0.2948653697967529,-2.664829254150391,-35.19699478149414,3.119253158569336,2,10.3.35.51,10.83.46.32,1,0
2015-02-27 16:45:38.207,43,1425084336.887336,37.78782199157441,-122.3968069764392,12.17803,-1,-1,10,65,-9999,1425084338.138028,-4.870262145996094,-33.19425964355469,3.633438110351562,195.9809112548828,182.2076568603516,10,136184.775807375,-0.380859375,-1.113235473632812,-0.112640380859375,136184.738728375,-0.1618355057541532,-1.427907614300003,0.1941311276613261,136184.738728375,1.651628688230022,-0.813287388482276,1.144241624708334,-0.1710209995508194,-1.415865421295166,0.2309670746326447,0.04162827134132385,-0.2638282477855682,0.06774675101041794,XTrueNorthZVertical,-0.5815777949390051,-0.1400898101706829,-0.4224579608735134,-0.680934255057754,-0.3006004393100739,-0.9103965759277344,-0.284284234046936,-3.330368518829346,-35.1353874206543,3.173720359802246,2,10.3.35.51,10.83.46.32,1,0
2015-02-27 16:45:38.229,44,1425084336.887336,37.78782199157441,-122.3968069764392,12.17803,-1,-1,10,65,-9999,1425084338.210613,-4.682693481445312,-33.6190185546875,4.149383544921875,200.2626190185547,186.4893646240234,10,136184.82499175,-0.453155517578125,-1.0228271484375,-0.09234619140625,136184.7905075417,-0.32933954988854,-1.757458619179096,0.1269121427993991,136184.7905075417,1.637506023944922,-0.8868919842414802,1.131008188643516,-0.3385249376296997,-1.745416522026062,0.1637477427721024,-0.08709678798913956,-0.1879468113183975,0.1571356207132339,XTrueNorthZVertical,-0.5952013675837422,-0.1060020395015564,-0.3999069394803153,-0.6888928902954941,-0.3300022184848785,-0.9048418998718262,-0.2689977884292603,-3.330552101135254,-35.1444091796875,3.071991920471191,2,10.3.35.51,10.83.46.32,1,0
2015-02-27 16:45:38.312,45,1425084336.887336,37.78782199157441,-122.3968069764392,12.17803,-1,-1,10,65,-9999,1425084338.26253,-4.580390930175781,-34.09478759765625,3.816513061523438,203.5977630615234,189.8245086669922,10,136184.873935375,-0.4327392578125,-0.7722015380859375,-0.0650787353515625,136184.842286625,-0.2619317469053264,-1.117205930984274,0.2965560368696646,136184.842286625,1.626832293383617,-0.9463876767719641,1.110925736215811,-0.2711170613765717,-1.105164051055908,0.3333912789821625,-0.06906833499670029,-0.0843130350112915,0.1787379086017609,XTrueNorthZVertical,-0.6038467891548008,-0.07505314861862754,-0.3844448398337098,-0.6942177757241164,-0.3600850999355316,-0.896109938621521,-0.2594721615314484,-3.44098949432373,-35.15766525268555,2.785209655761719,2,10.3.35.51,10.83.46.32,1,0
2015-02-27 16:45:38.328,46,1425084336.887336,37.78782199157441,-122.3968069764392,12.17803,-1,-1,10,65,-9999,1425084338.314053,-4.512191772460938,-33.92488098144531,3.650077819824219,206.4730682373047,192.6998138427734,10,136184.923103,-0.467193603515625,-0.6725921630859375,0.0232696533203125,136184.8940655833,-0.2275743056822141,-0.8906244517564411,0.5133988686232954,136184.8940655833,1.634047302841166,-1.00060955985962,1.085772385653734,-0.2367595136165619,-0.8785826563835144,0.5502337217330933,-0.07194429636001587,0.1754047572612762,0.2248255610466003,XTrueNorthZVertical,-0.6096936755373864,-0.04940380743212777,-0.3781646921755815,-0.6948556873976834,-0.3924722075462341,-0.8846637606620789,-0.2516657710075378,-4.091843605041504,-35.10968399047852,2.495266914367676,2,10.3.35.51,10.83.46.32,1,0
2015-02-27 16:45:38.403,47,1425084336.887336,37.78782199157441,-122.3968069764392,12.17803,-1,-1,10,65,-9999,1425084338.369314,-4.631546020507812,-34.17976379394531,3.666709899902344,208.2447814941406,194.4715270996094,10,136184.9720409167,-0.441436767578125,-0.7047882080078125,0.0465545654296875,136184.9458449167,-0.3535623315833557,-0.7858732713359184,0.3923289023072031,136184.9458449167,1.635191283303611,-1.041866325593551,1.055860850682747,-0.362747460603714,-0.7738316059112549,0.4291633665561676,-0.0353756844997406,0.1832670122385025,0.2956593036651611,XTrueNorthZVertical,-0.6124836248639098,-0.02467753601786465,-0.3751125562342562,-0.6953743405830364,-0.4251803457736969,-0.8703244924545288,-0.2485096603631973,-4.859458923339844,-35.02936553955078,2.233540058135986,2,10.3.35.51,10.83.46.32,1,0
2015-02-27 16:45:38.424,48,1425084336.887336,37.78782199157441,-122.3968069764392,12.17803,-1,-1,10,65,-9999,1425084338.369314,-4.631546020507812,-34.17976379394531,3.666709899902344,208.2447814941406,194.4715270996094,10,136185.0210796667,-0.3888702392578125,-0.5429534912109375,-0.0729522705078125,136184.997623625,-0.2258102277761456,-0.4083334351941433,0.2003107266547459,136184.997623625,1.623893302855326,-1.063088471503781,1.034114953221674,-0.2350483536720276,-0.396215945482254,0.2371842414140701,0.02728385478258133,0.2164048105478287,0.2631930708885193,XTrueNorthZVertical,-0.6129242003966798,-0.006029052153080144,-0.3713373688839746,-0.6974211127179843,-0.4467937350273132,-0.8594101667404175,-0.2485751509666443,-5.409758567810059,-34.9708251953125,1.853427886962891,2,10.3.35.51,10.83.46.32,1,0
2015-02-27 16:45:38.498,49,1425084336.887336,37.78782199157441,-122.3968069764392,12.17803,-1,-1,10,65,-9999,1425084338.444829,-5.296516418457031,-34.09481811523438,3.450347900390625,208.3638916015625,194.5906372070312,10,136185.0701642917,-0.277862548828125,-0.926177978515625,-0.3644866943359375,136185.0494029583,-0.19506962562947,0.7695464959570787,0.02618127036045998,136185.0494029583,1.6113832489098,-1.045212826707948,1.022089923586371,-0.2043076455593109,0.7816638350486755,0.06305442005395889,0.06846562027931213,0.242253303527832,0.02345255948603153,XTrueNorthZVertical,-0.6075678747686526,-0.004154622243553853,-0.3760892429815763,-0.6995719926304226,-0.4511865675449371,-0.8531999588012695,-0.2616880238056183,-5.804225921630859,-34.92876815795898,1.396939277648926,2,10.3.35.51,10.83.46.32,1,0
2015-02-27 16:45:38.524,50,1425084336.887336,37.78782199157441,-122.3968069764392,12.17803,-1,-1,10,65,-9999,1425084338.496317,-5.739852905273438,-33.41519165039062,2.851188659667969,207.4268188476562,193.653564453125,10,136185.1193335,-0.0437469482421875,-0.9098968505859375,-0.5122833251953125,136185.1011819583,-0.09057330972526786,0.7476286801857265,-0.0248273192622637,136185.1011819583,1.599909326456727,-0.9814401604914427,1.019645328723329,-0.09981123358011246,0.7597458958625793,0.01204542722553015,0.3954229950904846,-0.05306117609143257,-0.2127005457878113,XTrueNorthZVertical,-0.5949574225122135,-0.02216924266643194,-0.3919787824566653,-0.7013464900298925,-0.4353247284889221,-0.851922333240509,-0.2910683751106262,-5.853085517883301,-34.93735504150391,0.8843593597412109,2,10.3.35.51,10.83.46.32,1,0
2015-02-27 16:45:38.597,51,1425084336.887336,37.78782199157441,-122.3968069764392,12.17803,-1,-1,10,65,-9999,1425084338.548118,-5.449981689453125,-33.63606262207031,2.668106079101562,205.9999542236328,192.2266998291016,10,136185.1682728333,-0.080108642578125,-1.002639770507812,-0.4758758544921875,136185.1529607917,0.1051522524806886,-0.5557854742168875,-0.3200946524804389,136185.1529607917,1.596531825661081,-0.9820076550550079,1.023744424929876,0.09591441601514816,-0.5436683893203735,-0.2832222580909729,0.3201400935649872,-0.1158021464943886,-0.1915282160043716,XTrueNorthZVertical,-0.595866939734406,-0.02242417335058968,-0.3894037640234809,-0.7020003775224637,-0.4325821101665497,-0.8540617227554321,-0.2888794839382172,-5.862175941467285,-34.9403190612793,0.6844301223754883,2,10.3.35.51,10.83.46.32,1,0
2015-02-27 16:45:38.621,52,1425084336.887336,37.78782199157441,-122.3968069764392,12.17803,-1,-1,10,65,-9999,1425084338.603748,-5.364730834960938,-33.85693359375,2.584884643554688,206.5581665039062,192.784912109375,10,136185.2174127083,-0.11834716796875,-0.79412841796875,-0.370758056640625,136185.204740125,0.1690699828553534,-1.348974182751145,-0.155846589094783,136185.1529607917,1.596531825661081,-0.9820076550550079,1.023744424929876,0.09591441601514816,-0.5436683893203735,-0.2832222580909729,0.3201400935649872,-0.1158021464943886,-0.1915282160043716,XTrueNorthZVertical,-0.595866939734406,-0.02242417335058968,-0.3894037640234809,-0.7020003775224637,-0.4325821101665497,-0.8540617227554321,-0.2888794839382172,-5.862175941467285,-34.9403190612793,0.6844301223754883,2,10.3.35.51,10.83.46.32,1,0
2015-02-27 16:45:38.696,53,1425084336.887336,37.78782199157441,-122.3968069764392,12.17803,-1,-1,10,65,-9999,1425084338.677667,-4.409889221191406,-34.26472473144531,2.784599304199219,211.5788421630859,197.8055877685547,10,136185.2663733333,-0.281219482421875,-0.494415283203125,-0.2839813232421875,136185.2565192917,-0.1896692675710073,-1.488171753975188,0.2666487378280747,136185.2565192917,1.597081694106509,-1.107444527659947,1.032948570447202,-0.1989069283008575,-1.476054787635803,0.3035204112529755,0.2320308238267899,0.2247190028429031,-0.05170314759016037,XTrueNorthZVertical,-0.6206336105605983,0.01817726627350067,-0.3486344759202527,-0.7020951399414389,-0.4582728743553162,-0.8588132262229919,-0.228967010974884,-5.172114372253418,-35.01874923706055,1.611103057861328,2,10.3.35.51,10.83.46.32,1,0
2015-02-27 16:45:38.719,54,1425084336.887336,37.78782199157441,-122.3968069764392,12.17803,-1,-1,10,65,-9999,1425084338.677667,-4.409889221191406,-34.26472473144531,2.784599304199219,211.5788421630859,197.8055877685547,10,136185.31541525,-0.1702880859375,-0.4630279541015625,-0.231353759765625,136185.3082982083,-0.3793329425037255,-1.19132676412725,0.374477200888184,136185.2565192917,1.597081694106509,-1.107444527659947,1.032948570447202,-0.1989069283008575,-1.476054787635803,0.3035204112529755,0.2320308238267899,0.2247190028429031,-0.05170314759016037,XTrueNorthZVertical,-0.6206336105605983,0.01817726627350067,-0.3486344759202527,-0.7020951399414389,-0.4582728743553162,-0.8588132262229919,-0.228967010974884,-5.172114372253418,-35.01874923706055,1.611103057861328,2,10.3.35.51,10.83.46.32,1,0
2015-02-27 16:45:38.805,55,1425084336.887336,37.78782199157441,-122.3968069764392,12.17803,-1,-1,10,65,-9999,1425084338.780913,-3.915412902832031,-34.34965515136719,2.501655578613281,217.0901336669922,203.3168792724609,10,136185.3644907917,-0.1169586181640625,-0.5365447998046875,-0.145050048828125,136185.3600772083,-0.372629766039996,-1.487573874310465,0.3293456751590472,136185.3082982083,1.585535871832559,-1.158980846385895,1.009536238880589,-0.3885704874992371,-1.17920994758606,0.4113484919071198,0.2921523749828339,0.395733654499054,-0.03214640915393829,XTrueNorthZVertical,-0.6254240046481037,0.0481796531566729,-0.3358083677394941,-0.7026779849148597,-0.4877547919750214,-0.8465850949287415,-0.2130470722913742,-5.585698127746582,-34.95719909667969,1.566317081451416,2,10.3.35.51,10.83.46.32,1,0
2015-02-27 16:45:38.818,56,1425084336.887336,37.78782199157441,-122.3968069764392,12.17803,-1,-1,10,65,-9999,1425084338.780913,-3.915412902832031,-34.34965515136719,2.501655578613281,217.0901336669922,203.3168792724609,10,136185.4135367917,-0.357269287109375,-0.8123016357421875,-0.0099945068359375,136185.4118564167,-0.2639413682639002,-1.813931482726444,0.05972058849669989,136185.3600772083,1.564812914842147,-1.206499946382917,0.9832045566294134,-0.3818672299385071,-1.475457191467285,0.3662165999412537,0.4001348614692688,0.3143490254878998,0.03427491337060928,XTrueNorthZVertical,-0.628280803652136,0.08066295971733918,-0.3218769394816631,-0.7036703982817675,-0.5179784893989563,-0.8322781324386597,-0.1975134313106537,-6.33672046661377,-34.84420394897461,1.177647113800049,2,10.3.35.51,10.83.46.32,1,0
2015-02-27 16:45:38.898,57,1425084336.887336,37.78782199157441,-122.3968069764392,12.17803,-1,-1,10,65,-9999,1425084338.838022,-3.830146789550781,-34.46858215332031,2.152130126953125,219.9167633056641,206.1435089111328,10,136185.4626085,-0.78021240234375,-0.83154296875,0.2053375244140625,136185.4636353333,-0.4489466418178517,-1.107347441261018,-0.1571680496276803,136185.4118564167,1.539698613205603,-1.273372236673053,0.9683241434377177,-0.27317875623703,-1.801814913749695,0.09659115970134735,0.2577584981918335,0.07967449724674225,0.08312389999628067,XTrueNorthZVertical,-0.6349808196373464,0.1173201575580434,-0.2966302969936653,-0.7035949695136603,-0.541800856590271,-0.8239371776580811,-0.1660706847906113,-6.659497261047363,-34.78770446777344,1.061168670654297,2,10.3.35.51,10.83.46.32,1,0
2015-02-27 16:45:38.916,58,1425084336.887336,37.78782199157441,-122.3968069764392,12.17803,-1,-1,10,65,-9999,1425084338.911258,-2.994667053222656,-33.94184875488281,0.9704437255859375,227.0411071777344,213.2678527832031,10,136185.5116480833,-0.95068359375,-0.575531005859375,-0.0086517333984375,136185.4636353333,-0.4489466418178517,-1.107347441261018,-0.1571680496276803,136185.4636353333,1.513909027126353,-1.321385331594275,0.9631760443942645,-0.4581839144229889,-1.095231175422668,-0.1202978789806366,-0.2269622534513474,-0.01053400989621878,0.3462584316730499,XTrueNorthZVertical,-0.6393299406991387,0.1442108883541775,-0.2739106887277123,-0.703870340405592,-0.5532501339912415,-0.8210089802742004,-0.1409208923578262,-6.724095344543457,-34.77300262451172,1.133239269256592,2,10.3.35.51,10.83.46.32,1,0
2015-02-27 16:45:39.007,59,1425084336.887336,37.78782199157441,-122.3968069764392,12.17803,-1,-1,10,65,-9999,1425084338.961654,-1.903427124023438,-33.46614074707031,0.7041473388671875,230.1031036376953,216.3298492431641,10,136185.5607214167,-0.90869140625,-1.076950073242188,0.1475830078125,136185.567193625,-0.02983938843379283,-2.778840285716792,-0.3615885664766365,136185.5154146667,1.486023310791371,-1.349557029250977,0.9684285694635747,-0.1017002761363983,-1.363555312156677,-0.2841902375221252,-0.3978984355926514,0.248465359210968,0.1156812831759453,XTrueNorthZVertical,-0.641735582803966,0.1612728529978303,-0.2533539107190765,-0.7056758317165069,-0.5527851581573486,-0.823996365070343,-0.1243330165743828,-6.378111839294434,-34.84732818603516,0.8016953468322754,2,10.3.35.51,10.83.46.32,1,0
2015-02-27 16:45:39.015,60,1425084336.887336,37.78782199157441,-122.3968069764392,12.17803,-1,-1,10,65,-9999,1425084338.961654,-1.903427124023438,-33.46614074707031,0.7041473388671875,230.1031036376953,216.3298492431641,10,136185.6098666667,-0.95172119140625,-0.9041900634765625,0.3184967041015625,136185.567193625,-0.02983938843379283,-2.778840285716792,-0.3615885664766365,136185.567193625,1.466266495807856,-1.453505176496691,0.9906513436885376,-0.03907648846507072,-2.766724109649658,-0.324719101190567,-0.3643122315406799,-0.2405668795108795,0.2117282897233963,XTrueNorthZVertical,-0.6551668207841708,0.1966819647508047,-0.2053285432635903,-0.6999377871659854,-0.5443791747093201,-0.8363831639289856,-0.0641452819108963,-5.562145233154297,-34.9783935546875,1.110835790634155,2,10.3.35.51,10.83.46.32,1,0
2015-02-27 16:45:39.105,61,1425084336.887336,37.78782199157441,-122.3968069764392,12.17803,-1,-1,10,65,-9999,1425084339.068794,0.568939208984375,-33.44915771484375,0.4544906616210938,242.8952178955078,229.1219635009766,10,136185.6588255833,-0.72393798828125,-0.8988800048828125,0.2437286376953125,136185.6189727084,-0.153898220441281,-1.577725339319065,-0.3855716636733451,136185.6189727084,1.450840295438049,-1.558437110518532,1.001818322875113,-0.1631352305412292,-1.565609216690063,-0.3487025499343872,-0.4129908680915833,-0.0617380253970623,0.3251553177833557,XTrueNorthZVertical,-0.6645826668704716,0.2345219968325058,-0.1615328971709911,-0.6908230670184742,-0.5387303233146667,-0.8424520492553711,-0.006658623926341534,-4.989583969116211,-35.04686737060547,1.574949979782104,2,10.3.35.51,10.83.46.32,1,0
2015-02-27 16:45:39.112,62,1425084336.887336,37.78782199157441,-122.3968069764392,12.17803,-1,-1,10,65,-9999,1425084339.068794,0.568939208984375,-33.44915771484375,0.4544906616210938,242.8952178955078,229.1219635009766,10,136185.707973875,-0.5267486572265625,-0.9499969482421875,0.089508056640625,136185.67075175,0.1451500025764797,-0.05953656406537542,-0.2262749493863645,136185.67075175,1.459677969481924,-1.600601190504083,1.020618266312052,0.1359131038188934,-0.0474206805229187,-0.1894062608480453,-0.144431009888649,-0.02856526523828506,0.1449416130781174,XTrueNorthZVertical,-0.6710247094565951,0.2398254799355798,-0.1440037037732065,-0.6866386143148369,-0.5226069688796997,-0.8524314165115356,0.01558084320276976,-4.106850624084473,-35.14640045166016,1.87716817855835,2,10.3.35.51,10.83.46.32,1,0
2015-02-27 16:45:39.196,63,1425084336.887336,37.78782199157441,-122.3968069764392,12.17803,-1,-1,10,65,-9999,1425084339.144305,1.847755432128906,-33.26226806640625,-0.2611770629882812,248.0349731445312,234.26171875,10,136185.7569379583,-0.507049560546875,-0.9387054443359375,0.249969482421875,136185.7225309167,0.03702779284813471,-0.6262668314141616,0.04265345433481809,136185.7225309167,1.475678188272522,-1.623722337350783,1.020032474462579,0.0277909766882658,-0.6141510605812073,0.0795217752456665,0.01612063311040401,-0.1371785700321198,0.1248263120651245,XTrueNorthZVertical,-0.6745447196929784,0.2425532188547953,-0.1419064738907262,-0.682656564255878,-0.5226055979728699,-0.8521249890327454,0.02768528647720814,-3.990530967712402,-35.14244079589844,2.178049564361572,2,10.3.35.51,10.83.46.32,1,0
2015-02-27 16:45:39.209,64,1425084336.887336,37.78782199157441,-122.3968069764392,12.17803,-1,-1,10,65,-9999,1425084339.19587,1.898910522460938,-33.44917297363281,-0.9768600463867188,251.0420379638672,237.2687835693359,10,136185.80597075,-0.6218719482421875,-0.875762939453125,0.2257537841796875,136185.774309875,-0.4723275982920934,-1.291472806390808,-0.07052263619417029,136185.774309875,1.4431002898717,-1.652246213581254,1.018331010160533,-0.4815643131732941,-1.279357194900513,-0.03365464881062508,-0.03824680671095848,-0.0461665578186512,0.1865361481904984,XTrueNorthZVertical,-0.6721249214547325,0.2638113145979417,-0.121788481680668,-0.6810428186800982,-0.5230477452278137,-0.8512333631515503,0.04269663989543915,-4.037931442260742,-35.14059448242188,2.119706153869629,2,10.3.35.51,10.83.46.32,1,0
2015-02-27 16:45:39.297,65,1425084336.887336,37.78782199157441,-122.3968069764392,12.17803,-1,-1,10,65,-9999,1425084339.248144,2.171722412109375,-33.41517639160156,-1.409599304199219,254.3144683837891,240.5412139892578,10,136185.8550429583,-0.498565673828125,-0.822052001953125,0.17889404296875,136185.8260892083,-0.07928283828387693,-0.3256542675720883,-0.3671622963220633,136185.8260892083,1.420424391596362,-1.671997208678067,1.031119700653718,-0.08851946145296097,-0.3135387599468231,-0.3302946984767914,-0.07896507531404495,-0.005711531266570091,0.2365226447582245,XTrueNorthZVertical,-0.6715010964133488,0.2739404991560225,-0.1029405022764925,-0.6807688361882633,-0.5112296342849731,-0.857874870300293,0.05191423743963242,-3.64296817779541,-35.21104431152344,1.603252291679382,2,10.3.35.51,10.83.46.32,1,0
2015-02-27 16:45:39.310,66,1425084336.887336,37.78782199157441,-122.3968069764392,12.17803,-1,-1,10,65,-9999,1425084339.300912,2.188766479492188,-32.92242431640625,-2.158546447753906,260.6294555664062,246.8562164306641,10,136185.9040788334,-0.4609832763671875,-0.9280548095703125,0.1988677978515625,136185.8778682083,-0.06178906571536444,0.05811283814661906,-0.04049895701294398,136185.8778682083,1.412821736400199,-1.661956258307252,1.040154896921557,-0.07102560251951218,0.07022823393344879,-0.003631741972640157,0.0797758623957634,-0.01732388883829117,0.06507404893636703,XTrueNorthZVertical,-0.6708836021461311,0.2700938295875029,-0.1005327014115553,-0.6832699074548237,-0.5039854645729065,-0.8624826073646545,0.04607097059488297,-3.237296104431152,-35.25734710693359,1.448736310005188,2,10.3.35.51,10.83.46.32,1,0
2015-02-27 16:45:39.395,67,1425084336.887336,37.78782199157441,-122.3968069764392,12.17803,-1,-1,10,65,-9999,1425084339.351217,2.734390258789062,-32.85447692871094,-2.424842834472656,262.3882751464844,248.6150207519531,10,136185.9531458333,-0.5036468505859375,-0.8719482421875,0.1639404296875,136185.92964725,-0.3905019737994088,-0.5981747429715698,0.1087648304993811,136185.92964725,1.38828677437095,-1.662145837974165,1.037590527544164,-0.3997334539890289,-0.5860618352890015,0.145635649561882,0.009992250241339207,-0.04145166650414467,0.1629672050476074,XTrueNorthZVertical,-0.6672526386151516,0.2792095564863283,-0.09298645580726299,-0.6842291529600809,-0.506177544593811,-0.8611819744110107,0.04636812210083008,-3.261819839477539,-35.26300048828125,1.24127209186554,2,10.3.35.51,10.83.46.32,1,0
2015-02-27 16:45:39.406,68,1425084336.887336,37.78782199157441,-122.3968069764392,12.17803,-1,-1,10,65,-9999,1425084339.351217,2.734390258789062,-32.85447692871094,-2.424842834472656,262.3882751464844,248.6150207519531,10,136186.0021840833,-0.553436279296875,-0.842926025390625,0.17816162109375,136185.9814263333,-0.1305952945869787,-0.3343968927986005,-0.009672334763058786,136185.9814263333,1.376212436974574,-1.674446467572276,1.034171807648976,-0.1397628933191299,-0.3222732245922089,0.02727667056024075,0.0008191249798983335,-0.08056319504976273,0.1251139640808105,XTrueNorthZVertical,-0.6657198684475046,0.2885560414329527,-0.08597093058115428,-0.6827602373439973,-0.5084943175315857,-0.8594392538070679,0.05289506539702415,-3.436836242675781,-35.25510406494141,0.9618360996246338,2,10.3.35.51,10.83.46.32,1,0
2015-02-27 16:45:39.466,69,1425084336.887336,37.78782199157441,-122.3968069764392,12.17803,-1,-1,10,65,-9999,1425084339.406858,2.819656372070312,-32.93942260742188,-3.306953430175781,265.5590515136719,251.7857971191406,10,136186.0512590417,-0.4211273193359375,-0.8414764404296875,0.0785064697265625,136186.0332056667,0.2087984873649375,0.1971005522767644,-0.01024358281688078,136186.0332056667,1.390046399140266,-1.695330787910673,1.029256604221958,0.1996422708034515,0.2092112004756927,0.02673823013901711,-0.05739864334464073,0.07488784193992615,0.02944908104836941,XTrueNorthZVertical,-0.6681060107251861,0.2926559224043442,-0.08545916926453774,-0.6787368229287363,-0.5114642977714539,-0.8569160103797913,0.06402625888586044,-3.556018829345703,-35.23807525634766,1.136747121810913,2,10.3.35.51,10.83.46.32,1,0
2015-02-27 16:45:39.504,70,1425084336.887336,37.78782199157441,-122.3968069764392,12.17803,-1,-1,10,65,-9999,1425084339.48034,3.058372497558594,-33.10935974121094,-3.706405639648438,266.4035949707031,252.6303558349609,10,136186.1003102917,-0.4762725830078125,-0.8741302490234375,0.15667724609375,136186.0849844167,-0.09055892865538144,-0.2379153601949918,0.1541765207751943,136186.0332056667,1.390046399140266,-1.695330787910673,1.029256604221958,0.1996422708034515,0.2092112004756927,0.02673823013901711,-0.05739864334464073,0.07488784193992615,0.02944908104836941,XTrueNorthZVertical,-0.6681060107251861,0.2926559224043442,-0.08545916926453774,-0.6787368229287363,-0.5114642977714539,-0.8569160103797913,0.06402625888586044,-3.556018829345703,-35.23807525634766,1.136747121810913,2,10.3.35.51,10.83.46.32,1,0
2015-02-27 16:45:39.598,71,1425084336.887336,37.78782199157441,-122.3968069764392,12.17803,-1,-1,10,65,-9999,1425084339.584089,3.450531005859375,-32.99043273925781,-5.320831298828125,269.1726379394531,255.3993988037109,10,136186.149380875,-0.215423583984375,-0.9756011962890625,-0.10894775390625,136186.1367637083,-0.3068004186348723,0.5278172227649843,-0.3430409810647796,136186.1367637083,1.386333703940366,-1.684280643765742,1.024788247511638,-0.3159572780132294,0.5399205088615417,-0.3060329556465149,0.01239974051713943,-0.07764672487974167,-0.0279046818614006,XTrueNorthZVertical,-0.6666126450889457,0.2915980895418167,-0.08946985365407033,-0.6801421584980899,-0.5159397721290588,-0.8546042442321777,0.0588037297129631,-3.85208797454834,-35.2026481628418,1.262690782546997,2,10.3.35.51,10.83.46.32,1,0
2015-02-27 16:45:39.603,72,1425084336.887336,37.78782199157441,-122.3968069764392,12.17803,-1,-1,10,65,-9999,1425084339.584089,3.450531005859375,-32.99043273925781,-5.320831298828125,269.1726379394531,255.3993988037109,10,136186.1984312084,-0.80755615234375,-1.07537841796875,0.194793701171875,136186.1885427917,-0.6891853437478286,-1.209385393162968,-0.3988030469171858,136186.1367637083,1.386333703940366,-1.684280643765742,1.024788247511638,-0.3159572780132294,0.5399205088615417,-0.3060329556465149,0.01239974051713943,-0.07764672487974167,-0.0279046818614006,XTrueNorthZVertical,-0.6666126450889457,0.2915980895418167,-0.08946985365407033,-0.6801421584980899,-0.5159397721290588,-0.8546042442321777,0.0588037297129631,-3.85208797454834,-35.2026481628418,1.262690782546997,2,10.3.35.51,10.83.46.32,1,0
2015-02-27 16:45:39.667,73,1425084336.887336,37.78782199157441,-122.3968069764392,12.17803,-1,-1,10,65,-9999,1425084339.636104,4.234855651855469,-33.33024597167969,-6.419303894042969,273.4085083007812,259.63525390625,10,136186.2474955417,-2.401519775390625,-2.3623046875,-0.1681365966796875,136186.240321875,0.3315630230826471,2.639972946467918,0.3192933073084341,136186.1885427917,1.336586440876669,-1.664084123316007,1.041396065789706,-0.6983420848846436,-1.197282195091248,-0.3617954254150391,0.1993074864149094,-0.1184572800993919,0.01750115491449833,XTrueNorthZVertical,-0.6603254501429547,0.2957905692492269,-0.07327780787590681,-0.6863735694254725,-0.5028200745582581,-0.8631101250648499,0.04704352095723152,-3.422301292419434,-35.26520538330078,0.5588822364807129,2,10.3.35.51,10.83.46.32,1,0
2015-02-27 16:45:39.703,74,1425084336.887336,37.78782199157441,-122.3968069764392,12.17803,-1,-1,10,65,-9999,1425084339.687679,3.910888671875,-33.58512878417969,-7.834007263183594,276.4402465820312,262.6669921875,10,136186.2965367083,-0.751251220703125,-0.67919921875,0.7140655517578125,136186.2921009167,-0.1371306919020331,-0.6355085330289546,0.3441091749780104,136186.240321875,1.350754866905616,-1.664274550627328,1.048257909226714,0.3224063515663147,2.652076005935669,0.3563005328178406,-2.775634527206421,-1.424323201179504,-0.336197167634964,XTrueNorthZVertical,-0.6631828347286246,0.2889311341865302,-0.07563888743738874,-0.686284315005425,-0.4969026446342468,-0.8665550947189331,0.04658534377813339,-2.933817863464355,-35.3136100769043,0.03277742862701416,2,10.3.35.51,10.83.46.32,1,0
2015-02-27 16:45:39.805,75,1425084336.887336,37.78782199157441,-122.3968069764392,12.17803,-1,-1,10,65,-9999,1425084339.739821,3.501670837402344,-33.75502014160156,-7.834007263183594,271.8428649902344,258.0696105957031,10,136186.345591625,-0.632293701171875,-0.930938720703125,-0.0283203125,136186.34388025,0.4852937306913622,0.9955990713924215,0.2320920921554245,136186.34388025,1.333533194934373,-1.530345741050586,0.991268203481484,0.4761372208595276,1.007701873779297,0.2690986394882202,-0.05096319690346718,-0.1195929273962975,0.132390633225441,XTrueNorthZVertical,-0.6463856324868232,0.2666695920989491,-0.1335189588669944,-0.7023145344385971,-0.5471813082695007,-0.8367211818695068,-0.02214588597416878,3.326103210449219,-33.56051635742188,-8.535928726196289,2,10.3.35.51,10.83.46.32,1,0
2015-02-27 16:45:39.810,76,1425084336.887336,37.78782199157441,-122.3968069764392,12.17803,-1,-1,10,65,-9999,1425084339.791272,2.683235168457031,-33.34724426269531,-8.100303649902344,270.6886291503906,256.9153747558594,10,136186.39462075,-0.3559417724609375,-0.7699432373046875,0.000885009765625,136186.34388025,0.4852937306913622,0.9955990713924215,0.2320920921554245,136186.34388025,1.333533194934373,-1.530345741050586,0.991268203481484,0.4761372208595276,1.007701873779297,0.2690986394882202,-0.05096319690346718,-0.1195929273962975,0.132390633225441,XTrueNorthZVertical,-0.6463856324868232,0.2666695920989491,-0.1335189588669944,-0.7023145344385971,-0.5471813082695007,-0.8367211818695068,-0.02214588597416878,3.326103210449219,-33.56051635742188,-8.535928726196289,2,10.3.35.51,10.83.46.32,1,0
2015-02-27 16:45:39.865,77,1425084336.887336,37.78782199157441,-122.3968069764392,12.17803,-1,-1,10,65,-9999,1425084339.843301,2.308113098144531,-33.27928161621094,-7.467857360839844,267.9202575683594,254.1470184326172,10,136186.443693,-0.6402130126953125,-0.934234619140625,0.05792236328125,136186.447438375,0.2948433579726346,0.2094810555523248,0.2376008408702534,136186.3956590417,1.343989780287145,-1.518376384997934,0.9650443632379998,0.01341948285698891,-0.1984454840421677,0.7077064514160156,0.2126566618680954,0.05213094130158424,0.03071823716163635,XTrueNorthZVertical,-0.643007398087552,0.2676282354120389,-0.1500801080802642,-0.7017069542692098,-0.5685984492301941,-0.8220741748809814,-0.02983322739601135,3.073973655700684,-33.71990966796875,-7.984466552734375,2,10.3.35.51,10.83.46.32,1,0
2015-02-27 16:45:39.904,78,1425084336.887336,37.78782199157441,-122.3968069764392,12.17803,-1,-1,10,65,-9999,1425084339.894979,1.336219787597656,-33.56813049316406,-6.885330200195312,265.344970703125,251.5717163085938,10,136186.4927177083,-0.6363525390625,-0.5469970703125,0.02667236328125,136186.447438375,0.2948433579726346,0.2094810555523248,0.2376008408702534,136186.447438375,1.35566701534062,-1.530103834532923,0.9352521261752608,0.2856870293617249,0.2215836346149445,0.2746065855026245,-0.04708875343203545,-0.1294858455657959,0.08207140117883682,XTrueNorthZVertical,-0.6409682950180957,0.2776420847365291,-0.1606205509556905,-0.6973346621756874,-0.5931242704391479,-0.8047487735748291,-0.02414903603494167,1.695009231567383,-33.83735656738281,-7.898969650268555,2,10.3.35.51,10.83.46.32,1,0
2015-02-27 16:45:39.966,79,1425084336.887336,37.78782199157441,-122.3968069764392,12.17803,-1,-1,10,65,-9999,1425084339.94702,0.1085662841796875,-33.63609313964844,-5.520553588867188,262.0399475097656,248.2667083740234,10,136186.5417910417,-0.42333984375,-0.9670562744140625,-0.176055908203125,136186.4992174583,0.2947762463131646,-0.1387208653889194,0.6549434837160258,136186.4992174583,1.381777433969393,-1.551867731280772,0.908671491304568,0.2856200039386749,-0.1266184151172638,0.6919488906860352,-0.02166848257184029,0.24169060587883,0.03830885887145996,XTrueNorthZVertical,-0.6424376393997931,0.2854043301292605,-0.1718004510856087,-0.6901470334131062,-0.6146840453147888,-0.7886877059936523,-0.01163649559020996,1.076337814331055,-33.96622085571289,-7.44114875793457,2,10.3.35.51,10.83.46.32,1,0
2015-02-27 16:45:40.002,80,1425084336.887336,37.78782199157441,-122.3968069764392,12.17803,-1,-1,10,65,-9999,1425084339.94702,0.1085662841796875,-33.63609313964844,-5.520553588867188,262.0399475097656,248.2667083740234,10,136186.5908232083,-0.779876708984375,-0.830108642578125,0.0449981689453125,136186.5509963333,0.3104273777234513,0.2670460814627145,0.1896375759540354,136186.5509963333,1.417763876478705,-1.559032441251403,0.8973538061538228,0.3012712299823761,0.2791484296321869,0.2266426235437393,0.2002977430820465,-0.1853770017623901,-0.1687191724777222,XTrueNorthZVertical,-0.6465051635427547,0.2799333915110782,-0.1857294411628441,-0.6849620569135485,-0.6236376166343689,-0.7816792726516724,-0.00733673945069313,0.4820423126220703,-34.10853576660156,-6.827065467834473,2,10.3.35.51,10.83.46.32,1,0
2015-02-27 16:45:40.064,81,1425084336.887336,37.78782199157441,-122.3968069764392,12.17803,-1,-1,10,65,-9999,1425084340.050906,-0.8121795654296875,-33.39820861816406,-4.255645751953125,256.7041015625,242.9308624267578,10,136186.639891125,-0.4641876220703125,-0.6917724609375,0.063079833984375,136186.60277575,0.0729125569564074,-0.0691953167068748,0.04565084214170227,136186.60277575,1.415226949777066,-1.562526351372323,0.8851617499828123,0.06375876069068909,-0.05709140747785568,0.08264483511447906,-0.1390434950590134,-0.07600395381450653,0.0506005734205246,XTrueNorthZVertical,-0.6447062806773877,0.2858945860987162,-0.1878875540889233,-0.6836054704354664,-0.6331427693367004,-0.7740173935890198,-0.005236194469034672,0.03298759460449219,-34.15579986572266,-6.604075908660889,2,10.3.35.51,10.83.46.32,1,0
2015-02-27 16:45:40.105,82,1425084336.887336,37.78782199157441,-122.3968069764392,12.17803,-1,-1,10,65,-9999,1425084340.050906,-0.8121795654296875,-33.39820861816406,-4.255645751953125,256.7041015625,242.9308624267578,10,136186.6889320833,-0.687225341796875,-0.6472015380859375,-0.0136260986328125,136186.6545549167,0.2466707685947363,0.04002917539665401,0.09517977946277792,136186.6545549167,1.439187608072896,-1.565485664694032,0.8851837141489751,0.2375170588493347,0.05213296040892601,0.1321734040975571,0.1115625724196434,0.1101671829819679,-0.03969788551330566,XTrueNorthZVertical,-0.6483775464481799,0.2791511223964534,-0.1950970742758968,-0.6808953037228739,-0.6331384778022766,-0.7740313410758972,-0.003362416289746761,0.1089878082275391,-34.22830200195312,-6.21649169921875,2,10.3.35.51,10.83.46.32,1,0
2015-02-27 16:45:40.152,83,1425084336.887336,37.78782199157441,-122.3968069764392,12.17803,-1,-1,10,65,-9999,1425084340.102161,-0.658721923828125,-32.76954650878906,-4.472015380859375,257.2669067382812,243.4936676025391,10,136186.7380092083,-0.5994110107421875,-0.402740478515625,0.0901031494140625,136186.706333875,0.1226145997483382,0.04961229426319513,0.1709997093812248,136186.706333875,1.443474848922052,-1.569819504817651,0.873927844079853,0.1134560406208038,0.06171878054738045,0.2079911530017853,0.1195108741521835,0.09415683895349503,-0.01946888118982315,XTrueNorthZVertical,-0.647813321700241,0.2828858931886802,-0.1989710970236468,-0.6787665645183107,-0.6418192386627197,-0.7668558359146118,-0.0006269433069974184,-0.1445903778076172,-34.26481628417969,-6.011234283447266,2,10.3.35.51,10.83.46.32,1,0
2015-02-27 16:45:40.201,84,1425084336.887336,37.78782199157441,-122.3968069764392,12.17803,-1,-1,10,65,-9999,1425084340.153835,-0.8121795654296875,-32.27680969238281,-3.822914123535156,255.0686645507812,241.29541015625,10,136186.78704875,-0.329803466796875,-0.59405517578125,0.06005859375,136186.7581129167,0.1732815058032047,-0.2236490725515463,-0.05215614573643883,136186.7581129167,1.45946693062346,-1.596647900686087,0.8684940557953551,0.1641230434179306,-0.2115427106618881,-0.01516510359942913,-0.4244750738143921,0.2014673501253128,0.007655365858227015,XTrueNorthZVertical,-0.6520038028856555,0.2885132089056859,-0.1975023074221463,-0.6727882897084018,-0.6457611322402954,-0.7633569836616516,0.01669766195118427,-0.5599784851074219,-34.31459808349609,-5.694594860076904,2,10.3.35.51,10.83.46.32,1,0
2015-02-27 16:45:40.250,85,1425084336.887336,37.78782199157441,-122.3968069764392,12.17803,-1,-1,10,65,-9999,1425084340.206689,-1.221405029296875,-32.2088623046875,-3.856193542480469,255.6624450683594,241.8891906738281,10,136186.8362219583,-0.77947998046875,-0.5711517333984375,-0.009490966796875,136186.8098923333,0.6771736882832442,-0.3073556877221539,-0.3249458667221273,136186.8098923333,1.486586027681202,-1.61822099046237,0.8736164899628234,0.6680153012275696,-0.2952494323253632,-0.2879551947116852,0.2274112105369568,0.1693353801965714,0.1067690476775169,XTrueNorthZVertical,-0.6586969600563065,0.2851969621213107,-0.1977784007258747,-0.6675812959572138,-0.6413363814353943,-0.7666559219360352,0.03043798543512821,-0.4928951263427734,-34.36918640136719,-5.361868858337402,2,10.3.35.51,10.83.46.32,1,0
2015-02-27 16:45:40.303,86,1425084336.887336,37.78782199157441,-122.3968069764392,12.17803,-1,-1,10,65,-9999,1425084340.258154,-0.7269287109375,-32.29380798339844,-3.040664672851562,253.8555145263672,240.0822601318359,10,136186.8851546667,-2.109939575195312,-1.547607421875,0.192413330078125,136186.861671125,0.2399271120824377,0.06598966970274642,-0.6369423789598532,136186.861671125,1.524592024334246,-1.640166995901001,0.8965691955281692,0.2307688295841217,0.07809578627347946,-0.5999520421028137,-0.1214856207370758,0.1570899486541748,-0.1250295490026474,XTrueNorthZVertical,-0.6689012714561811,0.2724106598174484,-0.1953296928167147,-0.6634831629080697,-0.6227923035621643,-0.7811896800994873,0.0432729572057724,0.06933403015136719,-34.50357437133789,-4.442073345184326,2,10.3.35.51,10.83.46.32,1,0
2015-02-27 16:45:40.348,87,1425084336.887336,37.78782199157441,-122.3968069764392,12.17803,-1,-1,10,65,-9999,1425084340.309665,0.006256103515625,-32.51467895507812,-2.391563415527344,253.7548980712891,239.9816436767578,10,136186.9343265833,0.0221405029296875,-0.8686370849609375,0.06103515625,136186.9134504583,-0.3406270918527318,1.288312433125211,0.177256273730148,136186.9134504583,1.517889417890609,-1.62125932833313,0.9015692128385171,-0.3497852981090546,1.300418376922607,0.2142462432384491,-0.2538227140903473,-0.425079733133316,-0.01061729900538921,XTrueNorthZVertical,-0.6667130718645747,0.2667211252880887,-0.1977122602809936,-0.6672806442275845,-0.6195904016494751,-0.7843014001846313,0.03129295632243156,0.7545318603515625,-34.51580810546875,-4.280551910400391,2,10.3.35.51,10.83.46.32,1,0
2015-02-27 16:45:40.402,88,1425084336.887336,37.78782199157441,-122.3968069764392,12.17803,-1,-1,10,65,-9999,1425084340.361847,0.6030349731445312,-32.53166198730469,-1.942184448242188,252.1089782714844,238.3357238769531,10,136186.9832634167,-0.47412109375,-0.8440093994140625,0.0666351318359375,136186.9652295,-0.02835440980996464,-0.03722167097549247,-0.5531236447073533,136186.9652295,1.503344973835457,-1.593141586386452,0.9239325733179899,-0.03751249983906746,-0.02511580288410187,-0.5161340832710266,-0.1088436171412468,-0.1695971786975861,0.3127668499946594,XTrueNorthZVertical,-0.6646998148554756,0.254768900733684,-0.1945855702544196,-0.6748359016050128,-0.6025363802909851,-0.7979778647422791,0.01346607320010662,1.245460510253906,-34.44883728027344,-4.686136245727539,2,10.3.35.51,10.83.46.32,1,0
2015-02-27 16:45:40.446,89,1425084336.887336,37.78782199157441,-122.3968069764392,12.17803,-1,-1,10,65,-9999,1425084340.413601,1.046356201171875,-32.29380798339844,-2.008750915527344,253.053466796875,239.2802124023438,10,136187.0324394167,-0.54736328125,-0.8074798583984375,-0.0434722900390625,136187.017008625,0.1908266773807558,-0.1111598112676894,-0.3608298318820729,136187.017008625,1.511650728033561,-1.601748743776575,0.9440672888082707,0.1817069053649902,-0.09903687238693237,-0.3237877488136292,0.01830091699957848,0.04223479703068733,-0.1072162091732025,XTrueNorthZVertical,-0.6689169131172802,0.2482448195844281,-0.1876589069370842,-0.6750621322801065,-0.5862177610397339,-0.8099502325057983,0.01815065369009972,2.183809280395508,-34.41484069824219,-4.591635227203369,2,10.3.35.51,10.83.46.32,1,0
2015-02-27 16:45:40.501,90,1425084336.887336,37.78782199157441,-122.3968069764392,12.17803,-1,-1,10,65,-9999,1425084340.467812,1.694282531738281,-32.02195739746094,-1.842315673828125,253.4396209716797,239.6663665771484,10,136187.0813737917,-0.599945068359375,-0.8497314453125,0.061431884765625,136187.0687877084,-0.02660444665767357,-0.09905254831997115,-0.3179329646236216,136187.017008625,1.511650728033561,-1.601748743776575,0.9440672888082707,0.1817069053649902,-0.09903687238693237,-0.3237877488136292,0.01830091699957848,0.04223479703068733,-0.1072162091732025,XTrueNorthZVertical,-0.6689169131172802,0.2482448195844281,-0.1876589069370842,-0.6750621322801065,-0.5862177610397339,-0.8099502325057983,0.01815065369009972,2.183809280395508,-34.41484069824219,-4.591635227203369,2,10.3.35.51,10.83.46.32,1,0
2015-02-27 16:45:40.544,91,1425084336.887336,37.78782199157441,-122.3968069764392,12.17803,-1,-1,10,65,-9999,1425084340.467812,1.694282531738281,-32.02195739746094,-1.842315673828125,253.4396209716797,239.6663665771484,10,136187.1304476667,-0.6040191650390625,-0.9284515380859375,0.1950836181640625,136187.1205670833,-0.0272942053800041,0.04188699657309328,-0.02914243917651909,136187.1205670833,1.517593048008242,-1.608330543444209,0.9587600067036782,-0.03641380369663239,0.05400970578193665,0.007898945361375809,-0.03562565892934799,0.05431962013244629,0.1190042868256569,XTrueNorthZVertical,-0.6718923493512767,0.2435990737543484,-0.1824398391429181,-0.6752302882269078,-0.5741308331489563,-0.8184797763824463,0.02155967615544796,2.749244689941406,-34.39235687255859,-4.454330444335938,2,10.3.35.51,10.83.46.32,1,0
2015-02-27 16:45:40.598,92,1425084336.887336,37.78782199157441,-122.3968069764392,12.17803,-1,-1,10,65,-9999,1425084340.544413,2.342208862304688,-31.95399475097656,-1.709159851074219,254.2588043212891,240.4855499267578,10,136187.1794830417,-0.43768310546875,-0.860565185546875,-0.0034637451171875,136187.172345875,0.07266514929113904,0.320533275111975,-0.4705960109513239,136187.1205670833,1.517593048008242,-1.608330543444209,0.9587600067036782,-0.03641380369663239,0.05400970578193665,0.007898945361375809,-0.03562565892934799,0.05431962013244629,0.1190042868256569,XTrueNorthZVertical,-0.6718923493512767,0.2435990737543484,-0.1824398391429181,-0.6752302882269078,-0.5741308331489563,-0.8184797763824463,0.02155967615544796,2.749244689941406,-34.39235687255859,-4.454330444335938,2,10.3.35.51,10.83.46.32,1,0
2015-02-27 16:45:40.642,93,1425084336.887336,37.78782199157441,-122.3968069764392,12.17803,-1,-1,10,65,-9999,1425084340.595229,2.768470764160156,-32.07290649414062,-1.426223754882812,254.0943450927734,240.3210906982422,10,136187.228666625,-0.5682525634765625,-0.85406494140625,9.1552734375e-05,136187.22412525,-0.02943006057424765,0.1604354819690985,-0.3269251280442741,136187.172345875,1.51734876727817,-1.595103090615448,0.9749582183164487,0.06354565173387527,0.3326558470726013,-0.4335550367832184,0.1277178972959518,-0.08116555213928223,0.05001998692750931,XTrueNorthZVertical,-0.6724234091146126,0.2338088939424868,-0.1812634523275273,-0.6784716617034353,-0.561037003993988,-0.8276784420013428,0.01363968010991812,3.271109580993652,-34.34549713134766,-4.46320915222168,2,10.3.35.51,10.83.46.32,1,0
2015-02-27 16:45:40.697,94,1425084336.887336,37.78782199157441,-122.3968069764392,12.17803,-1,-1,10,65,-9999,1425084340.647275,3.075386047363281,-32.61660766601562,-1.026771545410156,254.8809967041016,241.1077423095703,10,136187.2776117084,-0.55059814453125,-0.8143157958984375,0.1285400390625,136187.2759043333,-0.2996202700199097,0.1885355598949606,-0.03602564532993788,136187.22412525,1.520507988734488,-1.589247072811007,0.9882311289324016,-0.03854947537183762,0.1725579500198364,-0.289884477853775,0.007044531870633364,0.002473543165251613,-0.02910184860229492,XTrueNorthZVertical,-0.6736883661723312,0.2263165967652665,-0.1797673471548277,-0.6801533349957195,-0.5500743389129639,-0.8350540995597839,0.0101504335179925,3.745462417602539,-34.30966186523438,-4.364867687225342,2,10.3.35.51,10.83.46.32,1,0
2015-02-27 16:45:40.740,95,1425084336.887336,37.78782199157441,-122.3968069764392,12.17803,-1,-1,10,65,-9999,1425084340.701199,3.433448791503906,-32.76953125,-1.343002319335938,255.4609680175781,241.6877136230469,10,136187.3266934583,-0.4650421142578125,-0.9576873779296875,-0.014801025390625,136187.3276834583,0.01446708998963745,0.4016462376969543,-0.43339617789677,136187.2759043333,1.502327801922118,-1.56610606020252,0.9967627332153023,-0.3087396025657654,0.2006579041481018,0.001014630077406764,-0.05393664538860321,0.05868110060691833,0.1171556785702705,XTrueNorthZVertical,-0.6705154109135019,0.2216655712982595,-0.1784197027921506,-0.685156874577141,-0.5430176854133606,-0.8397174477577209,-0.002546916482970119,4.154217720031738,-34.24160766601562,-4.526396751403809,2,10.3.35.51,10.83.46.32,1,0
2015-02-27 16:45:40.797,96,1425084336.887336,37.78782199157441,-122.3968069764392,12.17803,-1,-1,10,65,-9999,1425084340.751411,4.064323425292969,-32.75253295898438,-1.426223754882812,255.2782287597656,241.5049743652344,10,136187.3757361667,-0.36737060546875,-0.8878326416015625,-0.0162200927734375,136187.3276834583,0.01446708998963745,0.4016462376969543,-0.43339617789677,136187.3276834583,1.494018036453415,-1.540095473587779,1.007258762139155,0.005347867030650377,0.4137684404850006,-0.3963562846183777,0.06888638436794281,-0.1123166680335999,0.001596187124960124,XTrueNorthZVertical,-0.6684809412764022,0.2119778876869278,-0.1806838416965524,-0.6896028063516134,-0.5339285135269165,-0.8453707098960876,-0.01639721170067787,4.546245574951172,-34.16143798828125,-4.749884605407715,2,10.3.35.51,10.83.46.32,1,0
2015-02-27 16:45:40.838,97,1425084336.887336,37.78782199157441,-122.3968069764392,12.17803,-1,-1,10,65,-9999,1425084340.805128,4.047264099121094,-32.59962463378906,-1.842308044433594,256.7096862792969,242.9364318847656,10,136187.42492475,-0.6128387451171875,-0.785980224609375,-0.0478973388671875,136187.431241875,-0.2144031098790092,0.1124743475817525,-0.02324939631639175,136187.3794625417,1.475048182391672,-1.512110722893065,1.028648987782222,-0.2355287373065948,0.07081581652164459,-0.1059792637825012,0.1477178782224655,-0.03122996166348457,0.01404293533414602,XTrueNorthZVertical,-0.6665633914915507,0.20139943123069,-0.1761506846654994,-0.6957747662939165,-0.5150884985923767,-0.856602668762207,-0.0302630290389061,5.38553524017334,-34.01709747314453,-4.905761241912842,2,10.3.35.51,10.83.46.32,1,0
2015-02-27 16:45:40.901,98,1425084336.887336,37.78782199157441,-122.3968069764392,12.17803,-1,-1,10,65,-9999,1425084340.880061,4.047264099121094,-33.21128845214844,-2.175178527832031,256.7598876953125,242.9866485595703,10,136187.473858125,-0.4438323974609375,-0.9261932373046875,0.0061492919921875,136187.431241875,-0.2144031098790092,0.1124743475817525,-0.02324939631639175,136187.431241875,1.464095807765189,-1.503469677107925,1.030134055371134,-0.2235002368688583,0.124592512845993,0.01375329680740833,-0.09930079430341721,0.07138776779174805,-0.01327021326869726,XTrueNorthZVertical,-0.6648840460031915,0.201533229328582,-0.1747045664440716,-0.6977047743900348,-0.5135379433631897,-0.857367992401123,-0.03462712466716766,5.469328880310059,-33.97699356079102,-5.087610721588135,2,10.3.35.51,10.83.46.32,1,0
2015-02-27 16:45:40.936,99,1425084336.887336,37.78782199157441,-122.3968069764392,12.17803,-1,-1,10,65,-9999,1425084340.932759,4.217765808105469,-33.31326293945312,-2.474761962890625,256.9924926757812,243.21923828125,10,136187.5229423333,-0.539398193359375,-0.827880859375,-0.0323333740234375,136187.4830207083,-0.2899745668677517,0.0113128419945476,-0.1000685442758364,136187.4830207083,1.431294805948057,-1.467527794014619,1.024579588161243,-0.2990832030773163,0.0234347078949213,-0.06305412948131561,0.07285851985216141,-0.07169736176729202,0.05969769507646561,XTrueNorthZVertical,-0.6576932787731878,0.2016565149620901,-0.1769868451916322,-0.7038820444898936,-0.5166909098625183,-0.8544958829879761,-0.05354840308427811,5.376143455505371,-33.89867782592773,-5.675397396087646,2,10.3.35.51,10.83.46.32,1,0
2015-02-27 16:45:41.006,100,1425084336.887336,37.78782199157441,-122.3968069764392,12.17803,-1,-1,10,65,-9999,1425084340.98381,3.740341186523438,-33.00741577148438,-3.207077026367188,258.4290161132812,244.65576171875,10,136187.5719827917,-0.44476318359375,-0.9239349365234375,-0.0650634765625,136187.5347999167,-0.1184813737365352,0.09117758097660685,-0.03144660615165564,136187.5347999167,1.424253826689603,-1.464379183053106,1.030687725269583,-0.1275640428066254,0.1032880395650864,0.005557521246373653,-0.01159840263426304,-0.01432591956108809,0.004601272754371166,XTrueNorthZVertical,-0.6575453542073642,0.2008091518534086,-0.1734664107407837,-0.7051377673427919,-0.5113202929496765,-0.8576528429985046,-0.05461958423256874,5.586021423339844,-33.84262847900391,-5.80571985244751,2,10.3.35.51,10.83.46.32,1,0
2015-02-27 16:45:41.035,101,1425084336.887336,37.78782199157441,-122.3968069764392,12.17803,-1,-1,10,65,-9999,1425084340.98381,3.740341186523438,-33.00741577148438,-3.207077026367188,258.4290161132812,244.65576171875,10,136187.6210562083,-0.487701416015625,-0.86761474609375,-0.074127197265625,136187.5865791667,-0.1768325648007164,-0.01592703489921888,-0.1252716355679103,136187.5865791667,1.406127838928424,-1.443280997993836,1.038759432990111,-0.1859083622694016,-0.003816375508904457,-0.08829481899738312,0.01127357129007578,-0.02576716057956219,-0.009767711162567139,XTrueNorthZVertical,-0.6550558261064987,0.1965854212753007,-0.1712397128271999,-0.7091777439211169,-0.5031711459159851,-0.8617755770683289,-0.06451207399368286,5.879891395568848,-33.75945663452148,-5.996613502502441,2,10.3.35.51,10.83.46.32,1,0
2015-02-27 16:45:41.106,102,1425084336.887336,37.78782199157441,-122.3968069764392,12.17803,-1,-1,10,65,-9999,1425084341.087423,4.780441284179688,-33.2962646484375,-3.456741333007812,258.2603149414062,244.487060546875,10,136187.6700969583,-0.50390625,-0.8829498291015625,-0.1262359619140625,136187.6383582917,-0.1442660994106824,0.08179792761734778,-0.1155649460267895,136187.6383582917,1.388692255205919,-1.425207624493904,1.036526893204667,-0.1533431559801102,0.09390720725059509,-0.07857374846935272,0.06214452162384987,-0.03523315116763115,-0.006005785427987576,XTrueNorthZVertical,-0.6514668987756218,0.1966059308995225,-0.1717028631705421,-0.712358890876001,-0.5038254261016846,-0.8606408834457397,-0.07387397438287735,5.898622512817383,-33.69070053100586,-6.354240417480469,2,10.3.35.51,10.83.46.32,1,0
2015-02-27 16:45:41.134,103,1425084336.887336,37.78782199157441,-122.3968069764392,12.17803,-1,-1,10,65,-9999,1425084341.087423,4.780441284179688,-33.2962646484375,-3.456741333007812,258.2603149414062,244.487060546875,10,136187.7192879167,-0.4807586669921875,-0.8653564453125,-0.07220458984375,136187.690137375,-0.1676534474715403,-0.0990506841072081,-0.005761216386168416,136187.690137375,1.367258174291232,-1.405603407062246,1.041955248635153,-0.1767344623804092,-0.0869373083114624,0.0312090702354908,-0.04817257821559906,0.02432681247591972,-0.03689102083444595,XTrueNorthZVertical,-0.6485266931903454,0.1947556024607404,-0.1685854092983756,-0.7162837553635368,-0.4976648390293121,-0.8633923530578613,-0.08296676725149155,6.214827537536621,-33.59397888183594,-6.561534881591797,2,10.3.35.51,10.83.46.32,1,0
2015-02-27 16:45:41.200,104,1425084336.887336,37.78782199157441,-122.3968069764392,12.17803,-1,-1,10,65,-9999,1425084341.139878,4.865692138671875,-33.17735290527344,-4.17242431640625,258.9327087402344,245.1594543457031,10,136187.7682167084,-0.4956512451171875,-0.82586669921875,-0.1805572509765625,136187.74191675,-0.09286709037215311,0.1158493716312099,-0.07370431474848796,136187.74191675,1.354583097668586,-1.391462635297039,1.041041293129382,-0.1019443348050117,0.1279613226652145,-0.03673746064305305,0.05655956268310547,-0.008223901502788067,0.035357266664505,XTrueNorthZVertical,-0.6459576050643497,0.1940891871711393,-0.1689223159391605,-0.7187026408444372,-0.497218132019043,-0.8629308938980103,-0.09013631939888,6.156331062316895,-33.54501342773438,-6.860398292541504,2,10.3.35.51,10.83.46.32,1,0
2015-02-27 16:45:41.231,105,1425084336.887336,37.78782199157441,-122.3968069764392,12.17803,-1,-1,10,65,-9999,1425084341.191643,4.780448913574219,-33.05839538574219,-4.455352783203125,259.0361633300781,245.2629241943359,10,136187.8172845,-0.469635009765625,-0.9857635498046875,-0.1419677734375,136187.7936955417,-0.1791548412712655,-0.01678670329909646,0.08759243351714217,136187.7936955417,1.339321472356719,-1.377478488044774,1.036440331230371,-0.1882410645484924,-0.00466958899050951,0.1245509907603264,-0.04181054979562759,-0.0002125354221789166,-0.01629356108605862,XTrueNorthZVertical,-0.6425408468878803,0.1954997939959733,-0.1694775834022519,-0.7212478868242954,-0.4998001754283905,-0.860596776008606,-0.09784217923879623,6.110910415649414,-33.49343490600586,-7.147018432617188,2,10.3.35.51,10.83.46.32,1,0
2015-02-27 16:45:41.298,106,1425084336.887336,37.78782199157441,-122.3968069764392,12.17803,-1,-1,10,65,-9999,1425084341.243648,4.814552307128906,-33.43218994140625,-4.388763427734375,258.9721984863281,245.1989593505859,10,136187.8663204583,-0.54656982421875,-0.87591552734375,-0.1603546142578125,136187.845474875,-0.05609522730477503,-0.2827675203257793,-0.1762426746192638,136187.845474875,1.318683312757738,-1.359080862186566,1.042998058294949,-0.0651986375451088,-0.2706392407417297,-0.1393056213855743,0.05980073660612106,-0.03792218118906021,-0.08998401463031769,XTrueNorthZVertical,-0.6400942996226034,0.1932958216450403,-0.1657212425607163,-0.7248810644413267,-0.4923874139785767,-0.8639180064201355,-0.1058320254087448,6.21013355255127,-33.43390655517578,-7.337678909301758,2,10.3.35.51,10.83.46.32,1,0
2015-02-27 16:45:41.329,107,1425084336.887336,37.78782199157441,-122.3968069764392,12.17803,-1,-1,10,65,-9999,1425084341.295996,4.678146362304688,-33.50013732910156,-4.788215637207031,260.0171813964844,246.2439422607422,10,136187.9153928334,-0.5721435546875,-0.825775146484375,-0.07208251953125,136187.897254,-0.1164850681834118,-0.2619586448323362,-0.3124359338175891,136187.897254,1.301706097241774,-1.360811795404807,1.043728194518566,-0.1255953162908554,-0.2498285472393036,-0.2754948437213898,-0.1317349374294281,-0.02606482431292534,0.07239262014627457,XTrueNorthZVertical,-0.6386946905276375,0.1991106687487708,-0.1587654249960371,-0.726097547581791,-0.4919528067111969,-0.8642855286598206,-0.1048480644822121,6.27422046661377,-33.32601547241211,-7.761715888977051,2,10.3.35.51,10.83.46.32,1,0
2015-02-27 16:45:41.399,108,1425084336.887336,37.78782199157441,-122.3968069764392,12.17803,-1,-1,10,65,-9999,1425084341.347148,5.411331176757812,-33.44915771484375,-4.971282958984375,260.8221435546875,247.0488891601562,10,136187.9644174167,-0.4758148193359375,-0.90472412109375,-0.103302001953125,136187.949033125,-0.04372857246688307,-0.1088508506025907,-0.3017531957369542,136187.897254,1.301706097241774,-1.360811795404807,1.043728194518566,-0.1255953162908554,-0.2498285472393036,-0.2754948437213898,-0.1317349374294281,-0.02606482431292534,0.07239262014627457,XTrueNorthZVertical,-0.6386946905276375,0.1991106687487708,-0.1587654249960371,-0.726097547581791,-0.4919528067111969,-0.8642855286598206,-0.1048480644822121,6.27422046661377,-33.32601547241211,-7.761715888977051,2,10.3.35.51,10.83.46.32,1,0
2015-02-27 16:45:41.427,109,1425084336.887336,37.78782199157441,-122.3968069764392,12.17803,-1,-1,10,65,-9999,1425084341.40007,6.042205810546875,-33.22828674316406,-5.121078491210938,261.7575378417969,247.9842834472656,10,136188.0134925417,-0.3596954345703125,-0.8375091552734375,-0.335540771484375,136188.0008122083,-0.1216593238653268,0.1574450183810485,-0.5517545135909436,136188.0008122083,1.269074774371817,-1.336953525287474,1.075583802351543,-0.1308237761259079,0.1696266084909439,-0.5147677063941956,-0.05483553186058998,-0.1040495038032532,-0.03520822525024414,XTrueNorthZVertical,-0.6392923690287197,0.1903865175276173,-0.1438617614804195,-0.7310007587720725,-0.4622848331928253,-0.8798677325248718,-0.1101164817810059,7.265933990478516,-33.03469848632812,-8.13316535949707,2,10.3.35.51,10.83.46.32,1,0
2015-02-27 16:45:41.497,110,1425084336.887336,37.78782199157441,-122.3968069764392,12.17803,-1,-1,10,65,-9999,1425084341.450635,7.065258026123047,-32.82048034667969,-5.021217346191406,262.3748168945312,248.6015625,10,136188.0625247083,-0.2362823486328125,-0.9988861083984375,-0.2093353271484375,136188.0525915833,0.4508356219790449,-0.2160830318946312,0.0095383777602278,136188.0008122083,1.269074774371817,-1.336953525287474,1.075583802351543,-0.1308237761259079,0.1696266084909439,-0.5147677063941956,-0.05483553186058998,-0.1040495038032532,-0.03520822525024414,XTrueNorthZVertical,-0.6392923690287197,0.1903865175276173,-0.1438617614804195,-0.7310007587720725,-0.4622848331928253,-0.8798677325248718,-0.1101164817810059,7.265933990478516,-33.03469848632812,-8.13316535949707,2,10.3.35.51,10.83.46.32,1,0
2015-02-27 16:45:41.525,111,1425084336.887336,37.78782199157441,-122.3968069764392,12.17803,-1,-1,10,65,-9999,1425084341.505132,7.662033081054688,-32.29377746582031,-5.204292297363281,264.5641174316406,250.7908782958984,10,136188.111702125,-0.9288787841796875,-0.5205230712890625,0.362030029296875,136188.1043705,-0.2701321525338984,-1.395024499056359,0.1653617973535271,136188.0525915833,1.283526659356698,-1.362695517023941,1.087395700586508,0.4416622817516327,-0.2038968503475189,0.04652248322963715,0.6627576351165771,-0.01182785537093878,0.0528448149561882,XTrueNorthZVertical,-0.6445219363731224,0.1912534444283211,-0.1369140313927216,-0.7275082243055252,-0.454765111207962,-0.885419487953186,-0.0960271880030632,7.762678146362305,-32.92074203491211,-8.136281967163086,2,10.3.35.51,10.83.46.32,1,0
2015-02-27 16:45:41.597,112,1425084336.887336,37.78782199157441,-122.3968069764392,12.17803,-1,-1,10,65,-9999,1425084341.579836,7.798439025878906,-31.91998291015625,-4.73828125,265.1636962890625,251.3904418945312,10,136188.1606316667,-0.1661834716796875,-1.266372680664062,-0.1166839599609375,136188.1561495833,0.1188009530673447,0.6744175828711212,0.2041619239071095,136188.1043705,1.28354638860826,-1.404212466405803,1.098155053416775,-0.2793053686618805,-1.382838487625122,0.2023454904556274,-0.4312654137611389,0.1282229870557785,0.2103730291128159,XTrueNorthZVertical,-0.6489574326606219,0.2027599135037963,-0.1198579197441566,-0.7234478709909322,-0.4489378333091736,-0.8903689980506897,-0.07548533380031586,7.775211334228516,-32.92341995239258,-8.113433837890625,2,10.3.35.51,10.83.46.32,1,0
2015-02-27 16:45:41.624,113,1425084336.887336,37.78782199157441,-122.3968069764392,12.17803,-1,-1,10,65,-9999,1425084341.579836,7.798439025878906,-31.91998291015625,-4.73828125,265.1636962890625,251.3904418945312,10,136188.2098294584,-0.304107666015625,-0.8689422607421875,0.0982818603515625,136188.207929,0.00294891827504474,0.1482009199212745,0.2873769195404884,136188.207929,1.2943758707271,-1.404830577819841,1.070557190870397,-0.006224133539944887,0.1603867411613464,0.3243598937988281,0.2844616174697876,-0.1590921729803085,0.1033775359392166,XTrueNorthZVertical,-0.6456601101927076,0.2085760182284192,-0.1329415614284259,-0.7224580838132638,-0.4730449914932251,-0.8774678707122803,-0.07923813164234161,8.008320808410645,-32.17937469482422,-5.138961791992188,2,10.3.35.51,10.83.46.32,1,0
2015-02-27 16:45:41.666,114,1425084336.887336,37.78782199157441,-122.3968069764392,12.17803,-1,-1,10,65,-9999,1425084341.636446,7.082305908203125,-32.3277587890625,-4.571846008300781,264.032470703125,250.2592163085938,10,136188.2587795417,-0.573455810546875,-0.85260009765625,-0.2881011962890625,136188.207929,0.00294891827504474,0.1482009199212745,0.2873769195404884,136188.207929,1.2943758707271,-1.404830577819841,1.070557190870397,-0.006224133539944887,0.1603867411613464,0.3243598937988281,0.2844616174697876,-0.1590921729803085,0.1033775359392166,XTrueNorthZVertical,-0.6456601101927076,0.2085760182284192,-0.1329415614284259,-0.7224580838132638,-0.4730449914932251,-0.8774678707122803,-0.07923813164234161,8.008320808410645,-32.17937469482422,-5.138961791992188,2,10.3.35.51,10.83.46.32,1,0
2015-02-27 16:45:41.721,115,1425084336.887336,37.78782199157441,-122.3968069764392,12.17803,-1,-1,10,65,-9999,1425084341.709818,5.513633728027344,-32.83747863769531,-4.904708862304688,261.9470520019531,248.1737976074219,10,136188.30785925,-0.3680419921875,-1.067520141601562,-0.2704925537109375,136188.3114872084,0.03569195124535096,0.2461972585529202,0.5918699754069162,136188.2597077917,1.308922708763658,-1.395816578575121,1.044046913931213,0.2441882193088531,0.6095566749572754,0.6024718284606934,-0.07840622216463089,0.01184569206088781,-0.2005825042724609,XTrueNorthZVertical,-0.6421884103551687,0.2093673776060485,-0.150061549033411,-0.7219701885796967,-0.4950495958328247,-0.8644458055496216,-0.08751869201660156,7.203110694885254,-32.39888000488281,-4.947927474975586,2,10.3.35.51,10.83.46.32,1,0
2015-02-27 16:45:41.766,116,1425084336.887336,37.78782199157441,-122.3968069764392,12.17803,-1,-1,10,65,-9999,1425084341.760312,4.729293823242188,-32.93939208984375,-4.538536071777344,259.0379028320312,245.2646484375,10,136188.35690925,-0.245361328125,-0.926239013671875,-0.0867919921875,136188.3114872084,0.03569195124535096,0.2461972585529202,0.5918699754069162,136188.3114872084,1.329958199534985,-1.391450665394385,1.010264764140421,0.02651909179985523,0.2583828270435333,0.6288521885871887,0.155067503452301,-0.2205475121736526,-0.1756561398506165,XTrueNorthZVertical,-0.6384046816223474,0.2121821365739029,-0.1704035530167026,-0.7199867411398133,-0.523109495639801,-0.846972644329071,-0.09483640640974045,6.282410621643066,-32.63911819458008,-4.61233377456665,2,10.3.35.51,10.83.46.32,1,0
2015-02-27 16:45:41.819,117,1425084336.887336,37.78782199157441,-122.3968069764392,12.17803,-1,-1,10,65,-9999,1425084341.81351,3.876762390136719,-33.14329528808594,-3.97265625,256.0003662109375,242.2271118164062,10,136188.4059829583,-0.796112060546875,-1.191787719726562,0.1744384765625,136188.36326625,0.2568288639406255,0.2262754820185825,0.5039046993371629,136188.36326625,1.349809508642771,-1.394882922654583,0.9876665671464396,0.2476560920476913,0.2384609282016754,0.5408865809440613,0.2967800199985504,-0.09149564057588577,0.009574024938046932,XTrueNorthZVertical,-0.6370189887551473,0.2145315815041259,-0.1840075877684613,-0.717164061454966,-0.542141318321228,-0.8347433805465698,-0.09636601805686951,5.586909294128418,-32.79095458984375,-4.42650842666626,2,10.3.35.51,10.83.46.32,1,0
2015-02-27 16:45:41.865,118,1425084336.887336,37.78782199157441,-122.3968069764392,12.17803,-1,-1,10,65,-9999,1425084341.81351,3.876762390136719,-33.14329528808594,-3.97265625,256.0003662109375,242.2271118164062,10,136188.4550265833,-0.74334716796875,-0.4003448486328125,-0.0088653564453125,136188.4150454583,0.6552350998553895,-0.531836731798241,-0.2935525237922732,136188.4150454583,1.401371510964395,-1.456906841159225,0.9843070475367004,0.646062433719635,-0.5196514129638672,-0.2565709948539734,-0.246256947517395,-0.358898937702179,0.237333357334137,XTrueNorthZVertical,-0.6478027004861125,0.2211429831050834,-0.1835547762197854,-0.7055176548389362,-0.54985511302948,-0.8328887820243835,-0.06289488822221756,4.997329711914062,-32.98956298828125,-3.573473215103149,2,10.3.35.51,10.83.46.32,1,0
2015-02-27 16:45:41.919,119,1425084336.887336,37.78782199157441,-122.3968069764392,12.17803,-1,-1,10,65,-9999,1425084341.865459,3.177680969238281,-32.82048034667969,-2.990692138671875,255.1957092285156,241.4224548339844,10,136188.50423725,-0.7333526611328125,-0.809661865234375,-0.0407867431640625,136188.5186039167,-0.2151988624127249,0.2683233335215165,0.24192368395167,136188.4668245417,1.461238234252362,-1.504438321668032,0.9950960851737648,0.6620553731918335,0.3057174980640411,0.0381515696644783,-0.2370339632034302,0.4182180166244507,0.01597393676638603,XTrueNorthZVertical,-0.6602216211800325,0.2146095794135514,-0.1853215978918544,-0.6954898414796593,-0.5432242155075073,-0.8388112783432007,-0.03610027953982353,5.299403190612793,-33.03396987915039,-2.593733787536621,2,10.3.35.51,10.83.46.32,1,0
2015-02-27 16:45:41.965,120,1425084336.887336,37.78782199157441,-122.3968069764392,12.17803,-1,-1,10,65,-9999,1425084341.91892,3.058326721191406,-32.97340393066406,-2.275016784667969,255.7492218017578,241.9759674072266,10,136188.55315225,-0.5345001220703125,-0.702301025390625,0.02008056640625,136188.5186039167,-0.2151988624127249,0.2683233335215165,0.24192368395167,136188.5186039167,1.479532571660101,-1.502843015718847,0.9907144699223982,-0.2243713587522507,0.280508428812027,0.2789044082164764,-0.03328106924891472,-0.0004657573299482465,0.01321396976709366,XTrueNorthZVertical,-0.6614444722021887,0.2094831436784159,-0.1936889860562682,-0.6936084445020219,-0.5468275547027588,-0.8364177942276001,-0.03721604496240616,5.266623497009277,-33.08684158325195,-1.891493320465088,2,10.3.35.51,10.83.46.32,1,0
2015-02-27 16:45:42.016,121,1425084336.887336,37.78782199157441,-122.3968069764392,12.17803,-1,-1,10,65,-9999,1425084341.969269,2.921928405761719,-33.17730712890625,-1.84228515625,253.4164123535156,239.6431579589844,10,136188.6023195,-0.8719635009765625,-0.52734375,0.0482635498046875,136188.57038275,-0.04445774597334677,0.4098738075686452,-0.306284298015615,136188.57038275,1.475545699431075,-1.495462123026139,0.9772556088405816,-0.05361843109130859,0.422046571969986,-0.2692733705043793,-0.04761796817183495,0.08020152151584625,0.01023420970886946,XTrueNorthZVertical,-0.6585471985041607,0.2127634993297903,-0.1992963105371342,-0.6937783047903655,-0.5577134490013123,-0.8289655447006226,-0.04209456220269203,4.684100151062012,-33.16605758666992,-2.031278371810913,2,10.3.35.51,10.83.46.32,1,0
2015-02-27 16:45:42.066,122,1425084336.887336,37.78782199157441,-122.3968069764392,12.17803,-1,-1,10,65,-9999,1425084342.020812,2.921928405761719,-33.65306091308594,-2.208450317382812,253.1162872314453,239.3430328369141,10,136188.6512492083,-0.38543701171875,-0.970458984375,0.2005767822265625,136188.622162125,-0.7575881037142959,0.2633171233043856,0.9426996373957416,136188.622162125,1.418499234102437,-1.425518540948355,0.9656334359411777,-0.7667486667633057,0.2754897177219391,0.9797101616859436,-0.1215754970908165,0.4960086941719055,0.2130643427371979,XTrueNorthZVertical,-0.6437439708291217,0.2107484766249723,-0.2060105719428368,-0.7062142017585292,-0.5629032850265503,-0.822409451007843,-0.08235755562782288,4.816789627075195,-33.09392547607422,-2.764950752258301,2,10.3.35.51,10.83.46.32,1,0
2015-02-27 16:45:42.114,123,1425084336.887336,37.78782199157441,-122.3968069764392,12.17803,-1,-1,10,65,-9999,1425084342.072508,2.563858032226562,-33.26225280761719,-2.824264526367188,252.1421203613281,238.3688659667969,10,136188.7003130833,-0.3614654541015625,-1.311126708984375,-0.3747711181640625,136188.6739412083,-0.4516204555522912,1.118179582678807,-0.2769527744017003,136188.6739412083,1.40744578267585,-1.410973669695091,0.9393132285823211,-0.4607809484004974,1.130352020263672,-0.2399426102638245,-0.1032008975744247,-0.7560642957687378,-0.09756409376859665,XTrueNorthZVertical,-0.6368251950211224,0.2178971931956669,-0.2155259183607985,-0.7074765986198673,-0.5828189849853516,-0.8071528673171997,-0.09394896775484085,3.616581916809082,-33.20118713378906,-3.264305591583252,2,10.3.35.51,10.83.46.32,1,0
2015-02-27 16:45:42.153,124,1425084336.887336,37.78782199157441,-122.3968069764392,12.17803,-1,-1,10,65,-9999,1425084342.125352,2.086433410644531,-33.1602783203125,-3.723014831542969,251.2486267089844,237.4753723144531,10,136188.7493454583,-0.8388214111328125,-0.553924560546875,0.052093505859375,136188.7257202917,-0.09047956645489708,0.09536513547464744,-0.3948956569658215,136188.7257202917,1.347232990862075,-1.295784446884398,0.9378498875485135,-0.09963998198509216,0.1075375154614449,-0.3578858077526093,0.6030014753341675,-0.08064424991607666,0.04173656553030014,XTrueNorthZVertical,-0.6174760594177404,0.1959765049100252,-0.2305456550077973,-0.7260614997522309,-0.569294810295105,-0.8062881231307983,-0.1606330573558807,4.11149787902832,-33.03407287597656,-4.230814456939697,2,10.3.35.51,10.83.46.32,1,0
2015-02-27 16:45:42.212,125,1425084336.887336,37.78782199157441,-122.3968069764392,12.17803,-1,-1,10,65,-9999,1425084342.176521,2.188743591308594,-33.26222229003906,-4.288894653320312,249.2505798339844,235.4773254394531,10,136188.7984615,-0.4883270263671875,-0.953521728515625,0.0399627685546875,136188.7774994167,0.2506668418104002,-0.2328513593822061,-0.1266783172556901,136188.7774994167,1.374480783524455,-1.353588574666542,0.9521265997371239,0.24150650203228,-0.2206791043281555,-0.08966884762048721,-0.6239216327667236,0.3259574472904205,0.174099937081337,XTrueNorthZVertical,-0.6293167898023105,0.2036404464057811,-0.2177120301292563,-0.7176994450978833,-0.5663249492645264,-0.8146506547927856,-0.1249818950891495,4.353242874145508,-33.05033874511719,-3.844292402267456,2,10.3.35.51,10.83.46.32,1,0
2015-02-27 16:45:42.251,126,1425084336.887336,37.78782199157441,-122.3968069764392,12.17803,-1,-1,10,65,-9999,1425084342.229154,2.887825012207031,-33.48309326171875,-4.338821411132812,252.1397094726562,238.366455078125,10,136188.847456,-0.2497100830078125,-0.9495086669921875,-0.4064483642578125,136188.8292787917,0.1930504168909719,1.34723061118547,-0.1664638134126019,136188.8292787917,1.385603279924664,-1.315337369732049,0.9689503811082749,0.1838901937007904,1.359402656555176,-0.1294547468423843,0.2957164347171783,-0.2586701214313507,-0.02083066664636135,XTrueNorthZVertical,-0.6291100538174819,0.1807997417207615,-0.228242780253091,-0.7207199884407625,-0.5477916598320007,-0.8242918848991394,-0.1430639922618866,4.842656135559082,-33.02961730957031,-3.412810325622559,2,10.3.35.51,10.83.46.32,1,0
2015-02-27 16:45:42.310,127,1425084336.887336,37.78782199157441,-122.3968069764392,12.17803,-1,-1,10,65,-9999,1425084342.280108,3.245895385742188,-33.66996765136719,-3.856155395507812,250.35205078125,236.5787963867188,10,136188.896521,-0.6494140625,-0.8811492919921875,0.0324249267578125,136188.8810576667,-0.04253334576965551,-0.6661793603550701,0.08172335910682556,136188.8810576667,1.392838759186777,-1.309688131243017,0.9722387345251345,-0.05169421434402466,-0.6540067195892334,0.1187309175729752,0.1236377209424973,0.09249136596918106,-0.05919510871171951,XTrueNorthZVertical,-0.6296907100744444,0.175390208231909,-0.231556860875792,-0.7204924562963181,-0.5443530678749084,-0.8261492252349854,-0.1454557627439499,5.151440620422363,-33.02556228637695,-2.971406698226929,2,10.3.35.51,10.83.46.32,1,0
2015-02-27 16:45:42.349,128,1425084336.887336,37.78782199157441,-122.3968069764392,12.17803,-1,-1,10,65,-9999,1425084342.332543,3.058341979980469,-34.09474182128906,-3.273628234863281,249.3892822265625,235.6160278320312,10,136188.9456635417,-0.65606689453125,-0.7373046875,-0.036102294921875,136188.9328370417,0.2017336536251753,-0.07971799880599588,-0.2845806003959053,136188.8810576667,1.392838759186777,-1.309688131243017,0.9722387345251345,-0.05169421434402466,-0.6540067195892334,0.1187309175729752,0.1236377209424973,0.09249136596918106,-0.05919510871171951,XTrueNorthZVertical,-0.6296907100744444,0.175390208231909,-0.231556860875792,-0.7204924562963181,-0.5443530678749084,-0.8261492252349854,-0.1454557627439499,5.151440620422363,-33.02556228637695,-2.971406698226929,2,10.3.35.51,10.83.46.32,1,0
2015-02-27 16:45:42.410,129,1425084336.887336,37.78782199157441,-122.3968069764392,12.17803,-1,-1,10,65,-9999,1425084342.389304,3.228843688964844,-33.48306274414062,-3.240348815917969,250.8292999267578,237.0560455322266,10,136188.9946247917,-0.335479736328125,-1.005157470703125,-0.16607666015625,136188.984616125,-0.1622544209936226,0.4136397836661262,-0.09332941513739088,136188.984616125,1.398262857033092,-1.320101912366311,0.9807782235985815,-0.1714602261781693,0.4258573949337006,-0.05629435554146767,-0.09208892285823822,0.03881634771823883,-0.0359414741396904,XTrueNorthZVertical,-0.6328610300586666,0.1745706899083787,-0.2274377534957512,-0.719224675632757,-0.5389840602874756,-0.8309305906295776,-0.1380239874124527,5.302567481994629,-33.01272201538086,-2.845577716827393,2,10.3.35.51,10.83.46.32,1,0
2015-02-27 16:45:42.447,130,1425084336.887336,37.78782199157441,-122.3968069764392,12.17803,-1,-1,10,65,-9999,1425084342.389304,3.228843688964844,-33.48306274414062,-3.240348815917969,250.8292999267578,237.0560455322266,10,136189.043641625,-0.564361572265625,-0.722137451171875,-0.0358123779296875,136189.03639525,0.1351703390236258,-0.4224929300778766,-0.1021125204124722,136188.984616125,1.398262857033092,-1.320101912366311,0.9807782235985815,-0.1714602261781693,0.4258573949337006,-0.05629435554146767,-0.09208892285823822,0.03881634771823883,-0.0359414741396904,XTrueNorthZVertical,-0.6328610300586666,0.1745706899083787,-0.2274377534957512,-0.719224675632757,-0.5389840602874756,-0.8309305906295776,-0.1380239874124527,5.302567481994629,-33.01272201538086,-2.845577716827393,2,10.3.35.51,10.83.46.32,1,0
2015-02-27 16:45:42.507,131,1425084336.887336,37.78782199157441,-122.3968069764392,12.17803,-1,-1,10,65,-9999,1425084342.460904,3.6380615234375,-33.68696594238281,-2.774322509765625,249.7543334960938,235.9810791015625,10,136189.0927096667,-0.6461029052734375,-0.890594482421875,-0.0656585693359375,136189.088174375,-0.03884992766596692,-0.07567984764510874,-0.02126108024653859,136189.03639525,1.388390786685976,-1.311139566041568,0.985728429635942,0.1259646415710449,-0.4102754592895508,-0.06507786363363266,0.1273103654384613,0.0472060851752758,0.03574252501130104,XTrueNorthZVertical,-0.6318556939156662,0.1728086419222644,-0.2250998275390353,-0.7212667314395371,-0.5337434411048889,-0.8336746096611023,-0.1417911052703857,5.553247451782227,-32.95796203613281,-2.998091697692871,2,10.3.35.51,10.83.46.32,1,0
2015-02-27 16:45:42.545,132,1425084336.887336,37.78782199157441,-122.3968069764392,12.17803,-1,-1,10,65,-9999,1425084342.514393,3.314094543457031,-33.83988952636719,-2.990684509277344,250.8780212402344,237.1047668457031,10,136189.1417438333,-0.30419921875,-0.929473876953125,-0.3734893798828125,136189.1399537917,-0.1372907478835469,0.5584779300789576,0.008164985586073937,136189.088174375,1.391381604428894,-1.336252373439089,0.9840500220979607,-0.04805554822087288,-0.06346248090267181,0.01577324047684669,-0.1940329372882843,-0.01248359587043524,0.1224129125475883,XTrueNorthZVertical,-0.6346154348156293,0.1814627811742331,-0.2187747475749667,-0.7186599986516812,-0.5384957194328308,-0.8327465057373047,-0.1286690235137939,5.436169624328613,-32.972412109375,-3.053281545639038,2,10.3.35.51,10.83.46.32,1,0
2015-02-27 16:45:42.605,133,1425084336.887336,37.78782199157441,-122.3968069764392,12.17803,-1,-1,10,65,-9999,1425084342.565784,3.314094543457031,-33.70396423339844,-3.256988525390625,251.1571807861328,237.3839263916016,10,136189.1908147917,-0.32086181640625,-0.9070281982421875,-0.3646697998046875,136189.191732625,-0.09107105453300368,-0.9584149509882991,0.1209916693800439,136189.1399537917,1.38918742804371,-1.311654885727952,0.9832435330842337,-0.1464799046516418,0.5706847906112671,0.04520232975482941,0.1925249993801117,-0.06601571291685104,-0.190885066986084,XTrueNorthZVertical,-0.6315449910157166,0.1735733203188748,-0.226035157998741,-0.7210626942514543,-0.5358172059059143,-0.8322997093200684,-0.1420464515686035,5.469741821289062,-32.97402191162109,-2.97490406036377,2,10.3.35.51,10.83.46.32,1,0
2015-02-27 16:45:42.644,134,1425084336.887336,37.78782199157441,-122.3968069764392,12.17803,-1,-1,10,65,-9999,1425084342.617494,3.382293701171875,-33.56805419921875,-3.456718444824219,250.8445892333984,237.0713348388672,10,136189.23992125,-0.6779632568359375,-0.6931304931640625,0.0064849853515625,136189.191732625,-0.09107105453300368,-0.9584149509882991,0.1209916693800439,136189.191732625,1.378808353255536,-1.318007994261859,0.9787883417654725,-0.1002601161599159,-0.9462082982063293,0.1580286026000977,0.2194319069385529,-0.07720635831356049,-0.2251042723655701,XTrueNorthZVertical,-0.6305486609044708,0.1806256419899896,-0.2217419065258869,-0.7215354221892303,-0.5402936935424805,-0.8298218250274658,-0.1395655274391174,5.375884056091309,-32.96296691894531,-3.25528621673584,2,10.3.35.51,10.83.46.32,1,0
2015-02-27 16:45:42.702,135,1425084336.887336,37.78782199157441,-122.3968069764392,12.17803,-1,-1,10,65,-9999,1425084342.669274,2.836669921875,-33.60203552246094,-3.323570251464844,251.1084442138672,237.3351898193359,10,136189.2889082083,-0.4208526611328125,-0.7767486572265625,-0.2056732177734375,136189.2952910833,0.02412957105666294,0.7852610106013093,1.156860399615554,136189.2435120417,1.387310692273912,-1.365866879937425,0.9593567006212982,0.1170366108417511,-0.4956784546375275,0.5230133533477783,-0.1159280240535736,0.1256919652223587,0.1233024448156357,XTrueNorthZVertical,-0.633206999988051,0.2015940629846647,-0.2160537480044775,-0.7153527673846858,-0.5620352625846863,-0.81882244348526,-0.1168174594640732,4.722289085388184,-33.03814697265625,-3.497890710830688,2,10.3.35.51,10.83.46.32,1,0
2015-02-27 16:45:42.743,136,1425084336.887336,37.78782199157441,-122.3968069764392,12.17803,-1,-1,10,65,-9999,1425084342.723317,1.660163879394531,-33.65298461914062,-3.273628234863281,249.9571685791016,236.1839141845703,10,136189.3379882917,-0.3448028564453125,-0.91827392578125,-0.1830596923828125,136189.2952910833,0.02412957105666294,0.7852610106013093,1.156860399615554,136189.2952910833,1.413879149981766,-1.375869845530326,0.9225692663810621,0.01494068559259176,0.7974674105644226,1.193896532058716,0.1714871674776077,0.02040684781968594,-0.08872553706169128,XTrueNorthZVertical,-0.6307570408944465,0.2089777886519998,-0.2344535171589595,-0.7095811880258935,-0.592339813709259,-0.797155499458313,-0.1169476807117462,3.781373023986816,-33.18191528320312,-3.273528575897217,2,10.3.35.51,10.83.46.32,1,0
2015-02-27 16:45:42.807,137,1425084336.887336,37.78782199157441,-122.3968069764392,12.17803,-1,-1,10,65,-9999,1425084342.773514,0.07444000244140625,-33.73793029785156,-3.722999572753906,245.6566467285156,231.8833923339844,10,136189.3870005417,-0.5433197021484375,-0.595611572265625,-0.0101470947265625,136189.3470702083,-0.5401945302472366,-0.5625182117687169,0.705060180689682,136189.3470702083,1.396996667118759,-1.343265939965667,0.8667729059186834,-0.549383282661438,-0.5503118634223938,0.7420960664749146,0.2858040332794189,-0.1560298800468445,-0.0370490662753582,XTrueNorthZVertical,-0.6149134687651494,0.2210794247505509,-0.2567387814606846,-0.712102932779737,-0.6306068897247314,-0.7622440457344055,-0.146010622382164,1.734975814819336,-33.29933166503906,-3.768096208572388,2,10.3.35.51,10.83.46.32,1,0
2015-02-27 16:45:42.839,138,1425084336.887336,37.78782199157441,-122.3968069764392,12.17803,-1,-1,10,65,-9999,1425084342.824821,-2.295616149902344,-33.21119689941406,-4.605110168457031,244.7557830810547,230.9825286865234,10,136189.4360323334,-0.8164215087890625,-0.78125,0.165191650390625,136189.398849375,-0.4994665413805459,-0.5033496965659904,1.633132672114272,136189.398849375,1.377564215460003,-1.362710789241248,0.7916958410813527,-0.5086552500724792,-0.491143524646759,1.670168161392212,0.062543585896492,0.253385454416275,0.1854395270347595,XTrueNorthZVertical,-0.6005882807092933,0.2582935492406983,-0.2680095362567934,-0.7076362927853251,-0.6874825358390808,-0.7115458846092224,-0.1451563239097595,-0.3076934814453125,-33.23155975341797,-4.650072574615479,2,10.3.35.51,10.83.46.32,1,0
2015-02-27 16:45:42.902,139,1425084336.887336,37.78782199157441,-122.3968069764392,12.17803,-1,-1,10,65,-9999,1425084342.824821,-2.295616149902344,-33.21119689941406,-4.605110168457031,244.7557830810547,230.9825286865234,10,136189.4850940833,-0.3011474609375,-0.53973388671875,0.0087890625,136189.450628625,-0.4849243502481682,0.731108026679529,1.648424809409616,136189.450628625,1.373287318496339,-1.36548424370269,0.7067615893744055,-0.4941129386425018,0.7433140873908997,1.685459852218628,-0.01975464262068272,-0.2501921653747559,-0.06653403490781784,XTrueNorthZVertical,-0.582906059919702,0.2875779956312906,-0.2925886483976492,-0.7013639422316038,-0.7444970607757568,-0.6493744850158691,-0.1550388485193253,-2.882472991943359,-33.01906967163086,-5.242786407470703,2,10.3.35.51,10.83.46.32,1,0
2015-02-27 16:45:42.937,140,1425084342.914624,37.7878008737072,-122.3967927095548,12.19579,-1,-1,10,65,-9999,1425084342.903726,-4.512222290039062,-32.1917724609375,-5.403999328613281,242.9177856445312,229.14453125,10,136189.5341235417,-1.226730346679688,-0.5919342041015625,-0.7011566162109375,136189.5024075833,-0.3388965697763983,0.5966418274481201,2.111484340792125,136189.5024075833,1.359235534583312,-1.310300598786075,0.6033610419820007,-0.3480850756168365,0.6088477969169617,2.148519039154053,0.4777357280254364,0.2164000868797302,0.3752606213092804,XTrueNorthZVertical,-0.5488937222403852,0.3044242417400193,-0.335053568738042,-0.7026953420211725,-0.7956525683403015,-0.5674132704734802,-0.2120831310749054,-6.227032661437988,-32.26507949829102,-6.800224304199219,2,10.3.35.51,10.83.46.32,1,0
2015-02-27 16:45:43.013,141,1425084342.914624,37.7878008737072,-122.3967927095548,12.19579,-1,-1,10,65,-9999,1425084342.957128,-9.405792236328125,-30.30583190917969,-7.551017761230469,235.3424835205078,221.5692291259766,10,136189.5831730417,-0.3231658935546875,-0.399688720703125,-0.0231170654296875,136189.5541868334,-0.4192966041375635,-0.326148017638189,1.961228259457636,136189.5541868334,1.385853425881973,-1.311430043860581,0.4943928003779978,-0.4284850060939789,-0.313942164182663,1.998262643814087,0.2203674465417862,-0.3495994210243225,-0.4002950191497803,XTrueNorthZVertical,-0.5268630804356724,0.3309628004703822,-0.3761381122714773,-0.6865851109452691,-0.8508148193359375,-0.4744972586631775,-0.2257578372955322,-9.330339431762695,-31.44382476806641,-7.091182708740234,2,10.3.35.51,10.83.46.32,1,0
2015-02-27 16:45:43.043,142,1425084342.914624,37.7878008737072,-122.3967927095548,12.19579,-1,-1,10,65,-9999,1425084342.957128,-9.405792236328125,-30.30583190917969,-7.551017761230469,235.3424835205078,221.5692291259766,10,136189.6322048334,-1.918563842773438,-0.17681884765625,-0.3956451416015625,136189.605966125,-0.05831230891226599,-0.8900542689670552,2.179092413489312,136189.605966125,1.380050962391406,-1.349104701958727,0.3865094668521099,-0.06750063598155975,-0.8778485655784607,2.216126441955566,-0.06756756454706192,0.2634933292865753,0.61235111951828,XTrueNorthZVertical,-0.5058373150735909,0.3772250642329767,-0.3953811050986752,-0.6674606491927142,-0.9035627841949463,-0.3769576847553253,-0.2036597281694412,-12.3045015335083,-30.23566627502441,-7.775474548339844,2,10.3.35.51,10.83.46.32,1,0
2015-02-27 16:45:43.139,143,1425084342.914624,37.7878008737072,-122.3967927095548,12.19579,-1,-1,10,65,-9999,1425084343.042527,-14.62333679199219,-27.55332946777344,-8.416488647460938,227.8049774169922,214.0317230224609,10,136189.68127025,-0.4473114013671875,-0.367767333984375,-0.059326171875,136189.657745125,-0.8522674752082479,0.3031388384521224,1.162041845832412,136189.657745125,1.380762096531067,-1.350869281045923,0.3072341406093286,-0.8614556789398193,0.3153444230556488,1.19907546043396,-0.2204655557870865,-0.2087002098560333,-0.07402428239583969,XTrueNorthZVertical,-0.4855522906298496,0.4003342748309796,-0.4173910437273161,-0.6555579554639874,-0.9302150011062622,-0.3024234473705292,-0.2079428881406784,-15.56194496154785,-28.64451599121094,-7.96064281463623,2,10.3.35.51,10.83.46.32,1,0
2015-02-27 16:45:43.142,144,1425084342.914624,37.7878008737072,-122.3967927095548,12.19579,-1,-1,10,65,-9999,1425084343.110182,-18.76667022705078,-24.81782531738281,-8.999015808105469,223.5935974121094,209.8203430175781,10,136189.7303097083,-1.826400756835938,0.123199462890625,-0.0707244873046875,136189.709524375,0.5353270707228989,-0.5179073340326905,0.5931379064019029,136189.709524375,1.378366403365589,-1.377768137605312,0.260129322138706,0.5261389017105103,-0.5057018399238586,0.6301711797714233,-0.4462743997573853,0.3306765854358673,0.3684833645820618,XTrueNorthZVertical,-0.4780867658690593,0.4227813884633062,-0.4231167917337866,-0.643164984525006,-0.9484094381332397,-0.2572055160999298,-0.1853778809309006,-16.98415184020996,-27.748291015625,-8.22346019744873,2,10.3.35.51,10.83.46.32,1,0
2015-02-27 16:45:43.204,145,1425084342.914624,37.7878008737072,-122.3967927095548,12.19579,-1,-1,10,65,-9999,1425084343.162046,-20.04548645019531,-23.81538391113281,-8.949081420898438,222.0301513671875,208.2568969726562,10,136189.7793730834,-1.171051025390625,-0.3853759765625,-0.1825714111328125,136189.7613035833,0.2010952939118833,0.2443530194980403,-0.08359209924373415,136189.7613035833,1.389899805635363,-1.370348710884163,0.2482485945515852,0.1919072419404984,0.256558358669281,-0.04655923694372177,-0.04878260567784309,-0.09882157295942307,-0.1591381281614304,XTrueNorthZVertical,-0.4757308445015827,0.4209252413827377,-0.4318356762520845,-0.6403281411657943,-0.9499356746673584,-0.2457066178321838,-0.1930042058229446,-17.54201698303223,-27.50501251220703,-7.861693382263184,2,10.3.35.51,10.83.46.32,1,0
2015-02-27 16:45:43.243,146,1425084342.914624,37.7878008737072,-122.3967927095548,12.19579,-1,-1,10,65,-9999,1425084343.214306,-20.13074493408203,-23.560546875,-8.233406066894531,219.9704437255859,206.1971893310547,10,136189.8285358333,-1.185348510742188,-0.069732666015625,-0.193695068359375,136189.813082625,0.279058269559517,0.46418125483365,-0.9394124976622568,136189.7613035833,1.389899805635363,-1.370348710884163,0.2482485945515852,0.1919072419404984,0.256558358669281,-0.04655923694372177,-0.04878260567784309,-0.09882157295942307,-0.1591381281614304,XTrueNorthZVertical,-0.4757308445015827,0.4209252413827377,-0.4318356762520845,-0.6403281411657943,-0.9499356746673584,-0.2457066178321838,-0.1930042058229446,-17.54201698303223,-27.50501251220703,-7.861693382263184,2,10.3.35.51,10.83.46.32,1,0
2015-02-27 16:45:43.307,147,1425084342.914624,37.7878008737072,-122.3967927095548,12.19579,-1,-1,10,65,-9999,1425084343.26695,-19.60216522216797,-24.56298828125,-8.250045776367188,221.141357421875,207.3681030273438,10,136189.877494,-0.9820556640625,-0.4491424560546875,-0.21185302734375,136189.8648619167,0.4445383112654435,-0.1246396674412345,-1.350522011976699,136189.8648619167,1.409540530340779,-1.355402318877643,0.3396458468961471,0.4353499710559845,-0.112434022128582,-1.313490986824036,0.04138540849089622,-0.1032634377479553,-0.1050114035606384,XTrueNorthZVertical,-0.5006597618451785,0.3854589429813988,-0.4167097260397059,-0.6535398115378638,-0.9210851192474365,-0.3331531882286072,-0.2015224099159241,-15.32308864593506,-28.939697265625,-7.331521987915039,2,10.3.35.51,10.83.46.32,1,0
