loggingTime,loggingSample,locationTimestamp_since1970,locationLatitude,locationLongitude,locationAltitude,locationSpeed,locationCourse,locationVerticalAccuracy,locationHorizontalAccuracy,locationFloor,locationHeadingTimestamp_since1970,locationHeadingX,locationHeadingY,locationHeadingZ,locationTrueHeading,locationMagneticHeading,locationHeadingAccuracy,accelerometerTimestamp_sinceReboot,accelerometerAccelerationX,accelerometerAccelerationY,accelerometerAccelerationZ,gyroTimestamp_sinceReboot,gyroRotationX,gyroRotationY,gyroRotationZ,motionTimestamp_sinceReboot,motionYaw,motionRoll,motionPitch,motionRotationRateX,motionRotationRateY,motionRotationRateZ,motionUserAccelerationX,motionUserAccelerationY,motionUserAccelerationZ,motionAttitudeReferenceFrame,motionQuaternionX,motionQuaternionY,motionQuaternionZ,motionQuaternionW,motionGravityX,motionGravityY,motionGravityZ,motionMagneticFieldX,motionMagneticFieldY,motionMagneticFieldZ,motionMagneticFieldCalibrationAccuracy,IP_en0,IP_pdp_ip0,deviceOrientation,state
2015-03-01 09:53:39.569,1,1425232407.228836,37.77937936490434,-122.4388172744405,56.19482,-1,-1,10,65,-9999,1425232419.559795,-24.30059051513672,-34.32792663574219,-17.15869140625,83.89376068115234,70.11595916748047,10,177226.047057,-0.04254150390625,-0.957427978515625,-0.2826995849609375,177226.0455151667,0.0497185543906893,0.103753027643961,0.002184058409973983,177225.9937426667,-2.697397312225548,-0.2571455978365466,1.278462883015867,0.006534025073051453,0.07653465121984482,0.04584702849388123,-0.03463327884674072,-0.002920981263741851,0.01067592389881611,XTrueNorthZVertical,-0.02995238119779258,0.599789086673885,0.7932296401621607,-0.1007107089089339,-0.07329213619232178,-0.9575740098953247,-0.2787118256092072,-24.48188972473145,-33.74987030029297,-15.5430269241333,2,192.168.1.8,10.83.46.32,1,0
2015-03-01 09:53:39.616,2,1425232407.228836,37.77937936490434,-122.4388172744405,56.19482,-1,-1,10,65,-9999,1425232419.611942,-24.45405578613281,-34.41288757324219,-17.70787048339844,82.54049682617188,68.7626953125,10,177226.0960844583,-0.059600830078125,-0.958282470703125,-0.273834228515625,177226.09728775,0.05571892264274683,-0.07431178179313504,-0.005563609833284537,177226.0455151667,-2.691301195470885,-0.2551320960269986,1.277761789585602,0.02959414385259151,0.1201492547988892,0.03369611501693726,0.02175275236368179,0.01750661991536617,-0.008501273579895496,XTrueNorthZVertical,-0.03249045432466477,0.5993247744719303,0.7930807421029291,-0.1038129285814427,-0.07290021330118179,-0.957371711730957,-0.2795083820819855,-24.44228744506836,-33.69887924194336,-15.71502685546875,2,192.168.1.8,10.83.46.32,1,0
2015-03-01 09:53:39.640,3,1425232407.228836,37.77937936490434,-122.4388172744405,56.19482,-1,-1,10,65,-9999,1425232419.611942,-24.45405578613281,-34.41288757324219,-17.70787048339844,82.54049682617188,68.7626953125,10,177226.1450929167,-0.0642547607421875,-0.95819091796875,-0.27569580078125,177226.09728775,0.05571892264274683,-0.07431178179313504,-0.005563609833284537,177226.09728775,-2.688345560397864,-0.2582865720474117,1.279085016590922,0.03559424728155136,-0.05791507288813591,0.02594593539834023,0.01385707966983318,-0.0005293510621413589,0.004217746667563915,XTrueNorthZVertical,-0.03229328091187431,0.5999426275479059,0.7926120810068484,-0.1038849327578136,-0.07345791161060333,-0.9577531218528748,-0.2780519723892212,-24.41561698913574,-33.70296859741211,-15.74768924713135,2,192.168.1.8,10.83.46.32,1,0
2015-03-01 09:53:39.690,4,1425232407.228836,37.77937936490434,-122.4388172744405,56.19482,-1,-1,10,65,-9999,1425232419.663858,-24.40289306640625,-34.25996398925781,-17.15869140625,83.30643463134766,69.52863311767578,10,177226.1941357084,-0.0406036376953125,-0.9695892333984375,-0.2879638671875,177226.2008304583,0.07533629986448852,-0.07582206044731897,-0.07528383559101395,177226.1490577917,-2.687400685353254,-0.2594459785746497,1.2806197221673,0.02526979893445969,0.02887915447354317,-0.01658167503774166,0.009148300625383854,2.442114464429324e-06,0.0008498174720443785,XTrueNorthZVertical,-0.03231242864784586,0.6005689784021649,0.7921568943001388,-0.103731704419901,-0.07340306043624878,-0.9581933617591858,-0.2765456140041351,-24.45676231384277,-33.72589111328125,-15.63435745239258,2,192.168.1.8,10.83.46.32,1,0
2015-03-01 09:53:39.735,5,1425232407.228836,37.77937936490434,-122.4388172744405,56.19482,-1,-1,10,65,-9999,1425232419.716221,-24.33469390869141,-34.769775390625,-16.59287261962891,84.68132019042969,70.90351867675781,10,177226.243157875,-0.063507080078125,-0.960113525390625,-0.280426025390625,177226.2008304583,0.07533629986448852,-0.07582206044731897,-0.07528383559101395,177226.2008304583,-2.698560734974594,-0.2476557307956621,1.283156017619761,0.05526977777481079,-0.05941495671868324,-0.04377386346459389,0.02893789671361446,-0.01067326776683331,-0.01292905304580927,XTrueNorthZVertical,-0.03394641012909732,0.6011075062801352,0.7918323677606777,-0.1025617426372267,-0.06954153627157211,-0.9589159488677979,-0.2750348150730133,-24.32993507385254,-33.82205963134766,-15.6245002746582,2,192.168.1.8,10.83.46.32,1,0
2015-03-01 09:53:39.789,6,1425232407.228836,37.77937936490434,-122.4388172744405,56.19482,-1,-1,10,65,-9999,1425232419.767319,-24.30059051513672,-34.66781616210938,-16.62615966796875,84.63017272949219,70.85237121582031,10,177226.29233175,-0.0677490234375,-0.948822021484375,-0.2855224609375,177226.2526027917,0.07087177661307968,-0.1516819377821171,-0.1039405141847026,177226.2526027917,-2.712000162279658,-0.240182310692796,1.286420180150495,0.0508049838244915,-0.1352716237306595,-0.07244237512350082,0.003232144983485341,-0.0002766584802884609,-0.007920853793621063,XTrueNorthZVertical,-0.03325852109008685,0.6021970483749101,0.7914713034672426,-0.09912499202800482,-0.06673922389745712,-0.9598368406295776,-0.2725051641464233,-24.25815963745117,-33.92057037353516,-15.52219772338867,2,192.168.1.8,10.83.46.32,1,0
2015-03-01 09:53:39.837,7,1425232407.228836,37.77937936490434,-122.4388172744405,56.19482,-1,-1,10,65,-9999,1425232419.81955,-23.87429046630859,-34.58285522460938,-16.043701171875,85.45759582519531,71.67979431152344,10,177226.341211,-0.0530853271484375,-0.956756591796875,-0.271209716796875,177226.304372875,0.09061911609601724,-0.1717762871550919,-0.1475045032962188,177226.304372875,-2.732914250429114,-0.2276595290893569,1.291173170713622,0.07059856504201889,-0.1553528606891632,-0.1160152107477188,-0.008250190876424313,0.01189498696476221,-0.008197000250220299,XTrueNorthZVertical,-0.03246280128168315,0.6037467354820719,0.7909351636789167,-0.09411490496798684,-0.06229119002819061,-0.9611595273017883,-0.268872082233429,-24.12248420715332,-34.19463729858398,-15.12728214263916,2,192.168.1.8,10.83.46.32,1,0
2015-03-01 09:53:39.888,8,1425232407.228836,37.77937936490434,-122.4388172744405,56.19482,-1,-1,10,65,-9999,1425232419.871739,-23.60145568847656,-34.82077026367188,-15.54444885253906,86.55548095703125,72.77767944335938,10,177226.390253875,-0.0267791748046875,-0.9537200927734375,-0.232818603515625,177226.3561454167,0.05702839895073879,-0.1106820401681292,-0.2395039357852241,177226.3561454167,-2.763867954150597,-0.2037231568699495,1.295516636473482,0.03700513765215874,-0.09425819665193558,-0.2080167382955551,0.0009158416069112718,0.007728849537670612,0.006276773754507303,XTrueNorthZVertical,-0.03305007271060467,0.6048224526996473,0.7907180754564087,-0.08867029437168907,-0.05499298870563507,-0.9623492360115051,-0.2661949992179871,-23.94854354858398,-34.40727233886719,-14.92009162902832,2,192.168.1.8,10.83.46.32,1,0
2015-03-01 09:53:39.934,9,1425232407.228836,37.77937936490434,-122.4388172744405,56.19482,-1,-1,10,65,-9999,1425232419.924527,-23.36272430419922,-35.12666320800781,-15.14504241943359,88.10649108886719,74.32868957519531,10,177226.4392800833,0.019989013671875,-0.98516845703125,-0.1925201416015625,177226.4079180833,0.02875122081238645,-0.1129566460551659,-0.3115650801411332,177226.4079180833,-2.810888008845112,-0.1621583461174363,1.300650543716525,0.008737149648368359,-0.0965314581990242,-0.2800836861133575,0.02620988339185715,0.00645661074668169,0.03383291885256767,XTrueNorthZVertical,-0.03574885358939008,0.60583543864788,0.7905236247148075,-0.08220609506830394,-0.04308610409498215,-0.9637320041656494,-0.2633708715438843,-23.75899124145508,-34.58536148071289,-14.81098747253418,2,192.168.1.8,10.83.46.32,1,0
2015-03-01 09:53:39.985,10,1425232407.228836,37.77937936490434,-122.4388172744405,56.19482,-1,-1,10,65,-9999,1425232419.97521,-23.05577850341797,-35.67044067382812,-15.41130828857422,88.30130767822266,74.52350616455078,10,177226.488334,0.0823211669921875,-1.023056030273438,-0.17083740234375,177226.459688,0.07117750750622077,-0.2327996940570586,-0.4211512295206947,177226.459688,-2.877179020284778,-0.1062713696903786,1.305870248799491,0.05120855569839478,-0.2163685262203217,-0.3896867036819458,0.06300607323646545,-0.0336979553103447,0.08258062601089478,XTrueNorthZVertical,-0.03815364596209734,0.6069299059632575,0.7905145784132793,-0.07257473676526582,-0.02777352929115295,-0.9651118516921997,-0.2603607773780823,-23.01938819885254,-35.23475646972656,-14.44375038146973,2,192.168.1.8,10.83.46.32,1,0
2015-03-01 09:53:40.024,11,1425232407.228836,37.77937936490434,-122.4388172744405,56.19482,-1,-1,10,65,-9999,1425232419.97521,-23.05577850341797,-35.67044067382812,-15.41130828857422,88.30130767822266,74.52350616455078,10,177226.5374512917,0.0960235595703125,-1.020248413085938,-0.1355133056640625,177226.5114607083,0.02175509662874829,-0.5891801827059361,-0.4646638196231723,177226.5114607083,-2.962611468609362,-0.04385881030446567,1.310349354639872,0.001791877089999616,-0.5727478265762329,-0.4332045316696167,0.1178121790289879,-0.05319524183869362,0.1008469983935356,XTrueNorthZVertical,-0.03712281003566283,0.6082675998978813,0.7907726188324602,-0.05754208675067616,-0.01129057072103024,-0.9662749767303467,-0.2572648525238037,-22.53006553649902,-35.73429870605469,-13.98064231872559,2,192.168.1.8,10.83.46.32,1,0
2015-03-01 09:53:40.083,12,1425232407.228836,37.77937936490434,-122.4388172744405,56.19482,-1,-1,10,65,-9999,1425232420.027275,-21.96446990966797,-36.69003295898438,-14.84549713134766,90.37419128417969,76.59638977050781,10,177226.5864022083,0.1038818359375,-1.026397705078125,-0.1214447021484375,177226.5632330833,-0.03658490915885453,-0.8933563224026444,-0.5094784291825898,177226.5632330833,-3.050339500997489,0.003425901064599126,1.309067833516957,-0.05654794722795486,-0.8769241571426392,-0.4780194759368896,0.0937332957983017,-0.06455814838409424,0.134435698390007,XTrueNorthZVertical,-0.02912482880481626,0.6080930990509491,0.7924574083885695,-0.03722614238700187,0.0008864521514624357,-0.9659441709518433,-0.2587490677833557,-22.31682777404785,-36.02531814575195,-13.56974029541016,2,192.168.1.8,10.83.46.32,1,0
2015-03-01 09:53:40.123,13,1425232407.228836,37.77937936490434,-122.4388172744405,56.19482,-1,-1,10,65,-9999,1425232420.079829,-21.57228088378906,-37.08088684082031,-14.26303863525391,92.95600891113281,79.17820739746094,10,177226.6355622917,0.0922393798828125,-1.009246826171875,-0.1244049072265625,177226.61500325,-0.05099367592061924,-1.148680500327375,-0.5250246320459273,177226.5632330833,-3.050339500997489,0.003425901064599126,1.309067833516957,-0.05654794722795486,-0.8769241571426392,-0.4780194759368896,0.0937332957983017,-0.06455814838409424,0.134435698390007,XTrueNorthZVertical,-0.02912482880481626,0.6080930990509491,0.7924574083885695,-0.03722614238700187,0.0008864521514624357,-0.9659441709518433,-0.2587490677833557,-22.31682777404785,-36.02531814575195,-13.56974029541016,2,192.168.1.8,10.83.46.32,1,0
2015-03-01 09:53:40.182,14,1425232407.228836,37.77937936490434,-122.4388172744405,56.19482,-1,-1,10,65,-9999,1425232420.130838,-20.95841217041016,-37.38676452636719,-13.36438751220703,95.99954986572266,82.22174835205078,10,177226.6844932083,0.059844970703125,-0.984588623046875,-0.115081787109375,177226.6667756667,-0.03705655498790756,-1.422108581026356,-0.5609591972665845,177226.6667756667,3.044084734291179,0.07039189299702404,1.300614882719856,-0.05701785162091255,-1.405676603317261,-0.5295013189315796,0.04549749195575714,-0.02001164667308331,0.1563362628221512,XTrueNorthZVertical,0.001513888411523763,0.6057021117310795,0.7954979230147952,0.01748476533377059,0.01877252757549286,-0.9637224674224854,-0.2662453055381775,-21.78169631958008,-37.06259536743164,-11.48581600189209,2,192.168.1.8,10.83.46.32,1,0
2015-03-01 09:53:40.220,15,1425232407.228836,37.77937936490434,-122.4388172744405,56.19482,-1,-1,10,65,-9999,1425232420.182556,-20.75379180908203,-38.20243835449219,-12.56558227539062,99.34532928466797,85.56752777099609,10,177226.7336152083,0.051788330078125,-0.978973388671875,-0.1228485107421875,177226.7185481667,0.04871986898190958,-1.595381032081854,-0.6093371163645279,177226.7185481667,2.940103213488106,0.0957217901579758,1.297768716444668,0.02873503416776657,-1.57891321182251,-0.5779488086700439,0.02368193119764328,-0.0174030177295208,0.1526147872209549,XTrueNorthZVertical,0.02278155824757647,0.6043791302182846,0.7947185198980294,0.05127713179117158,0.02577180415391922,-0.9629589319229126,-0.2684137225151062,-21.57126808166504,-37.56035614013672,-10.19326400756836,2,192.168.1.8,10.83.46.32,1,0
2015-03-01 09:53:40.279,16,1425232407.228836,37.77937936490434,-122.4388172744405,56.19482,-1,-1,10,65,-9999,1425232420.233911,-20.2081298828125,-39.08610534667969,-11.26753234863281,104.1168899536133,90.33908843994141,10,177226.7825462084,0.0205078125,-0.998809814453125,-0.1538238525390625,177226.77031825,0.172586154442585,-1.767219637206454,-0.6150069863253066,177226.77031825,2.829369952226695,0.118892432105521,1.2995543311876,0.1526026427745819,-1.750752091407776,-0.5836187601089478,0.004353166092187166,-0.04449569806456566,0.1333158761262894,XTrueNorthZVertical,0.04717038876226962,0.6039507762266605,0.7907353121771634,0.08806862635783592,0.03177964687347412,-0.963438868522644,-0.2660368382930756,-20.98344612121582,-38.52324295043945,-7.460355281829834,2,192.168.1.8,10.83.46.32,1,0
2015-03-01 09:53:40.318,17,1425232407.228836,37.77937936490434,-122.4388172744405,56.19482,-1,-1,10,65,-9999,1425232420.286481,-19.4407958984375,-40.08869934082031,-9.586723327636719,109.2032623291016,95.42546081542969,10,177226.8316729167,-0.0052032470703125,-0.9780426025390625,-0.1732635498046875,177226.8220909167,0.212915201777982,-1.741100684815502,-0.6805689523569862,177226.77031825,2.829369952226695,0.118892432105521,1.2995543311876,0.1526026427745819,-1.750752091407776,-0.5836187601089478,0.004353166092187166,-0.04449569806456566,0.1333158761262894,XTrueNorthZVertical,0.04717038876226962,0.6039507762266605,0.7907353121771634,0.08806862635783592,0.03177964687347412,-0.963438868522644,-0.2660368382930756,-20.98344612121582,-38.52324295043945,-7.460355281829834,2,192.168.1.8,10.83.46.32,1,0
2015-03-01 09:53:40.377,18,1425232407.228836,37.77937936490434,-122.4388172744405,56.19482,-1,-1,10,65,-9999,1425232420.344794,-18.55410003662109,-40.70046997070312,-7.489883422851562,115.303596496582,101.5257949829102,10,177226.880617,0.018218994140625,-1.018463134765625,-0.2080535888671875,177226.8738633333,0.2086016797603806,-1.447577455795219,-0.7735958323945441,177226.8738633333,2.573190048493841,0.1986736397075395,1.309067278924297,0.1886197328567505,-1.431110501289368,-0.7422068119049072,-0.04466081783175468,-0.03826739639043808,0.05676186084747314,XTrueNorthZVertical,0.09433601066155944,0.6035479106592436,0.7746828433858063,0.1633925682160832,0.05106950923800468,-0.9659440517425537,-0.2536612749099731,-19.92648124694824,-39.56457138061523,-4.193143844604492,2,192.168.1.8,10.83.46.32,1,0
2015-03-01 09:53:40.418,19,1425232407.228836,37.77937936490434,-122.4388172744405,56.19482,-1,-1,10,65,-9999,1425232420.344794,-18.55410003662109,-40.70046997070312,-7.489883422851562,115.303596496582,101.5257949829102,10,177226.9297902917,0.0473785400390625,-0.986785888671875,-0.2491607666015625,177226.8738633333,0.2086016797603806,-1.447577455795219,-0.7735958323945441,177226.8738633333,2.573190048493841,0.1986736397075395,1.309067278924297,0.1886197328567505,-1.431110501289368,-0.7422068119049072,-0.04466081783175468,-0.03826739639043808,0.05676186084747314,XTrueNorthZVertical,0.09433601066155944,0.6035479106592436,0.7746828433858063,0.1633925682160832,0.05106950923800468,-0.9659440517425537,-0.2536612749099731,-19.92648124694824,-39.56457138061523,-4.193143844604492,2,192.168.1.8,10.83.46.32,1,0
2015-03-01 09:53:40.475,20,1425232407.228836,37.77937936490434,-122.4388172744405,56.19482,-1,-1,10,65,-9999,1425232420.469462,-14.42756652832031,-42.39974975585938,-2.996635437011719,130.23681640625,116.4590072631836,10,177226.9786872917,0.04864501953125,-0.9711151123046875,-0.238922119140625,177226.9774059167,0.2723154119955453,-1.062567452795772,-1.177303090459111,177226.9256335,2.40607129520208,0.2920241973209289,1.310002261443563,0.2529291808605194,-1.321053743362427,-0.9200195074081421,-0.03161435946822166,-0.03624061122536659,0.00543051864951849,XTrueNorthZVertical,0.1090105803451197,0.6038634006995391,0.7640100407465182,0.1993849213460038,0.07423216104507446,-0.9661855101585388,-0.2469313740730286,-17.88810920715332,-40.71425628662109,-1.538535594940186,2,192.168.1.8,10.83.46.32,1,0
2015-03-01 09:53:40.514,21,1425232407.228836,37.77937936490434,-122.4388172744405,56.19482,-1,-1,10,65,-9999,1425232420.469462,-14.42756652832031,-42.39974975585938,-2.996635437011719,130.23681640625,116.4590072631836,10,177227.0278340833,0.180694580078125,-1.039794921875,-0.2467041015625,177227.0291785834,0.2710453504716865,-0.667957819331025,-1.304690873829198,177226.9774059167,2.201685654994186,0.4291080121787516,1.303787191870773,0.2523333132266998,-1.046101093292236,-1.145913600921631,-0.07645125687122345,-0.0007524301181547344,-0.001787898014299572,XTrueNorthZVertical,0.1175357453669296,0.605162836601698,0.7510009174875991,0.2365605931748806,0.1097764521837234,-0.964564323425293,-0.2399265766143799,-16.73220443725586,-41.22777938842773,-0.5529470443725586,2,192.168.1.8,10.83.46.32,1,0
2015-03-01 09:53:40.574,22,1425232407.228836,37.77937936490434,-122.4388172744405,56.19482,-1,-1,10,65,-9999,1425232420.544809,-10.40332794189453,-43.793212890625,-1.598739624023438,138.5886840820312,124.8108749389648,10,177227.0767644167,0.3846435546875,-1.055770874023438,-0.2716064453125,177227.0291785834,0.2710453504716865,-0.667957819331025,-1.304690873829198,177227.0291785834,1.982856266327891,0.5989590534067335,1.284825069659658,0.2510633766651154,-0.6514917612075806,-1.273301482200623,0.02165735885500908,-0.0804067999124527,-0.01371999457478523,XTrueNorthZVertical,0.1157567526020662,0.6083652856372561,0.7369453526204695,0.270930993544215,0.1590372174978256,-0.9593881368637085,-0.2329841107130051,-14.60246276855469,-42.02770614624023,0.6649541854858398,2,192.168.1.8,10.83.46.32,1,0
2015-03-01 09:53:40.613,23,1425232407.228836,37.77937936490434,-122.4388172744405,56.19482,-1,-1,10,65,-9999,1425232420.596844,-7.112327575683594,-44.45596313476562,-0.5503082275390625,144.6591186523438,130.8813171386719,10,177227.1258942917,0.295501708984375,-1.003433227539062,-0.2269439697265625,177227.0809486667,0.2746728421924834,-1.050974978886766,-1.222858857749897,177227.0809486667,1.789767669974488,0.7444323360338118,1.25681145665123,0.2546910643577576,-1.034509062767029,-1.191469788551331,0.1753800958395004,-0.1046604812145233,-0.04445488378405571,XTrueNorthZVertical,0.1130644897691955,0.6112615153999041,0.7216381468237831,0.3046541786127676,0.2092634588479996,-0.9511104226112366,-0.227151557803154,-10.53330516815186,-43.17511749267578,2.227330207824707,2,192.168.1.8,10.83.46.32,1,0
2015-03-01 09:53:40.672,24,1425232407.228836,37.77937936490434,-122.4388172744405,56.19482,-1,-1,10,65,-9999,1425232420.648543,-3.855430603027344,-45.01675415039062,0.5646820068359375,152.63134765625,138.8535461425781,10,177227.1749480417,0.1790771484375,-0.98138427734375,-0.2681427001953125,177227.184493625,-0.2095747988226956,-1.783930973046701,-1.122754627115454,177227.1327212084,1.644390180187243,0.805161089856023,1.221475532426148,0.04357687011361122,-1.853484988212585,-1.165523409843445,0.04875221475958824,-0.06382783502340317,0.01024033222347498,XTrueNorthZVertical,0.1239549906443812,0.605014883382154,0.7051367955184413,0.348388078641697,0.2467494904994965,-0.9396054148674011,-0.2371843010187149,-8.91096019744873,-43.49968719482422,2.893799781799316,2,192.168.1.8,10.83.46.32,1,0
2015-03-01 09:53:40.711,25,1425232407.228836,37.77937936490434,-122.4388172744405,56.19482,-1,-1,10,65,-9999,1425232420.700699,-0.6496963500976562,-45.28865051269531,1.263626098632812,162.3191833496094,148.5413818359375,10,177227.2239795833,0.13592529296875,-0.944549560546875,-0.3149871826171875,177227.184493625,-0.2095747988226956,-1.783930973046701,-1.122754627115454,177227.184493625,1.547022863958957,0.801796268978886,1.176979141941339,-0.2295562028884888,-1.767465353012085,-1.091366052627563,-0.09666376560926437,-0.05793320015072823,-0.001299929921515286,XTrueNorthZVertical,0.1388852075682351,0.5893127471714367,0.6900363739913936,0.3965743187121824,0.275740921497345,-0.9234510660171509,-0.266842782497406,-6.364920616149902,-43.89195251464844,3.603689193725586,2,192.168.1.8,10.83.46.32,1,0
2015-03-01 09:53:40.770,26,1425232407.228836,37.77937936490434,-122.4388172744405,56.19482,-1,-1,10,65,-9999,1425232420.752444,2.334373474121094,-45.95137023925781,0.980712890625,169.1916351318359,155.4138336181641,10,177227.27302675,0.157440185546875,-0.8661041259765625,-0.32916259765625,177227.2362637917,-0.2898443382904469,-1.297205260637203,-0.973434380588019,177227.2362637917,1.484578288432454,0.7845068408114599,1.130959944508918,-0.3098255097866058,-1.280739784240723,-0.9420462250709534,-0.1573483943939209,-0.03222089260816574,-0.028592549264431,XTrueNorthZVertical,0.1466885014593756,0.5725455089627487,0.6783433976372991,0.4364909634131209,0.3008115291595459,-0.9048213362693787,-0.3013482391834259,-2.416330337524414,-44.30305862426758,3.376758575439453,2,192.168.1.8,10.83.46.32,1,0
2015-03-01 09:53:40.808,27,1425232407.228836,37.77937936490434,-122.4388172744405,56.19482,-1,-1,10,65,-9999,1425232420.752444,2.334373474121094,-45.95137023925781,0.980712890625,169.1916351318359,155.4138336181641,10,177227.3219497083,0.1753997802734375,-0.82421875,-0.3737335205078125,177227.2880362083,-0.2074772931481492,-1.097530763166877,-0.8452929226294393,177227.2880362083,1.435191814802378,0.7705558319126588,1.090448351059271,-0.2274582833051682,-1.08106541633606,-0.8139050602912903,-0.154120072722435,0.03078559786081314,-0.01255729515105486,XTrueNorthZVertical,0.150776059072821,0.5581103134897657,0.6678562097978976,0.4687723792785269,0.3218599557876587,-0.8868342041969299,-0.3315589129924774,3.067787170410156,-45.96810913085938,0.5979452133178711,2,192.168.1.8,10.83.46.32,1,0
2015-03-01 09:53:40.869,28,1425232407.228836,37.77937936490434,-122.4388172744405,56.19482,-1,-1,10,65,-9999,1425232420.856745,6.75079345703125,-45.86637878417969,-0.6002426147460938,180.6798706054688,166.9020690917969,10,177227.3709920833,0.16998291015625,-0.8409576416015625,-0.4248809814453125,177227.3398089583,-0.07617066823401034,-1.063694768885203,-0.6775798203494813,177227.3398089583,1.392218868686222,0.7553225432047631,1.059572170147756,-0.09615146368741989,-1.047229647636414,-0.6461922526359558,-0.1588907241821289,0.05149805545806885,-0.04028913378715515,XTrueNorthZVertical,0.1564087005406807,0.5453794069811524,0.6573309981449861,0.4959975627631834,0.3353891372680664,-0.8721462488174438,-0.3561952412128448,4.762681007385254,-45.82738494873047,-0.06366920471191406,2,192.168.1.8,10.83.46.32,1,0
2015-03-01 09:53:40.907,29,1425232407.228836,37.77937936490434,-122.4388172744405,56.19482,-1,-1,10,65,-9999,1425232420.856745,6.75079345703125,-45.86637878417969,-0.6002426147460938,180.6798706054688,166.9020690917969,10,177227.4200223333,0.197052001953125,-0.864654541015625,-0.536651611328125,177227.391579,-0.1458152602167815,-0.9099217170151553,-0.5528994065435686,177227.391579,1.361546085893135,0.7337834373508911,1.034477535988138,-0.1658014208078384,-0.8934568166732788,-0.521514356136322,-0.11207415163517,0.05008623003959656,-0.1675387024879456,XTrueNorthZVertical,0.1624422329547159,0.5327998733368544,0.6484913038377677,0.5188408689809907,0.3421919345855713,-0.8595955371856689,-0.3794736266136169,6.862662792205811,-45.54994964599609,-0.9704971313476562,2,192.168.1.8,10.83.46.32,1,0
2015-03-01 09:53:40.967,30,1425232407.228836,37.77937936490434,-122.4388172744405,56.19482,-1,-1,10,65,-9999,1425232420.959937,9.700767517089844,-45.84941101074219,-1.914932250976562,187.9940643310547,174.2162628173828,10,177227.4690685417,0.1690521240234375,-0.8352203369140625,-0.587982177734375,177227.4433514167,-0.260576197910476,-0.6122588703964538,-0.4611279406438741,177227.4433514167,1.342305720296835,0.7119809724287588,1.010587127892087,-0.280562162399292,-0.595794141292572,-0.4297432005405426,-0.1637323051691055,-0.02314106561243534,-0.1673469990491867,XTrueNorthZVertical,0.1656514225838426,0.5209800201667364,0.6421687262711616,0.5373627772143599,0.3471582233905792,-0.8471439480781555,-0.4022788405418396,7.478192329406738,-45.43959808349609,-1.468148231506348,2,192.168.1.8,10.83.46.32,1,0
2015-03-01 09:53:41.005,31,1425232407.228836,37.77937936490434,-122.4388172744405,56.19482,-1,-1,10,65,-9999,1425232420.959937,9.700767517089844,-45.84941101074219,-1.914932250976562,187.9940643310547,174.2162628173828,10,177227.5182006667,0.1960601806640625,-0.782623291015625,-0.580963134765625,177227.4951239583,-0.421834064024191,-0.1359019093750705,-0.3016149776763791,177227.4951239583,1.339505855746616,0.6968571859393097,0.9847707512867838,-0.4418198466300964,-0.1194373220205307,-0.2702305316925049,-0.1918396353721619,0.0123292850330472,-0.1635144352912903,XTrueNorthZVertical,0.1615647908949061,0.5117015014493351,0.6407085627529042,0.5491365330461355,0.3549560904502869,-0.8331453204154968,-0.4241167902946472,8.302972793579102,-45.26321411132812,-2.266709327697754,2,192.168.1.8,10.83.46.32,1,0
2015-03-01 09:53:41.065,32,1425232407.228836,37.77937936490434,-122.4388172744405,56.19482,-1,-1,10,65,-9999,1425232421.063402,10.94554138183594,-45.28861999511719,-4.061698913574219,190.9127807617188,177.1349792480469,10,177227.5671250417,0.247772216796875,-0.7369537353515625,-0.55560302734375,177227.5468940417,-0.5441237581195395,0.2072397391789141,-0.01281806064266038,177227.5468940417,1.360946692522263,0.6840184795052741,0.9605407644834931,-0.5641093850135803,0.2237041592597961,0.01856607012450695,-0.1421180367469788,0.06120080500841141,-0.131175309419632,XTrueNorthZVertical,0.1511797442508978,0.5050406097925954,0.6461076120216632,0.5519271905147101,0.3621345162391663,-0.8195015788078308,-0.4441573321819305,9.015841484069824,-45.01405715942383,-3.909621238708496,2,192.168.1.8,10.83.46.32,1,0
2015-03-01 09:53:41.103,33,1425232407.228836,37.77937936490434,-122.4388172744405,56.19482,-1,-1,10,65,-9999,1425232421.063402,10.94554138183594,-45.28861999511719,-4.061698913574219,190.9127807617188,177.1349792480469,10,177227.616141625,0.2984161376953125,-0.7057952880859375,-0.5357818603515625,177227.59866675,-0.5943070341204477,0.406944596685667,0.2647917155999625,177227.59866675,1.407482319586004,0.6620334729894451,0.941449492021624,-0.6142983436584473,0.4234084188938141,0.2961736619472504,-0.07745768874883652,0.08479458838701248,-0.07822780311107635,XTrueNorthZVertical,0.1395835289122741,0.4983798519534851,0.6577728512676781,0.5472374624526798,0.3618357479572296,-0.8084121346473694,-0.464267909526825,8.899808883666992,-44.96157455444336,-4.699593544006348,2,192.168.1.8,10.83.46.32,1,0
2015-03-01 09:53:41.167,34,1425232407.228836,37.77937936490434,-122.4388172744405,56.19482,-1,-1,10,65,-9999,1425232421.115796,10.7750244140625,-45.35659790039062,-5.259895324707031,190.099853515625,176.3220520019531,10,177227.6651961667,0.369598388671875,-0.701690673828125,-0.5081024169921875,177227.6504391667,-0.4950116055090613,0.4626632530123048,0.5237508420965424,177227.6504391667,1.466079363434305,0.6378986494688276,0.9329720390148146,-0.5150027871131897,0.479126900434494,0.5551324486732483,-0.01043297816067934,0.09932214021682739,-0.0286353025585413,XTrueNorthZVertical,0.1299719448151979,0.4938933918012856,0.6723001121162996,0.5359003385869692,0.3545949757099152,-0.8033931851387024,-0.4783532321453094,8.381977081298828,-44.9366569519043,-5.76846981048584,2,192.168.1.8,10.83.46.32,1,0
2015-03-01 09:53:41.201,35,1425232407.228836,37.77937936490434,-122.4388172744405,56.19482,-1,-1,10,65,-9999,1425232421.16755,10.12704849243164,-45.52651977539062,-6.458091735839844,188.1255187988281,174.3477172851562,10,177227.7142159583,0.3372802734375,-0.7482757568359375,-0.4887542724609375,177227.702209375,-0.3773752527864082,0.3190195343483739,0.6568260722906029,177227.6504391667,1.466079363434305,0.6378986494688276,0.9329720390148146,-0.5150027871131897,0.479126900434494,0.5551324486732483,-0.01043297816067934,0.09932214021682739,-0.0286353025585413,XTrueNorthZVertical,0.1299719448151979,0.4938933918012856,0.6723001121162996,0.5359003385869692,0.3545949757099152,-0.8033931851387024,-0.4783532321453094,8.381977081298828,-44.9366569519043,-5.76846981048584,2,192.168.1.8,10.83.46.32,1,0
2015-03-01 09:53:41.266,36,1425232407.228836,37.77937936490434,-122.4388172744405,56.19482,-1,-1,10,65,-9999,1425232421.219771,9.086887359619141,-45.74740600585938,-7.140396118164062,185.8552551269531,172.0774536132812,10,177227.7632651667,0.33270263671875,-0.8027496337890625,-0.468231201171875,177227.7539817917,-0.1567427428015946,0.1835943308084276,0.5937957071911525,177227.7539817917,1.592491570939767,0.5696854704865958,0.9407640388982529,-0.1766759753227234,0.2000487148761749,0.6251479387283325,0.01815805770456791,0.02759771980345249,0.01512068044394255,XTrueNorthZVertical,0.1251793639419961,0.4860744621700961,0.7005146167096298,0.5072879048415503,0.3177794516086578,-0.8080084919929504,-0.4961234927177429,5.754820823669434,-45.08221817016602,-7.570428848266602,2,192.168.1.8,10.83.46.32,1,0
2015-03-01 09:53:41.299,37,1425232407.228836,37.77937936490434,-122.4388172744405,56.19482,-1,-1,10,65,-9999,1425232421.272803,7.671585083007812,-45.69644165039062,-7.989120483398438,183.3169250488281,169.5391235351562,10,177227.812307875,0.3570709228515625,-0.9040374755859375,-0.412994384765625,177227.8057545417,-0.08550744469971915,0.1830228164384965,0.5912358767513683,177227.7539817917,1.592491570939767,0.5696854704865958,0.9407640388982529,-0.1766759753227234,0.2000487148761749,0.6251479387283325,0.01815805770456791,0.02759771980345249,0.01512068044394255,XTrueNorthZVertical,0.1251793639419961,0.4860744621700961,0.7005146167096298,0.5072879048415503,0.3177794516086578,-0.8080084919929504,-0.4961234927177429,5.754820823669434,-45.08221817016602,-7.570428848266602,2,192.168.1.8,10.83.46.32,1,0
2015-03-01 09:53:41.364,38,1425232407.228836,37.77937936490434,-122.4388172744405,56.19482,-1,-1,10,65,-9999,1425232421.323092,6.341552734375,-46.07028198242188,-8.288673400878906,181.1158294677734,167.3380279541016,10,177227.8613649583,0.3186798095703125,-0.9314422607421875,-0.3923492431640625,177227.8575244583,0.0403618042168049,0.05784998414702824,0.310385033462119,177227.8057545417,1.640727296497994,0.5405945735909333,0.9523415879978454,-0.1054338216781616,0.199477419257164,0.6225916147232056,0.04009071364998817,-0.09223760664463043,0.0678267702460289,XTrueNorthZVertical,0.1276743996886645,0.4849207197617612,0.7098978139454677,0.4945667189758737,0.2983797490596771,-0.8147753477096558,-0.497102290391922,4.550336837768555,-45.16213607788086,-7.906427383422852,2,192.168.1.8,10.83.46.32,1,0
2015-03-01 09:53:41.397,39,1425232407.228836,37.77937936490434,-122.4388172744405,56.19482,-1,-1,10,65,-9999,1425232421.37496,5.130870819091797,-45.98532104492188,-8.638145446777344,178.5921325683594,164.8143310546875,10,177227.9103964167,0.2144317626953125,-0.9697113037109375,-0.4048004150390625,177227.9092971667,0.3670557698784602,-0.7959016707367208,-0.2190926702425298,177227.8575244583,1.680709654226333,0.515785389453293,0.9642040752571459,0.02044219337403774,0.07430516183376312,0.3417430520057678,0.03587772324681282,-0.1010272353887558,0.1146823689341545,XTrueNorthZVertical,0.1307879888115785,0.4847066365902426,0.7170499694745298,0.4835217908820784,0.2811693847179413,-0.8215954303741455,-0.4959079623222351,2.75075626373291,-45.29005432128906,-8.005007743835449,2,192.168.1.8,10.83.46.32,1,0
2015-03-01 09:53:41.471,40,1425232407.228836,37.77937936490434,-122.4388172744405,56.19482,-1,-1,10,65,-9999,1425232421.427667,4.551109313964844,-45.88337707519531,-8.039047241210938,177.9525604248047,164.1747589111328,10,177227.9594523333,0.034576416015625,-0.887542724609375,-0.362213134765625,177227.961069625,0.4967921950138883,-0.3461523521663192,-0.4581963329159149,177227.9092971667,1.671933232218763,0.5056063808689967,0.9810898895862858,0.3471605479717255,-0.7794453501701355,-0.1877190172672272,-0.01147511601448059,-0.1182215884327888,0.07772275060415268,XTrueNorthZVertical,0.1421281085960521,0.4863450303882203,0.7126525543940163,0.4851746607485939,0.2693486511707306,-0.8311039805412292,-0.4865362346172333,2.423083305358887,-45.37842178344727,-7.600222587585449,2,192.168.1.8,10.83.46.32,1,0
2015-03-01 09:53:41.495,41,1425232407.228836,37.77937936490434,-122.4388172744405,56.19482,-1,-1,10,65,-9999,1425232421.479033,5.147922515869141,-45.90036010742188,-7.489883422851562,180.3679046630859,166.5901031494141,10,177228.0085931667,0.183837890625,-0.87469482421875,-0.3265838623046875,177227.961069625,0.4967921950138883,-0.3461523521663192,-0.4581963329159149,177227.961069625,1.618651893405694,0.5118270518451676,0.9906409820858491,0.4768971800804138,-0.3296961784362793,-0.4268230199813843,-0.2338934391736984,-0.05116521567106247,0.1156954392790794,XTrueNorthZVertical,0.1560786411752744,0.4865030032041203,0.6991069726164831,0.500203687545891,0.2684698700904846,-0.8363775014877319,-0.477908581495285,2.553921699523926,-45.47782135009766,-6.934059143066406,2,192.168.1.8,10.83.46.32,1,0
2015-03-01 09:53:41.565,42,1425232407.228836,37.77937936490434,-122.4388172744405,56.19482,-1,-1,10,65,-9999,1425232421.530311,6.034618377685547,-46.240234375,-6.424819946289062,181.8246002197266,168.0467987060547,10,177228.0575785833,0.3262939453125,-0.824127197265625,-0.2589569091796875,177228.0646122917,0.2927114975200262,1.113187753531562,-0.2108861393434506,177228.012839875,1.568623426184289,0.5860237865766447,0.9984856556582006,0.3718609809875488,1.176273584365845,-0.4279559850692749,-0.1156821250915527,-0.03404300659894943,0.1246281564235687,XTrueNorthZVertical,0.1453426390709037,0.5032588871116044,0.691583055283892,0.4973116628519097,0.2995200157165527,-0.84065181016922,-0.4512120187282562,3.993268013000488,-45.58476257324219,-5.377646446228027,2,192.168.1.8,10.83.46.32,1,0
2015-03-01 09:53:41.593,43,1425232407.228836,37.77937936490434,-122.4388172744405,56.19482,-1,-1,10,65,-9999,1425232421.58456,6.631431579589844,-45.84939575195312,-5.343124389648438,179.2835693359375,165.5057678222656,10,177228.106659375,0.426025390625,-0.8432464599609375,-0.2001190185546875,177228.0646122917,0.2927114975200262,1.113187753531562,-0.2108861393434506,177228.0646122917,1.529141646502342,0.6776572468735311,1.001464727614668,0.2728168666362762,1.129643678665161,-0.1795134246349335,-0.01168607920408249,0.01813428103923798,0.1610015481710434,XTrueNorthZVertical,0.1249203776699016,0.5238469894367116,0.6878740931654821,0.4866297004971116,0.3379800319671631,-0.8422614932060242,-0.4199584722518921,4.709983825683594,-45.583740234375,-4.772268295288086,2,192.168.1.8,10.83.46.32,1,0
2015-03-01 09:53:41.667,44,1425232407.228836,37.77937936490434,-122.4388172744405,56.19482,-1,-1,10,65,-9999,1425232421.660817,6.819004058837891,-45.56050109863281,-3.828727722167969,177.0670166015625,163.2892150878906,10,177228.155601875,0.4890289306640625,-0.9078216552734375,-0.17791748046875,177228.1163848334,0.4618770878585134,0.9850119407949205,-0.009794041224875406,177228.1163848334,1.503367358877957,0.7537438856850029,1.01257682189443,0.4419826865196228,1.00146758556366,0.02157832682132721,-0.008523307740688324,-0.02110892906785011,0.2010387927293777,XTrueNorthZVertical,0.1096228075955686,0.5430292251366092,0.6856665284895185,0.4721901258653882,0.3624967038631439,-0.8481995463371277,-0.3862042129039764,5.313822746276855,-45.59789276123047,-3.928258895874023,2,192.168.1.8,10.83.46.32,1,0
2015-03-01 09:53:41.691,45,1425232407.228836,37.77937936490434,-122.4388172744405,56.19482,-1,-1,10,65,-9999,1425232421.660817,6.819004058837891,-45.56050109863281,-3.828727722167969,177.0670166015625,163.2892150878906,10,177228.2047379584,0.390625,-0.9464263916015625,-0.2049560546875,177228.168155,0.6647859944727407,0.3588923821890403,0.1658883043010357,177228.168155,1.471026269931281,0.8185965872235093,1.038429149642883,0.6448917984962463,0.3753478825092316,0.1972603648900986,0.06237412989139557,-0.04822784662246704,0.1438413113355637,XTrueNorthZVertical,0.1057029195111996,0.5616294702622064,0.6808439748055569,0.4580946577553727,0.3706245422363281,-0.8616079688072205,-0.346798449754715,5.292025566101074,-45.73333740234375,-1.814505577087402,2,192.168.1.8,10.83.46.32,1,0
2015-03-01 09:53:41.765,46,1425232407.228836,37.77937936490434,-122.4388172744405,56.19482,-1,-1,10,65,-9999,1425232421.712344,6.955417633056641,-45.86636352539062,-2.297698974609375,175.9591674804688,162.1813659667969,10,177228.2536822917,0.3467864990234375,-0.978973388671875,-0.18505859375,177228.21992775,0.7869297473403528,-0.1401656302802874,0.08530371287632808,177228.21992775,1.420865623554386,0.863342226594314,1.065611195980484,0.7670357227325439,-0.1237102895975113,0.1166754812002182,0.002626936649903655,-0.06809137761592865,0.1105069369077682,XTrueNorthZVertical,0.1147095258387257,0.5740867706757122,0.6713393770595959,0.4544992274794988,0.3678259551525116,-0.8750848770141602,-0.3145322203636169,5.18159294128418,-45.77451324462891,-0.8253393173217773,2,192.168.1.8,10.83.46.32,1,0
2015-03-01 09:53:41.790,47,1425232407.228836,37.77937936490434,-122.4388172744405,56.19482,-1,-1,10,65,-9999,1425232421.763871,6.989517211914062,-45.96830749511719,-0.5669708251953125,176.2593536376953,162.4815521240234,10,177228.3027054583,0.411834716796875,-1.030380249023438,-0.232574462890625,177228.2717001667,0.7052423409082433,0.1665165440021854,0.1241906584814471,177228.2717001667,1.368809304168054,0.9115588579850334,1.093773621709748,0.6853485107421875,0.182971715927124,0.1555621176958084,-0.009046817198395729,-0.1042641624808311,0.07987255603075027,XTrueNorthZVertical,0.1240982690402229,0.5865030708898078,0.6622269215689016,0.4495211611933992,0.3629286587238312,-0.8883658647537231,-0.2812275290489197,4.978969573974609,-45.79869842529297,0.7248249053955078,2,192.168.1.8,10.83.46.32,1,0
2015-03-01 09:53:41.865,48,1425232407.228836,37.77937936490434,-122.4388172744405,56.19482,-1,-1,10,65,-9999,1425232421.816561,6.324497222900391,-45.88334655761719,1.546516418457031,176.02490234375,162.2471008300781,10,177228.3517597917,0.4804229736328125,-0.9961700439453125,-0.246063232421875,177228.3234704167,0.625710230746335,0.1311841195039952,0.2585551249592149,177228.3234704167,1.32804562086882,0.9590195814229978,1.122404542882909,0.605816662311554,0.1476391106843948,0.2899262309074402,0.06437632441520691,-0.117455005645752,0.01580908894538879,XTrueNorthZVertical,0.1311419487559515,0.5985920703795274,0.6562764562666622,0.4402164672732658,0.3548894226551056,-0.9011454582214355,-0.2489786446094513,4.272331237792969,-45.77222442626953,3.080029487609863,2,192.168.1.8,10.83.46.32,1,0
2015-03-01 09:53:41.888,49,1425232407.228836,37.77937936490434,-122.4388172744405,56.19482,-1,-1,10,65,-9999,1425232421.867804,5.71063232421875,-45.78140258789062,2.944412231445312,175.7957611083984,162.0179595947266,10,177228.4008872917,0.436859130859375,-0.94219970703125,-0.256805419921875,177228.375242875,0.5751056426609764,-0.02099875887916578,0.3322104375436454,177228.375242875,1.29450412709356,0.9938348111741495,1.151413521745581,0.5552122592926025,-0.004543929826468229,0.3635812103748322,0.1862759590148926,-0.06842531263828278,-0.05572963505983353,XTrueNorthZVertical,0.1406632314642026,0.607581292530992,0.6516702937141631,0.4317228962241329,0.3412814140319824,-0.9133404493331909,-0.2221176624298096,3.844944953918457,-45.74877166748047,3.886157035827637,2,192.168.1.8,10.83.46.32,1,0
2015-03-01 09:53:41.965,50,1425232407.228836,37.77937936490434,-122.4388172744405,56.19482,-1,-1,10,65,-9999,1425232421.919643,5.182022094726562,-45.56050109863281,4.358955383300781,176.1090393066406,162.3312377929688,10,177228.44981,0.2142791748046875,-0.793243408203125,-0.2215423583984375,177228.427015625,0.5844434843911211,-0.5599450655234823,0.1513088289133969,177228.427015625,1.255619503244045,1.012560166330892,1.180476564056027,0.5645502805709839,-0.5434903502464294,0.1826793551445007,-0.006194806657731533,0.06892196089029312,-0.05413725599646568,XTrueNorthZVertical,0.1572854003757078,0.6119573487318656,0.6452047665791261,0.4295117203273203,0.3227231204509735,-0.9247874617576599,-0.201539009809494,3.114052772521973,-45.69244384765625,5.033802032470703,2,192.168.1.8,10.83.46.32,1,0
2015-03-01 09:53:41.987,51,1425232407.228836,37.77937936490434,-122.4388172744405,56.19482,-1,-1,10,65,-9999,1425232421.972756,5.369590759277344,-45.16964721679688,5.14111328125,177.6084289550781,163.8306274414062,10,177228.498839375,0.1950225830078125,-0.966583251953125,-0.1690216064453125,177228.4787857083,0.4128181984698368,-0.4389992025141877,-0.1291044570087523,177228.427015625,1.255619503244045,1.012560166330892,1.180476564056027,0.5645502805709839,-0.5434903502464294,0.1826793551445007,-0.006194806657731533,0.06892196089029312,-0.05413725599646568,XTrueNorthZVertical,0.1572854003757078,0.6119573487318656,0.6452047665791261,0.4295117203273203,0.3227231204509735,-0.9247874617576599,-0.201539009809494,3.114052772521973,-45.69244384765625,5.033802032470703,2,192.168.1.8,10.83.46.32,1,0
2015-03-01 09:53:42.067,52,1425232407.228836,37.77937936490434,-122.4388172744405,56.19482,-1,-1,10,65,-9999,1425232422.025053,5.164970397949219,-45.03372192382812,6.405876159667969,178.7674560546875,164.9896545410156,10,177228.547875,0.253448486328125,-1.03533935546875,-0.170135498046875,177228.5305582917,0.1198097584882667,0.3222392961062797,0.3304788502028759,177228.5305582917,1.177184686767684,1.055635017763223,1.203465738183992,0.09991694241762161,0.3386936187744141,0.3618487119674683,-0.1149143576622009,-0.1127006635069847,0.03153118118643761,XTrueNorthZVertical,0.1762334796550978,0.6168270985663493,0.632514610980705,0.4340407360744406,0.3125156760215759,-0.9332893490791321,-0.1769321858882904,3.077998161315918,-45.40958404541016,7.164599418640137,2,192.168.1.8,10.83.46.32,1,0
2015-03-01 09:53:42.084,53,1425232407.228836,37.77937936490434,-122.4388172744405,56.19482,-1,-1,10,65,-9999,1425232422.025053,5.164970397949219,-45.03372192382812,6.405876159667969,178.7674560546875,164.9896545410156,10,177228.5969709583,0.30517578125,-0.9683837890625,-0.2163238525390625,177228.5823307917,0.06413664221626929,0.6248223328389026,0.6972424713097544,177228.5823307917,1.216077578293149,1.050941596342604,1.231656866445785,0.04424402490258217,0.641276478767395,0.7286120057106018,0.02041670493781567,-0.05448678135871887,-0.0437416285276413,XTrueNorthZVertical,0.1762293358611988,0.6215418076795921,0.6412251207798945,0.4140765020166625,0.2887263596057892,-0.9430413246154785,-0.1652580052614212,2.215375900268555,-45.41698455810547,7.431385040283203,2,192.168.1.8,10.83.46.32,1,0
2015-03-01 09:53:42.168,54,1425232407.228836,37.77937936490434,-122.4388172744405,56.19482,-1,-1,10,65,-9999,1425232422.153131,2.061531066894531,-44.52392578125,6.705429077148438,173.8507080078125,160.0729064941406,10,177228.6459265834,0.246551513671875,-0.930572509765625,-0.2199249267578125,177228.634100875,-0.01748631571746028,0.09873962689188684,0.5186255885786849,177228.634100875,1.267231968494192,1.020001075049957,1.260266478392696,-0.03737875074148178,0.1151936501264572,0.5499948263168335,0.0132628446444869,0.0227589588612318,-0.07004411518573761,XTrueNorthZVertical,0.18092035401634,0.6223401641091776,0.6493056432307637,0.3979481497143663,0.2603730261325836,-0.952171802520752,-0.1599210947751999,-0.386286735534668,-45.44881439208984,7.555912017822266,2,192.168.1.8,10.83.46.32,1,0
2015-03-01 09:53:42.181,55,1425232407.228836,37.77937936490434,-122.4388172744405,56.19482,-1,-1,10,65,-9999,1425232422.153131,2.061531066894531,-44.52392578125,6.705429077148438,173.8507080078125,160.0729064941406,10,177228.6949450417,0.19927978515625,-0.977813720703125,-0.1992034912109375,177228.6858735,-0.1174744325283763,0.1651780392383116,0.3532177185382994,177228.634100875,1.267231968494192,1.020001075049957,1.260266478392696,-0.03737875074148178,0.1151936501264572,0.5499948263168335,0.0132628446444869,0.0227589588612318,-0.07004411518573761,XTrueNorthZVertical,0.18092035401634,0.6223401641091776,0.6493056432307637,0.3979481497143663,0.2603730261325836,-0.952171802520752,-0.1599210947751999,-0.386286735534668,-45.44881439208984,7.555912017822266,2,192.168.1.8,10.83.46.32,1,0
2015-03-01 09:53:42.268,56,1425232407.228836,37.77937936490434,-122.4388172744405,56.19482,-1,-1,10,65,-9999,1425232422.207202,0.4245681762695312,-44.15010070800781,7.038253784179688,172.1508636474609,158.3730621337891,10,177228.743965375,0.2336273193359375,-0.9870758056640625,-0.1855621337890625,177228.7376463333,-0.1629036996673839,0.3578843757164453,0.2982825642043629,177228.7376463333,1.388510451883414,0.9239234381734965,1.283516378662462,-0.1827525049448013,0.374325305223465,0.3296298980712891,0.003680853638797998,-0.03370342403650284,-0.01366282720118761,XTrueNorthZVertical,0.1833916317396253,0.6172377430705385,0.6638414132109647,0.3803940832825531,0.2261012494564056,-0.9590181112289429,-0.1707701534032822,-1.89435863494873,-45.49373626708984,7.040414333343506,2,192.168.1.8,10.83.46.32,1,0
2015-03-01 09:53:42.280,57,1425232407.228836,37.77937936490434,-122.4388172744405,56.19482,-1,-1,10,65,-9999,1425232422.207202,0.4245681762695312,-44.15010070800781,7.038253784179688,172.1508636474609,158.3730621337891,10,177228.7929865833,0.235443115234375,-0.956878662109375,-0.1695709228515625,177228.7376463333,-0.1629036996673839,0.3578843757164453,0.2982825642043629,177228.7376463333,1.388510451883414,0.9239234381734965,1.283516378662462,-0.1827525049448013,0.374325305223465,0.3296298980712891,0.003680853638797998,-0.03370342403650284,-0.01366282720118761,XTrueNorthZVertical,0.1833916317396253,0.6172377430705385,0.6638414132109647,0.3803940832825531,0.2261012494564056,-0.9590181112289429,-0.1707701534032822,-1.89435863494873,-45.49373626708984,7.040414333343506,2,192.168.1.8,10.83.46.32,1,0
2015-03-01 09:53:42.367,58,1425232407.228836,37.77937936490434,-122.4388172744405,56.19482,-1,-1,10,65,-9999,1425232422.333225,-2.218467712402344,-44.54092407226562,5.290878295898438,165.6203918457031,151.8425903320312,10,177228.8420226667,0.2343597412109375,-0.9604339599609375,-0.1649017333984375,177228.841189,-0.2465085820843505,0.1741451689447174,0.3153036256793864,177228.7894162083,1.450638238003398,0.8791550080928766,1.288452225936495,-0.2348177284002304,0.2514053881168365,0.3144735991954803,0.02246157266199589,0.004685998894274235,0.00882758479565382,XTrueNorthZVertical,0.1809620830446331,0.6151458549158418,0.6712335576509647,0.3718787642720046,0.2145837098360062,-0.9604049921035767,-0.1776966005563736,-3.131244659423828,-45.53349304199219,6.30333423614502,2,192.168.1.8,10.83.46.32,1,0
2015-03-01 09:53:42.377,59,1425232407.228836,37.77937936490434,-122.4388172744405,56.19482,-1,-1,10,65,-9999,1425232422.333225,-2.218467712402344,-44.54092407226562,5.290878295898438,165.6203918457031,151.8425903320312,10,177228.8910455834,0.228973388671875,-0.9686431884765625,-0.1854248046875,177228.892961625,-0.1816731263980444,0.01078793294369298,0.2642665402329988,177228.841189,1.518106258657905,0.8264045051038558,1.292310496343167,-0.2663502991199493,0.1905898004770279,0.3466408550739288,0.03404749557375908,4.700449790107086e-05,0.02652260847389698,XTrueNorthZVertical,0.179423361292697,0.6121122864608353,0.6786518654147371,0.3640844054727622,0.2021890729665756,-0.9614728093147278,-0.1862516105175018,-3.550914764404297,-45.54302978515625,6.004953384399414,2,192.168.1.8,10.83.46.32,1,0
2015-03-01 09:53:42.469,60,1425232407.228836,37.77937936490434,-122.4388172744405,56.19482,-1,-1,10,65,-9999,1425232422.438709,-3.719017028808594,-44.6768798828125,4.492080688476562,163.0821990966797,149.3043975830078,10,177228.9400697917,0.188262939453125,-0.9669036865234375,-0.1934967041015625,177228.892961625,-0.1816731263980444,0.01078793294369298,0.2642665402329988,177228.892961625,1.564121397131548,0.789115125775247,1.293775170577132,-0.2014961838722229,0.02724217064678669,0.2955817878246307,0.03486814722418785,-0.006768795195966959,0.007242810912430286,XTrueNorthZVertical,0.178572861795417,0.6097359470534787,0.6835195470539509,0.3593533626521275,0.1941052377223969,-0.9618743658065796,-0.192667618393898,-4.220547676086426,-45.54981231689453,5.49887228012085,2,192.168.1.8,10.83.46.32,1,0
2015-03-01 09:53:42.475,61,1425232407.228836,37.77937936490434,-122.4388172744405,56.19482,-1,-1,10,65,-9999,1425232422.438709,-3.719017028808594,-44.6768798828125,4.492080688476562,163.0821990966797,149.3043975830078,10,177228.9890959584,0.1697845458984375,-0.9648590087890625,-0.214202880859375,177228.9447315417,-0.1503375740638451,-0.09559017258675914,0.2301993835687052,177228.9447315417,1.61163527510589,0.7418177702447806,1.295919628201241,-0.1701521426439285,-0.07913125306367874,0.2615027129650116,0.004878081846982241,-0.004445014055818319,0.006611521355807781,XTrueNorthZVertical,0.1810737296331369,0.6059357982880248,0.6875704957352242,0.3567925570096089,0.1833848506212234,-0.9624586701393127,-0.2001082301139832,-4.889739513397217,-45.5433464050293,4.972945213317871,2,192.168.1.8,10.83.46.32,1,0
2015-03-01 09:53:42.570,62,1425232407.228836,37.77937936490434,-122.4388172744405,56.19482,-1,-1,10,65,-9999,1425232422.548095,-4.503402709960938,-44.40498352050781,3.959548950195312,162.1167602539062,148.3389587402344,10,177229.0381494584,0.1621246337890625,-0.957794189453125,-0.2247467041015625,177229.04827675,-0.1089797475993505,-0.04621596492501708,0.07108456318417701,177228.9965042083,1.663067975118643,0.6888364142622699,1.296856027560088,-0.1629927158355713,-0.05255786329507828,0.1849805861711502,-0.002173000480979681,-0.002146593062207103,-0.005359851289540529,XTrueNorthZVertical,0.1841313673016479,0.6013934858408492,0.691779530274984,0.354771192192346,0.1719575524330139,-0.9627124071121216,-0.2088430225849152,-5.206375122070312,-45.52941131591797,4.77515983581543,2,192.168.1.8,10.83.46.32,1,0
2015-03-01 09:53:42.573,63,1425232407.228836,37.77937936490434,-122.4388172744405,56.19482,-1,-1,10,65,-9999,1425232422.548095,-4.503402709960938,-44.40498352050781,3.959548950195312,162.1167602539062,148.3389587402344,10,177229.087169,0.15093994140625,-0.9394989013671875,-0.2194671630859375,177229.04827675,-0.1089797475993505,-0.04621596492501708,0.07108456318417701,177229.04827675,1.700882071119772,0.6508340054103441,1.295560254287045,-0.1287955641746521,-0.02975804731249809,0.1023881882429123,-0.003506327047944069,0.00577232101932168,-0.01156546175479889,XTrueNorthZVertical,0.1855495062312233,0.5978816856592379,0.6951248361221668,0.3534265630226264,0.164654403924942,-0.9623610377311707,-0.2162177413702011,-5.583633899688721,-45.51780319213867,4.448398590087891,2,192.168.1.8,10.83.46.32,1,0
2015-03-01 09:53:42.638,64,1425232407.228836,37.77937936490434,-122.4388172744405,56.19482,-1,-1,10,65,-9999,1425232422.61932,-5.083168029785156,-44.13310241699219,3.693283081054688,161.2841949462891,147.5063934326172,10,177229.1362197917,0.141754150390625,-0.93719482421875,-0.2088775634765625,177229.100047125,-0.08057953141863652,-0.07702900505334288,0.01065104646366291,177229.100047125,1.724419424134773,0.6255968737062215,1.292463436798174,-0.1003975048661232,-0.06057192012667656,0.04195414483547211,-0.0139175895601511,0.02161918766796589,-0.002379026962444186,XTrueNorthZVertical,0.1863263914090049,0.5949144150153931,0.6973548408104282,0.3536319318484841,0.1608902513980865,-0.9615148305892944,-0.2227186262607574,-5.887351989746094,-45.52080154418945,4.003958702087402,2,192.168.1.8,10.83.46.32,1,0
2015-03-01 09:53:42.673,65,1425232407.228836,37.77937936490434,-122.4388172744405,56.19482,-1,-1,10,65,-9999,1425232422.61932,-5.083168029785156,-44.13310241699219,3.693283081054688,161.2841949462891,147.5063934326172,10,177229.185249125,0.137451171875,-0.9325714111328125,-0.2142791748046875,177229.1518195,-0.03770450208112384,-0.06129451670093673,-0.01184041420649229,177229.1518195,1.741214332941578,0.6063346386881661,1.291977479764706,-0.05752111226320267,-0.04483911022543907,0.01947152055799961,-0.0172647126019001,0.02804683521389961,0.01449024118483067,XTrueNorthZVertical,0.1879075639718036,0.5929676769334383,0.6985904719771818,0.3536261253503199,0.1568368524312973,-0.961381196975708,-0.2261601686477661,-5.965188503265381,-45.52048492431641,3.890773773193359,2,192.168.1.8,10.83.46.32,1,0
2015-03-01 09:53:42.736,66,1425232407.228836,37.77937936490434,-122.4388172744405,56.19482,-1,-1,10,65,-9999,1425232422.723162,-4.5545654296875,-44.59188842773438,3.210678100585938,162.1453552246094,148.3675537109375,10,177229.234309875,0.140228271484375,-0.950958251953125,-0.217926025390625,177229.2035922917,0.02243952902889865,-0.0578116346273311,-0.03527756337973463,177229.2035922917,1.747696820978521,0.5981042688491081,1.293829792701714,0.002628822810947895,-0.0413568876683712,-0.003955718129873276,-0.01543265767395496,0.02237517014145851,0.0199013352394104,XTrueNorthZVertical,0.1894420754780627,0.5925589081156678,0.6986927121033545,0.3532904429194616,0.1539672017097473,-0.9618893265724182,-0.2259712815284729,-6.099161624908447,-45.50443649291992,3.870685577392578,2,192.168.1.8,10.83.46.32,1,0
2015-03-01 09:53:42.772,67,1425232407.228836,37.77937936490434,-122.4388172744405,56.19482,-1,-1,10,65,-9999,1425232422.723162,-4.5545654296875,-44.59188842773438,3.210678100585938,162.1453552246094,148.3675537109375,10,177229.28333675,0.1462860107421875,-0.969635009765625,-0.2234344482421875,177229.2553623334,0.07021876951379225,-0.03878654443202303,-0.03828986488872325,177229.2553623334,1.74684519570539,0.5971878307882198,1.29727886595863,0.0504111722111702,-0.02233307622373104,-0.006958984769880772,-0.009635883383452892,0.00468157697468996,0.005395733751356602,XTrueNorthZVertical,0.1910931750614819,0.5931269937969602,0.6979526567183435,0.3529105541172534,0.1518935710191727,-0.9628267288208008,-0.2233675420284271,-6.213028430938721,-45.47552871704102,4.026215553283691,2,192.168.1.8,10.83.46.32,1,0
2015-03-01 09:53:42.839,68,1425232407.228836,37.77937936490434,-122.4388172744405,56.19482,-1,-1,10,65,-9999,1425232422.827327,-5.202529907226562,-44.38798522949219,3.410385131835938,161.6297912597656,147.8519897460938,10,177229.33238475,0.152496337890625,-0.984283447265625,-0.229644775390625,177229.307134875,0.1033018881553016,-0.02685185432294193,-0.04476640634368696,177229.307134875,1.739685379673932,0.602904172832599,1.30081722385757,0.08349499106407166,-0.01039907988160849,-0.01343245338648558,-0.006459788884967566,-0.001082538743503392,0.001914614695124328,XTrueNorthZVertical,0.1923337513247155,0.5942757794356146,0.6967231311309907,0.3527334789580102,0.1512351781129837,-0.9637764692306519,-0.2196880578994751,-6.22819995880127,-45.46429824829102,4.128310203552246,2,192.168.1.8,10.83.46.32,1,0
2015-03-01 09:53:42.872,69,1425232407.228836,37.77937936490434,-122.4388172744405,56.19482,-1,-1,10,65,-9999,1425232422.827327,-5.202529907226562,-44.38798522949219,3.410385131835938,161.6297912597656,147.8519897460938,10,177229.3814175834,0.1602783203125,-0.97802734375,-0.218780517578125,177229.3589075,0.1094537902733846,-0.03341867693885932,-0.09354007117961614,177229.3589075,1.726739503948589,0.6142194619392909,1.302847004660284,0.0896437019109726,-0.01696687191724777,-0.06220576539635658,0.0054822638630867,-0.01838068291544914,-0.01421195175498724,XTrueNorthZVertical,0.1928859117138249,0.5954940975734221,0.6952372167900966,0.353308674901621,0.1525835394859314,-0.9643158316612244,-0.2163636088371277,-6.229358196258545,-45.44809341430664,4.301389694213867,2,192.168.1.8,10.83.46.32,1,0
2015-03-01 09:53:42.938,70,1425232407.228836,37.77937936490434,-122.4388172744405,56.19482,-1,-1,10,65,-9999,1425232422.929892,-4.8785400390625,-44.60888671875,3.859725952148438,161.4324035644531,147.6546020507812,10,177229.4304708334,0.184844970703125,-0.9598846435546875,-0.2204742431640625,177229.4106777917,0.06272836263183539,-0.02869822390669387,-0.1376111261626834,177229.4106777917,1.702867864006302,0.6372209970361224,1.301975978485765,0.04291832447052002,-0.01224554795771837,-0.1062823832035065,0.02311798185110092,0.00258280080743134,-0.005155873019248247,XTrueNorthZVertical,0.1917410169113894,0.5970756686387481,0.6933420267551464,0.3549829078162503,0.1580191105604172,-0.9640848636627197,-0.2134720534086227,-5.922845363616943,-45.46662902832031,4.532284736633301,2,192.168.1.8,10.83.46.32,1,0
2015-03-01 09:53:42.971,71,1425232407.228836,37.77937936490434,-122.4388172744405,56.19482,-1,-1,10,65,-9999,1425232422.929892,-4.8785400390625,-44.60888671875,3.859725952148438,161.4324035644531,147.6546020507812,10,177229.4795030417,0.1808013916015625,-0.9669952392578125,-0.2050323486328125,177229.4624503333,0.02758156046162365,-0.1100532678347615,-0.1856460301122246,177229.4624503333,1.673411702941367,0.662941534242099,1.297283294388632,0.00777178630232811,-0.09359849244356155,-0.1543284356594086,0.008382212370634079,-0.0004746973281726241,0.009318345226347446,XTrueNorthZVertical,0.1901226080546959,0.5978317819459131,0.6911498309575337,0.3588348758446758,0.1662393659353256,-0.9628279209136963,-0.2129011154174805,-5.687859535217285,-45.49345779418945,4.563942909240723,2,192.168.1.8,10.83.46.32,1,0
2015-03-01 09:53:43.037,72,1425232407.228836,37.77937936490434,-122.4388172744405,56.19482,-1,-1,10,65,-9999,1425232423.033737,-3.736068725585938,-44.86380004882812,4.242485046386719,163.5892639160156,149.8114624023438,10,177229.5286646667,0.172760009765625,-0.9637603759765625,-0.1941986083984375,177229.5142230417,0.02152473319445643,-0.1244348703534074,-0.1926109953111088,177229.5142230417,1.645054704567235,0.6853680758569431,1.292489005814458,0.001719506224617362,-0.1079786270856857,-0.1612964123487473,0.005353387910872698,-0.009486458264291286,0.009977981448173523,XTrueNorthZVertical,0.189293729307051,0.5981825699407598,0.6887372201612096,0.3632995199307905,0.1738916039466858,-0.9615218639373779,-0.212690994143486,-5.292607307434082,-45.53362274169922,4.638222694396973,2,192.168.1.8,10.83.46.32,1,0
2015-03-01 09:53:43.069,73,1425232407.228836,37.77937936490434,-122.4388172744405,56.19482,-1,-1,10,65,-9999,1425232423.033737,-3.736068725585938,-44.86380004882812,4.242485046386719,163.5892639160156,149.8114624023438,10,177229.5775879167,0.1770477294921875,-0.9669342041015625,-0.19775390625,177229.5659930833,-0.0006378270810739776,-0.112559036104417,-0.1647372860779035,177229.5142230417,1.645054704567235,0.6853680758569431,1.292489005814458,0.001719506224617362,-0.1079786270856857,-0.1612964123487473,0.005353387910872698,-0.009486458264291286,0.009977981448173523,XTrueNorthZVertical,0.189293729307051,0.5981825699407598,0.6887372201612096,0.3632995199307905,0.1738916039466858,-0.9615218639373779,-0.212690994143486,-5.292607307434082,-45.53362274169922,4.638222694396973,2,192.168.1.8,10.83.46.32,1,0
2015-03-01 09:53:43.123,74,1425232407.228836,37.77937936490434,-122.4388172744405,56.19482,-1,-1,10,65,-9999,1425232423.086212,-3.258613586425781,-44.93179321289062,4.309059143066406,163.6762847900391,149.8984832763672,10,177229.626647625,0.173095703125,-0.957794189453125,-0.188507080078125,177229.617765875,-0.0009430253419970583,-0.05448428116138609,-0.08057819983809147,177229.617765875,1.610977743022548,0.7097967685436853,1.287740790443667,-0.02073267661035061,-0.03802629932761192,-0.04925533384084702,-0.01054517924785614,0.002442866563796997,0.01486485730856657,XTrueNorthZVertical,0.1895175358486118,0.5984670590138478,0.6853413352688014,0.3690901510558068,0.1820081919431686,-0.9602065682411194,-0.2118405699729919,-4.583505630493164,-45.59438323974609,4.793723106384277,2,192.168.1.8,10.83.46.32,1,0
2015-03-01 09:53:43.169,75,1425232407.228836,37.77937936490434,-122.4388172744405,56.19482,-1,-1,10,65,-9999,1425232423.144864,-3.002838134765625,-44.74482727050781,4.392265319824219,163.8308258056641,150.0530242919922,10,177229.6756709584,0.173095703125,-0.958282470703125,-0.1901702880859375,177229.6695383333,-0.003609914857602408,-0.01629561639408585,-0.04117140518818899,177229.617765875,1.610977743022548,0.7097967685436853,1.287740790443667,-0.02073267661035061,-0.03802629932761192,-0.04925533384084702,-0.01054517924785614,0.002442866563796997,0.01486485730856657,XTrueNorthZVertical,0.1895175358486118,0.5984670590138478,0.6853413352688014,0.3690901510558068,0.1820081919431686,-0.9602065682411194,-0.2118405699729919,-4.583505630493164,-45.59438323974609,4.793723106384277,2,192.168.1.8,10.83.46.32,1,0
2015-03-01 09:53:43.222,76,1425232407.228836,37.77937936490434,-122.4388172744405,56.19482,-1,-1,10,65,-9999,1425232423.215861,-3.105155944824219,-44.74482727050781,3.893013000488281,164.1194000244141,150.3415985107422,10,177229.7248162084,0.182830810546875,-0.97418212890625,-0.2024688720703125,177229.721308625,0.02206002857356236,0.009243033195338013,0.01685141811358539,177229.6695383333,1.606649581823742,0.7136115521616343,1.287380143564765,-0.02339205518364906,0.0001633827632758766,-0.009846368804574013,-0.00365932984277606,0.00337967649102211,0.02032067626714706,XTrueNorthZVertical,0.1893851478583433,0.5986902541191957,0.6849417080467639,0.3695376902625544,0.1830416470766068,-0.9601057767868042,-0.211406484246254,-4.500268459320068,-45.59730911254883,4.844473838806152,2,192.168.1.8,10.83.46.32,1,0
2015-03-01 09:53:43.268,77,1425232407.228836,37.77937936490434,-122.4388172744405,56.19482,-1,-1,10,65,-9999,1425232423.215861,-3.105155944824219,-44.74482727050781,3.893013000488281,164.1194000244141,150.3415985107422,10,177229.773721625,0.1801605224609375,-0.9800872802734375,-0.205841064453125,177229.721308625,0.02206002857356236,0.009243033195338013,0.01685141811358539,177229.721308625,1.607699697144237,0.7135013289059428,1.289439450244503,0.002340458799153566,0.0256895087659359,0.04817423969507217,-0.0001443575602024794,-0.01014562230557203,0.01263520028442144,XTrueNorthZVertical,0.1897993683581427,0.5991748730650616,0.6849075276967909,0.3686018886492897,0.181723952293396,-0.9606795907020569,-0.209931343793869,-4.539593696594238,-45.5860710144043,4.913065910339355,2,192.168.1.8,10.83.46.32,1,0
2015-03-01 09:53:43.320,78,1425232407.228836,37.77937936490434,-122.4388172744405,56.19482,-1,-1,10,65,-9999,1425232423.267029,-3.173362731933594,-44.37100219726562,3.693313598632812,163.5252532958984,149.7474517822266,10,177229.8228659584,0.1873931884765625,-0.9690093994140625,-0.2123260498046875,177229.8248539167,0.03400057763704163,0.07115353905641006,0.08132042283389657,177229.7730810833,1.616429394882837,0.7070952497797269,1.293124798245152,0.01576491259038448,0.04534819722175598,0.1014759764075279,0.001887955470010638,-0.0190623477101326,-0.001883260207250714,XTrueNorthZVertical,0.1906115863649808,0.5995566422011026,0.6855067142743835,0.3664418141723725,0.1780741959810257,-0.9616963267326355,-0.2083981186151505,-4.637432098388672,-45.57314300537109,4.941505432128906,2,192.168.1.8,10.83.46.32,1,0
2015-03-01 09:53:43.369,79,1425232407.228836,37.77937936490434,-122.4388172744405,56.19482,-1,-1,10,65,-9999,1425232423.319761,-3.054000854492188,-44.42196655273438,4.109352111816406,164.4820861816406,150.7042846679688,10,177229.871785875,0.1785736083984375,-0.9714813232421875,-0.207183837890625,177229.8248539167,0.03400057763704163,0.07115353905641006,0.08132042283389657,177229.8248539167,1.628463616278332,0.6994472129130948,1.297137599454698,0.01428505219519138,0.08760042488574982,0.1126422733068466,0.01340389437973499,-0.006220849230885506,-0.005526782013475895,XTrueNorthZVertical,0.1909624783558096,0.6001114046699276,0.68652856759351,0.3634255938655575,0.1739892959594727,-0.9627885222434998,-0.2067992687225342,-4.859793663024902,-45.54612731933594,4.976790428161621,2,192.168.1.8,10.83.46.32,1,0
2015-03-01 09:53:43.417,80,1425232407.228836,37.77937936490434,-122.4388172744405,56.19482,-1,-1,10,65,-9999,1425232423.372005,-3.395034790039062,-44.42196655273438,4.242477416992188,164.0966339111328,150.3188323974609,10,177229.920835875,0.172576904296875,-0.97515869140625,-0.2027587890625,177229.9283967083,0.01703517622880086,0.03375636576508137,0.07984876001551877,177229.8766239167,1.642693506774248,0.6889119669279564,1.300105523993265,-0.00138549879193306,0.03928195312619209,0.111439123749733,0.008589860983192921,-0.007894915528595448,-0.0007697766413912177,XTrueNorthZVertical,0.191294932401027,0.6001659922261106,0.6877576028282215,0.3608275390240469,0.1699837446212769,-0.9635863900184631,-0.206414058804512,-5.219877243041992,-45.50807571411133,4.96021842956543,2,192.168.1.8,10.83.46.32,1,0
2015-03-01 09:53:43.469,81,1425232407.228836,37.77937936490434,-122.4388172744405,56.19482,-1,-1,10,65,-9999,1425232423.422767,-3.5655517578125,-44.52392578125,4.142631530761719,163.9453277587891,150.1675262451172,10,177229.969864625,0.1606903076171875,-0.976837158203125,-0.2046661376953125,177229.9283967083,0.01703517622880086,0.03375636576508137,0.07984876001551877,177229.9283967083,1.657274011023919,0.677521203603189,1.303369129659489,-0.002678936347365379,0.05020388215780258,0.1111645773053169,0.006927575450390577,-0.01070473808795214,0.003126800525933504,XTrueNorthZVertical,0.1919130988941824,0.6001887766857555,0.6888984197325495,0.3582761011517809,0.1656493246555328,-0.9644539356231689,-0.2058855891227722,-5.364664077758789,-45.49191665649414,4.953958511352539,2,192.168.1.8,10.83.46.32,1,0
2015-03-01 09:53:43.515,82,1425232407.228836,37.77937936490434,-122.4388172744405,56.19482,-1,-1,10,65,-9999,1425232423.474469,-3.991844177246094,-44.37100219726562,3.926292419433594,163.8646545410156,150.0868530273438,10,177230.019009,0.160675048828125,-0.965911865234375,-0.1982269287109375,177229.9801691667,-0.001532116575122586,0.05804679175158509,0.08660812917824889,177229.9801691667,1.675505234300946,0.6632748074533296,1.306722483631259,-0.02124398574233055,0.07449430972337723,0.1179253980517387,-0.003694368293508887,-0.01431011967360973,0.0007493695011362433,XTrueNorthZVertical,0.192448748245386,0.6001050124708238,0.6903650030911096,0.3552937071866387,0.1607073098421097,-0.9653346538543701,-0.2056749016046524,-5.591047763824463,-45.46636962890625,4.938138961791992,2,192.168.1.8,10.83.46.32,1,0
2015-03-01 09:53:43.567,83,1425232407.228836,37.77937936490434,-122.4388172744405,56.19482,-1,-1,10,65,-9999,1425232423.526674,-4.179420471191406,-44.45596313476562,4.142631530761719,163.8004760742188,150.0226745605469,10,177230.0679195,0.151123046875,-0.9678497314453125,-0.2027435302734375,177230.0319395,-0.01271552894069233,0.07776643435918582,0.07145154678238994,177230.0319395,1.69438066786687,0.6496824851841932,1.309386742299817,-0.03242477774620056,0.09421422332525253,0.1027688831090927,0.005600967444479465,-0.003699921071529388,0.0002404001861577854,XTrueNorthZVertical,0.1923439247942284,0.600090027221167,0.6920497947333725,0.3520835951690801,0.156340554356575,-0.9660266637802124,-0.2057915478944778,-6.017341613769531,-45.42071151733398,4.856581687927246,2,192.168.1.8,10.83.46.32,1,0
2015-03-01 09:53:43.613,84,1425232407.228836,37.77937936490434,-122.4388172744405,56.19482,-1,-1,10,65,-9999,1425232423.577735,-4.3328857421875,-44.47294616699219,4.225837707519531,163.734375,149.9565734863281,10,177230.11706225,0.1617584228515625,-0.9723358154296875,-0.2060394287109375,177230.0837120833,-0.01889832372742029,0.08293429845448458,0.05420731240801786,177230.0837120833,1.713485763313449,0.6354951218791457,1.310952020471096,-0.03860654681921005,0.09938193112611771,0.08552562445402145,-0.003398664761334658,-0.004715637769550085,0.00541668338701129,XTrueNorthZVertical,0.1920296079392014,0.5997822920382013,0.6938249748639364,0.3492745891707736,0.152507558465004,-0.9664300084114075,-0.206771656870842,-6.161821842193604,-45.40780639648438,4.795701026916504,2,192.168.1.8,10.83.46.32,1,0
2015-03-01 09:53:43.672,85,1425232407.228836,37.77937936490434,-122.4388172744405,56.19482,-1,-1,10,65,-9999,1425232423.629005,-4.588661193847656,-44.38798522949219,4.142623901367188,163.6612243652344,149.8834228515625,10,177230.1659722917,0.153594970703125,-0.9726715087890625,-0.207244873046875,177230.1354847084,-0.03984381938478449,0.09294512099209244,0.04542979977122569,177230.1354847084,1.730435756926207,0.6251065889148039,1.311181041348579,-0.05955129861831665,0.109393022954464,0.07674552500247955,0.009125751443207264,-0.002001791261136532,-0.0009106046054512262,XTrueNorthZVertical,0.1906285915080715,0.5996482956899947,0.6957472520451149,0.3464367552680301,0.1502217799425125,-0.9664888381958008,-0.208165317773819,-6.367132663726807,-45.39066696166992,4.688555717468262,2,192.168.1.8,10.83.46.32,1,0
2015-03-01 09:53:43.711,86,1425232407.228836,37.77937936490434,-122.4388172744405,56.19482,-1,-1,10,65,-9999,1425232423.682072,-5.117271423339844,-44.54092407226562,3.793159484863281,163.5164947509766,149.7386932373047,10,177230.21502125,0.1664276123046875,-0.972198486328125,-0.2046051025390625,177230.187254875,-0.01890471531403648,0.07888283148814704,0.002935069837376328,177230.187254875,1.741893251152939,0.6190202206291019,1.310847617989049,-0.03861077874898911,0.09533113986253738,0.03424806147813797,0.009628689847886562,-0.00777896586805582,0.002352737355977297,XTrueNorthZVertical,0.1892079144408435,0.5996092557950411,0.6971957009115728,0.3443650137013345,0.149139016866684,-0.9664031863212585,-0.2093382179737091,-6.593734741210938,-45.37899398803711,4.483913421630859,2,192.168.1.8,10.83.46.32,1,0
2015-03-01 09:53:43.767,87,1425232407.228836,37.77937936490434,-122.4388172744405,56.19482,-1,-1,10,65,-9999,1425232423.732659,-5.168418884277344,-44.59188842773438,3.776512145996094,163.3571319580078,149.5793304443359,10,177230.2640475833,0.168670654296875,-0.9684295654296875,-0.2041168212890625,177230.2390275833,-0.02369254632178093,0.05731202560683223,-0.009966880379621549,177230.2390275833,1.745033865786631,0.6206461802496712,1.309845506413751,-0.04339566454291344,0.07376156747341156,0.0213402658700943,0.01444742362946272,-0.003169471397995949,0.01138158049434423,XTrueNorthZVertical,0.1873841681777376,0.5999546566511484,0.6980330949573077,0.3430617792417269,0.150042325258255,-0.9661450982093811,-0.2098831683397293,-6.618183612823486,-45.38079452514648,4.429356575012207,2,192.168.1.8,10.83.46.32,1,0
2015-03-01 09:53:43.810,88,1425232407.228836,37.77937936490434,-122.4388172744405,56.19482,-1,-1,10,65,-9999,1425232423.784961,-5.338943481445312,-44.52392578125,3.709945678710938,163.1847991943359,149.4069976806641,10,177230.3132146667,0.1634368896484375,-0.9745330810546875,-0.19830322265625,177230.2908001667,-0.009947705619772979,0.0163946859866368,-0.03586958409005924,177230.2908001667,1.744962175784496,0.6234890577751778,1.308211608936289,-0.02964744530618191,0.03284559771418571,-0.004568278789520264,0.01434893906116486,-0.004553609061986208,0.01200658455491066,XTrueNorthZVertical,0.1858998432804917,0.6000605983476232,0.6985212323863131,0.342690263996112,0.1515598744153976,-0.9657222628593445,-0.2107370495796204,-6.616256237030029,-45.38900375366211,4.347332954406738,2,192.168.1.8,10.83.46.32,1,0
2015-03-01 09:53:43.870,89,1425232407.228836,37.77937936490434,-122.4388172744405,56.19482,-1,-1,10,65,-9999,1425232423.83635,-5.185478210449219,-44.60888671875,3.626747131347656,163.0335998535156,149.2557983398438,10,177230.3621094583,0.1673736572265625,-0.9626922607421875,-0.1956024169921875,177230.3425701667,0.004726578302672632,0.02502119738962147,-0.05323872071955604,177230.2908001667,1.744962175784496,0.6234890577751778,1.308211608936289,-0.02964744530618191,0.03284559771418571,-0.004568278789520264,0.01434893906116486,-0.004553609061986208,0.01200658455491066,XTrueNorthZVertical,0.1858998432804917,0.6000605983476232,0.6985212323863131,0.342690263996112,0.1515598744153976,-0.9657222628593445,-0.2107370495796204,-6.616256237030029,-45.38900375366211,4.347332954406738,2,192.168.1.8,10.83.46.32,1,0
2015-03-01 09:53:43.908,90,1425232407.228836,37.77937936490434,-122.4388172744405,56.19482,-1,-1,10,65,-9999,1425232423.888473,-5.338943481445312,-44.86380004882812,3.543533325195312,162.8566741943359,149.0788726806641,10,177230.4112502083,0.1732635498046875,-0.9647064208984375,-0.1970367431640625,177230.3943429583,-0.005051750271771307,0.01463060808056831,-0.08109245624458578,177230.3943429583,1.73084963645846,0.6417626601232336,1.305217264771576,-0.02474158816039562,0.03108478896319866,-0.04980219900608063,0.01633107475936413,0.001638065092265606,0.01205150783061981,XTrueNorthZVertical,0.1828115876789562,0.6012120789018962,0.6982082799451697,0.3429710774424061,0.1571155786514282,-0.9649406671524048,-0.2102479189634323,-6.479931354522705,-45.41513824462891,4.279244422912598,2,192.168.1.8,10.83.46.32,1,0
2015-03-01 09:53:43.966,91,1425232407.228836,37.77937936490434,-122.4388172744405,56.19482,-1,-1,10,65,-9999,1425232423.940083,-5.28778076171875,-44.91476440429688,3.593460083007812,162.6947174072266,148.9169158935547,10,177230.4601718333,0.163177490234375,-0.9633331298828125,-0.2000885009765625,177230.4461155834,0.03082582330155817,-0.02910861703067508,-0.09350784693042619,177230.4461155834,1.717427118151263,0.655334944069457,1.303102140615791,0.01114065200090408,-0.01265272591263056,-0.06222359463572502,0.008784884586930275,-0.0004909008275717497,0.008923500776290894,XTrueNorthZVertical,0.1814392760717035,0.601849512680306,0.6974259204884309,0.3441715287021245,0.1611980199813843,-0.9643833637237549,-0.2097139060497284,-6.324631690979004,-45.43860626220703,4.262382507324219,2,192.168.1.8,10.83.46.32,1,0
2015-03-01 09:53:44.007,92,1425232407.228836,37.77937936490434,-122.4388172744405,56.19482,-1,-1,10,65,-9999,1425232423.992189,-5.032005310058594,-44.72782897949219,3.676673889160156,162.5440826416016,148.7662811279297,10,177230.5092186667,0.1591644287109375,-0.961578369140625,-0.1956024169921875,177230.49788575,0.05038807308873522,-0.01789111620315232,-0.1244066408458525,177230.49788575,1.701790368774882,0.6695955615705559,1.30221719451654,0.03070685267448425,-0.001434425706975162,-0.09312255680561066,-0.005445833317935467,-0.001259411685168743,0.01029377989470959,XTrueNorthZVertical,0.1808955617875243,0.6026983684460065,0.6961375859294049,0.3455776850546284,0.1647018194198608,-0.9641489386558533,-0.2080629467964172,-6.055627822875977,-45.46549987792969,4.365018844604492,2,192.168.1.8,10.83.46.32,1,0
2015-03-01 09:53:44.066,93,1425232407.228836,37.77937936490434,-122.4388172744405,56.19482,-1,-1,10,65,-9999,1425232424.043025,-4.79327392578125,-44.35397338867188,3.709953308105469,162.4337768554688,148.6559753417969,10,177230.5582405,0.166748046875,-0.956268310546875,-0.1925201416015625,177230.54965825,0.05502836497208928,0.02790726506294034,-0.1108924298942454,177230.49788575,1.701790368774882,0.6695955615705559,1.30221719451654,0.03070685267448425,-0.001434425706975162,-0.09312255680561066,-0.005445833317935467,-0.001259411685168743,0.01029377989470959,XTrueNorthZVertical,0.1808955617875243,0.6026983684460065,0.6961375859294049,0.3455776850546284,0.1647018194198608,-0.9641489386558533,-0.2080629467964172,-6.055627822875977,-45.46549987792969,4.365018844604492,2,192.168.1.8,10.83.46.32,1,0
2015-03-01 09:53:44.104,94,1425232407.228836,37.77937936490434,-122.4388172744405,56.19482,-1,-1,10,65,-9999,1425232424.096138,-4.264671325683594,-44.2010498046875,3.793167114257812,162.3434143066406,148.5656127929688,10,177230.6074029584,0.174346923828125,-0.9611663818359375,-0.1932373046875,177230.6014310417,0.07472244123322525,0.02050314460030204,-0.1131872758055667,177230.6014310417,1.663843015668695,0.7101691635263723,1.301351436071917,0.0550505556166172,0.0369616411626339,-0.08190343528985977,-0.0004542505485005677,0.005880482960492373,0.00767575902864337,XTrueNorthZVertical,0.1779873961822588,0.6061341121704074,0.6933159248948135,0.3467491250228894,0.1735499501228333,-0.9639188051223755,-0.2018438428640366,-5.730718612670898,-45.48787307739258,4.565975189208984,2,192.168.1.8,10.83.46.32,1,0
2015-03-01 09:53:44.165,95,1425232407.228836,37.77937936490434,-122.4388172744405,56.19482,-1,-1,10,65,-9999,1425232424.147373,-4.230575561523438,-44.09909057617188,3.593467712402344,162.2555389404297,148.4777374267578,10,177230.6563189167,0.165802001953125,-0.95599365234375,-0.195343017578125,177230.6014310417,0.07472244123322525,0.02050314460030204,-0.1131872758055667,177230.6014310417,1.663843015668695,0.7101691635263723,1.301351436071917,0.0550505556166172,0.0369616411626339,-0.08190343528985977,-0.0004542505485005677,0.005880482960492373,0.00767575902864337,XTrueNorthZVertical,0.1779873961822588,0.6061341121704074,0.6933159248948135,0.3467491250228894,0.1735499501228333,-0.9639188051223755,-0.2018438428640366,-5.730718612670898,-45.48787307739258,4.565975189208984,2,192.168.1.8,10.83.46.32,1,0
2015-03-01 09:53:44.202,96,1425232407.228836,37.77937936490434,-122.4388172744405,56.19482,-1,-1,10,65,-9999,1425232424.147373,-4.230575561523438,-44.09909057617188,3.593467712402344,162.2555389404297,148.4777374267578,10,177230.7053552917,0.153228759765625,-0.9473876953125,-0.2110443115234375,177230.7049739167,0.1297023366734751,0.05892323806633017,-0.1986571699339157,177230.6532010833,1.640640982362314,0.734414040627156,1.301395213129808,0.0881812795996666,0.03952037915587425,-0.1089364886283875,-0.01182944606989622,0.006502486765384674,0.001287379185669124,XTrueNorthZVertical,0.1766528605206164,0.6082933542617744,0.691433970974511,0.3474075824827378,0.1783638745546341,-0.9639304876327515,-0.1975459307432175,-5.496704578399658,-45.49602508544922,4.768013954162598,2,192.168.1.8,10.83.46.32,1,0
2015-03-01 09:53:44.266,97,1425232407.228836,37.77937936490434,-122.4388172744405,56.19482,-1,-1,10,65,-9999,1425232424.251329,-4.162361145019531,-44.57490539550781,4.192573547363281,159.8379211425781,146.0601196289062,10,177230.754370875,0.139556884765625,-0.931640625,-0.2297515869140625,177230.7567463334,0.1291209686075108,0.1471990387191867,-0.2644915773451105,177230.7049739167,1.614121202231895,0.7624468947262563,1.300610206670826,0.1100302785634995,0.07538037002086639,-0.1673649698495865,-0.0282712746411562,0.01436515618115664,-0.01686858758330345,XTrueNorthZVertical,0.1747947625866956,0.6106871233792389,0.6893670439660208,0.3482543747863619,0.1843534260988235,-0.9637212157249451,-0.1930160522460938,-5.36538553237915,-45.4999885559082,4.878495216369629,2,192.168.1.8,10.83.46.32,1,0
2015-03-01 09:53:44.300,98,1425232407.228836,37.77937936490434,-122.4388172744405,56.19482,-1,-1,10,65,-9999,1425232424.251329,-4.162361145019531,-44.57490539550781,4.192573547363281,159.8379211425781,146.0601196289062,10,177230.8035263334,0.1034393310546875,-0.9066619873046875,-0.2355194091796875,177230.7567463334,0.1291209686075108,0.1471990387191867,-0.2644915773451105,177230.7567463334,1.588329927180356,0.7926922538737642,1.298167169416062,0.109493151307106,0.1636356860399246,-0.2331761866807938,-0.05222552269697189,0.03142566233873367,-0.04074672237038612,XTrueNorthZVertical,0.1714460763727921,0.613273031757951,0.6877257515720453,0.3486197421155177,0.1917824149131775,-0.9630662798881531,-0.1890048682689667,-5.140601634979248,-45.51026153564453,5.022584915161133,2,192.168.1.8,10.83.46.32,1,0
2015-03-01 09:53:44.366,99,1425232407.228836,37.77937936490434,-122.4388172744405,56.19482,-1,-1,10,65,-9999,1425232424.354799,-2.593582153320312,-44.3709716796875,4.259140014648438,161.3471069335938,147.5693054199219,10,177230.852440375,0.11932373046875,-0.944549560546875,-0.254364013671875,177230.8085166667,0.07004166930130198,0.357772522950662,-0.3700049544696139,177230.8085166667,1.549545493638738,0.8419865993366104,1.290482157045705,0.05040696635842323,0.3742063641548157,-0.3386808335781097,-0.1029382646083832,0.05430658161640167,-0.05127038806676865,XTrueNorthZVertical,0.1638095294567778,0.6172859360695671,0.6857310385892041,0.3491381624206629,0.2063775956630707,-0.960968554019928,-0.1842490285634995,-4.688447952270508,-45.54945373535156,5.108962059020996,2,192.168.1.8,10.83.46.32,1,0
2015-03-01 09:53:44.398,100,1425232407.228836,37.77937936490434,-122.4388172744405,56.19482,-1,-1,10,65,-9999,1425232424.354799,-2.593582153320312,-44.3709716796875,4.259140014648438,161.3471069335938,147.5693054199219,10,177230.90159575,0.1158905029296875,-0.9573211669921875,-0.275604248046875,177230.9120619583,0.1376502746307076,0.5580097463593217,-0.269985146041726,177230.8602892084,1.515879367145974,0.8997227866620559,1.279928694537226,0.03422369435429573,0.6135364770889282,-0.2908640205860138,-0.1052720993757248,0.01344585325568914,-0.07603424787521362,XTrueNorthZVertical,0.1507756174798775,0.6229781933610825,0.6851248287512436,0.3460763721376255,0.2245958298444748,-0.9579954147338867,-0.1783297657966614,-4.146778106689453,-45.60271835327148,5.102154731750488,2,192.168.1.8,10.83.46.32,1,0
2015-03-01 09:53:44.438,101,1425232407.228836,37.77937936490434,-122.4388172744405,56.19482,-1,-1,10,65,-9999,1425232424.407077,-1.877403259277344,-44.60888671875,4.059440612792969,161.3224029541016,147.5446014404297,10,177230.9505104167,0.0480194091796875,-0.8955535888671875,-0.271759033203125,177230.9120619583,0.1376502746307076,0.5580097463593217,-0.269985146041726,177230.9120619583,1.483251587164833,0.9614579324122657,1.272692037885901,0.1180054917931557,0.5744391679763794,-0.2386476695537567,-0.1421093493700027,0.01152853760868311,-0.1184937655925751,XTrueNorthZVertical,0.1373005403003013,0.6301588330536702,0.6843308074147796,0.3402054604705154,0.2408489733934402,-0.9558950066566467,-0.1680968105792999,-3.655646324157715,-45.65169906616211,5.039283275604248,2,192.168.1.8,10.83.46.32,1,0
2015-03-01 09:53:44.496,102,1425232407.228836,37.77937936490434,-122.4388172744405,56.19482,-1,-1,10,65,-9999,1425232424.458225,-1.519317626953125,-44.72782897949219,4.209213256835938,160.6555480957031,146.8777465820312,10,177230.9996572083,0.03521728515625,-0.8486480712890625,-0.2547149658203125,177230.963832,0.2085880976388212,0.5901969776101283,-0.4311652478516106,177230.963832,1.435178898338459,1.03524380723039,1.264656611287781,0.1889399290084839,0.6066246032714844,-0.3998225331306458,-0.2102784961462021,0.06080389022827148,-0.1120394542813301,XTrueNorthZVertical,0.1244766356840473,0.6384402725176873,0.6812723070935582,0.3358089214672229,0.2591829001903534,-0.9535040855407715,-0.1537991762161255,-3.09874439239502,-45.66196823120117,5.312071800231934,2,192.168.1.8,10.83.46.32,1,0
2015-03-01 09:53:44.536,103,1425232407.228836,37.77937936490434,-122.4388172744405,56.19482,-1,-1,10,65,-9999,1425232424.510346,-1.417007446289062,-44.86376953125,4.7750244140625,160.1477661132812,146.3699645996094,10,177231.048561375,0.06488037109375,-0.790435791015625,-0.2168731689453125,177231.015604625,0.2522255899964236,0.8717192038101866,-0.5582251960915091,177231.015604625,1.369981057104906,1.134263735610586,1.248611315345021,0.2325771152973175,0.8881464004516602,-0.5268818736076355,-0.2538348436355591,0.1189712360501289,-0.1136680543422699,XTrueNorthZVertical,0.1060427434434434,0.6494746318999068,0.6761472674989318,0.331304262406075,0.2869464159011841,-0.9485458135604858,-0.1338752806186676,-2.616031646728516,-45.6672248840332,5.522396087646484,2,192.168.1.8,10.83.46.32,1,0
2015-03-01 09:53:44.594,104,1425232407.228836,37.77937936490434,-122.4388172744405,56.19482,-1,-1,10,65,-9999,1425232424.562321,-0.7008285522460938,-44.59187316894531,5.008010864257812,158.3745880126953,144.5967864990234,10,177231.097710625,0.121917724609375,-0.7332305908203125,-0.1815643310546875,177231.0673772917,0.2834692632730152,1.171531221428582,-0.6857245659112706,177231.0673772917,1.30051362284765,1.253343249735033,1.224668634299969,0.2638791501522064,1.187933206558228,-0.6543828248977661,-0.2478280514478683,0.1693616807460785,-0.1094029247760773,XTrueNorthZVertical,0.08002764161331649,0.6638119334870453,0.6695550854548331,0.3234892326381344,0.3223061859607697,-0.9406934976577759,-0.1058985888957977,-1.735317230224609,-45.66160202026367,5.902751922607422,2,192.168.1.8,10.83.46.32,1,0
2015-03-01 09:53:44.664,105,1425232407.228836,37.77937936490434,-122.4388172744405,56.19482,-1,-1,10,65,-9999,1425232424.614032,0.151763916015625,-44.59187316894531,5.740242004394531,156.7029724121094,142.9251708984375,10,177231.146618375,0.158660888671875,-0.7173614501953125,-0.111083984375,177231.119147625,0.3243149638598875,1.318113205723197,-0.7054000000447761,177231.119147625,1.236430074822659,1.377324806410126,1.195339528891267,0.3047250509262085,1.334514975547791,-0.6740586161613464,-0.2166369706392288,0.2145656794309616,-0.09513039141893387,XTrueNorthZVertical,0.0495807295401932,0.6799190167073492,0.6613411194123925,0.3128574888117168,0.3598559498786926,-0.9303402304649353,-0.07050376385450363,-0.3758296966552734,-45.60299301147461,6.562138080596924,2,192.168.1.8,10.83.46.32,1,0
2015-03-01 09:53:44.692,106,1425232407.228836,37.77937936490434,-122.4388172744405,56.19482,-1,-1,10,65,-9999,1425232424.665883,0.8849945068359375,-44.77880859375,6.622238159179688,156.3672180175781,142.5894165039062,10,177231.1956562084,0.2222900390625,-0.6946563720703125,0.008392333984375,177231.170920125,0.3284583098838328,1.442979508173198,-0.7110059541393928,177231.170920125,1.185107731735862,1.495039145330282,1.1639048578825,0.3088686168193817,1.459381103515625,-0.6796648502349854,-0.2131333649158478,0.2126975208520889,-0.04408291727304459,XTrueNorthZVertical,0.01721167917032407,0.696223666595878,0.6521215413796743,0.2995227236684442,0.3946214020252228,-0.9183554649353027,-0.02995272912085056,0.5934906005859375,-45.50683975219727,7.184094429016113,2,192.168.1.8,10.83.46.32,1,0
2015-03-01 09:53:44.738,107,1425232407.228836,37.77937936490434,-122.4388172744405,56.19482,-1,-1,10,65,-9999,1425232424.71801,2.232086181640625,-44.79580688476562,7.43768310546875,156.0019989013672,142.2241973876953,10,177231.2447374167,0.3814544677734375,-0.7098236083984375,0.194305419921875,177231.222692875,0.1962880218281813,1.36023935416218,-0.7722871550348792,177231.222692875,1.149704354535281,1.598746157534063,1.128465701260856,0.1766984909772873,1.376640915870667,-0.740946352481842,-0.1552204638719559,0.2106412649154663,0.08021606504917145,XTrueNorthZVertical,-0.01648294579974477,0.7111325147857857,0.6420628160956998,0.285961888461911,0.4278797805309296,-0.9037564992904663,0.01196228247135878,1.824164390563965,-45.31730651855469,8.114801406860352,2,192.168.1.8,10.83.46.32,1,0
2015-03-01 09:53:44.791,108,1425232407.228836,37.77937936490434,-122.4388172744405,56.19482,-1,-1,10,65,-9999,1425232424.771036,2.709541320800781,-44.79580688476562,7.204696655273438,151.5267639160156,137.7489624023438,10,177231.2937111667,0.5662994384765625,-0.691009521484375,0.232391357421875,177231.2744629583,-0.1098716402484181,1.445643201895495,-0.4839930428149675,177231.2744629583,1.155123474840219,1.664612517247828,1.09756206587289,-0.129460945725441,1.462044477462769,-0.452652633190155,0.04161334782838821,0.1738055348396301,0.176222175359726,XTrueNorthZVertical,-0.05026137613934349,0.7202927397318482,0.6367519680654685,0.2705533161433359,0.4537632465362549,-0.8900988698005676,0.04269567504525185,2.732967376708984,-45.20655059814453,8.469626426696777,2,192.168.1.8,10.83.46.32,1,0
2015-03-01 09:53:44.868,109,1425232407.228836,37.77937936490434,-122.4388172744405,56.19482,-1,-1,10,65,-9999,1425232424.825236,3.016471862792969,-44.82978820800781,7.038291931152344,148.9964904785156,135.2186889648438,10,177231.3427251667,0.67962646484375,-0.779876708984375,0.2636871337890625,177231.3262357083,-0.05357800744243213,0.9199101689996065,-0.05860046294221256,177231.3262357083,1.16736620624867,1.715328204974129,1.089304044377939,-0.07316712290048599,0.9363113045692444,-0.02726034261286259,0.1875087171792984,0.1429729163646698,0.2373768836259842,XTrueNorthZVertical,-0.07365879486231805,0.7265841388865155,0.6353527329293598,0.2509517451033192,0.4582737386226654,-0.8863048553466797,0.06670025736093521,2.978984832763672,-45.19830322265625,8.430586814880371,2,192.168.1.8,10.83.46.32,1,0
2015-03-01 09:53:44.888,110,1425232407.228836,37.77937936490434,-122.4388172744405,56.19482,-1,-1,10,65,-9999,1425232424.875449,2.539016723632812,-44.387939453125,7.071578979492188,145.9403076171875,132.1625061035156,10,177231.3917590417,0.5906219482421875,-0.8291015625,0.21636962890625,177231.37800825,0.1411557935735789,0.04054689391256541,0.2763911137278026,177231.37800825,1.163315587702718,1.742583921856091,1.09876157061346,0.1215668618679047,0.05694790184497833,0.3077309429645538,0.1779546588659286,0.09850015491247177,0.1345063894987106,XTrueNorthZVertical,-0.07762499016889353,0.7299578157777359,0.635512553588767,0.2392900851907509,0.44800665974617,-0.890644907951355,0.07772810012102127,2.436208724975586,-45.22942733764648,8.438007354736328,2,192.168.1.8,10.83.46.32,1,0
2015-03-01 09:53:44.935,111,1425232407.228836,37.77937936490434,-122.4388172744405,56.19482,-1,-1,10,65,-9999,1425232424.875449,2.539016723632812,-44.387939453125,7.071578979492188,145.9403076171875,132.1625061035156,10,177231.4407715417,0.5279541015625,-0.865264892578125,0.1858978271484375,177231.4297785833,0.1849810387880318,-0.2977288930137355,0.2640577484035366,177231.37800825,1.163315587702718,1.742583921856091,1.09876157061346,0.1215668618679047,0.05694790184497833,0.3077309429645538,0.1779546588659286,0.09850015491247177,0.1345063894987106,XTrueNorthZVertical,-0.07762499016889353,0.7299578157777359,0.635512553588767,0.2392900851907509,0.44800665974617,-0.890644907951355,0.07772810012102127,2.436208724975586,-45.22942733764648,8.438007354736328,2,192.168.1.8,10.83.46.32,1,0
2015-03-01 09:53:44.987,112,1425232407.228836,37.77937936490434,-122.4388172744405,56.19482,-1,-1,10,65,-9999,1425232424.951595,1.686424255371094,-44.59184265136719,7.504249572753906,144.5302886962891,130.7524871826172,10,177231.4898114583,0.4558258056640625,-0.9171905517578125,0.14471435546875,177231.4815510834,0.120052372463573,-0.3291448728128552,0.2160390897366449,177231.4815510834,1.119642002792691,1.756039064961387,1.123905240394118,0.1004638522863388,-0.3127442002296448,0.2473782747983932,0.05032727494835854,-0.01980532333254814,0.06230855360627174,XTrueNorthZVertical,-0.05741582797312078,0.7324633202725881,0.6344215153811827,0.2402295787951545,0.4247703850269318,-0.9017950296401978,0.07959818840026855,1.366975784301758,-45.1637077331543,9.011467933654785,2,192.168.1.8,10.83.46.32,1,0
2015-03-01 09:53:45.035,113,1425232407.228836,37.77937936490434,-122.4388172744405,56.19482,-1,-1,10,65,-9999,1425232425.004299,1.328346252441406,-44.50688171386719,7.9202880859375,144.7627563476562,130.9849548339844,10,177231.538835625,0.4746246337890625,-0.9226226806640625,0.20111083984375,177231.533323875,-0.01483114411065128,-0.1632541716668384,0.2206554131701882,177231.4815510834,1.119642002792691,1.756039064961387,1.123905240394118,0.1004638522863388,-0.3127442002296448,0.2473782747983932,0.05032727494835854,-0.01980532333254814,0.06230855360627174,XTrueNorthZVertical,-0.05741582797312078,0.7324633202725881,0.6344215153811827,0.2402295787951545,0.4247703850269318,-0.9017950296401978,0.07959818840026855,1.366975784301758,-45.1637077331543,9.011467933654785,2,192.168.1.8,10.83.46.32,1,0
2015-03-01 09:53:45.084,114,1425232407.228836,37.77937936490434,-122.4388172744405,56.19482,-1,-1,10,65,-9999,1425232425.056527,0.9191055297851562,-43.89511108398438,8.153274536132812,144.8668518066406,131.0890502929688,10,177231.5878697917,0.465576171875,-0.9338226318359375,0.149078369140625,177231.5850939167,-0.1795295480366396,0.05958343570056081,0.2422360727475364,177231.533323875,1.110274186045607,1.753123304281194,1.135689048996426,-0.0344194732606411,-0.1468536704778671,0.2519942820072174,0.05131460726261139,-0.009206054732203484,0.1179088056087494,XTrueNorthZVertical,-0.04907763405917273,0.7319869879474761,0.6355541073863956,0.2405356822765674,0.4145209491252899,-0.9068248271942139,0.07642713189125061,0.8571205139160156,-45.13692092895508,9.206493377685547,2,192.168.1.8,10.83.46.32,1,0
2015-03-01 09:53:45.124,115,1425232407.228836,37.77937936490434,-122.4388172744405,56.19482,-1,-1,10,65,-9999,1425232425.107448,0.7656326293945312,-44.08206176757812,7.870361328125,143.8809509277344,130.1031494140625,10,177231.6369002083,0.4498291015625,-0.9619140625,0.1949005126953125,177231.5850939167,-0.1795295480366396,0.05958343570056081,0.2422360727475364,177231.5850939167,1.11953635882781,1.742104718546997,1.150600412233448,-0.1991177052259445,0.07598378509283066,0.2735746502876282,0.05542930588126183,-0.01065124198794365,0.07912425696849823,XTrueNorthZVertical,-0.04389828342432663,0.7299616456788169,0.6396263163702481,0.236869403913074,0.4019681513309479,-0.9130090475082397,0.06954212486743927,0.3497943878173828,-45.1732292175293,9.060510635375977,2,192.168.1.8,10.83.46.32,1,0
2015-03-01 09:53:45.182,116,1425232407.228836,37.77937936490434,-122.4388172744405,56.19482,-1,-1,10,65,-9999,1425232425.158801,-0.18927001953125,-44.38790893554688,7.237983703613281,141.7189483642578,127.9411468505859,10,177231.6859562917,0.4295654296875,-1.011978149414062,0.151947021484375,177231.68863925,-0.4516257818744714,0.5571109294914199,0.1139598588377987,177231.6368667083,1.155051683276829,1.72581015071335,1.168215820411937,-0.4607230126857758,0.477022111415863,0.2663662135601044,0.06328240782022476,-0.03450629487633705,0.1361189782619476,XTrueNorthZVertical,-0.04559114241209607,0.7267507897159986,0.6471509178755593,0.2257220180372086,0.3870960175991058,-0.9200530052185059,0.06049052625894547,-0.2837200164794922,-45.26464080810547,8.594634056091309,2,192.168.1.8,10.83.46.32,1,0
2015-03-01 09:53:45.222,117,1425232407.228836,37.77937936490434,-122.4388172744405,56.19482,-1,-1,10,65,-9999,1425232425.211047,-1.22943115234375,-44.64279174804688,6.289413452148438,139.0436096191406,125.2658004760742,10,177231.7349754167,0.395538330078125,-0.996337890625,0.1588134765625,177231.68863925,-0.4516257818744714,0.5571109294914199,0.1139598588377987,177231.68863925,1.212522278053002,1.70018060355919,1.18045256799394,-0.4712117612361908,0.5735116004943848,0.1452966779470444,0.05223953723907471,-0.08719983696937561,0.1028527244925499,XTrueNorthZVertical,-0.05386140035476459,0.7222507161444643,0.6560374053372766,0.2122917283650094,0.3773258924484253,-0.9247782826423645,0.04909429326653481,-1.162349700927734,-45.4691047668457,7.35155200958252,2,192.168.1.8,10.83.46.32,1,0
2015-03-01 09:53:45.281,118,1425232407.228836,37.77937936490434,-122.4388172744405,56.19482,-1,-1,10,65,-9999,1425232425.262543,-2.047920227050781,-44.50686645507812,4.924789428710938,136.2140960693359,122.4362869262695,10,177231.7840144167,0.34326171875,-1.058792114257812,0.2071533203125,177231.7921820417,-0.6367857850877565,0.8598321842846179,-0.3936426396729392,177231.740409375,1.280811655757821,1.662311269584614,1.185012258979463,-0.5899547338485718,0.5001963973045349,-0.06549098342657089,0.02082722261548042,-0.06983420997858047,0.1244257614016533,XTrueNorthZVertical,-0.06433714082814435,0.7162782918147156,0.6648786575865572,0.2018477501093026,0.3747110962867737,-0.9265036582946777,0.03438771888613701,-1.540509223937988,-45.61403274536133,6.310542583465576,2,192.168.1.8,10.83.46.32,1,0
2015-03-01 09:53:45.320,119,1425232407.228836,37.77937936490434,-122.4388172744405,56.19482,-1,-1,10,65,-9999,1425232425.314473,-1.604576110839844,-44.7447509765625,3.726593017578125,134.9478149414062,121.1700057983398,10,177231.8330455,0.5394134521484375,-0.9199981689453125,0.014617919921875,177231.7921820417,-0.6367857850877565,0.8598321842846179,-0.3936426396729392,177231.7921820417,1.362983259935752,1.617360096671328,1.175305338432955,-0.6563053131103516,0.8761818408966064,-0.3623181879520416,-0.04158202931284904,-0.1359845995903015,0.1892205774784088,XTrueNorthZVertical,-0.08195688115310804,0.7086955895429938,0.6734533478655099,0.193634247476879,0.3848437368869781,-0.922807514667511,0.01793273724615574,-1.459316253662109,-45.76936340332031,5.086400985717773,2,192.168.1.8,10.83.46.32,1,0
2015-03-01 09:53:45.378,120,1425232407.228836,37.77937936490434,-122.4388172744405,56.19482,-1,-1,10,65,-9999,1425232425.3663,-0.8201904296875,-44.88069152832031,2.395271301269531,133.345947265625,119.5681381225586,10,177231.882080625,0.4760894775390625,-0.9793701171875,0.0577850341796875,177231.8439546667,-0.4707510069267665,0.8146769564217794,-0.4649700831485314,177231.8439546667,1.445525176353237,1.590996989994554,1.156373465353684,-0.4902703166007996,0.8310264348983765,-0.4336459636688232,0.1400077193975449,-0.01996912807226181,-0.001862118253484368,XTrueNorthZVertical,-0.1087530395371611,0.701597831165918,0.6804540697092977,0.1814263521763017,0.4025795757770538,-0.9153488874435425,0.008133480325341225,-0.7001800537109375,-45.95624923706055,3.220036506652832,2,192.168.1.8,10.83.46.32,1,0
2015-03-01 09:53:45.419,121,1425232407.228836,37.77937936490434,-122.4388172744405,56.19482,-1,-1,10,65,-9999,1425232425.3663,-0.8201904296875,-44.88069152832031,2.395271301269531,133.345947265625,119.5681381225586,10,177231.9312119583,0.534759521484375,-1.009262084960938,0.032501220703125,177231.8957250417,-0.3977668109370359,0.7282089095168687,-0.4775969288249242,177231.8957250417,1.494294229864493,1.581014110866471,1.133587225604276,-0.4172859191894531,0.7445582151412964,-0.446273148059845,0.07351182401180267,-0.08506042510271072,0.06516226381063461,XTrueNorthZVertical,-0.1303312880614194,0.6965464002592011,0.6832521989147222,0.1760775478862451,0.423390656709671,-0.9059368968009949,0.004326264839619398,0.1417312622070312,-46.01681900024414,2.295268058776855,2,192.168.1.8,10.83.46.32,1,0
2015-03-01 09:53:45.476,122,1425232407.228836,37.77937936490434,-122.4388172744405,56.19482,-1,-1,10,65,-9999,1425232425.470994,0.6121597290039062,-45.15255737304688,0.09871673583984375,130.210693359375,116.4328918457031,10,177231.9801527083,0.5079803466796875,-0.9649658203125,0.049713134765625,177231.9474975417,-0.4066865363760383,0.5930367062804799,-0.3518475221574537,177231.9474975417,1.547522979137579,1.567110844208748,1.115119540500767,-0.4262054860591888,0.6093859076499939,-0.3205240070819855,0.06039060279726982,-0.1044780090451241,0.04727616533637047,XTrueNorthZVertical,-0.1504233948156633,0.6903346063260175,0.6872061639564931,0.1689929713753514,0.4400671720504761,-0.8979634046554565,-0.001621867180801928,0.9769458770751953,-46.04207611083984,1.417325615882874,2,192.168.1.8,10.83.46.32,1,0
2015-03-01 09:53:45.516,123,1425232407.228836,37.77937936490434,-122.4388172744405,56.19482,-1,-1,10,65,-9999,1425232425.470994,0.6121597290039062,-45.15255737304688,0.09871673583984375,130.210693359375,116.4328918457031,10,177232.029273,0.47406005859375,-0.82568359375,0.042694091796875,177231.9992702084,-0.3399029783523393,0.315291641454481,-0.3730894276441437,177231.9992702084,1.588497230807685,1.554308681524511,1.098274479639659,-0.3594217002391815,0.3316406607627869,-0.3417662382125854,0.06680971384048462,-0.04954858124256134,0.06518195569515228,XTrueNorthZVertical,-0.165904675711906,0.6846340415152518,0.6902923751520734,0.1650706125740249,0.4550713896751404,-0.8904233574867249,-0.007503735367208719,1.859525680541992,-46.03543853759766,0.3414492607116699,2,192.168.1.8,10.83.46.32,1,0
2015-03-01 09:53:45.575,124,1425232407.228836,37.77937936490434,-122.4388172744405,56.19482,-1,-1,10,65,-9999,1425232425.521589,1.140769958496094,-45.37348937988281,-0.8831405639648438,128.8803405761719,115.1025390625,10,177232.0782055834,0.475433349609375,-0.842041015625,-0.031707763671875,177232.0510404583,-0.4532521743521828,-0.01618802468604665,-0.2678841782577625,177232.0510404583,1.631038696526318,1.524636220615243,1.08238515377235,-0.4727681875228882,0.0001621748233446851,-0.2365655153989792,-0.02637131884694099,0.08371730148792267,0.05105539783835411,XTrueNorthZVertical,-0.1755573798871296,0.6770182791373456,0.6952011397359569,0.1658952499143203,0.4687236249446869,-0.883079469203949,-0.02165171131491661,2.531564712524414,-46.00269317626953,-0.4236980378627777,2,192.168.1.8,10.83.46.32,1,0
2015-03-01 09:53:45.614,125,1425232407.228836,37.77937936490434,-122.4388172744405,56.19482,-1,-1,10,65,-9999,1425232425.575164,1.652320861816406,-45.61137390136719,-1.781791687011719,128.2472229003906,114.4694137573242,10,177232.1272312083,0.5113677978515625,-1.008102416992188,0.0169677734375,177232.10281325,-0.4118749068117307,-0.5263317115089382,0.02014175364037829,177232.10281325,1.67933574426674,1.465300858595969,1.07778934206231,-0.4313907027244568,-0.5099816918373108,0.05146008729934692,0.02082459069788456,-0.06476500630378723,0.0009163327631540596,XTrueNorthZVertical,-0.1726009642152302,0.6673012077840006,0.7041612789444295,0.1705136388403198,0.4706457555294037,-0.8809137344360352,-0.04983600974082947,2.94151496887207,-45.96008682250977,-1.361503124237061,2,192.168.1.8,10.83.46.32,1,0
2015-03-01 09:53:45.673,126,1425232407.228836,37.77937936490434,-122.4388172744405,56.19482,-1,-1,10,65,-9999,1425232425.650948,2.232093811035156,-45.57736206054688,-3.479232788085938,128.5831604003906,114.8053512573242,10,177232.1762860834,0.9853057861328125,-1.246109008789062,0.14208984375,177232.1545857083,-0.6885235482169439,0.1621854451213896,0.3934607457704868,177232.1545857083,1.742055060310092,1.400829812961415,1.085428999891136,-0.7080391645431519,0.1785353422164917,0.4247787892818451,0.1341986507177353,-0.2313105762004852,0.2259474992752075,XTrueNorthZVertical,-0.1679001229756495,0.6575352824759173,0.7152366776181527,0.1670131687833588,0.4598107635974884,-0.8845036625862122,-0.07891380041837692,2.609010696411133,-45.91814804077148,-2.748214960098267,2,192.168.1.8,10.83.46.32,1,0
2015-03-01 09:53:45.712,127,1425232407.228836,37.77937936490434,-122.4388172744405,56.19482,-1,-1,10,65,-9999,1425232425.70315,2.027473449707031,-45.30546569824219,-4.211456298828125,128.1132202148438,114.3354187011719,10,177232.2254151667,0.9105682373046875,-1.040206909179688,0.0457000732421875,177232.2063560417,0.4343674327463219,-0.9000360630487811,0.363216823167111,177232.1545857083,1.742055060310092,1.400829812961415,1.085428999891136,-0.7080391645431519,0.1785353422164917,0.4247787892818451,0.1341986507177353,-0.2313105762004852,0.2259474992752075,XTrueNorthZVertical,-0.1679001229756495,0.6575352824759173,0.7152366776181527,0.1670131687833588,0.4598107635974884,-0.8845036625862122,-0.07891380041837692,2.609010696411133,-45.91814804077148,-2.748214960098267,2,192.168.1.8,10.83.46.32,1,0
2015-03-01 09:53:45.774,128,1425232407.228836,37.77937936490434,-122.4388172744405,56.19482,-1,-1,10,65,-9999,1425232425.756161,0.6803665161132812,-45.15251159667969,-4.028396606445312,128.0237731933594,114.2459716796875,10,177232.2743505,0.17578125,-0.8799896240234375,-0.34051513671875,177232.2581285833,0.2829486152799047,-1.611357868093457,0.681131944611429,177232.2581285833,1.735413078662163,1.31878071341487,1.136674122226756,0.2634333968162537,-1.595008254051208,0.7124493718147278,-0.05896959081292152,-0.01851112768054008,-0.1658385843038559,XTrueNorthZVertical,-0.1188252025764809,0.6583609559990413,0.7213490797855713,0.1791561623121865,0.4073277413845062,-0.9072396159172058,-0.1048828437924385,0.6720848083496094,-45.96681976318359,-3.071759223937988,2,192.168.1.8,10.83.46.32,1,0
2015-03-01 09:53:45.810,129,1425232407.228836,37.77937936490434,-122.4388172744405,56.19482,-1,-1,10,65,-9999,1425232425.756161,0.6803665161132812,-45.15251159667969,-4.028396606445312,128.0237731933594,114.2459716796875,10,177232.3233729583,0.5511474609375,-0.5618896484375,0.090606689453125,177232.309901375,-0.1291366812579423,0.2468100519197474,0.1750354636971309,177232.309901375,1.743087438924371,1.282317336666221,1.15892248192875,-0.1486517339944839,0.263159453868866,0.2063525766134262,-0.07059808820486069,0.2176112979650497,-0.04988174512982368,XTrueNorthZVertical,-0.1005839404800768,0.6579798263593798,0.7240158244864898,0.1809599609525918,0.3837847411632538,-0.9163722991943359,-0.1138908416032791,-1.12779426574707,-45.994873046875,-2.456749200820923,2,192.168.1.8,10.83.46.32,1,0
2015-03-01 09:53:45.870,130,1425232407.228836,37.77937936490434,-122.4388172744405,56.19482,-1,-1,10,65,-9999,1425232425.858495,-1.3658447265625,-45.11856079101562,-2.930038452148438,130.7260894775391,116.9482803344727,10,177232.372421875,1.1131591796875,-1.193527221679688,0.00213623046875,177232.3616714583,0.1787953145241048,-0.693499931029866,0.236140629644563,177232.309901375,1.743087438924371,1.282317336666221,1.15892248192875,-0.1486517339944839,0.263159453868866,0.2063525766134262,-0.07059808820486069,0.2176112979650497,-0.04988174512982368,XTrueNorthZVertical,-0.1005839404800768,0.6579798263593798,0.7240158244864898,0.1809599609525918,0.3837847411632538,-0.9163722991943359,-0.1138908416032791,-1.12779426574707,-45.994873046875,-2.456749200820923,2,192.168.1.8,10.83.46.32,1,0
2015-03-01 09:53:45.908,131,1425232407.228836,37.77937936490434,-122.4388172744405,56.19482,-1,-1,10,65,-9999,1425232425.858495,-1.3658447265625,-45.11856079101562,-2.930038452148438,130.7260894775391,116.9482803344727,10,177232.4215528333,0.1232147216796875,-1.010589599609375,0.0686492919921875,177232.4134442083,-0.1666896494730406,-1.616571272243396,0.4068484565703152,177232.3616714583,1.756216217918739,1.273527292710475,1.168259896481751,0.1592804491519928,-0.6771506667137146,0.2674574255943298,0.5694903135299683,0.1179157570004463,0.3103356659412384,XTrueNorthZVertical,-0.0985360672592204,0.6579638220202424,0.7255358809671609,0.1759884665085793,0.3745709955692291,-0.9200702905654907,-0.1147485077381134,-1.521977424621582,-45.96826171875,-2.727326154708862,2,192.168.1.8,10.83.46.32,1,0
2015-03-01 09:53:45.967,132,1425232407.228836,37.77937936490434,-122.4388172744405,56.19482,-1,-1,10,65,-9999,1425232425.963167,-2.593582153320312,-45.18649291992188,-2.630485534667969,133.2700042724609,119.4921951293945,10,177232.470497375,0.41497802734375,-0.8306732177734375,-0.190185546875,177232.4652167083,0.3256196464779173,-0.21429551817097,0.1198065626949587,177232.4652167083,1.776051190589868,1.159685517530439,1.20782906282765,0.3061051964759827,-0.19794662296772,0.1511227041482925,0.02710348181426525,0.2473474144935608,0.07888421416282654,XTrueNorthZVertical,-0.0501526860659289,0.6531009342696948,0.7305253162532186,0.1930715996794801,0.3254660964012146,-0.9348474144935608,-0.141887754201889,-3.656744956970215,-45.87346649169922,-2.255900859832764,2,192.168.1.8,10.83.46.32,1,0
2015-03-01 09:53:46.007,133,1425232407.228836,37.77937936490434,-122.4388172744405,56.19482,-1,-1,10,65,-9999,1425232425.963167,-2.593582153320312,-45.18649291992188,-2.630485534667969,133.2700042724609,119.4921951293945,10,177232.5195287917,0.0386199951171875,-1.062973022460938,-0.1629791259765625,177232.4652167083,0.3256196464779173,-0.21429551817097,0.1198065626949587,177232.4652167083,1.776051190589868,1.159685517530439,1.20782906282765,0.3061051964759827,-0.19794662296772,0.1511227041482925,0.02710348181426525,0.2473474144935608,0.07888421416282654,XTrueNorthZVertical,-0.0501526860659289,0.6531009342696948,0.7305253162532186,0.1930715996794801,0.3254660964012146,-0.9348474144935608,-0.141887754201889,-3.656744956970215,-45.87346649169922,-2.255900859832764,2,192.168.1.8,10.83.46.32,1,0
2015-03-01 09:53:46.068,134,1425232407.228836,37.77937936490434,-122.4388172744405,56.19482,-1,-1,10,65,-9999,1425232426.014755,-2.917564392089844,-44.99955749511719,-2.247726440429688,133.6674194335938,119.8896179199219,10,177232.5685730834,0.40631103515625,-0.93414306640625,-0.001739501953125,177232.5687595833,0.2934864773972392,0.3934692678859751,-0.1388969003369737,177232.5169870417,1.755285881705376,1.133181826969784,1.215014796635889,0.05932674556970596,-0.8177261352539062,0.08892615884542465,-0.2312246114015579,-0.184665247797966,-0.1078655645251274,XTrueNorthZVertical,-0.03127493959688458,0.6520856610154696,0.7286775015754071,0.2069668333387895,0.3154988884925842,-0.9373745322227478,-0.1476123332977295,-3.940816879272461,-45.87766265869141,-1.595611095428467,2,192.168.1.8,10.83.46.32,1,0
2015-03-01 09:53:46.105,135,1425232407.228836,37.77937936490434,-122.4388172744405,56.19482,-1,-1,10,65,-9999,1425232426.066014,-3.429130554199219,-44.69367980957031,-1.382369995117188,136.3033905029297,122.5255889892578,10,177232.6175964584,0.2738800048828125,-1.042037963867188,-0.0916290283203125,177232.620532375,0.1834332095624778,-0.2749362288242923,-0.03253157797975393,177232.5687595833,1.733004653618007,1.158775970771262,1.217007860386927,0.2739724218845367,0.4098178446292877,-0.1075813844799995,0.08885040134191513,0.003923851530998945,0.1370020061731339,XTrueNorthZVertical,-0.03262045318874141,0.6554121982690756,0.725886850325916,0.2060559134580093,0.3174606263637543,-0.9380668997764587,-0.1387415081262589,-4.090463638305664,-45.87303161621094,-1.329960346221924,2,192.168.1.8,10.83.46.32,1,0
2015-03-01 09:53:46.170,136,1425232407.228836,37.77937936490434,-122.4388172744405,56.19482,-1,-1,10,65,-9999,1425232426.118444,-3.1221923828125,-44.82963562011719,-0.88311767578125,136.0458831787109,122.2680816650391,10,177232.666651,0.353363037109375,-0.9101104736328125,0.0451202392578125,177232.620532375,0.1834332095624778,-0.2749362288242923,-0.03253157797975393,177232.620532375,1.697172341215307,1.190286675339655,1.218830983346691,0.1639193445444107,-0.2585878372192383,-0.001216376549564302,-0.04620573297142982,-0.1033409759402275,0.03640648350119591,XTrueNorthZVertical,-0.03161829303332541,0.6595320525282475,0.7216134633848815,0.2080667374869089,0.320085734128952,-0.9386969804763794,-0.1280355155467987,-3.844844818115234,-45.90835571289062,-0.6899962425231934,2,192.168.1.8,10.83.46.32,1,0
2015-03-01 09:53:46.202,137,1425232407.228836,37.77937936490434,-122.4388172744405,56.19482,-1,-1,10,65,-9999,1425232426.169937,-3.071037292480469,-45.01655578613281,-0.2340850830078125,136.3665924072266,122.5887908935547,10,177232.715781875,0.4347991943359375,-0.88177490234375,-0.0348968505859375,177232.6723024167,0.2694123000912499,0.3262753167382948,-0.01239009065548465,177232.6723024167,1.668038561213229,1.221859533522019,1.22318088561027,0.2498986274003983,0.3426235616207123,0.01892483048141003,0.03323527425527573,0.03007722832262516,0.1615904271602631,XTrueNorthZVertical,-0.03183686074034029,0.6638910441875555,0.7179996098864529,0.2066679909949593,0.3201277554035187,-0.9401876926422119,-0.1164701879024506,-3.846885681152344,-45.9124755859375,-0.2864375114440918,2,192.168.1.8,10.83.46.32,1,0
2015-03-01 09:53:46.269,138,1425232407.228836,37.77937936490434,-122.4388172744405,56.19482,-1,-1,10,65,-9999,1425232426.222309,-3.088088989257812,-45.03353881835938,0.38165283203125,135.6240234375,121.8462219238281,10,177232.764717875,0.30523681640625,-0.9765167236328125,-0.017974853515625,177232.7758477083,0.07080972495968084,0.08004263814287654,0.1128330753805862,177232.7240752083,1.648243325215839,1.251958267917612,1.225054913205366,0.1831147223711014,0.01626180484890938,0.002819048939272761,0.1129850521683693,0.05904954671859741,0.071334108710289,XTrueNorthZVertical,-0.03538169907738054,0.6675572291150652,0.7154426561798429,0.2031189048271441,0.3218141496181488,-0.9408244490623474,-0.1062309592962265,-3.870392799377441,-45.91132354736328,0.07957553863525391,2,192.168.1.8,10.83.46.32,1,0
2015-03-01 09:53:46.301,139,1425232407.228836,37.77937936490434,-122.4388172744405,56.19482,-1,-1,10,65,-9999,1425232426.273816,-3.139244079589844,-44.57473754882812,0.3317413330078125,134.1702728271484,120.3924713134766,10,177232.8138200833,0.418121337890625,-0.9288787841796875,-0.0091705322265625,177232.7758477083,0.07080972495968084,0.08004263814287654,0.1128330753805862,177232.7758477083,1.635003947889912,1.264242459318607,1.231002375669627,0.05135960504412651,0.09634310007095337,0.144146665930748,-0.001485533895902336,-0.03579907491803169,0.07276266068220139,XTrueNorthZVertical,-0.03326749911454643,0.6697787368767383,0.7138528512281874,0.2017518933667924,0.3177544474601746,-0.9428233504295349,-0.1005794331431389,-3.954921722412109,-45.90184783935547,0.4631547927856445,2,192.168.1.8,10.83.46.32,1,0
2015-03-01 09:53:46.372,140,1425232407.228836,37.77937936490434,-122.4388172744405,56.19482,-1,-1,10,65,-9999,1425232426.325734,-3.08807373046875,-44.65969848632812,0.414947509765625,133.3611907958984,119.5833892822266,10,177232.8627691667,0.4089202880859375,-0.952178955078125,-0.081085205078125,177232.8276180417,0.06559898397083179,0.1296197786796826,0.1226002186784518,177232.8276180417,1.637333366251756,1.271312261497702,1.238330796680438,0.04614906385540962,0.1459200829267502,0.1539134979248047,0.1336483806371689,0.01634648814797401,0.06152987107634544,XTrueNorthZVertical,-0.03400939629375114,0.6713409451225182,0.713928111935822,0.196090157597787,0.3118472397327423,-0.9452405571937561,-0.09628939628601074,-4.240419387817383,-45.87598037719727,0.499204158782959,2,192.168.1.8,10.83.46.32,1,0
2015-03-01 09:53:46.398,141,1425232407.228836,37.77937936490434,-122.4388172744405,56.19482,-1,-1,10,65,-9999,1425232426.378184,-3.480270385742188,-44.26884460449219,0.6978530883789062,133.0767364501953,119.2989273071289,10,177232.9118958334,0.2893218994140625,-0.9541778564453125,-0.1128082275390625,177232.8793905833,0.02386112441878295,-0.0799134748300077,0.06068784860461667,177232.8793905833,1.640228212163108,1.269136386217535,1.243799619909642,0.004411376547068357,-0.06361332535743713,0.09200083464384079,0.07149267196655273,-0.01958723925054073,0.005739256739616394,XTrueNorthZVertical,-0.03229270807087987,0.6717454664045265,0.714212150836686,0.1939490023714554,0.3066964149475098,-0.9470112919807434,-0.09543041884899139,-4.520650863647461,-45.84865570068359,0.5482823848724365,2,192.168.1.8,10.83.46.32,1,0
2015-03-01 09:53:46.470,142,1425232407.228836,37.77937936490434,-122.4388172744405,56.19482,-1,-1,10,65,-9999,1425232426.428896,-3.701950073242188,-44.18388366699219,0.847625732421875,133.4038238525391,119.6260147094727,10,177232.9608223333,0.2376708984375,-0.962677001953125,-0.135528564453125,177232.9311634167,0.08204906370814224,-0.1555536413748743,0.06127001561890799,177232.9311634167,1.638410621693674,1.266164906600917,1.249325018278127,0.06259950995445251,-0.1392536461353302,0.09258268773555756,-0.01984471268951893,-0.02211466431617737,-0.0400410033762455,XTrueNorthZVertical,-0.02868941904252332,0.6721545348960293,0.7140382221094083,0.1937385309477038,0.3014151453971863,-0.948771595954895,-0.0947703942656517,-4.798222541809082,-45.8194465637207,0.6253235340118408,2,192.168.1.8,10.83.46.32,1,0
2015-03-01 09:53:46.497,143,1425232407.228836,37.77937936490434,-122.4388172744405,56.19482,-1,-1,10,65,-9999,1425232426.480155,-4.162345886230469,-44.03096008300781,0.4315872192382812,133.0005950927734,119.2227935791016,10,177233.0099360417,0.4112396240234375,-0.92547607421875,0.02606201171875,177232.9829334167,0.08233455457699873,-0.2037619171113796,0.04413843295864627,177232.9829334167,1.633981823976695,1.257153416355822,1.254100597463308,0.06288521736860275,-0.187462106347084,0.07545076310634613,-0.0581832230091095,0.009412713348865509,0.02018647827208042,XTrueNorthZVertical,-0.02231435262521006,0.671907896977341,0.7136766781971272,0.1967420880166542,0.296235591173172,-0.9502696394920349,-0.09608369320631027,-4.977041244506836,-45.79769897460938,0.7974410057067871,2,192.168.1.8,10.83.46.32,1,0
2015-03-01 09:53:46.568,144,1425232407.228836,37.77937936490434,-122.4388172744405,56.19482,-1,-1,10,65,-9999,1425232426.532251,-4.503379821777344,-44.20088195800781,0.73114013671875,133.301513671875,119.5237045288086,10,177233.0588684583,0.3537139892578125,-0.9406585693359375,-0.0907440185546875,177233.0347062083,0.08813545206340934,-0.1533490766245067,-0.006072806233707687,177233.0347062083,1.626749730691658,1.264657763037061,1.256998982938821,0.06868630647659302,-0.1370494216680527,0.02523921430110931,0.2027494609355927,0.05291390046477318,0.1018318086862564,XTrueNorthZVertical,-0.02154400824238633,0.6730691720668586,0.712858328545543,0.1958232654680611,0.2943208515644073,-0.9511682987213135,-0.09302748739719391,-5.123313903808594,-45.77906036376953,0.930159330368042,2,192.168.1.8,10.83.46.32,1,0
2015-03-01 09:53:46.595,145,1425232407.228836,37.77937936490434,-122.4388172744405,56.19482,-1,-1,10,65,-9999,1425232426.584857,-4.520431518554688,-44.01396179199219,1.014053344726562,133.7628631591797,119.9850540161133,10,177233.107982625,0.37994384765625,-0.9230804443359375,-0.066802978515625,177233.0864787083,0.03865818006748122,-0.08970032551993989,0.05846224488163745,177233.0864787083,1.621722523620782,1.258714002702269,1.261423567272282,0.01920920796692371,-0.0734008252620697,0.08977398276329041,0.03806519508361816,-0.008550101891160011,-0.02236263081431389,XTrueNorthZVertical,-0.01618336848933376,0.6730505555224605,0.7123814109080028,0.1981256577054139,0.2897546291351318,-0.952524721622467,-0.09348209947347641,-5.235448837280273,-45.76117706298828,1.157933950424194,2,192.168.1.8,10.83.46.32,1,0
2015-03-01 09:53:46.671,146,1425232407.228836,37.77937936490434,-122.4388172744405,56.19482,-1,-1,10,65,-9999,1425232426.63607,-4.725044250488281,-44.08193969726562,1.247032165527344,134.4822082519531,120.7043991088867,10,177233.1568905833,0.340301513671875,-0.9578704833984375,-0.03375244140625,177233.1382489167,0.03757667034880004,-0.1180829648374594,0.01392194091449823,177233.1382489167,1.62435677013331,1.25444418050414,1.263513352421613,0.0181279145181179,-0.1017836406826973,0.04523333534598351,0.08708181977272034,0.01890902779996395,0.06881514936685562,XTrueNorthZVertical,-0.01481587989614918,0.6728528869255779,0.7126547770354097,0.1979208265460273,0.2874604165554047,-0.9531589150428772,-0.09409896284341812,-5.365227699279785,-45.74522018432617,1.193800926208496,2,192.168.1.8,10.83.46.32,1,0
2015-03-01 09:53:46.692,147,1425232407.228836,37.77937936490434,-122.4388172744405,56.19482,-1,-1,10,65,-9999,1425232426.688598,-4.895561218261719,-43.7420654296875,1.247032165527344,134.5057220458984,120.7279205322266,10,177233.2059114167,0.280914306640625,-0.9658050537109375,-0.034149169921875,177233.190021625,0.06294327973180477,-0.24286324718425,0.07574056771796255,177233.1382489167,1.62435677013331,1.25444418050414,1.263513352421613,0.0181279145181179,-0.1017836406826973,0.04523333534598351,0.08708181977272034,0.01890902779996395,0.06881514936685562,XTrueNorthZVertical,-0.01481587989614918,0.6728528869255779,0.7126547770354097,0.1979208265460273,0.2874604165554047,-0.9531589150428772,-0.09409896284341812,-5.365227699279785,-45.74522018432617,1.193800926208496,2,192.168.1.8,10.83.46.32,1,0
