loggingTime,loggingSample,locationTimestamp_since1970,locationLatitude,locationLongitude,locationAltitude,locationSpeed,locationCourse,locationVerticalAccuracy,locationHorizontalAccuracy,locationFloor,locationHeadingTimestamp_since1970,locationHeadingX,locationHeadingY,locationHeadingZ,locationTrueHeading,locationMagneticHeading,locationHeadingAccuracy,accelerometerTimestamp_sinceReboot,accelerometerAccelerationX,accelerometerAccelerationY,accelerometerAccelerationZ,gyroTimestamp_sinceReboot,gyroRotationX,gyroRotationY,gyroRotationZ,motionTimestamp_sinceReboot,motionYaw,motionRoll,motionPitch,motionRotationRateX,motionRotationRateY,motionRotationRateZ,motionUserAccelerationX,motionUserAccelerationY,motionUserAccelerationZ,motionAttitudeReferenceFrame,motionQuaternionX,motionQuaternionY,motionQuaternionZ,motionQuaternionW,motionGravityX,motionGravityY,motionGravityZ,motionMagneticFieldX,motionMagneticFieldY,motionMagneticFieldZ,motionMagneticFieldCalibrationAccuracy,IP_en0,IP_pdp_ip0,deviceOrientation,state
2015-03-03 20:03:09.871,1,1425441789.107287,37.77918404754153,-122.4388697213793,62.0234,1.029014,-1,10,200,-9999,1425441789.822661,2.504524230957031,38.32452392578125,-23.48226928710938,243.9341888427734,230.1572570800781,10,229155.8651044584,-0.2676544189453125,0.93157958984375,-0.1805877685546875,229155.856311,0.03993330159741115,-0.1043695494363144,-0.01211578506320649,229155.8045275,-0.5358312691943549,-0.9544847631746708,-1.260455820319545,-0.1423342525959015,0.4318978488445282,-0.1092190816998482,-0.02019648626446724,-0.01707949303090572,0.006522154901176691,XTrueNorthZVertical,0.6030407870734005,0.2192752774852759,-0.07106939338976452,-0.7636814441649395,-0.2491974383592606,0.9522296190261841,-0.1765203177928925,2.240238189697266,37.90614318847656,-24.23880195617676,2,192.168.1.8,10.83.46.32,2,0
2015-03-03 20:03:09.909,2,1425441789.107287,37.77918404754153,-122.4388697213793,62.0234,1.029014,-1,10,200,-9999,1425441789.877773,2.453384399414062,38.51141357421875,-23.83188629150391,243.5355987548828,229.7586669921875,10,229155.9141512917,-0.2428436279296875,0.940155029296875,-0.176727294921875,229155.9080959167,0.03669463139576579,0.02188585783827118,-0.0250827164108023,229155.856311,-0.5440439923488533,-0.9532992169428052,-1.260443236592152,0.03661523759365082,-0.09644528478384018,0.02611947804689407,0.003270217915996909,-0.01844894140958786,0.0002783829695545137,XTrueNorthZVertical,0.6039723929522272,0.2163470876700344,-0.06757171065423243,-0.7640977654439929,-0.248997762799263,0.9522258043289185,-0.1768225729465485,2.494845390319824,38.03902435302734,-24.0046329498291,2,192.168.1.8,10.83.46.32,2,0
2015-03-03 20:03:09.976,3,1425441789.107287,37.77918404754153,-122.4388697213793,62.0234,1.029014,-1,10,200,-9999,1425441789.955966,2.538616180419922,38.3585205078125,-24.11489868164062,243.3478240966797,229.5708923339844,10,229155.9631677917,-0.2509918212890625,0.938385009765625,-0.1715850830078125,229155.9598795834,0.08998927849821349,-0.05625048959632665,-0.01709003734725649,229155.9080959167,-0.5424331402253592,-0.9533393326174725,-1.25987556406137,0.03337657079100609,0.02980932593345642,0.01314974762499332,-0.009831792674958706,-0.009226961992681026,0.004853786434978247,XTrueNorthZVertical,0.6036208136741023,0.2169773162349075,-0.06805803692905847,-0.7641537189448613,-0.2494455575942993,0.9520522952079773,-0.1771255135536194,2.440874099731445,38.00542449951172,-24.06332778930664,2,192.168.1.8,10.83.46.32,2,0
2015-03-03 20:03:10.008,4,1425441789.107287,37.77918404754153,-122.4388697213793,62.0234,1.029014,-1,10,200,-9999,1425441789.955966,2.538616180419922,38.3585205078125,-24.11489868164062,243.3478240966797,229.5708923339844,10,229156.0122981667,-0.269073486328125,0.932525634765625,-0.1777801513671875,229156.0116632083,0.05294896879295542,-0.02859862168192491,-0.0605341842097191,229155.9598795834,-0.5309668040511942,-0.9434988892971585,-1.258271740445422,0.08667149394750595,-0.04832687228918076,0.0211423933506012,0.0003607375838328153,-0.02703035995364189,0.004793125670403242,XTrueNorthZVertical,0.6022151882196268,0.2170324516895772,-0.06907867944989848,-0.7651548621459948,-0.2489264160394669,0.951560378074646,-0.1804675608873367,2.458568572998047,37.93752670288086,-24.16843414306641,2,192.168.1.8,10.83.46.32,2,0
2015-03-03 20:03:10.077,5,1425441789.107287,37.77918404754153,-122.4388697213793,62.0234,1.029014,-1,10,200,-9999,1425441790.029358,2.675003051757812,37.98480224609375,-24.148193359375,243.5160980224609,229.7391662597656,10,229156.061225,-0.27105712890625,0.937591552734375,-0.1749267578125,229156.0116632083,0.05294896879295542,-0.02859862168192491,-0.0605341842097191,229156.0116632083,-0.5227103895776791,-0.9375208296889337,-1.25643430020962,0.0496302992105484,-0.02067593671381474,-0.02230361104011536,-0.01071188319474459,0.001139338593930006,0.005847540218383074,XTrueNorthZVertical,0.6009500061357689,0.2176365751645313,-0.06999028797220465,-0.7658947812164721,-0.2492521107196808,0.9509938359260559,-0.1829868257045746,2.440478324890137,37.84957504272461,-24.30776596069336,2,192.168.1.8,10.83.46.32,2,0
2015-03-03 20:03:10.105,6,1425441790.074779,37.77915964837911,-122.4388653227337,62.15707,1.1,174.0234375,6,100,-9999,1425441790.081068,2.402244567871094,38.01876831054688,-24.08161163330078,243.5218505859375,229.7449188232422,10,229156.1102615834,-0.25189208984375,0.9272308349609375,-0.1885833740234375,229156.115231875,0.01840883471906373,-0.002997387806884183,-0.05133243001127732,229156.063448125,-0.5246127822729594,-0.9415362221619243,-1.253258133531111,0.002222378272563219,-0.09130790084600449,0.0260909516364336,-0.01863156072795391,-0.01241539046168327,0.008834539912641048,XTrueNorthZVertical,0.6000195540175658,0.2193077426809945,-0.06968990975334764,-0.7661749214796093,-0.2524255812168121,0.9500069618225098,-0.1837612986564636,2.28316593170166,37.79580688476562,-24.40651321411133,2,192.168.1.8,10.83.46.32,2,0
2015-03-03 20:03:10.172,7,1425441790.074779,37.77915964837911,-122.4388653227337,62.15707,1.1,174.0234375,6,100,-9999,1425441790.132898,2.197673797607422,38.22262573242188,-23.78193664550781,243.5398559570312,229.7629241943359,10,229156.1592835833,-0.2218475341796875,0.971710205078125,-0.2154998779296875,229156.115231875,0.01840883471906373,-0.002997387806884183,-0.05133243001127732,229156.115231875,-0.5254332845633157,-0.9439222592337654,-1.250370847961797,0.01511875167489052,0.004918282385915518,-0.01306839380413294,0.003191574942320585,-0.02187065593898296,-0.003816608572378755,XTrueNorthZVertical,0.5991198227603401,0.2206174410688865,-0.06938218377381541,-0.7665308475694887,-0.2550836503505707,0.9491015076637268,-0.1847667694091797,2.135290145874023,37.7803840637207,-24.44375228881836,2,192.168.1.8,10.83.46.32,2,0
2015-03-03 20:03:10.203,8,1425441790.074779,37.77915964837911,-122.4388653227337,62.15707,1.1,174.0234375,6,100,-9999,1425441790.184331,1.805587768554688,38.91915893554688,-23.83188629150391,243.8507843017578,230.0738525390625,10,229156.2083306667,-0.278228759765625,0.91461181640625,-0.180023193359375,229156.1670154167,0.2219180178429948,-0.3471659512772034,-0.0845985078196751,229156.1670154167,-0.5146711379317941,-0.9388289319126319,-1.247905825569798,0.2186282575130463,-0.3392496407032013,-0.04633279889822006,0.03417868539690971,0.02338800579309464,-0.02805480360984802,XTrueNorthZVertical,0.5973299048501027,0.2224285225582183,-0.07138199180902459,-0.7672204333818928,-0.2560262084007263,0.9483221769332886,-0.1874450743198395,2.11174488067627,37.74044036865234,-24.50741577148438,2,192.168.1.8,10.83.46.32,2,0
2015-03-03 20:03:10.270,9,1425441790.074779,37.77915964837911,-122.4388653227337,62.15707,1.1,174.0234375,6,100,-9999,1425441790.236951,1.618061065673828,39.00408935546875,-24.31468200683594,243.5157318115234,229.7388000488281,10,229156.25736425,-0.2581634521484375,0.906646728515625,-0.189697265625,229156.2188004584,0.09238452558263076,-0.2611764744201799,-0.1660454308053504,229156.2188004584,-0.5079410926249809,-0.9484459155490365,-1.240992257946382,0.08909295499324799,-0.2532607913017273,-0.1277789175510406,-0.01455684658139944,-0.03532395511865616,0.01743555627763271,XTrueNorthZVertical,0.5940278650775542,0.2296410603311597,-0.07513918230674323,-0.7673004804068906,-0.2631378471851349,0.9461058378219604,-0.1887917518615723,1.563673973083496,37.54567718505859,-24.8453369140625,2,192.168.1.8,10.83.46.32,2,0
2015-03-03 20:03:10.303,10,1425441790.074779,37.77915964837911,-122.4388653227337,62.15707,1.1,174.0234375,6,100,-9999,1425441790.288781,0.8850250244140625,38.20565795898438,-24.3646240234375,242.7778472900391,229.0009155273438,10,229156.3065178333,-0.1539306640625,1.043548583984375,-0.208709716796875,229156.2705839583,0.07522284920205113,-0.2659544517318911,-0.1610008710685223,229156.2705839583,-0.5085229045216337,-0.9595304430622316,-1.233921046956023,0.07193180173635483,-0.2580386400222778,-0.1227347999811172,0.001689127064310014,-0.02383972331881523,-0.006728123873472214,XTrueNorthZVertical,0.5914355411764378,0.2352761501406455,-0.07646320267965298,-0.7674650203581195,-0.2706863284111023,0.9437921047210693,-0.1896982640028,1.09931468963623,37.46791076660156,-24.98721313476562,2,192.168.1.8,10.83.46.32,2,0
2015-03-03 20:03:10.368,11,1425441790.074779,37.77915964837911,-122.4388653227337,62.15707,1.1,174.0234375,6,100,-9999,1425441790.340726,-0.1719131469726562,37.696044921875,-24.73088073730469,240.8697052001953,227.0927734375,10,229156.355433125,-0.2741241455078125,0.9576568603515625,-0.1754913330078125,229156.3223677083,0.3587214072470572,-1.221514494031625,-0.04075355521315556,229156.3223677083,-0.4736285880189409,-0.9708281782231132,-1.221260337219387,0.3554302453994751,-1.213598608970642,-0.002486911369487643,0.1014236062765121,0.1033912524580956,-0.05537393316626549,XTrueNorthZVertical,0.582673760164512,0.2526093740142842,-0.09005310601263472,-0.7671833395625357,-0.2826522290706635,0.9395317435264587,-0.1933595836162567,0.2361021041870117,37.19011688232422,-25.4215087890625,2,192.168.1.8,10.83.46.32,2,0
2015-03-03 20:03:10.400,12,1425441790.074779,37.77915964837911,-122.4388653227337,62.15707,1.1,174.0234375,6,100,-9999,1425441790.391965,-2.149410247802734,37.22039794921875,-25.36350250244141,236.8172760009766,223.0403442382812,10,229156.404587875,-0.1708221435546875,0.91534423828125,-0.1048431396484375,229156.3741524584,0.4327365128947574,-1.884706586591953,-0.1379027423020471,229156.3741524584,-0.4307604379868717,-1.01536892819212,-1.210089130052828,0.4294453859329224,-1.876790761947632,-0.09963647276163101,-0.01638787798583508,0.005682493560016155,-0.001562341232784092,XTrueNorthZVertical,0.5710289197748859,0.284382172550853,-0.1165270321355976,-0.7612320595762114,-0.2998810410499573,0.9356474876403809,-0.1861055046319962,-2.045774459838867,36.64039993286133,-26.12871170043945,2,192.168.1.8,10.83.46.32,2,0
2015-03-03 20:03:10.465,13,1425441790.074779,37.77915964837911,-122.4388653227337,62.15707,1.1,174.0234375,6,100,-9999,1425441790.442979,-5.064521789550781,36.82965087890625,-25.97949981689453,232.7603759765625,218.9834442138672,10,229156.453500875,-0.3004608154296875,0.954803466796875,-0.164031982421875,229156.42593625,0.4356603974555554,-2.361002028592156,-0.1356696817280156,229156.42593625,-0.387429747463296,-1.075848342322709,-1.190232190655869,0.4323693215847015,-2.353086233139038,-0.09740383923053741,0.07966098934412003,0.007961387746036053,0.000359679339453578,XTrueNorthZVertical,0.5541029309903608,0.3236580273988873,-0.1449582277331898,-0.7531285284794305,-0.3268686234951019,0.9284552335739136,-0.1764308512210846,-4.624610900878906,36.05299758911133,-26.61217880249023,2,192.168.1.8,10.83.46.32,2,0
2015-03-03 20:03:10.498,14,1425441790.074779,37.77915964837911,-122.4388653227337,62.15707,1.1,174.0234375,6,100,-9999,1425441790.442979,-5.064521789550781,36.82965087890625,-25.97949981689453,232.7603759765625,218.9834442138672,10,229156.502542125,-0.3851776123046875,0.8976593017578125,-0.0708160400390625,229156.4777197917,0.5111484975021784,-3.288244945337186,-0.4756903718005364,229156.4777197917,-0.3401174425145542,-1.183646432531742,-1.170437501776627,0.5078573226928711,-3.28032922744751,-0.4374247491359711,0.03509749844670296,0.0466538704931736,0.03629490733146667,XTrueNorthZVertical,0.5305257943198473,0.3807458166327717,-0.1866312486135461,-0.7339917075470775,-0.3609031736850739,0.9209212064743042,-0.1471500098705292,-8.002023696899414,35.46134567260742,-26.60590362548828,2,192.168.1.8,10.83.46.32,2,0
2015-03-03 20:03:10.565,15,1425441790.074779,37.77915964837911,-122.4388653227337,62.15707,1.1,174.0234375,6,100,-9999,1425441790.547003,-14.83267974853516,35.92935180664062,-24.46450042724609,219.3590850830078,205.5821533203125,10,229156.551558375,-0.5087738037109375,0.9244537353515625,-0.023834228515625,229156.5295047917,0.3508107535450858,-3.401877501677014,-0.7171759657528884,229156.5295047917,-0.3142598883689391,-1.325057908516873,-1.134405228954395,0.3475193083286285,-3.393961906433105,-0.6789108514785767,0.06839045882225037,-0.0247064046561718,0.05312656238675117,XTrueNorthZVertical,0.4995723363920177,0.4461112659754325,-0.2223550369124685,-0.7084987661741264,-0.4099737107753754,0.9062829613685608,-0.1028244346380234,-14.20632171630859,34.37694549560547,-25.41298484802246,2,192.168.1.8,10.83.46.32,2,0
2015-03-03 20:03:10.596,16,1425441790.074779,37.77915964837911,-122.4388653227337,62.15707,1.1,174.0234375,6,100,-9999,1425441790.547003,-14.83267974853516,35.92935180664062,-24.46450042724609,219.3590850830078,205.5821533203125,10,229156.600706125,-0.421875,0.8450927734375,0.03472900390625,229156.5812882917,0.3867189534709512,-3.501797707880133,-1.248037447959942,229156.5812882917,-0.2830363394864117,-1.469498746731599,-1.085349481593044,0.3834275603294373,-3.493882417678833,-1.209772706031799,-0.04247154295444489,0.02115785144269466,0.005360694136470556,XTrueNorthZVertical,0.4603309685812478,0.5142984366310422,-0.2531327652731864,-0.6778763645518651,-0.4642118215560913,0.8844665288925171,-0.04718503355979919,-19.20237731933594,33.30922317504883,-23.47718238830566,2,192.168.1.8,10.83.46.32,2,0
2015-03-03 20:03:10.667,17,1425441790.074779,37.77915964837911,-122.4388653227337,62.15707,1.1,174.0234375,6,100,-9999,1425441790.650741,-26.76586532592773,33.51712036132812,-18.03830718994141,208.2832336425781,194.5063018798828,10,229156.649613875,-0.54681396484375,0.7300567626953125,0.181060791015625,229156.6330720834,0.3065229172492861,-3.711923781048475,-1.953273663597679,229156.6330720834,-0.255220821924283,-1.632243636212275,-1.003207065042672,0.3032315373420715,-3.70400857925415,-1.915009379386902,-0.01828425005078316,-0.07668942958116531,0.08035945147275925,XTrueNorthZVertical,0.4080069777990979,0.5916392316061727,-0.2709925201486477,-0.640356482550287,-0.5365863442420959,0.8431994318962097,0.03301334753632545,-24.82341384887695,31.57971954345703,-20.39444160461426,2,192.168.1.8,10.83.46.32,2,0
2015-03-03 20:03:10.694,18,1425441790.074779,37.77915964837911,-122.4388653227337,62.15707,1.1,174.0234375,6,100,-9999,1425441790.650741,-26.76586532592773,33.51712036132812,-18.03830718994141,208.2832336425781,194.5063018798828,10,229156.6986573334,-0.9832000732421875,0.6182098388671875,0.394287109375,229156.6848568333,0.1379706529098441,-2.261364383780694,-1.940661997939499,229156.6848568333,-0.2152357802609425,-1.756679944849046,-0.9040509298896687,0.1346793174743652,-2.253449201583862,-1.902398109436035,-0.01830513961613178,-0.1479143798351288,0.2455525547266006,XTrueNorthZVertical,0.3516138503180836,0.6584188889018578,-0.2725558209224595,-0.6070960686020022,-0.6077782511711121,0.7858385443687439,0.1142954677343369,-32.05427932739258,27.92076873779297,-14.91199684143066,2,192.168.1.8,10.83.46.32,2,0
2015-03-03 20:03:10.739,19,1425441790.074779,37.77915964837911,-122.4388653227337,62.15707,1.1,174.0234375,6,100,-9999,1425441790.703052,-32.34035873413086,30.40838623046875,-14.12598419189453,204.0699157714844,190.2929840087891,10,229156.7476799584,-0.6455841064453125,0.630584716796875,0.092926025390625,229156.736640625,-0.216009528648545,0.4517064756555008,-1.267252421540973,229156.6848568333,-0.2152357802609425,-1.756679944849046,-0.9040509298896687,0.1346793174743652,-2.253449201583862,-1.902398109436035,-0.01830513961613178,-0.1479143798351288,0.2455525547266006,XTrueNorthZVertical,0.3516138503180836,0.6584188889018578,-0.2725558209224595,-0.6070960686020022,-0.6077782511711121,0.7858385443687439,0.1142954677343369,-32.05427932739258,27.92076873779297,-14.91199684143066,2,192.168.1.8,10.83.46.32,2,0
2015-03-03 20:03:10.792,20,1425441790.074779,37.77915964837911,-122.4388653227337,62.15707,1.1,174.0234375,6,100,-9999,1425441790.755425,-36.31241226196289,27.46951293945312,-12.44452667236328,206.4491424560547,192.6722106933594,10,229156.796835125,-0.729156494140625,0.643707275390625,0.1824493408203125,229156.7884241667,-0.449827881822559,0.588436095497368,-0.6562332526319512,229156.7884241667,-0.2019909188693242,-1.749390357995714,-0.7816266705387052,-0.453119158744812,0.5963510870933533,-0.6179701089859009,-0.01004722062498331,-0.07305673509836197,0.07369565963745117,XTrueNorthZVertical,0.3145595583614909,0.6812460035168895,-0.2310478185946557,-0.6193328002676181,-0.6984794139862061,0.7044349312782288,0.1260876655578613,-35.88121795654297,23.63921356201172,-13.53291034698486,2,192.168.1.8,10.83.46.32,2,0
2015-03-03 20:03:10.839,21,1425441790.074779,37.77915964837911,-122.4388653227337,62.15707,1.1,174.0234375,6,100,-9999,1425441790.806694,-37.65916061401367,25.278076171875,-12.42787933349609,210.1095275878906,196.3325958251953,10,229156.845747875,-0.59307861328125,0.5337677001953125,0.1600189208984375,229156.7884241667,-0.449827881822559,0.588436095497368,-0.6562332526319512,229156.7884241667,-0.2019909188693242,-1.749390357995714,-0.7816266705387052,-0.453119158744812,0.5963510870933533,-0.6179701089859009,-0.01004722062498331,-0.07305673509836197,0.07369565963745117,XTrueNorthZVertical,0.3145595583614909,0.6812460035168895,-0.2310478185946557,-0.6193328002676181,-0.6984794139862061,0.7044349312782288,0.1260876655578613,-35.88121795654297,23.63921356201172,-13.53291034698486,2,192.168.1.8,10.83.46.32,2,0
2015-03-03 20:03:10.889,22,1425441790.074779,37.77915964837911,-122.4388653227337,62.15707,1.1,174.0234375,6,100,-9999,1425441790.858309,-38.13647842407227,23.61328125,-13.89292144775391,213.8935852050781,200.1166534423828,10,229156.8947777917,-0.947906494140625,0.58642578125,-0.178070068359375,229156.891992875,-1.31888019611714,2.599668666530659,-1.792880259573803,229156.8402091667,-0.2314375035892836,-1.739140371046712,-0.7361715697128216,-0.6258296370506287,0.8680347204208374,-1.162731170654297,0.1773462891578674,-0.1121601462364197,-0.03016791865229607,XTrueNorthZVertical,0.3129024943823135,0.6813024723019752,-0.2035895527905305,-0.6296588832598825,-0.7305689454078674,0.6714558005332947,0.1241620630025864,-36.42484664916992,22.49246978759766,-14.02616310119629,2,192.168.1.8,10.83.46.32,2,0
2015-03-03 20:03:10.941,23,1425441790.074779,37.77915964837911,-122.4388653227337,62.15707,1.1,174.0234375,6,100,-9999,1425441790.91016,-38.25580978393555,20.26669311523438,-15.50778961181641,222.9103240966797,209.1333923339844,10,229156.943805125,-0.720703125,0.532440185546875,-0.0633087158203125,229156.9437762917,-0.7960124582380681,1.075451826149575,-1.54984071112539,229156.891992875,-0.2767056485692219,-1.6917089524011,-0.661490284872479,-1.322171449661255,2.607583522796631,-1.754617810249329,-0.07531069964170456,-0.1180013716220856,0.1275554001331329,XTrueNorthZVertical,0.3109171735569812,0.671505089221402,-0.1542714914429968,-0.6546844875923332,-0.7833166122436523,0.6142934560775757,0.09517714381217957,-36.89791870117188,20.92785263061523,-15.16517066955566,2,192.168.1.8,10.83.46.32,2,0
2015-03-03 20:03:10.990,24,1425441790.074779,37.77915964837911,-122.4388653227337,62.15707,1.1,174.0234375,6,100,-9999,1425441790.962666,-38.37514114379883,17.4976806640625,-17.85518646240234,230.6440887451172,216.8671569824219,10,229156.992840625,-0.8450469970703125,0.257293701171875,-0.0368804931640625,229156.995561375,-1.289942820344557,-1.060423874434367,-1.23204436666569,229156.9437762917,-0.3055666717029304,-1.617143325229997,-0.5724344327261217,-0.7993036508560181,1.083366632461548,-1.511578679084778,0.0414949394762516,0.03433928638696671,-0.06822625547647476,XTrueNorthZVertical,0.2982846432011835,0.6561239141871545,-0.1010110582803178,-0.6858020793174578,-0.8396822214126587,0.5416799783706665,0.03894463926553726,-36.84030914306641,18.61513137817383,-18.04666709899902,2,192.168.1.8,10.83.46.32,2,0
2015-03-03 20:03:11.039,25,1425441790.074779,37.77915964837911,-122.4388653227337,62.15707,1.1,174.0234375,6,100,-9999,1425441791.014221,-39.09112930297852,15.45913696289062,-17.88848876953125,235.3261871337891,221.5492553710938,10,229157.0419685,-0.876800537109375,0.15106201171875,0.212158203125,229156.995561375,-1.289942820344557,-1.060423874434367,-1.23204436666569,229156.995561375,-0.3764179699140087,-1.664191074172297,-0.5145636097119817,-1.29323399066925,-1.052509188652039,-1.193782687187195,0.02166685834527016,-0.2348613142967224,-0.1180631965398788,XTrueNorthZVertical,0.3020825883036262,0.6703263830075286,-0.06297300733550536,-0.6748652424476582,-0.8667138814926147,0.4921550154685974,0.08118270337581635,-37.67935562133789,16.98498153686523,-17.92178726196289,2,192.168.1.8,10.83.46.32,2,0
2015-03-03 20:03:11.090,26,1425441791.078216,37.77913869362118,-122.4388545100786,62.27798,1.16,169.453125,4,50,-9999,1425441791.066278,-41.49480819702148,14.38888549804688,-15.07494354248047,242.8768463134766,229.0999145507812,10,229157.090890125,-0.994232177734375,0.082305908203125,0.3771514892578125,229157.0991285417,-2.077962066886862,-2.282353555279936,-0.6897043938442851,229157.0473448334,-0.4387314474834054,-1.788511518106299,-0.4390712129974408,-1.582576274871826,-2.308473825454712,-0.9205847978591919,0.006979064084589481,-0.2740369439125061,0.01664708368480206,XTrueNorthZVertical,0.2986899725866377,0.7131198078658432,-0.03276454983969633,-0.6333805879630082,-0.8837795853614807,0.4250989556312561,0.1955111175775528,-39.8307991027832,15.51249885559082,-14.22264289855957,2,192.168.1.8,10.83.46.32,2,0
2015-03-03 20:03:11.126,27,1425441791.078216,37.77913869362118,-122.4388545100786,62.27798,1.16,169.453125,4,50,-9999,1425441791.118358,-43.14841079711914,13.69244384765625,-9.897354125976562,249.0881195068359,235.3111877441406,10,229157.1400205417,-0.9671630859375,0.149749755859375,0.482330322265625,229157.0991285417,-2.077962066886862,-2.282353555279936,-0.6897043938442851,229157.0991285417,-0.5250496671514846,-1.941907228480621,-0.3765129033833324,-2.081228971481323,-2.274444103240967,-0.6513949632644653,-0.127586156129837,-0.2853739559650421,0.03990335389971733,XTrueNorthZVertical,0.3124560181577148,0.7556423129227899,-0.005268811811159762,-0.5756285401965467,-0.8666459918022156,0.3676798641681671,0.3372481465339661,-41.62261581420898,14.84041976928711,-8.759762763977051,2,192.168.1.8,10.83.46.32,2,0
2015-03-03 20:03:11.184,28,1425441791.078216,37.77913869362118,-122.4388545100786,62.27798,1.16,169.453125,4,50,-9999,1425441791.169846,-44.32468032836914,13.16580200195312,-4.68646240234375,254.4169311523438,240.6399993896484,10,229157.1890505417,-0.800994873046875,0.1074371337890625,0.5709381103515625,229157.1509133333,-2.445423169883232,-1.010503985065268,-0.3737610768710617,229157.1509133333,-0.6262857058980033,-2.055928071763515,-0.3104112986903274,-2.448689937591553,-1.002594470977783,-0.3354520499706268,-0.1005654633045197,-0.1354521363973618,0.05304722487926483,XTrueNorthZVertical,0.3365659500994402,0.7802195428704365,0.0312895911567807,-0.5263096357382571,-0.8423361778259277,0.3054502904415131,0.4440383613109589,-42.71073913574219,14.19399070739746,-1.933263778686523,2,192.168.1.8,10.83.46.32,2,0
2015-03-03 20:03:11.223,29,1425441791.078216,37.77913869362118,-122.4388545100786,62.27798,1.16,169.453125,4,50,-9999,1425441791.169846,-44.32468032836914,13.16580200195312,-4.68646240234375,254.4169311523438,240.6399993896484,10,229157.2379645,-0.951080322265625,0.0284271240234375,0.6617584228515625,229157.2026972084,-2.696513720623063,-0.6939324283908949,-0.09751750226764948,229157.2026972084,-0.7383310266678944,-2.119694869668173,-0.2337671459754782,-2.699780225753784,-0.6860229969024658,-0.05920884758234024,0.02639872021973133,-0.1963502615690231,0.0805017352104187,XTrueNorthZVertical,0.3657885444812267,0.7873862502771783,0.08037726554496959,-0.4896541369306006,-0.8298960328102112,0.2316438406705856,0.5075567364692688,-42.93266296386719,13.59658050537109,1.154788970947266,2,192.168.1.8,10.83.46.32,3,0
2015-03-03 20:03:11.282,30,1425441791.078216,37.77913869362118,-122.4388545100786,62.27798,1.16,169.453125,4,50,-9999,1425441791.273102,-44.78494644165039,12.57122802734375,2.888465881347656,279.0772399902344,265.3003234863281,10,229157.2870112917,-0.818328857421875,-0.115875244140625,0.576324462890625,229157.2544806667,-2.887953457686756,-0.9230969075599953,-0.1390937079415305,229157.2544806667,-0.8575834732869636,-2.180005089306187,-0.1526339619167588,-2.891220092773438,-0.9151875376701355,-0.1007854044437408,-0.09395913034677505,-0.1266361176967621,0.1026161834597588,XTrueNorthZVertical,0.3996311677063733,0.7893529151817251,0.1302486576190733,-0.4474955165240992,-0.8105666041374207,0.1520420014858246,0.5655661821365356,-42.88507080078125,13.15392684936523,4.154390335083008,2,192.168.1.8,10.83.46.32,3,0
2015-03-03 20:03:11.321,31,1425441791.078216,37.77913869362118,-122.4388545100786,62.27798,1.16,169.453125,4,50,-9999,1425441791.273102,-44.78494644165039,12.57122802734375,2.888465881347656,279.0772399902344,265.3003234863281,10,229157.3360080833,-0.9035491943359375,-0.1562957763671875,0.7999114990234375,229157.3062657084,-2.572262608384872,-0.2974021231479828,0.2066138963227455,229157.3062657084,-0.9730994867633683,-2.231243416261834,-0.07692844507565937,-2.575529098510742,-0.2894928455352783,0.2449218183755875,-0.03497470542788506,-0.2300355732440948,-0.04549356549978256,XTrueNorthZVertical,0.4346048855362261,0.7854593755330821,0.1748733843730917,-0.4044644697895153,-0.7873824834823608,0.07685258984565735,0.6116556525230408,-42.54108810424805,12.1745491027832,8.452817916870117,2,192.168.1.8,10.83.46.32,3,0
2015-03-03 20:03:11.381,32,1425441791.078216,37.77913869362118,-122.4388545100786,62.27798,1.16,169.453125,4,50,-9999,1425441791.32581,-44.7508659362793,11.75576782226562,5.851844787597656,290.906494140625,277.1295776367188,10,229157.3850260417,-0.6578826904296875,-0.0711822509765625,0.5181884765625,229157.35804925,-2.482118600227325,0.5360152315485753,-0.6830656658789356,229157.35804925,-1.067126263642027,-2.219524656985343,0.006230107837029397,-2.485385179519653,0.5439243912696838,-0.6447581648826599,-0.06546734273433685,-0.1243393868207932,0.1609901040792465,XTrueNorthZVertical,0.4543071494872595,0.7718069406269252,0.2286660198468713,-0.3816162427377076,-0.796837329864502,-0.00623006746172905,0.6041618585586548,-42.55571746826172,11.21764087677002,9.622339248657227,2,192.168.1.8,10.83.46.32,3,0
2015-03-03 20:03:11.420,33,1425441791.078216,37.77913869362118,-122.4388545100786,62.27798,1.16,169.453125,4,50,-9999,1425441791.37825,-44.97249221801758,10.17593383789062,7.033866882324219,307.024169921875,293.2472534179688,10,229157.4341655833,-0.661407470703125,-0.195098876953125,0.4359130859375,229157.4098330833,-1.738718487220426,0.1998870177253143,-1.455099287978039,229157.4098330833,-1.117709466949295,-2.199971887931141,0.1201097149872011,-1.741985082626343,0.207796111702919,-1.416792154312134,0.263152539730072,-0.005819736514240503,-0.02392074279487133,XTrueNorthZVertical,0.4485936355507341,0.768689220680509,0.2854279235772374,-0.3555440586261309,-0.8026880621910095,-0.1198211312294006,0.5842387080192566,-43.14871597290039,8.435790061950684,9.820376396179199,2,192.168.1.8,10.83.46.32,3,0
2015-03-03 20:03:11.479,34,1425441791.078216,37.77913869362118,-122.4388545100786,62.27798,1.16,169.453125,4,50,-9999,1425441791.42974,-44.59743881225586,7.933563232421875,8.132659912109375,326.9373168945312,313.160400390625,10,229157.4831962917,-1.264389038085938,0.1077423095703125,1.787826538085938,229157.4616177917,-0.5457096705486817,-2.289245549864952,0.4685456432280719,229157.4616177917,-1.138566860327906,-2.273946969799125,0.1468319718497296,-0.5489761829376221,-2.281336545944214,0.506852388381958,-0.09920496493577957,-0.09666076302528381,0.4885838031768799,XTrueNorthZVertical,0.4618089298921706,0.7788232562105075,0.2820250492430732,-0.3172203721168303,-0.7546005845069885,-0.1463049352169037,0.6396663188934326,-42.90449142456055,5.898661613464355,12.40259170532227,2,192.168.1.8,10.83.46.32,3,0
2015-03-03 20:03:11.517,35,1425441791.078216,37.77913869362118,-122.4388545100786,62.27798,1.16,169.453125,4,50,-9999,1425441791.481376,-43.81325912475586,7.016204833984375,9.86407470703125,332.7168579101562,318.93994140625,10,229157.5321019167,-0.53131103515625,-0.14202880859375,0.734405517578125,229157.5134015834,0.3685575264171558,2.077254731301336,-1.078151472546589,229157.5134015834,-1.149522365775517,-2.252591709423454,0.151147763900816,0.365291029214859,2.085163593292236,-1.039845108985901,-0.3687011897563934,-0.06163106858730316,0.04865811392664909,XTrueNorthZVertical,0.4621563214874765,0.7732484508316261,0.2903117889700929,-0.322827319181054,-0.7675902843475342,-0.1505729109048843,0.6230032444000244,-42.33988952636719,6.517882347106934,13.93788909912109,2,192.168.1.8,10.83.46.32,3,0
2015-03-03 20:03:11.577,36,1425441791.078216,37.77913869362118,-122.4388545100786,62.27798,1.16,169.453125,4,50,-9999,1425441791.53253,-43.81326675415039,6.778411865234375,10.19703674316406,333.9793395996094,320.2024230957031,10,229157.5811438333,-0.4709320068359375,-0.24664306640625,0.4946746826171875,229157.5651850833,0.8136439162349377,2.205389265041082,-0.9916674466751375,229157.5651850833,-1.0970782178314,-2.143175252333132,0.1796844499890957,0.8103774785995483,2.213298082351685,-0.9533615112304688,0.3631834089756012,0.04186303168535233,-0.1241607144474983,XTrueNorthZVertical,0.419308269674307,0.7685292137542031,0.3158383843984949,-0.3657725831150024,-0.8270811438560486,-0.1787191182374954,0.5329131484031677,-43.77000427246094,4.727222919464111,9.552694320678711,2,192.168.1.8,10.83.46.32,3,0
2015-03-03 20:03:11.616,37,1425441791.078216,37.77913869362118,-122.4388545100786,62.27798,1.16,169.453125,4,50,-9999,1425441791.585303,-44.64858627319336,5.232513427734375,6.717567443847656,333.3230590820312,319.546142578125,10,229157.6302339167,-1.281036376953125,-0.40704345703125,0.43414306640625,229157.6169700834,0.2415369929613906,1.623829984110517,-0.4475327695951287,229157.5651850833,-1.0970782178314,-2.143175252333132,0.1796844499890957,0.8103774785995483,2.213298082351685,-0.9533615112304688,0.3631834089756012,0.04186303168535233,-0.1241607144474983,XTrueNorthZVertical,0.419308269674307,0.7685292137542031,0.3158383843984949,-0.3657725831150024,-0.8270811438560486,-0.1787191182374954,0.5329131484031677,-43.77000427246094,4.727222919464111,9.552694320678711,2,192.168.1.8,10.83.46.32,3,0
2015-03-03 20:03:11.675,38,1425441791.078216,37.77913869362118,-122.4388545100786,62.27798,1.16,169.453125,4,50,-9999,1425441791.63591,-45.38162612915039,3.041107177734375,2.006134033203125,329.9164123535156,316.1394958496094,10,229157.6792110417,-0.6043548583984375,-0.3678741455078125,0.2701873779296875,229157.668753625,0.4859600535961,1.205916093210922,-0.5927687922748179,229157.668753625,-1.030812341682529,-1.97196903697795,0.2142048406199375,0.4826936423778534,1.21382474899292,-0.5544635653495789,-0.01191974524408579,-0.1683499068021774,-0.2620210647583008,XTrueNorthZVertical,0.3572772299696296,0.7504264278684781,0.3480902061141663,-0.4336431836639078,-0.8995640277862549,-0.2125705033540726,0.3815736770629883,-45.0126953125,1.80069637298584,0.1687507629394531,2,192.168.1.8,10.83.46.32,3,0
2015-03-03 20:03:11.714,39,1425441791.078216,37.77913869362118,-122.4388545100786,62.27798,1.16,169.453125,4,50,-9999,1425441791.688111,-45.38162612915039,1.47821044921875,-1.789649963378906,328.1415710449219,314.3646545410156,10,229157.7283324167,-0.8484649658203125,-0.314727783203125,0.2884674072265625,229157.7205374167,0.7537928328448239,-0.4053259273751169,-0.5354490435008245,229157.668753625,-1.030812341682529,-1.97196903697795,0.2142048406199375,0.4826936423778534,1.21382474899292,-0.5544635653495789,-0.01191974524408579,-0.1683499068021774,-0.2620210647583008,XTrueNorthZVertical,0.3572772299696296,0.7504264278684781,0.3480902061141663,-0.4336431836639078,-0.8995640277862549,-0.2125705033540726,0.3815736770629883,-45.0126953125,1.80069637298584,0.1687507629394531,2,192.168.1.8,10.83.46.32,3,0
2015-03-03 20:03:11.772,40,1425441791.078216,37.77913869362118,-122.4388545100786,62.27798,1.16,169.453125,4,50,-9999,1425441791.739119,-45.63733291625977,0.204132080078125,-3.404533386230469,325.501708984375,311.7247924804688,10,229157.77727325,-0.8511962890625,-0.3538665771484375,0.218109130859375,229157.7723221667,0.2482031514859679,0.3808765106715354,-0.00516813041140777,229157.7205374167,-0.9895067061041165,-1.990855111761567,0.2182860167565427,0.750526487827301,-0.3974173069000244,-0.4971442222595215,0.1112314239144325,0.02894981950521469,-0.1346937566995621,XTrueNorthZVertical,0.3438309585389409,0.7621342705466052,0.3372599112096465,-0.43265161842808,-0.8913980722427368,-0.2165566384792328,0.3981367349624634,-45.03004837036133,0.8974113464355469,-0.9503183364868164,2,192.168.1.8,10.83.46.32,3,0
2015-03-03 20:03:11.811,41,1425441791.078216,37.77913869362118,-122.4388545100786,62.27798,1.16,169.453125,4,50,-9999,1425441791.792532,-45.65438461303711,-0.4244384765625,-3.687545776367188,323.7335510253906,309.9566345214844,10,229157.8262911667,-0.7765960693359375,-0.3402099609375,0.339202880859375,229157.8241059583,-0.09521759635025705,-1.05597772699448,0.3974610800438949,229157.7723221667,-0.9696217084899951,-1.985904423587433,0.2154074891308818,0.2449368387460709,0.3887850642204285,0.03313630446791649,-0.07038480043411255,-0.1987148076295853,-0.1772022545337677,XTrueNorthZVertical,0.3361636699244612,0.764184726459431,0.3327522049556193,-0.4385107820740619,-0.8939248919487,-0.2137455195188522,0.3939686119556427,-45.04183959960938,0.2191534042358398,-0.7737751007080078,2,192.168.1.8,10.83.46.32,3,0
2015-03-03 20:03:11.871,42,1425441791.078216,37.77913869362118,-122.4388545100786,62.27798,1.16,169.453125,4,50,-9999,1425441791.842975,-45.96123123168945,-0.050750732421875,-2.55548095703125,322.9790649414062,309.2021484375,10,229157.8753409584,-0.9296417236328125,-0.2674713134765625,0.46405029296875,229157.8758895,-0.06276165214546138,-1.136930100965728,0.4422583790562267,229157.8241059583,-0.9724908932758244,-2.008712249128664,0.2044170355185319,-0.09848387539386749,-1.04806923866272,0.4357651770114899,0.1386431902647018,-0.1529453992843628,-0.1113604754209518,XTrueNorthZVertical,0.3438592289208587,0.7677062129567516,0.3255806968036306,-0.4317235876940331,-0.886781632900238,-0.2029963731765747,0.4152239859104156,-45.04302215576172,0.4709091186523438,-0.5645122528076172,2,192.168.1.8,10.83.46.32,3,0
2015-03-03 20:03:11.909,43,1425441791.078216,37.77913869362118,-122.4388545100786,62.27798,1.16,169.453125,4,50,-9999,1425441791.895322,-45.99532699584961,1.240325927734375,-0.5909881591796875,323.2967834472656,309.5198669433594,10,229157.9243733333,-0.7990570068359375,-0.3067474365234375,0.5563812255859375,229157.8758895,-0.06276165214546138,-1.136930100965728,0.4422583790562267,229157.8758895,-0.9890521167178294,-2.062525819369346,0.1835972088391031,-0.06602789461612701,-1.129021763801575,0.4805620610713959,-0.06293945014476776,-0.08490381389856339,-0.0001656176609685645,XTrueNorthZVertical,0.3640284476359365,0.7743327738305009,0.3120252123145515,-0.4129556351386689,-0.8667022585868835,-0.1825674921274185,0.4642159044742584,-44.99672698974609,1.435259819030762,1.627408981323242,2,192.168.1.8,10.83.46.32,3,0
2015-03-03 20:03:11.969,44,1425441791.078216,37.77913869362118,-122.4388545100786,62.27798,1.16,169.453125,4,50,-9999,1425441791.946671,-45.65438461303711,2.463470458984375,2.006126403808594,324.1395874023438,310.3626708984375,10,229157.9734735,-0.9412384033203125,-0.20648193359375,0.6125640869140625,229157.9794580833,-0.1446666388386303,-0.4349165765630963,0.07239909949824012,229157.9276745417,-0.9993535505156467,-2.112573215611373,0.1673531944302644,-0.03358470648527145,-1.021233558654785,0.3884882032871246,0.04576664417982101,-0.1401743292808533,0.04792617633938789,XTrueNorthZVertical,0.3795486629810135,0.7811340065972507,0.2988273379645138,-0.3955688856326842,-0.8448236584663391,-0.1665731072425842,0.5084550380706787,-44.74660110473633,2.58015251159668,4.527503967285156,2,192.168.1.8,10.83.46.32,3,0
2015-03-03 20:03:12.008,45,1425441791.078216,37.77913869362118,-122.4388545100786,62.27798,1.16,169.453125,4,50,-9999,1425441791.998919,-45.1429557800293,3.414764404296875,3.970619201660156,324.4438781738281,310.6669616699219,10,229158.0225589167,-0.819091796875,-0.27215576171875,0.606903076171875,229157.9794580833,-0.1446666388386303,-0.4349165765630963,0.07239909949824012,229157.9794580833,-1.013281078273589,-2.149348344503411,0.1577814508028218,-0.1479328274726868,-0.4270083606243134,0.1107020452618599,-0.1143831685185432,-0.04935432970523834,0.07254420220851898,XTrueNorthZVertical,0.3926101082181889,0.7847720980703593,0.2908670766841857,-0.3812957457739786,-0.8268552422523499,-0.1571276038885117,0.5400198698043823,-44.47146606445312,3.303413391113281,6.386702537536621,2,192.168.1.8,10.83.46.32,3,0
2015-03-03 20:03:12.070,46,1425441791.078216,37.77913869362118,-122.4388545100786,62.27798,1.16,169.453125,4,50,-9999,1425441792.050952,-45.33047866821289,3.6356201171875,4.187042236328125,326.5319519042969,312.7550354003906,10,229158.0715130834,-0.83245849609375,-0.2755279541015625,0.482025146484375,229158.0312419167,-0.01498747166663893,0.4328166740435688,-0.08306905440564259,229158.0312419167,-1.014135152593184,-2.144151401328892,0.1598083909818853,-0.0182536244392395,0.4407248497009277,-0.04476649686694145,0.01028944924473763,-0.1130267232656479,0.07136144489049911,XTrueNorthZVertical,0.3917309444453964,0.7837842056082417,0.2928068640828839,-0.3827445252095873,-0.8293812274932861,-0.1591290384531021,0.5355416536331177,-44.39925765991211,3.374153614044189,6.836274147033691,2,192.168.1.8,10.83.46.32,3,0
2015-03-03 20:03:12.106,47,1425441792.077433,37.77911606248261,-122.4388422725,62.39969,1.55,163.125,4,100,-9999,1425441792.050952,-45.33047866821289,3.6356201171875,4.187042236328125,326.5319519042969,312.7550354003906,10,229158.1205432917,-0.7892913818359375,-0.3100433349609375,0.403350830078125,229158.083026625,0.03155819260132996,0.6498517860279033,-0.1167654990461972,229158.083026625,-1.012611480542913,-2.113650106714845,0.1630048393590547,0.02824422903358936,0.6577920913696289,-0.07843907922506332,0.01062878221273422,-0.1153039485216141,-0.0500476099550724,XTrueNorthZVertical,0.3858880143422679,0.7784326462984755,0.2996284334667484,-0.3941521311003987,-0.8448877930641174,-0.1622839421033859,0.5097339153289795,-44.60260009765625,3.207157611846924,5.453056335449219,2,192.168.1.8,10.83.46.32,3,0
2015-03-03 20:03:12.165,48,1425441792.077433,37.77911606248261,-122.4388422725,62.39969,1.55,163.125,4,100,-9999,1425441792.153798,-45.5861930847168,3.14300537109375,2.339088439941406,327.5130920410156,313.7361755371094,10,229158.1695930834,-0.8871002197265625,-0.2485809326171875,0.513885498046875,229158.1348104167,-0.01335149180900325,-0.02225736881033723,0.03605866852745487,229158.1348104167,-1.011351518933483,-2.096892915896294,0.1630816635394946,-0.01666542328894138,-0.01431718096137047,0.07438470423221588,0.06239090487360954,-0.1481413543224335,-0.08676159381866455,XTrueNorthZVertical,0.3828576340488137,0.7753511594683431,0.3026268806315373,-0.4008336658888007,-0.8532997369766235,-0.162359744310379,0.4954987764358521,-44.72212982177734,3.109143733978271,4.436022758483887,2,192.168.1.8,10.83.46.32,3,0
2015-03-03 20:03:12.204,49,1425441792.077433,37.77911606248261,-122.4388422725,62.39969,1.55,163.125,4,100,-9999,1425441792.153798,-45.5861930847168,3.14300537109375,2.339088439941406,327.5130920410156,313.7361755371094,10,229158.2187245,-0.8248748779296875,-0.2801971435546875,0.4782562255859375,229158.1865939584,-0.1162712163478785,-0.2656476555743139,0.003244795472152544,229158.1865939584,-1.017975614710602,-2.10706139185198,0.1605803932163729,-0.1195851117372513,-0.2577075362205505,0.04157048836350441,-0.04843950644135475,-0.08588215708732605,0.006691680755466223,XTrueNorthZVertical,0.3875450073095177,0.7758780242752122,0.3010675302337733,-0.3964600181912223,-0.8485636711120605,-0.1598911583423615,0.5043556690216064,-44.68424606323242,3.314624309539795,4.663198471069336,2,192.168.1.8,10.83.46.32,3,0
2015-03-03 20:03:12.265,50,1425441792.077433,37.77911606248261,-122.4388422725,62.39969,1.55,163.125,4,100,-9999,1425441792.258139,-45.75667190551758,2.80322265625,2.705337524414062,329.6890258789062,315.912109375,10,229158.2676749167,-0.8555755615234375,-0.266754150390625,0.4945068359375,229158.238379,-0.001256745718408393,0.0006370281327469538,-0.04037991371221744,229158.238379,-1.020894336512826,-2.111953919180526,0.1623599333711988,-0.004570610821247101,0.008577057160437107,-0.002054638462141156,0.01649502851068974,-0.1177713945508003,-0.01789061725139618,XTrueNorthZVertical,0.3890020963799058,0.7764369300396103,0.3013503356087666,-0.3937144687970932,-0.8458407521247864,-0.1616475582122803,0.5083538889884949,-44.62656402587891,3.352321624755859,5.161960601806641,2,192.168.1.8,10.83.46.32,3,0
2015-03-03 20:03:12.302,51,1425441792.077433,37.77911606248261,-122.4388422725,62.39969,1.55,163.125,4,100,-9999,1425441792.258139,-45.75667190551758,2.80322265625,2.705337524414062,329.6890258789062,315.912109375,10,229158.31682225,-0.812469482421875,-0.2904052734375,0.4718475341796875,229158.2901625,0.04854889403992649,0.08989952996947782,-0.04149977295059576,229158.2901625,-1.019984276042446,-2.108232584480138,0.1609994116399524,0.04523506015539169,0.09783948212862015,-0.003174881218001246,0.006362027022987604,-0.1157572418451309,-0.03011035732924938,XTrueNorthZVertical,0.3884033439792582,0.7757578584801108,0.3013925119196603,-0.3956073636572376,-0.8479147553443909,-0.1603047698736191,0.505314826965332,-44.63602828979492,3.386069297790527,5.0570068359375,2,192.168.1.8,10.83.46.32,3,0
2015-03-03 20:03:12.369,52,1425441792.077433,37.77911606248261,-122.4388422725,62.39969,1.55,163.125,4,100,-9999,1425441792.361985,-45.5861930847168,2.667327880859375,2.538864135742188,332.162353515625,318.3854370117188,10,229158.365752875,-0.85614013671875,-0.264404296875,0.5159149169921875,229158.3419463334,0.02586035944910544,-0.01221165886244934,-0.008300806801667978,229158.3419463334,-1.018912592884586,-2.106793245621949,0.1584308302808349,0.0225465577095747,-0.004271780606359243,0.03002373874187469,-0.02934926189482212,-0.106223426759243,0.01535083446651697,XTrueNorthZVertical,0.388366981606458,0.7754497600167661,0.3005130075598499,-0.3969140141191202,-0.8489924073219299,-0.1577688902616501,0.5043025016784668,-44.6488037109375,3.429661273956299,4.912769317626953,2,192.168.1.8,10.83.46.32,3,0
2015-03-03 20:03:12.401,53,1425441792.077433,37.77911606248261,-122.4388422725,62.39969,1.55,163.125,4,100,-9999,1425441792.361985,-45.5861930847168,2.667327880859375,2.538864135742188,332.162353515625,318.3854370117188,10,229158.4148714167,-0.8599395751953125,-0.2704925537109375,0.4886016845703125,229158.3937312083,-0.04487719384503425,0.1040345237711824,-0.04168859107188238,229158.3419463334,-1.018912592884586,-2.106793245621949,0.1584308302808349,0.0225465577095747,-0.004271780606359243,0.03002373874187469,-0.02934926189482212,-0.106223426759243,0.01535083446651697,XTrueNorthZVertical,0.388366981606458,0.7754497600167661,0.3005130075598499,-0.3969140141191202,-0.8489924073219299,-0.1577688902616501,0.5043025016784668,-44.6488037109375,3.429661273956299,4.912769317626953,2,192.168.1.8,10.83.46.32,3,0
2015-03-03 20:03:12.466,54,1425441792.077433,37.77911606248261,-122.4388422725,62.39969,1.55,163.125,4,100,-9999,1425441792.41444,-45.63733291625977,2.616363525390625,2.522216796875,332.7567749023438,318.9798583984375,10,229158.46381725,-0.8563232421875,-0.2763824462890625,0.55133056640625,229158.44551475,-0.1647785650747997,0.2214607530838282,-0.1239464466094868,229158.44551475,-1.022882908501079,-2.097755732469555,0.1820717018230046,-0.1681175082921982,0.2293831259012222,-0.08568548411130905,-0.04530191421508789,-0.07672981917858124,0.07466476410627365,XTrueNorthZVertical,0.3829934299473402,0.7749925627562964,0.3117170692673725,-0.3943793529660882,-0.8500533103942871,-0.1810674220323563,0.4945948719978333,-44.72468948364258,2.627365112304688,4.713085174560547,2,192.168.1.8,10.83.46.32,3,0
2015-03-03 20:03:12.498,55,1425441792.077433,37.77911606248261,-122.4388422725,62.39969,1.55,163.125,4,100,-9999,1425441792.465653,-45.72256851196289,2.633331298828125,2.3057861328125,334.1708374023438,320.3939208984375,10,229158.512951625,-1.060333251953125,-0.2512359619140625,0.6592864990234375,229158.4972985834,-0.5149429694233233,0.427141744076719,-0.2997600859771389,229158.4972985834,-1.033978120607932,-2.079263656667023,0.1971351351080488,-0.518281877040863,0.4350640475749969,-0.2614994943141937,-0.101373054087162,-0.06564436852931976,0.1801066398620605,XTrueNorthZVertical,0.3807625805352954,0.7705353837534152,0.322908954511084,-0.3962637149344224,-0.8565737009048462,-0.1958607584238052,0.477409839630127,-44.78898620605469,2.381515979766846,4.205842971801758,2,192.168.1.8,10.83.46.32,3,0
2015-03-03 20:03:12.566,56,1425441792.077433,37.77911606248261,-122.4388422725,62.39969,1.55,163.125,4,100,-9999,1425441792.518435,-45.67143630981445,1.902862548828125,1.39013671875,334.9287414550781,321.1518249511719,10,229158.561903625,-0.7185211181640625,-0.251739501953125,0.4955902099609375,229158.5490832917,-0.3560902040900589,0.919190849189176,-0.7038937161322273,229158.5490832917,-1.041816384634446,-2.033835811205033,0.2345950937382203,-0.3594290614128113,0.9271130561828613,-0.665633499622345,0.06663358956575394,0.01052536070346832,-0.002031123265624046,XTrueNorthZVertical,0.3669621220321447,0.7632536569368953,0.3463003073691383,-0.4035576765608016,-0.8701919317245483,-0.2324491888284683,0.4344346821308136,-44.97276306152344,1.07823371887207,2.387893676757812,2,192.168.1.8,10.83.46.32,3,0
2015-03-03 20:03:12.596,57,1425441792.077433,37.77911606248261,-122.4388422725,62.39969,1.55,163.125,4,100,-9999,1425441792.568892,-45.6884880065918,0.900604248046875,-0.3579177856445312,336.7950134277344,323.0180969238281,10,229158.6109386667,-0.821136474609375,-0.4803009033203125,0.63287353515625,229158.6008671667,0.6131877809846734,-0.5020724445071884,-0.4703707075231032,229158.5490832917,-1.041816384634446,-2.033835811205033,0.2345950937382203,-0.3594290614128113,0.9271130561828613,-0.665633499622345,0.06663358956575394,0.01052536070346832,-0.002031123265624046,XTrueNorthZVertical,0.3669621220321447,0.7632536569368953,0.3463003073691383,-0.4035576765608016,-0.8701919317245483,-0.2324491888284683,0.4344346821308136,-44.97276306152344,1.07823371887207,2.387893676757812,2,192.168.1.8,10.83.46.32,3,0
2015-03-03 20:03:12.667,58,1425441792.077433,37.77911606248261,-122.4388422725,62.39969,1.55,163.125,4,100,-9999,1425441792.621111,-45.96123886108398,-0.45843505859375,-1.090438842773438,339.4888305664062,325.7119140625,10,229158.6599907083,-0.7867584228515625,-0.19781494140625,0.6538238525390625,229158.6526506667,0.6719594851849781,-0.4514034079234498,-0.2540240226805541,229158.6526506667,-1.006570822352379,-2.066084486102936,0.264028730248383,0.6686206459999084,-0.4434813261032104,-0.2157645970582962,-0.009254265576601028,0.05841135606169701,0.1304337531328201,XTrueNorthZVertical,0.3515672967391139,0.7783366167118132,0.3439263948469662,-0.3902655850901023,-0.8493425250053406,-0.2609717845916748,0.4588149189949036,-44.95939636230469,-0.8759317398071289,2.701784133911133,2,192.168.1.8,10.83.46.32,3,0
2015-03-03 20:03:12.695,59,1425441792.077433,37.77911606248261,-122.4388422725,62.39969,1.55,163.125,4,100,-9999,1425441792.67313,-45.75667190551758,-1.409759521484375,-0.124847412109375,338.9882202148438,325.2113037109375,10,229158.7091242917,-0.8600006103515625,-0.104156494140625,0.586212158203125,229158.6526506667,0.6719594851849781,-0.4514034079234498,-0.2540240226805541,229158.6526506667,-1.006570822352379,-2.066084486102936,0.264028730248383,0.6686206459999084,-0.4434813261032104,-0.2157645970582962,-0.009254265576601028,0.05841135606169701,0.1304337531328201,XTrueNorthZVertical,0.3515672967391139,0.7783366167118132,0.3439263948469662,-0.3902655850901023,-0.8493425250053406,-0.2609717845916748,0.4588149189949036,-44.95939636230469,-0.8759317398071289,2.701784133911133,2,192.168.1.8,10.83.46.32,3,0
2015-03-03 20:03:12.766,60,1425441792.077433,37.77911606248261,-122.4388422725,62.39969,1.55,163.125,4,100,-9999,1425441792.725156,-45.41572189331055,-1.68157958984375,1.573265075683594,335.9221496582031,322.1452331542969,10,229158.7580620834,-0.5877532958984375,-0.4495849609375,0.3780059814453125,229158.75621925,2.605133739403611,0.6396441558857386,0.7571380294900725,229158.70443575,-0.9352906918705941,-2.135687398175047,0.2342590668931848,2.102610111236572,-0.9331379532814026,0.0900396853685379,0.0606209821999073,0.1504267901182175,0.05151751264929771,XTrueNorthZVertical,0.3419744010296809,0.8021251002371214,0.3071931879716139,-0.3811577401848306,-0.8215767741203308,-0.2321223467588425,0.5207023620605469,-44.75548553466797,-1.304049491882324,4.96588134765625,2,192.168.1.8,10.83.46.32,3,0
2015-03-03 20:03:12.792,61,1425441792.077433,37.77911606248261,-122.4388422725,62.39969,1.55,163.125,4,100,-9999,1425441792.777795,-45.36458969116211,-0.645294189453125,2.056076049804688,320.1794738769531,306.4025573730469,10,229158.8071955,-0.4320220947265625,-0.4337158203125,0.057281494140625,229158.8080030833,1.587503667893509,0.5563175738026853,0.7549518405512264,229158.75621925,-0.8436413031698892,-2.158753731961505,0.142421780819295,2.601794958114624,0.6475660800933838,0.7953966856002808,0.1105770543217659,-0.2362177819013596,-0.1768696308135986,XTrueNorthZVertical,0.3294264319304525,0.8160892119546994,0.2499399619157326,-0.4037408631081099,-0.8236507773399353,-0.1419407874345779,0.5490467548370361,-45.70727920532227,-0.9108138084411621,1.476797103881836,2,192.168.1.8,10.83.46.32,3,0
2015-03-03 20:03:12.868,62,1425441792.077433,37.77911606248261,-122.4388422725,62.39969,1.55,163.125,4,100,-9999,1425441792.82985,-45.51801681518555,1.138397216796875,1.573272705078125,308.1796875,294.4027709960938,10,229158.856131875,-0.7356414794921875,-0.3887176513671875,0.2406463623046875,229158.859787875,-0.1903454441717784,-0.9727070712943183,0.3160208149609447,229158.8080030833,-0.7748266320155945,-2.113653293605898,0.04973839584348075,1.584164977073669,0.5642393827438354,0.7932100892066956,0.4231553673744202,-0.383997917175293,-0.4586640298366547,XTrueNorthZVertical,0.3175624329121007,0.8106336144249952,0.2057298414182705,-0.4468808809360952,-0.8551774621009827,-0.04971789196133614,0.5159454941749573,-45.73020935058594,0.8537230491638184,-0.4304656982421875,2,192.168.1.8,10.83.46.32,3,0
2015-03-03 20:03:12.890,63,1425441792.077433,37.77911606248261,-122.4388422725,62.39969,1.55,163.125,4,100,-9999,1425441792.880973,-45.70553970336914,2.276580810546875,1.856292724609375,300.9839172363281,287.2070007324219,10,229158.9051551667,-1.256332397460938,-0.5160369873046875,0.5558624267578125,229158.859787875,-0.1903454441717784,-0.9727070712943183,0.3160208149609447,229158.859787875,-0.7632183685764394,-2.132402842384797,0.006802123067628913,-0.1936841160058975,-0.9647853374481201,0.3542787134647369,0.1107396557927132,-0.3819155693054199,-0.2918879985809326,XTrueNorthZVertical,0.3244726546394202,0.8130096401107636,0.1828067879382058,-0.4475651291051637,-0.8463811278343201,-0.006802070420235395,0.5325343608856201,-45.64836883544922,2.754423379898071,-0.8975505828857422,2,192.168.1.8,10.83.46.32,3,0
2015-03-03 20:03:12.969,64,1425441792.077433,37.77911606248261,-122.4388422725,62.39969,1.55,163.125,4,100,-9999,1425441792.932534,-44.88725662231445,2.41253662109375,5.751968383789062,308.6563415527344,294.8794250488281,10,229158.9541962084,-0.48272705078125,-0.389892578125,0.5577850341796875,229158.96335525,-0.8408936468247374,-5.75152727349049,1.190102508974141,229158.9115717083,-0.8002327307341908,-2.217319662640555,0.06990235442808843,-2.043457746505737,-2.298938989639282,-1.279625773429871,-0.4600986242294312,-0.4461915493011475,-0.04508145153522491,XTrueNorthZVertical,0.3341024872540652,0.8299683531560038,0.2023763556100168,-0.3982108944882823,-0.7962337732315063,-0.06984543800354004,0.6009438633918762,-45.63396453857422,2.346543312072754,2.049650192260742,2,192.168.1.8,10.83.46.32,3,0
2015-03-03 20:03:12.988,65,1425441792.077433,37.77911606248261,-122.4388422725,62.39969,1.55,163.125,4,100,-9999,1425441792.932534,-44.88725662231445,2.41253662109375,5.751968383789062,308.6563415527344,294.8794250488281,10,229159.0032226667,-1.330093383789062,-0.3473663330078125,1.325714111328125,229158.96335525,-0.8408936468247374,-5.75152727349049,1.190102508974141,229158.96335525,-0.8689230225745365,-2.438338497230291,0.09774076566348991,-0.8442330360412598,-5.743605136871338,1.228357076644897,0.1608895808458328,-0.2923073470592499,-0.2013163417577744,XTrueNorthZVertical,0.3794330944725768,0.8576603162165397,0.1864045033738345,-0.2927502603880238,-0.6436166167259216,-0.09758521616458893,0.759101390838623,-44.82806396484375,1.375347852706909,8.984390258789062,2,192.168.1.8,10.83.46.32,3,0
2015-03-03 20:03:13.075,66,1425441792.077433,37.77911606248261,-122.4388422725,62.39969,1.55,163.125,4,100,-9999,1425441793.036671,-41.46072769165039,4.637908935546875,17.28916931152344,303.8328857421875,290.0559692382812,10,229159.0522535834,-0.6060638427734375,-0.380279541015625,0.4525299072265625,229159.0151402917,-0.926987253280383,0.774632068374694,0.181490966179483,229159.0151402917,-0.8998548448446299,-2.498453113518801,0.0792562241193558,-0.9303266406059265,0.7825543284416199,0.2197451591491699,-0.8091694712638855,-0.2995498776435852,-0.01164845004677773,XTrueNorthZVertical,0.4010081666438156,0.8590954164135678,0.1711912616597326,-0.2680319248569199,-0.597828209400177,-0.07917327433824539,0.7977049946784973,-42.37687301635742,3.522936820983887,16.85097885131836,2,192.168.1.8,10.83.46.32,3,0
2015-03-03 20:03:13.087,67,1425441793.076691,37.77909519154372,-122.4388315436639,62.55545,1.57,163.125,4,100,-9999,1425441793.036671,-41.46072769165039,4.637908935546875,17.28916931152344,303.8328857421875,290.0559692382812,10,229159.1012744583,0.0343017578125,-0.190399169921875,0.28985595703125,229159.0669238333,-1.01447635614723,2.836972831255478,0.316735607397522,229159.0669238333,-0.9538093480438562,-2.349301982939382,0.09576786342308727,-1.017786264419556,2.844889402389526,0.3550398051738739,0.3767463862895966,-0.3104300796985626,-0.004479574039578438,XTrueNorthZVertical,0.4065876018078792,0.8271552638335251,0.2161526450201527,-0.3221471257801208,-0.7087013721466064,-0.09562154114246368,0.6989986300468445,-43.80600738525391,3.986381769180298,12.54226779937744,2,192.168.1.8,10.83.46.32,3,0
2015-03-03 20:03:13.168,68,1425441793.076691,37.77909519154372,-122.4388315436639,62.55545,1.57,163.125,4,100,-9999,1425441793.090461,-42.48357772827148,5.215484619140625,14.95842742919922,326.9000244140625,313.1231079101562,10,229159.1503292084,-0.873931884765625,0.1667022705078125,1.54827880859375,229159.1187077083,-1.701472581479014,-2.609967909414323,1.160044208698743,229159.1187077083,-1.047488200085796,-2.322153994453487,0.1266265147546921,-1.704782485961914,-2.602051258087158,1.198348045349121,0.6428197026252747,-0.02286627143621445,-0.3905297815799713,XTrueNorthZVertical,0.4359870666728057,0.8052939486242997,0.2490817879117568,-0.3152383891006955,-0.7249119877815247,-0.1262883991003036,0.6771661043167114,-44.69340896606445,4.461973190307617,8.646156311035156,2,192.168.1.8,10.83.46.32,3,0
2015-03-03 20:03:13.185,69,1425441793.076691,37.77909519154372,-122.4388315436639,62.55545,1.57,163.125,4,100,-9999,1425441793.16614,-42.17672348022461,6.67645263671875,14.75864410400391,317.1189575195312,303.342041015625,10,229159.1994118333,-0.5790252685546875,-0.071319580078125,0.7261505126953125,229159.1704924167,-0.1375738419074223,-0.3534664577841128,0.4421856747584675,229159.1704924167,-1.112000509193392,-2.443866671926094,0.1159150261690705,-0.1408837586641312,-0.3455498218536377,0.4804891049861908,-0.4438353478908539,0.03524180501699448,0.6325597167015076,XTrueNorthZVertical,0.4783491077794951,0.807318743090652,0.2263486290193747,-0.2611224259061883,-0.6381654143333435,-0.1156556233763695,0.7611628174781799,-42.42454528808594,6.7090163230896,15.72618961334229,2,192.168.1.8,10.83.46.32,3,0
2015-03-03 20:03:13.265,70,1425441793.076691,37.77909519154372,-122.4388315436639,62.55545,1.57,163.125,4,100,-9999,1425441793.218447,-41.08568954467773,8.137359619140625,17.38906478881836,317.8992309570312,304.122314453125,10,229159.2484103334,-0.795440673828125,-0.182159423828125,0.814483642578125,229159.2222762917,-0.1754985874106957,0.7701036292571233,-0.09863496466104672,229159.2222762917,-1.117600576767967,-2.403266068254582,0.1298645352115678,-0.1788084805011749,0.7780202031135559,-0.06033189967274666,0.2878366708755493,-0.1235061585903168,-0.01196310855448246,XTrueNorthZVertical,0.4735576100397096,0.8015156012764949,0.2422109824228112,-0.273221184952095,-0.6673837900161743,-0.1294998228549957,0.7333681583404541,-42.71267700195312,6.650862693786621,14.95189189910889,2,192.168.1.8,10.83.46.32,3,0
2015-03-03 20:03:13.283,71,1425441793.076691,37.77909519154372,-122.4388315436639,62.55545,1.57,163.125,4,100,-9999,1425441793.270377,-41.27322006225586,8.4261474609375,16.9395637512207,319.5829772949219,305.8060607910156,10,229159.2974836667,-0.6377716064453125,-0.2708282470703125,0.6232452392578125,229159.2740597917,-0.3673875997502841,0.8095194786547319,-0.1898032245738383,229159.2740597917,-1.131038394811217,-2.366999873184624,0.1380959702830218,-0.3706974387168884,0.8174359798431396,-0.1515005081892014,-0.174481987953186,-0.08852356672286987,0.03301912546157837,XTrueNorthZVertical,0.4729822818989787,0.7938757507771229,0.2558397670660641,-0.2838927824976702,-0.692766547203064,-0.1376574635505676,0.7079018950462341,-43.16443634033203,6.60905122756958,13.6131477355957,2,192.168.1.8,10.83.46.32,3,0
2015-03-03 20:03:13.369,72,1425441793.076691,37.77909519154372,-122.4388315436639,62.55545,1.57,163.125,4,100,-9999,1425441793.323284,-41.8187370300293,7.7467041015625,15.5078239440918,342.1137390136719,328.3368225097656,10,229159.3464743333,-0.714111328125,-0.2451171875,0.6453857421875,229159.3258447917,-0.2892597744311745,0.4959301297690296,-0.09395579062577751,229159.3258447917,-1.139235835243757,-2.331696727619223,0.1560094952773113,-0.2925695776939392,0.5038465261459351,-0.05565345659852028,0.03251289948821068,-0.07358071953058243,-0.09275916963815689,XTrueNorthZVertical,0.4683320889139238,0.788203407029952,0.2721409661054546,-0.2921297369938215,-0.7154200077056885,-0.1553774178028107,0.6811991333961487,-43.77279663085938,6.006402015686035,11.8334789276123,2,192.168.1.8,10.83.46.32,3,0
2015-03-03 20:03:13.381,73,1425441793.076691,37.77909519154372,-122.4388315436639,62.55545,1.57,163.125,4,100,-9999,1425441793.374013,-42.31311416625977,6.812347412109375,13.16042327880859,344.7013854980469,330.9244689941406,10,229159.395499,-0.7488555908203125,-0.2758026123046875,0.56329345703125,229159.377628375,-0.2525499630171952,0.5185353074177312,-0.08725314679426609,229159.377628375,-1.147412564299237,-2.306116225959408,0.1659349057814684,-0.2558597326278687,0.5264516472816467,-0.04895123094320297,-0.02447547018527985,-0.08275033533573151,-0.01491228491067886,XTrueNorthZVertical,0.4661327032315564,0.7832786505665551,0.2830512865812331,-0.2984574889969757,-0.7314296960830688,-0.1651744693517685,0.6616103053092957,-44.03029251098633,5.792891979217529,10.95179176330566,2,192.168.1.8,10.83.46.32,3,0
2015-03-03 20:03:13.465,74,1425441793.076691,37.77909519154372,-122.4388315436639,62.55545,1.57,163.125,4,100,-9999,1425441793.426508,-42.60292434692383,6.421630859375,12.17818450927734,346.4950866699219,332.7181701660156,10,229159.4445277917,-0.6855316162109375,-0.3592071533203125,0.422210693359375,229159.4294122084,-0.01618935626659169,0.2301687572161693,-0.06449563633121197,229159.4294122084,-1.151577011462799,-2.283773601848639,0.1728036401676367,-0.01949911192059517,0.238085001707077,-0.02619410492479801,0.03056787699460983,-0.1753146201372147,-0.198821023106575,XTrueNorthZVertical,0.463227000160285,0.7794833693191824,0.2914243654186912,-0.3047922366902152,-0.7451522350311279,-0.1719449013471603,0.6443471312522888,-44.28256607055664,5.585904598236084,10.00089740753174,2,192.168.1.8,10.83.46.32,3,0
2015-03-03 20:03:13.480,75,1425441793.076691,37.77909519154372,-122.4388315436639,62.55545,1.57,163.125,4,100,-9999,1425441793.426508,-42.60292434692383,6.421630859375,12.17818450927734,346.4950866699219,332.7181701660156,10,229159.4935489584,-0.7362060546875,-0.267242431640625,0.5723114013671875,229159.481197125,0.3867216166320413,-0.5639525903318335,0.128523887891115,229159.4294122084,-1.151577011462799,-2.283773601848639,0.1728036401676367,-0.01949911192059517,0.238085001707077,-0.02619410492479801,0.03056787699460983,-0.1753146201372147,-0.198821023106575,XTrueNorthZVertical,0.463227000160285,0.7794833693191824,0.2914243654186912,-0.3047922366902152,-0.7451522350311279,-0.1719449013471603,0.6443471312522888,-44.28256607055664,5.585904598236084,10.00089740753174,2,192.168.1.8,10.83.46.32,3,0
2015-03-03 20:03:13.566,76,1425441793.076691,37.77909519154372,-122.4388315436639,62.55545,1.57,163.125,4,100,-9999,1425441793.555599,-42.63700485229492,7.033203125,13.37684631347656,344.6243591308594,330.8474426269531,10,229159.54259025,-0.7561492919921875,-0.20867919921875,0.6968231201171875,229159.5329808333,0.4560311829496805,-0.6506174448413011,0.1305870387875994,229159.5329808333,-1.134009682458411,-2.327612415130448,0.1392495821447938,0.4527214765548706,-0.6427013278007507,0.1688878089189529,-0.01991012319922447,-0.0844665989279747,-0.001085322699509561,XTrueNorthZVertical,0.4688109709221671,0.7875267150895675,0.2659861846128655,-0.298779753643605,-0.7199885845184326,-0.1387999951839447,0.6799641251564026,-43.95731353759766,6.303842544555664,10.96277236938477,2,192.168.1.8,10.83.46.32,3,0
2015-03-03 20:03:13.578,77,1425441793.076691,37.77909519154372,-122.4388315436639,62.55545,1.57,163.125,4,100,-9999,1425441793.555599,-42.63700485229492,7.033203125,13.37684631347656,344.6243591308594,330.8474426269531,10,229159.59161525,-0.6858062744140625,-0.244598388671875,0.8882904052734375,229159.5847643334,0.2164947565991575,-0.4509826284712173,0.0489153450059214,229159.5329808333,-1.134009682458411,-2.327612415130448,0.1392495821447938,0.4527214765548706,-0.6427013278007507,0.1688878089189529,-0.01991012319922447,-0.0844665989279747,-0.001085322699509561,XTrueNorthZVertical,0.4688109709221671,0.7875267150895675,0.2659861846128655,-0.298779753643605,-0.7199885845184326,-0.1387999951839447,0.6799641251564026,-43.95731353759766,6.303842544555664,10.96277236938477,2,192.168.1.8,10.83.46.32,3,0
2015-03-03 20:03:13.665,78,1425441793.076691,37.77909519154372,-122.4388315436639,62.55545,1.57,163.125,4,100,-9999,1425441793.658842,-42.46653366088867,7.644744873046875,13.60993194580078,342.5347900390625,328.7578735351562,10,229159.6406423333,-0.79876708984375,-0.1414031982421875,0.8371124267578125,229159.6365494167,-0.2567692091322077,0.601612883938862,-0.1284855383714179,229159.5847643334,-1.125451242484101,-2.359899151168011,0.1235717412466307,0.2131851017475128,-0.4430666267871857,0.08721572905778885,0.005278127733618021,-0.1158782541751862,0.1344048529863358,XTrueNorthZVertical,0.472423421837078,0.7930769087736155,0.2511449918515222,-0.2911552255528371,-0.6991105079650879,-0.1232574880123138,0.7043097615242004,-43.70591735839844,6.663344860076904,11.72854614257812,2,192.168.1.8,10.83.46.32,3,0
2015-03-03 20:03:13.675,79,1425441793.076691,37.77909519154372,-122.4388315436639,62.55545,1.57,163.125,4,100,-9999,1425441793.658842,-42.46653366088867,7.644744873046875,13.60993194580078,342.5347900390625,328.7578735351562,10,229159.689663375,-0.78289794921875,-0.020599365234375,0.76422119140625,229159.6883329167,-0.06673908323349471,1.829447059237245,-0.4081344970607144,229159.6365494167,-1.12935194788954,-2.352489248280522,0.1233749124283848,-0.2600788474082947,0.6095287799835205,-0.0901854932308197,-0.1061432212591171,-0.02743527479469776,0.1661376953125,XTrueNorthZVertical,0.473068365101835,0.7910562045610705,0.253391316872924,-0.2936482397830908,-0.7043273448944092,-0.1230621635913849,0.699127197265625,-43.42324066162109,7.082241058349609,12.50720405578613,2,192.168.1.8,10.83.46.32,3,0
2015-03-03 20:03:13.739,80,1425441793.076691,37.77909519154372,-122.4388315436639,62.55545,1.57,163.125,4,100,-9999,1425441793.710646,-43.54052352905273,6.744384765625,11.62879943847656,342.1609497070312,328.384033203125,10,229159.73870625,-0.6828155517578125,-0.0555267333984375,0.5429229736328125,229159.7401167917,0.7941967150068521,1.852393920453804,-0.1766256371840172,229159.6883329167,-1.126019121841578,-2.286668896637356,0.1399445251778053,-0.07004867494106293,1.837362885475159,-0.369834840297699,-0.02311912924051285,0.08809658139944077,0.1531641334295273,XTrueNorthZVertical,0.4600096387705412,0.7831482696149037,0.2745284909497835,-0.3157595172329786,-0.7471445202827454,-0.1394881755113602,0.649860143661499,-44.01564025878906,6.550872325897217,10.57712745666504,2,192.168.1.8,10.83.46.32,3,0
2015-03-03 20:03:13.773,81,1425441793.076691,37.77909519154372,-122.4388315436639,62.55545,1.57,163.125,4,100,-9999,1425441793.762365,-44.51222610473633,5.77606201171875,8.049430847167969,339.16748046875,325.3905639648438,10,229159.7877275833,-0.737640380859375,-0.4215087890625,0.541778564453125,229159.7401167917,0.7941967150068521,1.852393920453804,-0.1766256371840172,229159.7401167917,-1.101040417101231,-2.188132942783343,0.1416329253996561,0.790887176990509,1.860309600830078,-0.1383264064788818,0.1244426071643829,0.08563314378261566,-0.03014621138572693,XTrueNorthZVertical,0.4359650714944048,0.7723140869112812,0.2930297841430585,-0.3572100197773524,-0.8072581887245178,-0.1411598771810532,0.573069155216217,-44.60893630981445,6.028414249420166,8.115849494934082,2,192.168.1.8,10.83.46.32,3,0
2015-03-03 20:03:13.867,82,1425441793.076691,37.77909519154372,-122.4388315436639,62.55545,1.57,163.125,4,100,-9999,1425441793.81457,-44.9554557800293,5.130523681640625,5.58551025390625,331.8213806152344,318.0444641113281,10,229159.8367587083,-1.009170532226562,-0.3910064697265625,0.4571075439453125,229159.8436853334,0.738434649154446,1.115173672756434,-0.3511819982010429,229159.7919016667,-1.05147024779827,-2.154892732704601,0.1171395941543542,1.04850435256958,0.3028202950954437,-0.1814260631799698,0.09085354208946228,-0.3046368956565857,-0.005888235289603472,XTrueNorthZVertical,0.4172683238484523,0.7744162613369634,0.2818512091066498,-0.3830490060601831,-0.8284938931465149,-0.1168718859553337,0.5476667881011963,-45.30704498291016,5.593227386474609,2.855436325073242,2,192.168.1.8,10.83.46.32,3,0
2015-03-03 20:03:13.871,83,1425441793.076691,37.77909519154372,-122.4388315436639,62.55545,1.57,163.125,4,100,-9999,1425441793.865634,-45.50098037719727,4.790802001953125,3.254768371582031,326.3637084960938,312.5867919921875,10,229159.8857755417,-0.4662628173828125,-0.32965087890625,0.33984375,229159.8436853334,0.738434649154446,1.115173672756434,-0.3511819982010429,229159.8436853334,-1.007781150093309,-2.133910058600422,0.09810115205441872,0.7351251840591431,1.12308931350708,-0.3128834664821625,-0.1676391214132309,-0.2930625975131989,-0.07414758950471878,XTrueNorthZVertical,0.4015981044483356,0.7773972789915445,0.2704309123420096,-0.4015465101316488,-0.8415313959121704,-0.09794387966394424,0.5312551259994507,-45.37081146240234,5.451519966125488,1.984004974365234,2,192.168.1.8,10.83.46.32,3,0
2015-03-03 20:03:13.937,84,1425441793.076691,37.77909519154372,-122.4388315436639,62.55545,1.57,163.125,4,100,-9999,1425441793.91756,-45.68849563598633,4.3660888671875,2.605484008789062,322.2365112304688,308.4595947265625,10,229159.9348128334,-0.8655548095703125,-0.3367462158203125,0.4295501708984375,229159.8954689167,0.8591687908570792,-0.3598420654337625,-0.4792954929681767,229159.8954689167,-0.9541449493725885,-2.118568520907913,0.08645829790523979,0.8558592796325684,-0.3519265353679657,-0.4409973621368408,0.3842354118824005,-0.2433002591133118,-0.1789977252483368,XTrueNorthZVertical,0.3812418334976334,0.7836296322517209,0.2580337835376111,-0.4171305256519268,-0.8504981994628906,-0.08635062724351883,0.5188414454460144,-45.45326614379883,5.095064163208008,0.4550495147705078,2,192.168.1.8,10.83.46.32,3,0
2015-03-03 20:03:13.970,85,1425441793.076691,37.77909519154372,-122.4388315436639,62.55545,1.57,163.125,4,100,-9999,1425441793.91756,-45.68849563598633,4.3660888671875,2.605484008789062,322.2365112304688,308.4595947265625,10,229159.9838292084,-0.968658447265625,-0.15106201171875,0.509033203125,229159.94725375,-0.01792786782619541,-1.049457776013748,0.3249879446673505,229159.94725375,-0.946072816191424,-2.164228527089687,0.07821020092669485,-0.02123729325830936,-1.041542291641235,0.3632856607437134,-0.1366121619939804,-0.2168218940496445,-0.09018463641405106,XTrueNorthZVertical,0.3856196487643976,0.7937554038442427,0.2444481627253911,-0.4018643877280723,-0.8264920711517334,-0.07813049107789993,0.5575003027915955,-45.49447631835938,4.466596126556396,1.571004867553711,2,192.168.1.8,10.83.46.32,3,0
2015-03-03 20:03:14.039,86,1425441793.076691,37.77909519154372,-122.4388315436639,62.55545,1.57,163.125,4,100,-9999,1425441794.021788,-44.83612442016602,4.63787841796875,6.367973327636719,321.2243347167969,307.4474182128906,10,229160.032872625,-0.643768310546875,-0.2950897216796875,0.6698455810546875,229159.9990375834,-0.1592005741716288,-1.268549647307951,0.07512191539673714,229159.9990375834,-0.9577348027864905,-2.215208367781122,0.06937695370072189,-0.1625099778175354,-1.260634303092957,0.113419272005558,-0.07830924540758133,-0.1030419692397118,-0.06955929845571518,XTrueNorthZVertical,0.3982219568879144,0.8006628392338283,0.2332900775747878,-0.3820131878044606,-0.7975299954414368,-0.06932131201028824,0.5992833971977234,-45.30434417724609,5.160614967346191,3.612497329711914,2,192.168.1.8,10.83.46.32,3,0
2015-03-03 20:03:14.075,87,1425441793.076691,37.77909519154372,-122.4388315436639,62.55545,1.57,163.125,4,100,-9999,1425441794.021788,-44.83612442016602,4.63787841796875,6.367973327636719,321.2243347167969,307.4474182128906,10,229160.0818945417,-0.6980133056640625,-0.17889404296875,0.742767333984375,229160.0508210833,-0.4893997924600463,-2.041597667466266,0.6432279717646583,229160.0508210833,-0.9845320996646677,-2.29819769344296,0.06593898586707965,-0.4927091598510742,-2.033682346343994,0.6815249919891357,0.106380969285965,-0.1885643601417542,0.01958896964788437,XTrueNorthZVertical,0.4190954459660226,0.8100012330874158,0.2198492474927652,-0.3462995278270862,-0.7452816963195801,-0.06589121371507645,0.6634860038757324,-45.1041259765625,5.338790416717529,5.411197662353516,2,192.168.1.8,10.83.46.32,3,0
2015-03-03 20:03:14.137,88,1425441793.076691,37.77909519154372,-122.4388315436639,62.55545,1.57,163.125,4,100,-9999,1425441794.125998,-43.11433029174805,7.1351318359375,13.77642059326172,312.6383972167969,298.8614807128906,10,229160.1309390417,-0.6920166015625,-0.149383544921875,0.843841552734375,229160.102606,-0.2371614192903904,-1.89990151850751,0.8214562992926852,229160.102606,-1.026391889198357,-2.398662960365151,0.0494075290467056,-0.2404418587684631,-1.891991376876831,0.8598014116287231,-0.0296228900551796,-0.120824359357357,0.01990191265940666,XTrueNorthZVertical,0.4495279324938544,0.8159168241040945,0.1982076607169984,-0.3048247731300313,-0.6756230592727661,-0.04938742890954018,0.7355912327766418,-43.49812698364258,7.271203517913818,12.13295459747314,2,192.168.1.8,10.83.46.32,3,0
2015-03-03 20:03:14.171,89,1425441793.076691,37.77909519154372,-122.4388315436639,62.55545,1.57,163.125,4,100,-9999,1425441794.125998,-43.11433029174805,7.1351318359375,13.77642059326172,312.6383972167969,298.8614807128906,10,229160.17995975,-0.7275390625,-0.120941162109375,0.9055938720703125,229160.1543896667,-0.2315464104480673,-1.219257731323892,0.765121121173694,229160.1543896667,-1.064915182366243,-2.473805730065232,0.02963384825629583,-0.2348268181085587,-1.211347699165344,0.8034658432006836,-0.09247832000255585,-0.1001922637224197,0.1352708786725998,XTrueNorthZVertical,0.4753802698814399,0.8163567100868288,0.1784117899124764,-0.275217367098945,-0.618977963924408,-0.02962951175868511,0.7848493456840515,-42.128173828125,8.79432487487793,15.49332237243652,2,192.168.1.8,10.83.46.32,3,0
2015-03-03 20:03:14.224,90,1425441793.076691,37.77909519154372,-122.4388315436639,62.55545,1.57,163.125,4,100,-9999,1425441794.204579,-41.1368293762207,9.0037841796875,18.40462112426758,313.45068359375,299.6737670898438,10,229160.2290585417,-0.633941650390625,-0.1323089599609375,0.7963714599609375,229160.2061735,-0.307562615338853,-0.4300294096466918,0.8627611288514871,229160.2061735,-1.109271353736042,-2.50976150917743,0.01897208956065781,-0.3108429908752441,-0.4221194088459015,0.901105523109436,-0.1096629127860069,-0.05988647043704987,-0.03415814414620399,XTrueNorthZVertical,0.498043876219881,0.809538999505818,0.1712756232732654,-0.2593522923367745,-0.5905171632766724,-0.01897095143795013,0.8068022131919861,-41.33736801147461,9.683202743530273,17.01832962036133,2,192.168.1.8,10.83.46.32,3,0
2015-03-03 20:03:14.270,91,1425441793.076691,37.77909519154372,-122.4388315436639,62.55545,1.57,163.125,4,100,-9999,1425441794.254801,-40.28445816040039,10.63461303710938,19.73647689819336,316.37060546875,302.5936889648438,10,229160.2780184583,-0.491912841796875,-0.1770477294921875,0.72930908203125,229160.2579582917,0.001848233796514991,-0.7634025833222658,1.402718371445598,229160.2061735,-1.109271353736042,-2.50976150917743,0.01897208956065781,-0.3108429908752441,-0.4221194088459015,0.901105523109436,-0.1096629127860069,-0.05988647043704987,-0.03415814414620399,XTrueNorthZVertical,0.498043876219881,0.809538999505818,0.1712756232732654,-0.2593522923367745,-0.5905171632766724,-0.01897095143795013,0.8068022131919861,-41.33736801147461,9.683202743530273,17.01832962036133,2,192.168.1.8,10.83.46.32,3,0
2015-03-03 20:03:14.322,92,1425441793.076691,37.77909519154372,-122.4388315436639,62.55545,1.57,163.125,4,100,-9999,1425441794.306594,-38.78428268432617,13.012939453125,21.40130233764648,319.6728515625,305.8959350585938,10,229160.3270525,-0.51202392578125,-0.0692901611328125,0.754730224609375,229160.309742125,-0.02441293139664737,-1.636448840303639,1.921428648546947,229160.309742125,-1.236155917116761,-2.59709213786177,-0.05954093670410977,-0.02769324369728565,-1.628539085388184,1.959772229194641,-0.02528535202145576,-0.1991847157478333,-0.106052428483963,XTrueNorthZVertical,0.5644028496703652,0.779990149677333,0.1323844371920724,-0.2356675529397958,-0.5170730352401733,0.05950576439499855,0.8538703918457031,-37.91456604003906,15.28021717071533,20.52234268188477,2,192.168.1.8,10.83.46.32,3,0
2015-03-03 20:03:14.368,93,1425441793.076691,37.77909519154372,-122.4388315436639,62.55545,1.57,163.125,4,100,-9999,1425441794.358033,-35.92032241821289,16.07073974609375,23.63215255737305,322.2442321777344,308.4673156738281,10,229160.3760743334,-0.4635009765625,-0.0121002197265625,0.929443359375,229160.3615255833,0.06105962589279174,-2.138025404215854,2.101517194096394,229160.3615255833,-1.324258957924555,-2.704406943402128,-0.1095134767930723,0.05777934566140175,-2.130115509033203,2.139860391616821,-0.04356129467487335,-0.1420858502388,0.01725068502128124,XTrueNorthZVertical,0.6086286465078624,0.7614663620895624,0.09098579508397253,-0.2036216594029792,-0.4208552241325378,0.109294705092907,0.9005197286605835,-35.87331390380859,17.44482421875,22.38189888000488,2,192.168.1.8,10.83.46.32,3,0
2015-03-03 20:03:14.421,94,1425441793.076691,37.77909519154372,-122.4388315436639,62.55545,1.57,163.125,4,100,-9999,1425441794.410237,-31.24934005737305,19.46832275390625,27.16156768798828,326.5699462890625,312.7930297851562,10,229160.4251154167,-0.3419036865234375,0.127532958984375,1.089828491210938,229160.4133107084,0.2666226388493919,-1.810540746026555,2.124684831367321,229160.4133107084,-1.425206272014442,-2.822454233035443,-0.1590043334794816,0.2633423805236816,-1.802631020545959,2.163027763366699,-0.04874494299292564,-0.09563681483268738,0.07563977688550949,XTrueNorthZVertical,0.6530090628826117,0.7364397064545233,0.04422742713105195,-0.1711131271080834,-0.3097908198833466,0.1583351790904999,0.9375285506248474,-28.66171646118164,22.87766456604004,27.33650588989258,2,192.168.1.8,10.83.46.32,3,0
2015-03-03 20:03:14.465,95,1425441793.076691,37.77909519154372,-122.4388315436639,62.55545,1.57,163.125,4,100,-9999,1425441794.410237,-31.24934005737305,19.46832275390625,27.16156768798828,326.5699462890625,312.7930297851562,10,229160.474139875,-0.2050323486328125,0.20904541015625,1.071670532226562,229160.4650942083,0.2654567069241552,-1.23816218032182,1.942657238228187,229160.4133107084,-1.425206272014442,-2.822454233035443,-0.1590043334794816,0.2633423805236816,-1.802631020545959,2.163027763366699,-0.04874494299292564,-0.09563681483268738,0.07563977688550949,XTrueNorthZVertical,0.6530090628826117,0.7364397064545233,0.04422742713105195,-0.1711131271080834,-0.3097908198833466,0.1583351790904999,0.9375285506248474,-28.66171646118164,22.87766456604004,27.33650588989258,2,192.168.1.8,10.83.46.32,3,0
2015-03-03 20:03:14.519,96,1425441793.076691,37.77909519154372,-122.4388315436639,62.55545,1.57,163.125,4,100,-9999,1425441794.514074,-22.35058975219727,26.22940063476562,30.85746383666992,338.0240783691406,324.2471618652344,10,229160.5233099167,-0.125579833984375,0.123870849609375,0.9693756103515625,229160.516878,0.7160063054021256,-1.059457413274778,1.422365842387657,229160.516878,-1.600246602623226,-2.982769319195723,-0.2378370385931388,0.7127261161804199,-1.051547884941101,1.460707783699036,0.01297253370285034,-0.06404653936624527,0.002570427022874355,XTrueNorthZVertical,0.7166861950301628,0.682766464276042,-0.02587378949188314,-0.1397191653263773,-0.1537043452262878,0.2356011122465134,0.9596182703971863,-21.80145835876465,27.18145942687988,29.6315803527832,2,192.168.1.8,10.83.46.32,3,0
2015-03-03 20:03:14.567,97,1425441793.076691,37.77909519154372,-122.4388315436639,62.55545,1.57,163.125,4,100,-9999,1425441794.514074,-22.35058975219727,26.22940063476562,30.85746383666992,338.0240783691406,324.2471618652344,10,229160.5722049167,-0.1165618896484375,0.18280029296875,1.104080200195312,229160.516878,0.7160063054021256,-1.059457413274778,1.422365842387657,229160.516878,-1.600246602623226,-2.982769319195723,-0.2378370385931388,0.7127261161804199,-1.051547884941101,1.460707783699036,0.01297253370285034,-0.06404653936624527,0.002570427022874355,XTrueNorthZVertical,0.7166861950301628,0.682766464276042,-0.02587378949188314,-0.1397191653263773,-0.1537043452262878,0.2356011122465134,0.9596182703971863,-21.80145835876465,27.18145942687988,29.6315803527832,2,192.168.1.8,10.83.46.32,3,0
2015-03-03 20:03:14.617,98,1425441793.076691,37.77909519154372,-122.4388315436639,62.55545,1.57,163.125,4,100,-9999,1425441794.565795,-18.48083114624023,29.100341796875,31.04059600830078,342.8563232421875,329.0794067382812,10,229160.621348375,-0.086517333984375,0.1819915771484375,0.941436767578125,229160.6204465417,0.4435159237229621,-0.2673568723619268,1.599795487904769,229160.56866275,-1.67360350729829,-3.046791151969486,-0.2813753357215679,0.5231122374534607,-0.7579067945480347,1.618768215179443,-0.05713425576686859,-0.1264778226613998,0.1765584796667099,XTrueNorthZVertical,0.7387933503631486,0.6575445214890722,-0.05898779988039664,-0.1354255227538795,-0.09093703329563141,0.2776771485805511,0.9563608169555664,-16.23104476928711,30.86811065673828,29.59525108337402,2,192.168.1.8,10.83.46.32,3,0
2015-03-03 20:03:14.670,99,1425441793.076691,37.77909519154372,-122.4388315436639,62.55545,1.57,163.125,4,100,-9999,1425441794.617413,-14.52583312988281,31.13885498046875,30.77422332763672,347.783203125,334.0062866210938,10,229160.6702622917,-0.1023712158203125,0.24945068359375,0.94097900390625,229160.6722300833,0.2465440021268485,-0.2105239494351998,1.404223590093711,229160.6204465417,-1.758649444469049,-3.094816658146914,-0.3094084080708732,0.4402357935905457,-0.2594475150108337,1.638136744499207,-0.03892703354358673,-0.1127685084939003,-0.03298455849289894,XTrueNorthZVertical,0.7631984580179118,0.6271077801098741,-0.08043135985243081,-0.1333971033644506,-0.04453854262828827,0.3044951856136322,0.9514721035957336,-13.08932495117188,32.57736968994141,29.31809616088867,2,192.168.1.8,10.83.46.32,6,0
2015-03-03 20:03:14.715,100,1425441793.076691,37.77909519154372,-122.4388315436639,62.55545,1.57,163.125,4,100,-9999,1425441794.67021,-11.59367752075195,32.76968383789062,30.17488098144531,352.3145141601562,338.53759765625,10,229160.7193932084,-0.0647735595703125,0.3182525634765625,0.9699859619140625,229160.6722300833,0.2465440021268485,-0.2105239494351998,1.404223590093711,229160.6722300833,-1.838905094870129,-3.128861453809054,-0.3273782193558319,0.2432634681463242,-0.2026147991418839,1.442563772201538,-0.09031651169061661,-0.07211092114448547,-0.005833012983202934,XTrueNorthZVertical,0.7852523237731001,0.597314654521613,-0.09379820502392316,-0.1334013990404615,-0.01205470412969589,0.3215616047382355,0.9468120336532593,-11.25322151184082,33.54747009277344,28.98444747924805,2,192.168.1.8,10.83.46.32,6,0
2015-03-03 20:03:14.774,101,1425441793.076691,37.77909519154372,-122.4388315436639,62.55545,1.57,163.125,4,100,-9999,1425441794.720719,-9.036571502685547,33.7550048828125,29.60884857177734,356.5223083496094,342.7453918457031,10,229160.7682990833,0.0189971923828125,0.3031005859375,0.9665069580078125,229160.724015125,0.3002876581890836,0.009205482623967894,1.114795770197752,229160.724015125,-1.90779264058197,3.128838121371793,-0.3425429591798216,0.2970066964626312,0.01711471006274223,1.153134942054749,-0.07678677141666412,-0.01763083413243294,0.02815890684723854,XTrueNorthZVertical,0.8030963591215912,0.5709201040466846,-0.1037220864787865,-0.1353818546425052,0.01201321464031935,0.3358834087848663,0.9418270587921143,-7.349166870117188,35.15345001220703,28.32650184631348,2,192.168.1.8,10.83.46.32,6,0
2015-03-03 20:03:14.813,102,1425441793.076691,37.77909519154372,-122.4388315436639,62.55545,1.57,163.125,4,100,-9999,1425441794.772686,-6.973831176757812,34.58743286132812,29.12605285644531,359.9654541015625,346.1885375976562,10,229160.8173864583,0.0579376220703125,0.34619140625,0.973480224609375,229160.8275824167,0.1868961179279078,-0.3454085312738601,0.914782518636768,229160.7757986667,-1.964289020364671,3.10625000324274,-0.3522402331858527,0.2077712863683701,-0.0627521425485611,1.039104342460632,-0.01416859403252602,-0.04190077260136604,0.02849082462489605,XTrueNorthZVertical,0.8169776140404104,0.5491408244387325,-0.1117379944343288,-0.1360389603031841,0.03316578641533852,0.3450013697147369,0.9380161166191101,-5.563713073730469,35.78705978393555,27.9373836517334,2,192.168.1.8,10.83.46.32,6,0
2015-03-03 20:03:14.865,103,1425441793.076691,37.77909519154372,-122.4388315436639,62.55545,1.57,163.125,4,100,-9999,1425441794.824885,-4.672428131103516,35.82754516601562,28.90962982177734,3.839426040649414,350.0625,10,229160.8663520833,0.018768310546875,0.352691650390625,0.9386749267578125,229160.8275824167,0.1868961179279078,-0.3454085312738601,0.914782518636768,229160.8275824167,-2.016846753967623,3.083647210049219,-0.3595570680410025,0.1836143136024475,-0.3374999165534973,0.9531196355819702,-0.000681817764416337,-0.03655204176902771,0.02982787415385246,XTrueNorthZVertical,0.8292464277072749,0.5287639085636727,-0.1194138117299249,-0.1360127851795967,0.05420964956283569,0.3518596589565277,0.9344817996025085,-4.422283172607422,36.09763336181641,27.74113082885742,2,192.168.1.8,10.83.46.32,6,0
2015-03-03 20:03:14.911,104,1425441793.076691,37.77909519154372,-122.4388315436639,62.55545,1.57,163.125,4,100,-9999,1425441794.8768,-2.609695434570312,36.252197265625,28.85968017578125,6.616403579711914,352.8394775390625,10,229160.915490625,0.06646728515625,0.2924041748046875,1.002487182617188,229160.879367375,0.08478919015372477,-0.1451052614701664,0.6359096050891205,229160.879367375,-2.064027964047439,3.049853273727627,-0.3623148657702782,0.08150742202997208,-0.1371967047452927,0.6742463111877441,-0.08575484156608582,0.02255913801491261,0.07349183410406113,XTrueNorthZVertical,0.8391612815201025,0.5112550845689322,-0.1310591399867153,-0.1313397462875794,0.08566328883171082,0.35443976521492,0.9311468601226807,-1.312237977981567,36.63055419921875,27.36140441894531,2,192.168.1.8,10.83.46.32,6,0
2015-03-03 20:03:14.968,105,1425441793.076691,37.77909519154372,-122.4388315436639,62.55545,1.57,163.125,4,100,-9999,1425441794.928131,-0.8879127502441406,36.03131103515625,29.14270782470703,8.933420181274414,355.156494140625,10,229160.9643967084,0.1078948974609375,0.346099853515625,1.036346435546875,229160.931151,-0.1289995284618032,-0.1656129334443215,0.2796340449871921,229160.931151,-2.086084172217188,3.039435627964324,-0.3579767829039646,-0.1322838813066483,-0.1577031016349792,0.3179662227630615,-0.007349441293627024,-0.06473545730113983,-0.0002519520930945873,XTrueNorthZVertical,0.8444518305365197,0.5027558762496857,-0.1329450201573675,-0.1283093973342517,0.09551472216844559,0.350380003452301,0.9317247271537781,-0.400679349899292,36.66139221191406,27.34863662719727,2,192.168.1.8,10.83.46.32,6,0
2015-03-03 20:03:15.009,106,1425441793.076691,37.77909519154372,-122.4388315436639,62.55545,1.57,163.125,4,100,-9999,1425441794.9803,0.2201690673828125,36.35409545898438,29.0927619934082,10.35746192932129,356.5805358886719,10,229161.0134335,0.012237548828125,0.3017578125,0.998931884765625,229160.9829345,0.1825738074787092,-0.1019660465525178,0.3007089702735341,229160.9829345,-2.103688447497699,3.027247045611874,-0.3556294528636353,0.1792888939380646,-0.09405791014432907,0.3390404582023621,-0.02907643839716911,-0.009237019345164299,0.1742849349975586,XTrueNorthZVertical,0.84823862943599,0.4961291863279383,-0.1364195188581543,-0.1254464742813862,0.1069572940468788,0.3481805026531219,0.9313058853149414,0.09020543098449707,36.54909896850586,27.50129699707031,2,192.168.1.8,10.83.46.32,6,0
2015-03-03 20:03:15.075,107,1425441793.076691,37.77909519154372,-122.4388315436639,62.55545,1.57,163.125,4,100,-9999,1425441795.031869,1.106636047363281,36.52395629882812,28.56002044677734,11.47019386291504,357.6932678222656,10,229161.0624519167,0.0687713623046875,0.3138427734375,0.9511566162109375,229161.0347195,0.3841348882652473,-0.3233785964206156,0.3230619465670052,229161.0347195,-2.122390493245125,3.010173591643695,-0.3689980023677207,0.3808377981185913,-0.31546750664711,0.3613750040531158,-0.07572710514068604,-0.06432486325502396,0.05856866389513016,XTrueNorthZVertical,0.8503956115606146,0.4890303041803838,-0.1456474389515138,-0.12831030351279,0.1222206354141235,0.3606810569763184,0.9246466755867004,1.242392063140869,36.89477157592773,27.00737762451172,2,192.168.1.8,10.83.46.32,6,0
2015-03-03 20:03:15.107,108,1425441793.076691,37.77909519154372,-122.4388315436639,62.55545,1.57,163.125,4,100,-9999,1425441795.084231,1.669193267822266,36.88070678710938,28.01062774658203,12.11445045471191,358.3375244140625,10,229161.1115967917,0.018524169921875,0.3238525390625,0.95068359375,229161.0865030417,0.100861367332353,0.001095624472458599,0.264004218865626,229161.0865030417,-2.135070588457521,3.015641958303012,-0.3695181882464106,0.0974888876080513,0.009033233858644962,0.302297979593277,-0.09341152012348175,-0.05884379521012306,0.02092999406158924,XTrueNorthZVertical,0.8538222733924007,0.4832649268200917,-0.1426173473009552,-0.1307779539617911,0.1171389371156693,0.3611661791801453,0.9251149296760559,1.827415466308594,37.15904235839844,26.60887336730957,2,192.168.1.8,10.83.46.32,6,0
2015-03-03 20:03:15.168,109,1425441793.076691,37.77909519154372,-122.4388315436639,62.55545,1.57,163.125,4,100,-9999,1425441795.135262,2.163570404052734,37.67910766601562,27.46123886108398,13.28217506408691,359.5052490234375,10,229161.160511625,0.1852874755859375,0.3583984375,0.914794921875,229161.138286875,-0.05047036476641867,0.2353781666244733,0.1653972173960251,229161.138286875,-2.148339031792227,3.02238522299293,-0.3667553567449972,-0.05385686829686165,0.2433230876922607,0.203670009970665,-0.04593753814697266,0.03028177469968796,0.07537203282117844,XTrueNorthZVertical,0.8577430398125208,0.4771921876555889,-0.1382236005766157,-0.1321316576989609,0.1110162734985352,0.3585884571075439,0.9268710017204285,1.813949584960938,37.04605865478516,26.7668628692627,2,192.168.1.8,10.83.46.32,6,0
2015-03-03 20:03:15.205,110,1425441793.076691,37.77909519154372,-122.4388315436639,62.55545,1.57,163.125,4,100,-9999,1425441795.187597,2.248805999755859,37.7301025390625,27.67766571044922,14.00370216369629,0.226776123046875,10,229161.20965125,0.0792999267578125,0.3229217529296875,0.9726409912109375,229161.1900717083,-0.2087518820458611,0.1672531743597014,-0.2766236076909665,229161.1900717083,-2.147555230747244,3.027618150589753,-0.361093283015743,-0.2121272385120392,0.1751881241798401,-0.2383341491222382,0.03336151689291,-0.02747629955410957,0.04968441277742386,XTrueNorthZVertical,0.8584400203052589,0.4772855679247189,-0.1347313685277713,-0.1308691008325052,0.1063937321305275,0.353297233581543,0.9294415712356567,1.781239986419678,36.87293243408203,27.00703811645508,2,192.168.1.8,10.83.46.32,6,0
2015-03-03 20:03:15.267,111,1425441793.076691,37.77909519154372,-122.4388315436639,62.55545,1.57,163.125,4,100,-9999,1425441795.239678,1.413482666015625,37.135498046875,28.29364776611328,12.67786598205566,358.9009399414062,10,229161.2585640417,0.076202392578125,0.29705810546875,0.9338836669921875,229161.2418553334,-0.4952792531986143,0.1848377607213856,-0.7046766854927106,229161.2418553334,-2.119557573316806,3.042888154821012,-0.3455847548520085,-0.4986545741558075,0.1927726417779922,-0.6663876175880432,-0.06297875195741653,0.004911529365926981,0.003490763017907739,XTrueNorthZVertical,0.854063858365479,0.4885938532875587,-0.1263735536546169,-0.1260188173614556,0.09271813184022903,0.3387469053268433,0.9362980723381042,1.014220476150513,36.53567504882812,27.50057411193848,2,192.168.1.8,10.83.46.32,6,0
2015-03-03 20:03:15.303,112,1425441793.076691,37.77909519154372,-122.4388315436639,62.55545,1.57,163.125,4,100,-9999,1425441795.291496,-0.001453399658203125,36.26910400390625,28.77644348144531,10.80167579650879,357.0247497558594,10,229161.30771925,-0.0609893798828125,0.2279205322265625,0.965789794921875,229161.293638875,-0.7745282050921809,0.2577868029847271,-0.7219190556543196,229161.293638875,-2.07902360072729,3.069494317023447,-0.3142860954908078,-0.7779034972190857,0.2657216191291809,-0.6836303472518921,-0.03779144212603569,-0.05651310458779335,0.01173466816544533,XTrueNorthZVertical,0.8481229742958158,0.5049364042027747,-0.1099268096560108,-0.1168023532735211,0.06850738823413849,0.3091376125812531,0.9485467076301575,0.1207988262176514,36.10851669311523,28.07715225219727,2,192.168.1.8,10.83.46.32,6,0
2015-03-03 20:03:15.367,113,1425441793.076691,37.77909519154372,-122.4388315436639,62.55545,1.57,163.125,4,100,-9999,1425441795.342758,-1.382289886474609,35.60659790039062,29.99176025390625,9.137765884399414,355.36083984375,10,229161.3566334167,-0.0609588623046875,0.3223876953125,1.033981323242188,229161.3454237083,-0.4230244970314564,0.4726240081214192,-0.1579574105747798,229161.293638875,-2.07902360072729,3.069494317023447,-0.3142860954908078,-0.7779034972190857,0.2657216191291809,-0.6836303472518921,-0.03779144212603569,-0.05651310458779335,0.01173466816544533,XTrueNorthZVertical,0.8481229742958158,0.5049364042027747,-0.1099268096560108,-0.1168023532735211,0.06850738823413849,0.3091376125812531,0.9485467076301575,0.1207988262176514,36.10851669311523,28.07715225219727,2,192.168.1.8,10.83.46.32,6,0
2015-03-03 20:03:15.401,114,1425441793.076691,37.77909519154372,-122.4388315436639,62.55545,1.57,163.125,4,100,-9999,1425441795.395067,-1.910758972167969,34.77423095703125,30.77422332763672,8.915628433227539,355.1387023925781,10,229161.405680875,-0.0519561767578125,0.2408294677734375,0.9908294677734375,229161.3972075,-0.01828446509615703,-0.2039480720715762,0.1898855162515218,229161.3972075,-2.05900524892591,3.097893956444549,-0.2770549261846668,-0.02165968716144562,-0.1960134208202362,0.2281734496355057,-0.05141829699277878,-0.02399709820747375,0.03378869965672493,XTrueNorthZVertical,0.847075701256624,0.5127731127105158,-0.089675531179949,-0.1071673241167783,0.04201888293027878,0.2735240757465363,0.9609470367431641,-2.488059997558594,34.2119140625,30.25756645202637,2,192.168.1.8,10.83.46.32,6,0
2015-03-03 20:03:15.466,115,1425441793.076691,37.77909519154372,-122.4388315436639,62.55545,1.57,163.125,4,100,-9999,1425441795.446738,-2.030086517333984,34.24758911132812,30.99065017700195,8.427835464477539,354.6509094238281,10,229161.4547032917,0.02886962890625,0.271942138671875,0.972412109375,229161.4489912083,0.04115116516390439,-0.06959692139925874,0.3233868522199949,229161.3972075,-2.05900524892591,3.097893956444549,-0.2770549261846668,-0.02165968716144562,-0.1960134208202362,0.2281734496355057,-0.05141829699277878,-0.02399709820747375,0.03378869965672493,XTrueNorthZVertical,0.847075701256624,0.5127731127105158,-0.089675531179949,-0.1071673241167783,0.04201888293027878,0.2735240757465363,0.9609470367431641,-2.488059997558594,34.2119140625,30.25756645202637,2,192.168.1.8,10.83.46.32,6,0
2015-03-03 20:03:15.500,116,1425441793.076691,37.77909519154372,-122.4388315436639,62.55545,1.57,163.125,4,100,-9999,1425441795.446738,-2.030086517333984,34.24758911132812,30.99065017700195,8.427835464477539,354.6509094238281,10,229161.503846125,0.02154541015625,0.21685791015625,0.951995849609375,229161.5007760834,-0.01161484446216258,-0.4774717602536904,0.3203231517019677,229161.4489912083,-2.07583544815906,3.086599873591795,-0.2775764382091082,0.03777597844600677,-0.06166236102581024,0.3616743981838226,-0.05829326808452606,-0.01453469507396221,0.01882684417068958,XTrueNorthZVertical,0.8508111939079269,0.5062159814284191,-0.09370706487495997,-0.1052840134538003,0.05286113917827606,0.2740256488323212,0.9602686166763306,-2.083053112030029,34.21366882324219,30.28616714477539,2,192.168.1.8,10.83.46.32,6,0
2015-03-03 20:03:15.566,117,1425441793.076691,37.77909519154372,-122.4388315436639,62.55545,1.57,163.125,4,100,-9999,1425441795.550504,-0.1719245910644531,34.1966552734375,31.00730133056641,10.55579566955566,356.7788696289062,10,229161.5527563333,0.05487060546875,0.21875,1.019317626953125,229161.5007760834,-0.01161484446216258,-0.4774717602536904,0.3203231517019677,229161.5007760834,-2.095633620683524,3.068919650053862,-0.2773841970750132,-0.01499000284820795,-0.4695372879505157,0.3586103320121765,-0.04383260384202003,-0.0482700951397419,0.006950015667825937,XTrueNorthZVertical,0.8549411829022299,0.4986921170996035,-0.1001746539955307,-0.1017193680982953,0.06983357667922974,0.2738407850265503,0.9592365026473999,-0.7944910526275635,34.32683181762695,30.21925926208496,2,192.168.1.8,10.83.46.32,6,0
2015-03-03 20:03:15.597,118,1425441793.076691,37.77909519154372,-122.4388315436639,62.55545,1.57,163.125,4,100,-9999,1425441795.550504,-0.1719245910644531,34.1966552734375,31.00730133056641,10.55579566955566,356.7788696289062,10,229161.6019084167,0.097412109375,0.2377166748046875,1.018585205078125,229161.6043432917,-0.3478138983704196,-0.3291022622354139,0.3159571654108918,229161.5525595,-2.117148906231378,3.046060829324775,-0.2642160731724874,-0.2626497447490692,-0.3266690075397491,0.5034427046775818,-0.05563845112919807,-0.04371488094329834,0.05485092103481293,XTrueNorthZVertical,0.8599943136877851,0.4907727128121527,-0.1057433851867713,-0.09148937808241328,0.09207643568515778,0.2611526250839233,0.9608961343765259,0.3670864105224609,34.13682556152344,30.44188499450684,2,192.168.1.8,10.83.46.32,6,0
2015-03-03 20:03:15.638,119,1425441793.076691,37.77909519154372,-122.4388315436639,62.55545,1.57,163.125,4,100,-9999,1425441795.602791,1.294155120849609,34.36651611328125,31.34025955200195,11.96552467346191,358.1885986328125,10,229161.6508174583,0.112030029296875,0.251708984375,1.0328369140625,229161.6043432917,-0.3478138983704196,-0.3291022622354139,0.3159571654108918,229161.6043432917,-2.136614224913627,3.024948977761311,-0.2451964907085737,-0.3512034714221954,-0.3211712837219238,0.3542287051677704,-0.01548630557954311,-0.005030268337577581,0.0550873875617981,XTrueNorthZVertical,0.8648966294494689,0.4834281018519476,-0.1094965067980835,-0.07913059291308497,0.1128984168171883,0.2427469491958618,0.9634978175163269,1.11726975440979,33.83662414550781,30.75712394714355,2,192.168.1.8,10.83.46.32,6,0
2015-03-03 20:03:15.696,120,1425441793.076691,37.77909519154372,-122.4388315436639,62.55545,1.57,163.125,4,100,-9999,1425441795.655377,2.811370849609375,34.07772827148438,32.08943557739258,13.49878883361816,359.7218627929688,10,229161.699854125,0.067138671875,0.193023681640625,1.029495239257812,229161.707911875,0.198093911363364,-0.242962849409019,0.1635718867848848,229161.6561280834,-2.145231169630267,3.013788709578459,-0.2292460271834788,-0.1609823554754257,-0.1247550323605537,0.08593566715717316,-0.01209177728742361,0.0244656428694725,0.06694126129150391,XTrueNorthZVertical,0.8674178105168736,0.4801397400366134,-0.1102673094312501,-0.0699523947800668,0.1241218075156212,0.2272433340549469,0.9658956527709961,2.484589099884033,32.998291015625,31.57697677612305,2,192.168.1.8,10.83.46.32,6,0
2015-03-03 20:03:15.738,121,1425441793.076691,37.77909519154372,-122.4388315436639,62.55545,1.57,163.125,4,100,-9999,1425441795.70622,3.783073425292969,33.65301513671875,32.60552597045898,15.00615978240967,1.229233622550964,10,229161.7488715833,0.0963592529296875,0.2041778564453125,0.9997711181640625,229161.707911875,0.198093911363364,-0.242962849409019,0.1635718867848848,229161.707911875,-2.149374880444797,3.012527456141171,-0.2277556775810289,0.19468654692173,-0.2350257933139801,0.2018219232559204,-0.0582447238266468,-0.03276804834604263,0.06342212110757828,XTrueNorthZVertical,0.8684383891265592,0.4783840767318975,-0.1103229180946763,-0.06922671588843959,0.1253833919763565,0.225791722536087,0.9660730957984924,2.677049160003662,32.93264770507812,31.62973403930664,2,192.168.1.8,10.83.46.32,6,0
2015-03-03 20:03:15.793,122,1425441793.076691,37.77909519154372,-122.4388315436639,62.55545,1.57,163.125,4,100,-9999,1425441795.758098,4.345638275146484,33.97576904296875,32.18932342529297,15.37349319458008,1.596567392349243,10,229161.7980115,0.142791748046875,0.2747039794921875,1.03515625,229161.7596952917,0.3844965455412801,-0.3837481972749678,0.3086832735255584,229161.7596952917,-2.164792996520192,2.993805336922397,-0.2416268335443166,0.381086528301239,-0.3758085072040558,0.3469291925430298,-0.06278739869594574,-0.0529116652905941,0.04723281785845757,XTrueNorthZVertical,0.8700808305312926,0.4723794846803903,-0.1211149500613709,-0.07175085153280895,0.1429723352193832,0.2392825186252594,0.9603660702705383,2.954218864440918,33.0133056640625,31.52078628540039,2,192.168.1.8,10.83.46.32,6,0
2015-03-03 20:03:15.839,123,1425441793.076691,37.77909519154372,-122.4388315436639,62.55545,1.57,163.125,4,100,-9999,1425441795.810105,5.521907806396484,34.80816650390625,31.47344970703125,16.55189514160156,2.774969339370728,10,229161.846916,0.2183380126953125,0.2936248779296875,0.9712677001953125,229161.8114803334,0.5230967697328189,-0.3493449496811062,0.3577179281483153,229161.8114803334,-2.191233867361108,2.969759819665618,-0.2606633071572325,0.5196851491928101,-0.3414046764373779,0.3959616124629974,-0.009191254153847694,0.02102605067193508,0.08064869791269302,XTrueNorthZVertical,0.873314946370441,0.4618613739362612,-0.134895191357987,-0.07621291287690055,0.1652123779058456,0.2577215135097504,0.9519898295402527,4.650979518890381,33.82426071166992,30.43770599365234,2,192.168.1.8,10.83.46.32,6,0
2015-03-03 20:03:15.891,124,1425441793.076691,37.77909519154372,-122.4388315436639,62.55545,1.57,163.125,4,100,-9999,1425441795.86223,6.152664184570312,35.64059448242188,30.32472610473633,17.14263343811035,3.365707397460938,10,229161.895953,0.1413116455078125,0.232025146484375,0.9203643798828125,229161.8632638333,0.5731133318494881,-0.3453776386052152,-0.1598895339456323,229161.8632638333,-2.201669261469319,2.94714778589667,-0.2891113876837638,0.5697017312049866,-0.3374373018741608,-0.1216462627053261,0.02767262794077396,0.02269968762993813,0.01777129620313644,XTrueNorthZVertical,0.8717876429242367,0.4584798208511479,-0.1505695121467708,-0.08432927461903759,0.1852027326822281,0.2851006090641022,0.9404348731040955,5.52232551574707,34.55193328857422,29.45901870727539,2,192.168.1.8,10.83.46.32,6,0
2015-03-03 20:03:15.938,125,1425441793.076691,37.77909519154372,-122.4388315436639,62.55545,1.57,163.125,4,100,-9999,1425441795.914115,6.101516723632812,35.96331787109375,29.57555389404297,16.32724189758301,2.550315380096436,10,229161.944968,0.0985565185546875,0.242401123046875,0.894500732421875,229161.915047625,-0.1177817613181714,0.1468530940935854,-0.3398790099025286,229161.915047625,-2.188897795743888,2.951002757894668,-0.29862720712398,-0.1212031692266464,0.1547911763191223,-0.3016441464424133,-0.05382608622312546,-0.06834785640239716,-0.03035437688231468,XTrueNorthZVertical,0.8683102136400727,0.4639559124408008,-0.1515194515409353,-0.08845442348054681,0.1810538619756699,0.294208437204361,0.938435435295105,5.639966011047363,35.04527282714844,28.84762763977051,2,192.168.1.8,10.83.46.32,6,0
2015-03-03 20:03:15.989,126,1425441793.076691,37.77909519154372,-122.4388315436639,62.55545,1.57,163.125,4,100,-9999,1425441795.965608,5.521903991699219,36.03125,29.80863189697266,15.88049602508545,2.103569984436035,10,229161.9940050833,0.1332244873046875,0.2276153564453125,0.9438323974609375,229161.9668323334,-0.8316727178664471,0.389873201466041,-0.4560447650712399,229161.9668323334,-2.165154988302007,2.973840032279647,-0.2762600640604826,-0.835098922252655,0.3978117406368256,-0.4178147912025452,-0.04433345794677734,-0.06128787994384766,0.01908950321376324,XTrueNorthZVertical,0.8662716993995314,0.4731404693755012,-0.1376429509014253,-0.08225510412559067,0.1606359481811523,0.2727594375610352,0.9485771059989929,4.304188251495361,34.63430023193359,29.56527137756348,2,192.168.1.8,10.83.46.32,6,0
2015-03-03 20:03:16.040,127,1425441793.076691,37.77909519154372,-122.4388315436639,62.55545,1.57,163.125,4,100,-9999,1425441796.01817,4.754764556884766,34.72323608398438,31.58998489379883,15.15964889526367,1.382723212242126,10,229162.0430169167,0.0295867919921875,0.20013427734375,1.044509887695312,229162.0186160833,-1.483942121531924,0.6088542852588965,-0.4628486090241744,229162.0186160833,-2.134157997525374,3.007043771023279,-0.2182163647671932,-1.487370252609253,0.6167927384376526,-0.424620658159256,-0.04778644815087318,-0.03800657764077187,0.01706607639789581,XTrueNorthZVertical,0.8650838778812152,0.4851398148021446,-0.1109655569306391,-0.06289622029818903,0.1309621036052704,0.2164886295795441,0.9674615263938904,3.057303905487061,33.24883270263672,31.2623405456543,2,192.168.1.8,10.83.46.32,6,0
2015-03-03 20:03:16.088,128,1425441793.076691,37.77909519154372,-122.4388315436639,62.55545,1.57,163.125,4,100,-9999,1425441796.069511,3.544403076171875,33.279296875,33.60441970825195,14.65733242034912,0.8804066181182861,10,229162.0920404583,0.085784912109375,0.1459503173828125,1.05950927734375,229162.0703995833,-1.404825464500068,0.5476495170866954,-0.2327054181544698,229162.0703995833,-2.109772168303985,3.042940998816074,-0.1452247940776948,-1.40825366973877,0.5555880665779114,-0.1944779306650162,-0.06269542127847672,0.02481028623878956,0.07799004763364792,XTrueNorthZVertical,0.8647320572252136,0.4945399278549825,-0.07852200923752597,-0.03876942169451261,0.09745494276285172,0.1447148621082306,0.9846625328063965,2.056376457214355,31.83773040771484,32.77645874023438,2,192.168.1.8,10.83.46.32,6,0
2015-03-03 20:03:16.139,129,1425441793.076691,37.77909519154372,-122.4388315436639,62.55545,1.57,163.125,4,100,-9999,1425441796.121761,2.197658538818359,31.59744262695312,36.05170440673828,13.42652320861816,359.6495971679688,10,229162.1410527083,0.0402984619140625,0.09222412109375,1.090774536132812,229162.1221845833,-0.7499243250453749,0.304871757373437,-0.1776000878268772,229162.0703995833,-2.109772168303985,3.042940998816074,-0.1452247940776948,-1.40825366973877,0.5555880665779114,-0.1944779306650162,-0.06269542127847672,0.02481028623878956,0.07799004763364792,XTrueNorthZVertical,0.8647320572252136,0.4945399278549825,-0.07852200923752597,-0.03876942169451261,0.09745494276285172,0.1447148621082306,0.9846625328063965,2.056376457214355,31.83773040771484,32.77645874023438,2,192.168.1.8,10.83.46.32,6,0
2015-03-03 20:03:16.187,130,1425441793.076691,37.77909519154372,-122.4388315436639,62.55545,1.57,163.125,4,100,-9999,1425441796.17327,1.345291137695312,30.57821655273438,37.15048217773438,12.70292091369629,358.9259948730469,10,229162.190184375,0.03558349609375,0.0666351318359375,1.056259155273438,229162.1739680417,0.2019626854789221,-0.09211767684140482,-0.03228683347557564,229162.1739680417,-2.093881979167829,3.073539628765715,-0.08021110032081794,0.1985641121864319,-0.08418072015047073,0.005984980147331953,-0.03731007874011993,-0.01577880419790745,0.06855642795562744,XTrueNorthZVertical,0.8640176866802851,0.5007117468403787,-0.04947878568050276,-0.01769402374458146,0.06778188049793243,0.0801251158118248,0.9944776296615601,-0.2193279266357422,27.73893165588379,36.36852645874023,2,192.168.1.8,10.83.46.32,6,0
2015-03-03 20:03:16.225,131,1425441793.076691,37.77909519154372,-122.4388315436639,62.55545,1.57,163.125,4,100,-9999,1425441796.17327,1.345291137695312,30.57821655273438,37.15048217773438,12.70292091369629,358.9259948730469,10,229162.239098,0.0417633056640625,0.0925445556640625,1.009674072265625,229162.2257518333,0.4832316450593138,-0.2841936430895167,0.0858153061217323,229162.2257518333,-2.098908317572307,3.063476603585131,-0.09971755427238219,0.4798296391963959,-0.2762547135353088,0.1240834519267082,-0.03550419956445694,-0.01443885266780853,0.04183068126440048,XTrueNorthZVertical,0.8644441468827302,0.4987337407541275,-0.0586212077552621,-0.02376071934694042,0.07764897495508194,0.09955237805843353,0.9919980764389038,-0.2020795345306396,27.92693328857422,36.22446060180664,2,192.168.1.8,10.83.46.32,6,0
2015-03-03 20:03:16.284,132,1425441793.076691,37.77909519154372,-122.4388315436639,62.55545,1.57,163.125,4,100,-9999,1425441796.276694,1.788528442382812,30.57818603515625,36.01840591430664,12.45697975158691,358.6800537109375,10,229162.2882351667,0.0700836181640625,0.1101226806640625,1.005157470703125,229162.2775365,0.3050509881147993,-0.2618537162853871,0.150401223613898,229162.2257518333,-2.098908317572307,3.063476603585131,-0.09971755427238219,0.4798296391963959,-0.2762547135353088,0.1240834519267082,-0.03550419956445694,-0.01443885266780853,0.04183068126440048,XTrueNorthZVertical,0.8644441468827302,0.4987337407541275,-0.0586212077552621,-0.02376071934694042,0.07764897495508194,0.09955237805843353,0.9919980764389038,-0.2020795345306396,27.92693328857422,36.22446060180664,2,192.168.1.8,10.83.46.32,6,0
2015-03-03 20:03:16.323,133,1425441793.076691,37.77909519154372,-122.4388315436639,62.55545,1.57,163.125,4,100,-9999,1425441796.276694,1.788528442382812,30.57818603515625,36.01840591430664,12.45697975158691,358.6800537109375,10,229162.3371369167,0.0834197998046875,0.119384765625,1.00335693359375,229162.32932025,0.07092903457651638,-0.1466688033461519,0.0414944466284156,229162.2775365,-2.108820890104268,3.050738944275734,-0.1165040737217635,0.3016429245471954,-0.2539122700691223,0.18866366147995,-0.03257284313440323,-0.02828903682529926,0.02077819220721722,XTrueNorthZVertical,0.8659333580868406,0.4946936427893428,-0.06813852282405809,-0.02819230165486032,0.09011373668909073,0.1162406951189041,0.9891247749328613,0.6601126194000244,28.98411178588867,35.37868881225586,2,192.168.1.8,10.83.46.32,6,0
2015-03-03 20:03:16.381,134,1425441793.076691,37.77909519154372,-122.4388315436639,62.55545,1.57,163.125,4,100,-9999,1425441796.328491,2.453376770019531,30.76504516601562,35.80197525024414,13.02305030822754,359.2461242675781,10,229162.3861706667,0.080474853515625,0.1156158447265625,1.015533447265625,229162.3811037917,-0.1144458857367382,0.03310575551077501,-0.03977324561589739,229162.3811037917,-2.11757974752688,3.041134185277042,-0.1215612175912469,-0.1178596094250679,0.04105343297123909,-0.001517978496849537,-0.01388666685670614,0.001891635474748909,0.02306503802537918,XTrueNorthZVertical,0.8675618442252969,0.4910646633539774,-0.07341098860162985,-0.02833398367620461,0.09954950958490372,0.1212620511651039,0.9876161217689514,1.339261054992676,29.3438663482666,35.06151580810547,2,192.168.1.8,10.83.46.32,6,0
2015-03-03 20:03:16.420,135,1425441793.076691,37.77909519154372,-122.4388315436639,62.55545,1.57,163.125,4,100,-9999,1425441796.380118,3.220508575439453,30.88394165039062,35.1526985168457,13.94974708557129,0.172821044921875,10,229162.435171875,0.0708465576171875,0.107452392578125,1.0274658203125,229162.3811037917,-0.1144458857367382,0.03310575551077501,-0.03977324561589739,229162.3811037917,-2.11757974752688,3.041134185277042,-0.1215612175912469,-0.1178596094250679,0.04105343297123909,-0.001517978496849537,-0.01388666685670614,0.001891635474748909,0.02306503802537918,XTrueNorthZVertical,0.8675618442252969,0.4910646633539774,-0.07341098860162985,-0.02833398367620461,0.09954950958490372,0.1212620511651039,0.9876161217689514,1.339261054992676,29.3438663482666,35.06151580810547,2,192.168.1.8,10.83.46.32,6,0
2015-03-03 20:03:16.480,136,1425441793.076691,37.77909519154372,-122.4388315436639,62.55545,1.57,163.125,4,100,-9999,1425441796.431418,3.527362823486328,30.84994506835938,35.51896286010742,14.57873439788818,0.8018084764480591,10,229162.4842032084,0.0631866455078125,0.1047210693359375,1.026260375976562,229162.4846723333,-0.0237316947898051,0.06655479248606123,0.01915638403704897,229162.4328887917,-2.116715565676121,3.048569511415582,-0.1134411789812791,-0.1179846897721291,0.0635652169585228,0.0321551039814949,-0.01981275156140327,0.003272311994805932,0.03661737218499184,XTrueNorthZVertical,0.8679164873771635,0.4912833880947862,-0.06822281239110828,-0.02659504501644661,0.09229200333356857,0.1131980270147324,0.9892767667770386,1.143312692642212,29.0492992401123,35.31284332275391,2,192.168.1.8,10.83.46.32,6,0
2015-03-03 20:03:16.519,137,1425441793.076691,37.77909519154372,-122.4388315436639,62.55545,1.57,163.125,4,100,-9999,1425441796.482623,2.777275085449219,30.4422607421875,35.95181274414062,13.64798927307129,359.8710632324219,10,229162.5332191667,0.0660247802734375,0.103515625,1.022476196289062,229162.536456,0.04429342893408888,-0.01467987656073478,-0.01561091767782648,229162.4846723333,-2.117886440210425,3.05807340291135,-0.1068430544145923,-0.0271658580750227,0.07452258467674255,0.05739055573940277,-0.01975985057651997,-0.001918824389576912,0.03542840853333473,XTrueNorthZVertical,0.8687438033860663,0.4906120551288867,-0.06247542457686421,-0.02609371176064165,0.08294649422168732,0.1066398918628693,0.9908319711685181,0.8790571689605713,28.81502914428711,35.51179122924805,2,192.168.1.8,10.83.46.32,6,0
2015-03-03 20:03:16.580,138,1425441793.076691,37.77909519154372,-122.4388315436639,62.55545,1.57,163.125,4,100,-9999,1425441796.534477,2.504512786865234,30.4422607421875,36.08499908447266,13.34214210510254,359.5652160644531,10,229162.5822502917,0.0653533935546875,0.1025848388671875,1.010726928710938,229162.536456,0.04429342893408888,-0.01467987656073478,-0.01561091767782648,229162.536456,-2.12063653650404,3.062070944827533,-0.10618661046828,0.04085368663072586,-0.006706767249852419,0.02261766418814659,-0.01296571549028158,-0.002471545012667775,0.03125099465250969,XTrueNorthZVertical,0.8695622606335187,0.4893608849990457,-0.06054218761852526,-0.02687168886064658,0.07899049669504166,0.1059871688485146,0.9912251830101013,0.767413854598999,28.75988578796387,35.55904769897461,2,192.168.1.8,10.83.46.32,6,0
2015-03-03 20:03:16.617,139,1425441793.076691,37.77909519154372,-122.4388315436639,62.55545,1.57,163.125,4,100,-9999,1425441796.587275,2.572704315185547,30.61212158203125,36.18489074707031,13.45359230041504,359.6766662597656,10,229162.631275875,0.057373046875,0.1029052734375,1.033981323242188,229162.5882408333,-0.06013044898846309,-0.01007314050711571,-0.02043257083141494,229162.5882408333,-2.121726222245363,3.063554400153633,-0.1053145863652547,-0.06357520073652267,-0.002095389179885387,0.0177912563085556,-0.01217375416308641,-0.002535178558900952,0.01929387450218201,XTrueNorthZVertical,0.8699017991431226,0.4888633626999621,-0.05967076311749663,-0.0268871254544506,0.07752715051174164,0.1051200181245804,0.9914330840110779,0.7051684856414795,28.75098609924316,35.56753540039062,2,192.168.1.8,10.83.46.32,6,0
2015-03-03 20:03:16.675,140,1425441793.076691,37.77909519154372,-122.4388315436639,62.55545,1.57,163.125,4,100,-9999,1425441796.639689,2.930702209472656,30.86691284179688,36.20153427124023,14.1179141998291,0.3409880697727203,10,229162.6802937083,0.0620269775390625,0.11474609375,1.039016723632812,229162.691808125,0.2597452916503713,-0.07188297887898276,0.2716770522822533,229162.6400244583,-2.126660336892794,3.066720691932194,-0.09988169443091487,-0.02937164902687073,0.04454779997467995,0.1951355338096619,-0.01705617271363735,0.003189572133123875,0.0417528972029686,XTrueNorthZVertical,0.8713694688723462,0.4866512732741332,-0.0569122099329937,-0.02543289852370518,0.0744292214512825,0.0997157022356987,0.9922284483909607,0.6848587989807129,28.56654930114746,35.71623229980469,2,192.168.1.8,10.83.46.32,6,0
2015-03-03 20:03:16.715,141,1425441793.076691,37.77909519154372,-122.4388315436639,62.55545,1.57,163.125,4,100,-9999,1425441796.690747,3.032993316650391,31.03677368164062,36.30142211914062,14.47753715515137,0.7006109356880188,10,229162.729407375,0.0972747802734375,0.1155242919921875,1.031341552734375,229162.691808125,0.2597452916503713,-0.07188297887898276,0.2716770522822533,229162.691808125,-2.140490053267144,3.06761969115967,-0.1046758964261058,0.2562900483608246,-0.06389237195253372,0.3098905980587006,-0.00509584927931428,0.006812762469053268,0.05050583556294441,XTrueNorthZVertical,0.8745892380101925,0.4806215324294772,-0.05748592249259145,-0.02814286883123894,0.07350099831819534,0.1044848412275314,0.9918068051338196,0.7567942142486572,28.52861213684082,35.74509429931641,2,192.168.1.8,10.83.46.32,6,0
2015-03-03 20:03:16.773,142,1425441793.076691,37.77909519154372,-122.4388315436639,62.55545,1.57,163.125,4,100,-9999,1425441796.742125,3.783073425292969,31.47848510742188,36.23483276367188,15.5811824798584,1.804256081581116,10,229162.7783406667,0.0786590576171875,0.15185546875,1.020767211914062,229162.74359275,0.4608429824072356,-0.2306651704433601,0.1627897163727285,229162.74359275,-2.154747178266811,3.056006683638276,-0.1221236427443987,0.4573866128921509,-0.2226740717887878,0.2010021954774857,0.01676339842379093,-0.0001924990065163001,0.03610513731837273,XTrueNorthZVertical,0.8770342212711815,0.4746268152640036,-0.06648386771613045,-0.03347090249890836,0.08484487980604172,0.1218203082680702,0.9889192581176758,1.589950799942017,29.21910667419434,35.15510940551758,2,192.168.1.8,10.83.46.32,6,0
2015-03-03 20:03:16.813,143,1425441793.076691,37.77909519154372,-122.4388315436639,62.55545,1.57,163.125,4,100,-9999,1425441796.794252,4.925247192382812,32.1409912109375,35.21929550170898,16.96895599365234,3.192029476165771,10,229162.8274557917,0.0950164794921875,0.14251708984375,1.004730224609375,229162.7953765,0.5031041531134851,-0.1123193516063099,0.1658419652980684,229162.7953765,-2.166400786698423,3.049503920907244,-0.1451416393608676,0.4996481239795685,-0.1043287143111229,0.2040543258190155,-0.008273838087916374,0.003804918844252825,0.03707648441195488,XTrueNorthZVertical,0.8786389261360003,0.4697234161727352,-0.07449086688248242,-0.04248182620455999,0.09099173545837402,0.1446325778961182,0.985292911529541,2.062272071838379,29.93624687194824,34.52150344848633,2,192.168.1.8,10.83.46.32,6,0
2015-03-03 20:03:16.872,144,1425441793.076691,37.77909519154372,-122.4388315436639,62.55545,1.57,163.125,4,100,-9999,1425441796.845741,5.317340850830078,32.76953125,34.20375442504883,17.73568725585938,3.95876145362854,10,229162.8764015833,0.108245849609375,0.17633056640625,0.9920654296875,229162.847160125,0.3262857030665461,-0.1254069241512863,0.09187399760166257,229162.847160125,-2.176106149377182,3.04080787919589,-0.1658509867723498,0.3228287398815155,-0.1174158453941345,0.1300854831933975,-0.002843871945515275,-0.02094192057847977,0.02229710109531879,XTrueNorthZVertical,0.8796238546514885,0.4657237397111213,-0.08286357582684846,-0.04996944494108053,0.09923364222049713,0.1650916934013367,0.9812734723091125,2.349781274795532,30.4471263885498,34.05315017700195,2,192.168.1.8,10.83.46.32,6,0
2015-03-03 20:03:16.911,145,1425441793.076691,37.77909519154372,-122.4388315436639,62.55545,1.57,163.125,4,100,-9999,1425441796.898028,5.6923828125,32.97335815429688,33.6710090637207,18.13337135314941,4.356444835662842,10,229162.9255165,0.0948638916015625,0.168975830078125,0.9926910400390625,229162.8989449583,0.05533675902632046,-0.01662931047867278,-0.05227785219825545,229162.8989449583,-2.180263644827101,3.036816512839649,-0.1748995296284755,0.05188021063804626,-0.008638669736683369,-0.01406653597950935,0.01102466136217117,0.006044510286301374,0.01089059468358755,XTrueNorthZVertical,0.8799731598628199,0.4640249218210988,-0.08658029616338181,-0.05321660638574362,0.1029890105128288,0.1740092039108276,0.9793437719345093,2.871716499328613,31.18160438537598,33.34106826782227,2,192.168.1.8,10.83.46.32,6,0
2015-03-03 20:03:16.970,146,1425441793.076691,37.77909519154372,-122.4388315436639,62.55545,1.57,163.125,4,100,-9999,1425441796.949993,5.215057373046875,33.14321899414062,33.5045280456543,17.41224098205566,3.635314702987671,10,229162.9744350833,0.0980987548828125,0.1905670166015625,1.000152587890625,229162.9507283334,-0.2181102301163995,0.09938597608844907,-0.1929385641251886,229162.9507283334,-2.174833771304667,3.04142907095961,-0.1696319905547905,-0.2215680629014969,0.1073766574263573,-0.1547279357910156,0.005427706986665726,-1.164971763500944e-05,0.01976621150970459,XTrueNorthZVertical,0.879169209850749,0.4662777137934664,-0.08348967949575396,-0.05173115615014853,0.09856094419956207,0.1688196361064911,0.9807068109512329,2.721432685852051,31.13164710998535,33.40030288696289,2,192.168.1.8,10.83.46.32,6,0
