loggingTime,loggingSample,locationTimestamp_since1970,locationLatitude,locationLongitude,locationAltitude,locationSpeed,locationCourse,locationVerticalAccuracy,locationHorizontalAccuracy,locationFloor,locationHeadingTimestamp_since1970,locationHeadingX,locationHeadingY,locationHeadingZ,locationTrueHeading,locationMagneticHeading,locationHeadingAccuracy,accelerometerTimestamp_sinceReboot,accelerometerAccelerationX,accelerometerAccelerationY,accelerometerAccelerationZ,gyroTimestamp_sinceReboot,gyroRotationX,gyroRotationY,gyroRotationZ,motionTimestamp_sinceReboot,motionYaw,motionRoll,motionPitch,motionRotationRateX,motionRotationRateY,motionRotationRateZ,motionUserAccelerationX,motionUserAccelerationY,motionUserAccelerationZ,motionAttitudeReferenceFrame,motionQuaternionX,motionQuaternionY,motionQuaternionZ,motionQuaternionW,motionGravityX,motionGravityY,motionGravityZ,motionMagneticFieldX,motionMagneticFieldY,motionMagneticFieldZ,motionMagneticFieldCalibrationAccuracy,IP_en0,IP_pdp_ip0,deviceOrientation,state
2015-03-01 20:10:12.491,1,1425269410.228582,37.76613162383833,-122.4604943054576,86.82802,-1,-1,10,2744.897550734554,-9999,1425269412.478565,24.74429702758789,-17.6829833984375,-31.69783020019531,37.24274444580078,23.4656810760498,10,196533.7157295417,0.6822357177734375,-0.7335357666015625,-0.354461669921875,196533.72059075,0.006842459788740587,0.08385335534667093,-0.01925438836516389,196533.6688139167,-2.550887530866528,1.101791520666697,0.7891834312123004,-0.04732360690832138,0.2738361060619354,0.1196518614888191,-0.006106932647526264,0.01135300472378731,0.01532926131039858,XTrueNorthZVertical,-0.557645867736063,0.1727177502646617,0.6939457139585836,-0.4214725148112085,0.6283603310585022,-0.7097783088684082,-0.3183993399143219,23.66094017028809,-18.142333984375,-34.03825378417969,2,0.0.0.0,10.83.46.32,1,0
2015-03-01 20:10:12.534,2,1425269410.228582,37.76613162383833,-122.4604943054576,86.82802,-1,-1,10,2744.897550734554,-9999,1425269412.478565,24.74429702758789,-17.6829833984375,-31.69783020019531,37.24274444580078,23.4656810760498,10,196533.7647415417,0.638580322265625,-0.6779937744140625,-0.3186492919921875,196533.72059075,0.006842459788740587,0.08385335534667093,-0.01925438836516389,196533.72059075,-2.542675565072162,1.11273806711482,0.790385133567899,-0.007012833375483751,0.09695056080818176,0.01639208756387234,0.05119318142533302,-0.02291147224605083,-0.04333705827593803,XTrueNorthZVertical,-0.562152904208823,0.1685876791528647,0.6888689952006274,-0.4254666660281162,0.6310425400733948,-0.7106242775917053,-0.3111246228218079,23.95048522949219,-18.1624813079834,-33.82433319091797,2,0.0.0.0,10.83.46.32,1,0
2015-03-01 20:10:12.575,3,1425269410.228582,37.76613162383833,-122.4604943054576,86.82802,-1,-1,10,2744.897550734554,-9999,1425269412.548513,24.69314575195312,-17.36007690429688,-31.91416931152344,36.968017578125,23.19095230102539,10,196533.8137527083,0.6147918701171875,-0.70947265625,-0.3078765869140625,196533.7723675417,0.06979745742934171,-0.168685688710055,-0.02277775048733872,196533.7723675417,-2.544001683087659,1.108693530383673,0.7920409185912861,0.05580246448516846,-0.1551959067583084,0.01290270779281855,0.009855392388999462,0.03379450738430023,-0.005499968770891428,XTrueNorthZVertical,-0.5606769067915468,0.1704897198403606,0.6899085199231384,-0.4249717231525514,0.6287249326705933,-0.7117882966995239,-0.3131493330001831,24.15820503234863,-18.12558364868164,-33.69616317749023,2,0.0.0.0,10.83.46.32,1,0
2015-03-01 20:10:12.610,4,1425269410.228582,37.76613162383833,-122.4604943054576,86.82802,-1,-1,10,2744.897550734554,-9999,1425269412.548513,24.69314575195312,-17.36007690429688,-31.91416931152344,36.968017578125,23.19095230102539,10,196533.8627568333,0.63299560546875,-0.6983795166015625,-0.31622314453125,196533.8241432917,0.01550439123422331,0.0729258727618578,-0.02266350087657432,196533.8241432917,-2.545861900707749,1.109112887203028,0.7930997970366364,0.001509964931756258,0.08641579747200012,0.01301677245646715,-0.009330347180366516,0.009421892464160919,0.007312905043363571,XTrueNorthZVertical,-0.5606818056576442,0.171350669952742,0.6899443872910394,-0.4245605644418562,0.6281810402870178,-0.7125316262245178,-0.3125497102737427,23.97236442565918,-18.21757125854492,-33.77917861938477,2,0.0.0.0,10.83.46.32,1,0
2015-03-01 20:10:12.659,5,1425269410.228582,37.76613162383833,-122.4604943054576,86.82802,-1,-1,10,2744.897550734554,-9999,1425269412.622476,24.65903854370117,-17.80192565917969,-31.54804992675781,37.36019897460938,23.58313369750977,10,196533.9118820417,0.627288818359375,-0.7042388916015625,-0.3014678955078125,196533.875920125,0.04907939572907028,0.003804858249396208,-0.03810397624463573,196533.875920125,-2.546131027081302,1.113711169793818,0.7938504229035145,0.03508304804563522,0.01729400083422661,-0.002426732331514359,0.01230223104357719,0.01382409315556288,-0.01055506616830826,XTrueNorthZVertical,-0.5622565996357421,0.1707531719122202,0.6885392871604933,-0.4249995178901426,0.6291314959526062,-0.7130581140518188,-0.3094217479228973,24.07817459106445,-18.25089836120605,-33.6858024597168,2,0.0.0.0,10.83.46.32,1,0
2015-03-01 20:10:12.692,6,1425269410.228582,37.76613162383833,-122.4604943054576,86.82802,-1,-1,10,2744.897550734554,-9999,1425269412.674303,24.55672454833984,-18.31172180175781,-31.28178405761719,38.05517959594727,24.27811431884766,10,196533.96079025,0.602752685546875,-0.7049713134765625,-0.292572021484375,196533.927697125,0.07781650178767931,-0.07427316595732888,-0.02028263486204348,196533.927697125,-2.549461726361514,1.113585724688952,0.7950213187949049,0.06372598558664322,-0.06041323021054268,0.01540965307503939,-0.009873835369944572,0.00648107286542654,0.010212198831141,XTrueNorthZVertical,-0.561947462089914,0.172189173975091,0.68901420447746,-0.4240582907657136,0.6283430457115173,-0.7138785123825073,-0.3091318905353546,24.13714027404785,-18.28716468811035,-33.62387847900391,2,0.0.0.0,10.83.46.32,1,0
2015-03-01 20:10:12.745,7,1425269410.228582,37.76613162383833,-122.4604943054576,86.82802,-1,-1,10,2744.897550734554,-9999,1425269412.727133,24.38621139526367,-18.27774047851562,-30.81581115722656,37.76540374755859,23.98833847045898,10,196534.0099195417,0.6367340087890625,-0.7187042236328125,-0.310028076171875,196533.9794729167,0.05970966953623057,0.07487690457644984,-0.01667618211385817,196533.9794729167,-2.552375862235921,1.117267488778147,0.7977675378457685,0.04562744498252869,0.08873865753412247,0.01902768015861511,-0.0223351176828146,0.008645612746477127,0.009844199754297733,XTrueNorthZVertical,-0.5630061462319998,0.1733376739138139,0.6879693401143651,-0.4238825154357168,0.6277123093605042,-0.7157989144325256,-0.3059562742710114,24.04120826721191,-18.43453788757324,-33.61212921142578,2,0.0.0.0,10.83.46.32,1,0
2015-03-01 20:10:12.788,8,1425269410.228582,37.76613162383833,-122.4604943054576,86.82802,-1,-1,10,2744.897550734554,-9999,1425269412.778939,24.52262878417969,-18.20976257324219,-30.64939880371094,37.75618362426758,23.97911834716797,10,196534.0588199167,0.6400146484375,-0.7182769775390625,-0.30718994140625,196534.0312495417,0.06989865755076473,0.01752812734657452,0.003101251089397273,196534.0312495417,-2.554347762921042,1.122133311083044,0.8002172238337243,0.0558144636452198,0.03138798847794533,0.03880423679947853,0.005658478941768408,-0.003256744937971234,-0.007906521670520306,XTrueNorthZVertical,-0.5645419573374769,0.1738504295906912,0.6864556933795065,-0.4240837856909045,0.6276117563247681,-0.7175074219703674,-0.3021368086338043,24.13266181945801,-18.54287719726562,-33.48676681518555,2,0.0.0.0,10.83.46.32,1,0
2015-03-01 20:10:12.844,9,1425269410.228582,37.76613162383833,-122.4604943054576,86.82802,-1,-1,10,2744.897550734554,-9999,1425269412.830515,24.94892501831055,-18.6685791015625,-30.46633911132812,37.72130584716797,23.94424247741699,10,196534.1078502917,0.62982177734375,-0.7023773193359375,-0.3110809326171875,196534.0830265833,0.05287812870795931,-0.008182296133159451,0.02946814377783578,196534.0830265833,-2.555811296177962,1.123603134550568,0.8020577060852615,0.03872990608215332,0.005965942516922951,0.06516512483358383,0.01453976798802614,0.0004959524958394468,-0.009355117566883564,XTrueNorthZVertical,-0.5649431855804963,0.174693951615232,0.6859297734104015,-0.4240538126308231,0.626863420009613,-0.718788206577301,-0.3006424307823181,24.16883850097656,-18.66648101806641,-33.39186859130859,2,0.0.0.0,10.83.46.32,1,0
2015-03-01 20:10:12.886,10,1425269410.228582,37.76613162383833,-122.4604943054576,86.82802,-1,-1,10,2744.897550734554,-9999,1425269412.882636,25.40932464599609,-18.991455078125,-30.54954528808594,37.67217636108398,23.89511108398438,10,196534.1568460834,0.6216278076171875,-0.7117462158203125,-0.302703857421875,196534.13480225,0.03333798315782992,-0.02828143919609647,0.007992945379654818,196534.13480225,-2.555505880048854,1.122993683708061,0.8035677698995332,0.01918046921491623,-0.01413611322641373,0.0436764732003212,0.003540965262800455,0.02104570530354977,-0.005567711777985096,XTrueNorthZVertical,-0.5647803926346112,0.1753455185242602,0.6856911774098854,-0.4243874835260377,0.6257009506225586,-0.7198371887207031,-0.3005541265010834,24.1472225189209,-18.72394180297852,-33.37532806396484,2,0.0.0.0,10.83.46.32,1,0
2015-03-01 20:10:12.941,11,1425269410.228582,37.76613162383833,-122.4604943054576,86.82802,-1,-1,10,2744.897550734554,-9999,1425269412.934348,25.63099670410156,-19.11039733886719,-30.43305969238281,37.61356353759766,23.83650016784668,10,196534.205990375,0.6233367919921875,-0.724639892578125,-0.30633544921875,196534.1865792084,0.02324220578144854,0.01652544719615969,0.01544207326471546,196534.1865792084,-2.554894251532456,1.122362380710106,0.8059914348692013,0.009082188829779625,0.03066886216402054,0.05112360790371895,-0.007497311569750309,0.001775641925632954,-0.00234423135407269,XTrueNorthZVertical,-0.5646487630092686,0.1762835350632394,0.6851834032519497,-0.4249937215161549,0.6239371299743652,-0.7215174436569214,-0.3001917898654938,24.09885406494141,-18.7770881652832,-33.38043212890625,2,0.0.0.0,10.83.46.32,1,0
2015-03-01 20:10:12.988,12,1425269410.228582,37.76613162383833,-122.4604943054576,86.82802,-1,-1,10,2744.897550734554,-9999,1425269412.934348,25.63099670410156,-19.11039733886719,-30.43305969238281,37.61356353759766,23.83650016784668,10,196534.254889125,0.6413116455078125,-0.724029541015625,-0.310516357421875,196534.2383559167,-0.01130538514349537,0.04335812675925305,0.02338921227362091,196534.2383559167,-2.551796264495573,1.123434257247949,0.8079807470898747,-0.02551912702620029,0.05780427530407906,0.05906479805707932,0.01522036176174879,-0.0070260064676404,-0.01071476191282272,XTrueNorthZVertical,-0.5653139143585886,0.1759815755012411,0.6837635348053793,-0.426518653178836,0.6229632496833801,-0.7228934168815613,-0.2989013195037842,24.10378646850586,-18.85903549194336,-33.33063507080078,2,0.0.0.0,10.83.46.32,1,0
2015-03-01 20:10:13.039,13,1425269410.228582,37.76613162383833,-122.4604943054576,86.82802,-1,-1,10,2744.897550734554,-9999,1425269412.985621,25.49458312988281,-19.17837524414062,-30.43307495117188,37.54446411132812,23.76739883422852,10,196534.3039129583,0.6217803955078125,-0.7186737060546875,-0.296173095703125,196534.2901319167,-0.0107248160258581,-0.05118462457077792,0.0245516820894405,196534.2901319167,-2.548400886118387,1.120659393304765,0.8087996327234301,-0.02494250982999802,-0.03673825412988663,0.06021790206432343,0.00331023195758462,0.001153703546151519,-4.388624438433908e-05,XTrueNorthZVertical,-0.5646750042519377,0.1759447730491784,0.6836336246972254,-0.4275870827275357,0.6215982437133789,-0.723459005355835,-0.3003711402416229,24.12994003295898,-18.84598159790039,-33.31909561157227,2,0.0.0.0,10.83.46.32,1,0
2015-03-01 20:10:13.086,14,1425269410.228582,37.76613162383833,-122.4604943054576,86.82802,-1,-1,10,2744.897550734554,-9999,1425269413.037524,25.56278991699219,-19.21235656738281,-30.26665496826172,37.46846389770508,23.6914005279541,10,196534.352919625,0.618988037109375,-0.7191009521484375,-0.295013427734375,196534.3419086667,-0.01478720195266497,0.01061855589836394,0.02666862883994448,196534.2901319167,-2.548400886118387,1.120659393304765,0.8087996327234301,-0.02494250982999802,-0.03673825412988663,0.06021790206432343,0.00331023195758462,0.001153703546151519,-4.388624438433908e-05,XTrueNorthZVertical,-0.5646750042519377,0.1759447730491784,0.6836336246972254,-0.4275870827275357,0.6215982437133789,-0.723459005355835,-0.3003711402416229,24.12994003295898,-18.84598159790039,-33.31909561157227,2,0.0.0.0,10.83.46.32,1,0
2015-03-01 20:10:13.137,15,1425269410.228582,37.76613162383833,-122.4604943054576,86.82802,-1,-1,10,2744.897550734554,-9999,1425269413.089045,25.28995895385742,-19.00845336914062,-30.43307495117188,37.39966201782227,23.62259864807129,10,196534.4020481667,0.6226959228515625,-0.717254638671875,-0.2996826171875,196534.3936856667,-0.0184213515761871,0.004303668321568049,0.04518265842206634,196534.3936856667,-2.541520484956451,1.117525399736256,0.8123524363223221,-0.03263707458972931,0.0187549889087677,0.08083992451429367,0.009575294330716133,0.005463444162160158,-0.005572400987148285,XTrueNorthZVertical,-0.5642616995878877,0.1761067496880382,0.6822204085522199,-0.4303144559153333,0.6183391213417053,-0.7259071469306946,-0.3011902868747711,24.04510879516602,-18.87856292724609,-33.36195373535156,2,0.0.0.0,10.83.46.32,1,0
2015-03-01 20:10:13.186,16,1425269410.228582,37.76613162383833,-122.4604943054576,86.82802,-1,-1,10,2744.897550734554,-9999,1425269413.141222,25.17059326171875,-19.05941772460938,-30.41642761230469,37.31612014770508,23.53905487060547,10,196534.4509407917,0.60498046875,-0.7300262451171875,-0.2934722900390625,196534.3936856667,-0.0184213515761871,0.004303668321568049,0.04518265842206634,196534.3936856667,-2.541520484956451,1.117525399736256,0.8123524363223221,-0.03263707458972931,0.0187549889087677,0.08083992451429367,0.009575294330716133,0.005463444162160158,-0.005572400987148285,XTrueNorthZVertical,-0.5642616995878877,0.1761067496880382,0.6822204085522199,-0.4303144559153333,0.6183391213417053,-0.7259071469306946,-0.3011902868747711,24.04510879516602,-18.87856292724609,-33.36195373535156,2,0.0.0.0,10.83.46.32,1,0
2015-03-01 20:10:13.236,17,1425269410.228582,37.76613162383833,-122.4604943054576,86.82802,-1,-1,10,2744.897550734554,-9999,1425269413.193504,24.91481781005859,-19.28031921386719,-30.49962615966797,37.25375366210938,23.4766902923584,10,196534.500042625,0.6025543212890625,-0.7357025146484375,-0.2967987060546875,196534.4972384583,0.01235067587135148,-0.002685265327126896,0.08811627730356077,196534.445461375,-2.537912005256614,1.113939601909868,0.8159402674878373,-0.007831528782844543,-0.02507239766418934,0.09407509118318558,-0.01434317603707314,-0.002510560676455498,0.01041515078395605,XTrueNorthZVertical,-0.5634130751134804,0.1773085774316739,0.6816195252588143,-0.4318822381953684,0.6149138808250427,-0.728370189666748,-0.3022547364234924,24.00317001342773,-18.89910507202148,-33.38051223754883,2,0.0.0.0,10.83.46.32,1,0
2015-03-01 20:10:13.286,18,1425269410.228582,37.76613162383833,-122.4604943054576,86.82802,-1,-1,10,2744.897550734554,-9999,1425269413.245502,25.05123138427734,-19.416259765625,-30.36648559570312,37.1665153503418,23.38945007324219,10,196534.5489335,0.5971221923828125,-0.73272705078125,-0.301025390625,196534.5490151667,0.02468457382783545,-0.0133597476083825,0.06634573434049001,196534.4972384583,-2.534514404846701,1.111244108602593,0.8211109437712585,-0.001894952147267759,0.01198501419275999,0.123714379966259,-0.009410170838236809,-0.0006559163448400795,0.01038176193833351,XTrueNorthZVertical,-0.5628797448927479,0.1790197828746312,0.6804359642858016,-0.4337341102078686,0.6107132434844971,-0.7319033145904541,-0.3022366166114807,23.88324928283691,-19.01173782348633,-33.40256500244141,2,0.0.0.0,10.83.46.32,1,0
2015-03-01 20:10:13.333,19,1425269410.228582,37.76613162383833,-122.4604943054576,86.82802,-1,-1,10,2744.897550734554,-9999,1425269413.297228,25.30701065063477,-19.29731750488281,-30.81580352783203,37.04729843139648,23.27023315429688,10,196534.5979494167,0.593597412109375,-0.741973876953125,-0.2999114990234375,196534.6007911667,0.01873347405594438,-0.03950719582299848,0.1147215229095614,196534.5490151667,-2.530754733787889,1.10865207787904,0.8271746068805206,0.0104422913864255,0.001309833722189069,0.1019513830542564,-0.008821973577141762,0.003294588066637516,0.0008088562753982842,XTrueNorthZVertical,-0.5624346810795519,0.1809699037912728,0.6789244195772568,-0.4358656050490463,0.6059441566467285,-0.7360216379165649,-0.3018342554569244,23.75592803955078,-19.20989036560059,-33.37998199462891,2,0.0.0.0,10.83.46.32,1,0
2015-03-01 20:10:13.386,20,1425269410.228582,37.76613162383833,-122.4604943054576,86.82802,-1,-1,10,2744.897550734554,-9999,1425269413.348366,25.11944198608398,-19.55224609375,-30.63274383544922,36.89432907104492,23.11726570129395,10,196534.6469334583,0.5822601318359375,-0.757476806640625,-0.2887725830078125,196534.6007911667,0.01873347405594438,-0.03950719582299848,0.1147215229095614,196534.6007911667,-2.526448718210245,1.104734047332555,0.8339252878851239,0.004466845188289881,-0.02471119910478592,0.1502310186624527,-0.006707049440592527,-0.001399116008542478,0.002054847311228514,XTrueNorthZVertical,-0.5616087252066156,0.1833370301304315,0.6774902586674543,-0.4381668543920512,0.6003044843673706,-0.7405747771263123,-0.3019663393497467,23.62825012207031,-19.35728073120117,-33.38545227050781,2,0.0.0.0,10.83.46.32,1,0
2015-03-01 20:10:13.431,21,1425269410.228582,37.76613162383833,-122.4604943054576,86.82802,-1,-1,10,2744.897550734554,-9999,1425269413.401395,24.94892501831055,-19.28036499023438,-30.86573028564453,36.7254638671875,22.94839859008789,10,196534.6960215,0.5697784423828125,-0.752960205078125,-0.289947509765625,196534.704345,0.01223429573171501,0.01979767322754005,0.1230220633951203,196534.6525679583,-2.522526420607468,1.101115947062332,0.8418923060020391,0.01046111341565847,-0.0003811263886746019,0.1410536617040634,-0.01166763715445995,-0.01157197635620832,0.01268369425088167,XTrueNorthZVertical,-0.5608794087875342,0.1862421812772336,0.6757498253790152,-0.4405568997687363,0.5939277410507202,-0.745904803276062,-0.3014562726020813,23.45488548278809,-19.54869842529297,-33.39616394042969,2,0.0.0.0,10.83.46.32,1,0
2015-03-01 20:10:13.488,22,1425269410.228582,37.76613162383833,-122.4604943054576,86.82802,-1,-1,10,2744.897550734554,-9999,1425269413.452361,24.98302841186523,-19.31436157226562,-30.63275909423828,36.50442886352539,22.72736358642578,10,196534.7449649583,0.568817138671875,-0.7619781494140625,-0.289764404296875,196534.704345,0.01223429573171501,0.01979767322754005,0.1230220633951203,196534.704345,-2.517353458078261,1.098287950709144,0.8504757084878041,-0.00201715063303709,0.03459598869085312,0.1585552096366882,-0.01757177151739597,-0.00136592541821301,0.01026218570768833,XTrueNorthZVertical,-0.560554482614419,0.1888751546722581,0.6733435413925368,-0.4435238358371893,0.5873501896858215,-0.7515943050384521,-0.3002097010612488,23.25138854980469,-19.84554481506348,-33.36336898803711,2,0.0.0.0,10.83.46.32,1,0
2015-03-01 20:10:13.530,23,1425269410.228582,37.76613162383833,-122.4604943054576,86.82802,-1,-1,10,2744.897550734554,-9999,1425269413.504963,24.65904235839844,-19.80715942382812,-30.41641235351562,36.29957962036133,22.52251434326172,10,196534.7940951667,0.5533599853515625,-0.7705230712890625,-0.2785797119140625,196534.75612075,0.01348678039237928,0.01505192016501885,0.1158001031510435,196534.75612075,-2.511947854141441,1.0963750577675,0.8590205409016898,-0.0007564376574009657,0.02985151670873165,0.1513456851243973,-0.009583654813468456,-0.007216392084956169,0.01259076595306396,XTrueNorthZVertical,-0.5605698401217045,0.1912263370636341,0.6706141373870729,-0.4466214177780874,0.5810405611991882,-0.7572031617164612,-0.298387885093689,23.1405029296875,-20.05868911743164,-33.31295776367188,2,0.0.0.0,10.83.46.32,1,0
2015-03-01 20:10:13.588,24,1425269410.228582,37.76613162383833,-122.4604943054576,86.82802,-1,-1,10,2744.897550734554,-9999,1425269413.555796,24.48851776123047,-20.18099975585938,-30.15013885498047,36.10234069824219,22.32527542114258,10,196534.8430073333,0.5248870849609375,-0.772613525390625,-0.2711334228515625,196534.807897875,0.0294822585316132,0.01428839188049313,0.1561565810456682,196534.807897875,-2.506808768446795,1.093711984393777,0.869085183682927,0.01524986978620291,0.02909080684185028,0.1917160749435425,-0.03174233064055443,-0.007745655719190836,0.02063220739364624,XTrueNorthZVertical,-0.5603447069568005,0.1944325812031106,0.6677592377949031,-0.4497860055783505,0.5734446048736572,-0.7637386918067932,-0.2964195609092712,23.02859687805176,-20.27733993530273,-33.25808715820312,2,0.0.0.0,10.83.46.32,1,0
2015-03-01 20:10:13.627,25,1425269410.228582,37.76613162383833,-122.4604943054576,86.82802,-1,-1,10,2744.897550734554,-9999,1425269413.60784,24.65903472900391,-20.48689270019531,-30.28327178955078,35.86159133911133,22.08452796936035,10,196534.8920292917,0.5358123779296875,-0.79876708984375,-0.279998779296875,196534.859674625,0.03346927699957083,0.1729826991288978,0.2353217076093636,196534.859674625,-2.499601396240217,1.093807092827427,0.8835394416939489,0.01925176195800304,0.1877859979867935,0.2709085643291473,-0.0426863431930542,0.0006808561156503856,0.01543290540575981,XTrueNorthZVertical,-0.5613239349434669,0.19819793739485,0.6625483002102543,-0.4546018447860475,0.5636061429977417,-0.7729892134666443,-0.2912660241127014,22.81932640075684,-20.72060775756836,-33.12886810302734,2,0.0.0.0,10.83.46.32,1,0
2015-03-01 20:10:13.686,26,1425269410.228582,37.76613162383833,-122.4604943054576,86.82802,-1,-1,10,2744.897550734554,-9999,1425269413.659667,24.64198303222656,-20.57185363769531,-30.26663208007812,28.36028480529785,14.58322048187256,10,196534.941036375,0.4732666015625,-0.8031005859375,-0.2505340576171875,196534.9114506667,0.05843801011571773,0.1187801804108421,0.3565195056577797,196534.9114506667,-2.489299886467408,1.094622566030414,0.9007379677267504,0.04422618076205254,0.1335816085338593,0.3921220898628235,-0.02138195931911469,-0.02036801725625992,0.01190365757793188,XTrueNorthZVertical,-0.5629001435805154,0.202011244312041,0.6556741857299909,-0.4608972959545479,0.5519453287124634,-0.7837854027748108,-0.2846697568893433,22.76906204223633,-21.13226699829102,-32.90264892578125,2,0.0.0.0,10.83.46.32,1,0
2015-03-01 20:10:13.726,27,1425269410.228582,37.76613162383833,-122.4604943054576,86.82802,-1,-1,10,2744.897550734554,-9999,1425269413.711867,24.28390121459961,-21.54045104980469,-30.15013885498047,27.61765670776367,13.84059143066406,10,196534.9900672917,0.4264678955078125,-0.82177734375,-0.225128173828125,196534.9632275,0.05668351958957353,0.2173629471145233,0.4861408822341164,196534.9632275,-2.474692991590261,1.091021549597901,0.923596357139013,0.04247536137700081,0.2321642190217972,0.5217501521110535,-0.07948221266269684,-0.01142888609319925,0.03734483197331429,XTrueNorthZVertical,-0.5635881852445445,0.2078762664050894,0.6474969495903355,-0.4689387863163134,0.5348807573318481,-0.7977752089500427,-0.2783116400241852,22.57531929016113,-21.63829803466797,-32.70666885375977,2,0.0.0.0,10.83.46.32,1,0
2015-03-01 20:10:13.789,28,1425269410.228582,37.76613162383833,-122.4604943054576,86.82802,-1,-1,10,2744.897550734554,-9999,1425269413.763299,23.89170837402344,-22.4071044921875,-29.53439331054688,24.90497589111328,11.12791156768799,10,196535.0390717917,0.3457794189453125,-0.8586273193359375,-0.2130889892578125,196535.015004625,0.06044763147429152,0.4260221511544496,0.7034905135431893,196535.015004625,-2.453660771660572,1.090974758816677,0.9530183479563754,0.04623959958553314,0.4408232867717743,0.7390994429588318,-0.1154412105679512,-0.01445284206420183,0.05977144837379456,XTrueNorthZVertical,-0.5662619168986887,0.213673057156788,0.6348943836234904,-0.4802087644777094,0.5138176679611206,-0.8151675462722778,-0.2673825323581696,22.32447052001953,-22.4652214050293,-32.31901931762695,2,0.0.0.0,10.83.46.32,1,0
2015-03-01 20:10:13.823,29,1425269410.228582,37.76613162383833,-122.4604943054576,86.82802,-1,-1,10,2744.897550734554,-9999,1425269413.815193,24.14748382568359,-23.20576477050781,-29.15162658691406,20.3726921081543,6.595627784729004,10,196535.0880847917,0.449188232421875,-0.8516845703125,-0.269500732421875,196535.0667804167,-0.07920986767000876,0.9930166040833717,0.9450786391975093,196535.0667804167,-2.415493485815805,1.095405714125689,0.9922322365505488,-0.09341774880886078,1.007817625999451,0.9806872010231018,-0.1502652019262314,-0.01902876608073711,0.02660949900746346,XTrueNorthZVertical,-0.5724153420794142,0.2172654168749665,0.613831747421966,-0.4983443291154371,0.4861874282360077,-0.837248682975769,-0.2502728402614594,22.23000907897949,-23.29004669189453,-31.7960319519043,2,0.0.0.0,10.83.46.32,1,0
2015-03-01 20:10:13.889,30,1425269410.228582,37.76613162383833,-122.4604943054576,86.82802,-1,-1,10,2744.897550734554,-9999,1425269413.867429,24.28389739990234,-23.85151672363281,-28.78551483154297,16.86472702026367,3.087663412094116,10,196535.1370870833,0.525146484375,-0.8426666259765625,-0.25634765625,196535.1185575417,-0.105030546018872,0.5980940491905403,0.9514249520751682,196535.1185575417,-2.362567317339106,1.095634526863437,1.033229962273529,-0.1192382723093033,0.6128948926925659,0.9870331883430481,0.08743315190076828,0.003366539487615228,-0.03651465475559235,XTrueNorthZVertical,-0.5790534708707592,0.2181073116157606,0.5889678826826036,-0.5198491909996674,0.4553219676017761,-0.8589573502540588,-0.2342525571584702,22.54378128051758,-24.14349937438965,-30.92662811279297,2,0.0.0.0,10.83.46.32,1,0
2015-03-01 20:10:13.922,31,1425269410.228582,37.76613162383833,-122.4604943054576,86.82802,-1,-1,10,2744.897550734554,-9999,1425269413.867429,24.28389739990234,-23.85151672363281,-28.78551483154297,16.86472702026367,3.087663412094116,10,196535.186103,0.3943939208984375,-0.7894744873046875,-0.2308349609375,196535.1703344167,-0.0553716464366005,-0.09358800807923756,0.9076364584837583,196535.1703344167,-2.307157879970174,1.05780503921878,1.074096242651766,-0.06957923620939255,-0.07878732681274414,0.9432443380355835,0.03096304833889008,0.065362848341465,-0.01254150550812483,XTrueNorthZVertical,-0.5753454915384599,0.2281254602474181,0.5735804877136628,-0.5366021185103487,0.4151886701583862,-0.8791598677635193,-0.2338726818561554,22.12765884399414,-25.26380157470703,-30.32645797729492,2,0.0.0.0,10.83.46.32,1,0
2015-03-01 20:10:13.992,32,1425269410.228582,37.76613162383833,-122.4604943054576,86.82802,-1,-1,10,2744.897550734554,-9999,1425269413.970523,23.19258117675781,-25.7547607421875,-27.98670959472656,8.186030387878418,354.4089660644531,10,196535.2351095417,0.2944793701171875,-0.8042755126953125,-0.2191314697265625,196535.2221103334,-0.02639565482821136,-0.01886210473659521,0.8396451569057083,196535.1703344167,-2.307157879970174,1.05780503921878,1.074096242651766,-0.06957923620939255,-0.07878732681274414,0.9432443380355835,0.03096304833889008,0.065362848341465,-0.01254150550812483,XTrueNorthZVertical,-0.5753454915384599,0.2281254602474181,0.5735804877136628,-0.5366021185103487,0.4151886701583862,-0.8791598677635193,-0.2338726818561554,22.12765884399414,-25.26380157470703,-30.32645797729492,2,0.0.0.0,10.83.46.32,1,0
2015-03-01 20:10:14.019,33,1425269410.228582,37.76613162383833,-122.4604943054576,86.82802,-1,-1,10,2744.897550734554,-9999,1425269413.970523,23.19258117675781,-25.7547607421875,-27.98670959472656,8.186030387878418,354.4089660644531,10,196535.2841309583,0.3297119140625,-0.879730224609375,-0.2335052490234375,196535.2738875,-0.002939064579011447,0.3688036025018792,0.9117715487083243,196535.2738875,-2.190809557716158,0.9580418800042788,1.14901839844229,-0.01720642484724522,0.383776992559433,0.9472313523292542,-0.02563785947859287,0.06611008942127228,0.01343038026243448,XTrueNorthZVertical,-0.5647352397448216,0.2516966990675307,0.5477311341216926,-0.5636608511374532,0.3349030017852783,-0.9123625159263611,-0.2354457676410675,19.86784553527832,-26.8623046875,-30.51675796508789,2,0.0.0.0,10.83.46.32,1,0
2015-03-01 20:10:14.062,34,1425269410.228582,37.76613162383833,-122.4604943054576,86.82802,-1,-1,10,2744.897550734554,-9999,1425269414.022398,22.57871627807617,-26.43447875976562,-27.82029724121094,5.441431999206543,351.6643676757812,10,196535.333137375,0.4017486572265625,-0.8898468017578125,-0.2816314697265625,196535.3256645417,-0.07970761247774458,0.4753241871506506,0.9618179382292024,196535.2738875,-2.190809557716158,0.9580418800042788,1.14901839844229,-0.01720642484724522,0.383776992559433,0.9472313523292542,-0.02563785947859287,0.06611008942127228,0.01343038026243448,XTrueNorthZVertical,-0.5647352397448216,0.2516966990675307,0.5477311341216926,-0.5636608511374532,0.3349030017852783,-0.9123625159263611,-0.2354457676410675,19.86784553527832,-26.8623046875,-30.51675796508789,2,0.0.0.0,10.83.46.32,1,0
2015-03-01 20:10:14.118,35,1425269410.228582,37.76613162383833,-122.4604943054576,86.82802,-1,-1,10,2744.897550734554,-9999,1425269414.074009,21.70907592773438,-27.403076171875,-27.63723754882812,1.456751823425293,347.6796875,10,196535.3822474584,0.412506103515625,-0.8712310791015625,-0.275115966796875,196535.377440375,-0.1009804106330795,0.1418468838764544,0.98862265460085,196535.3256645417,-2.111384852517259,0.9098616190578825,1.18653961623046,-0.09397482126951218,0.4902974367141724,0.9972773790359497,0.09037709981203079,0.02777007408440113,-0.04315364733338356,XTrueNorthZVertical,-0.5644437969825283,0.2575756157062477,0.5271289914995866,-0.5806833029151854,0.2959296703338623,-0.9270773530006409,-0.2301160097122192,19.02590370178223,-27.90074157714844,-30.11894416809082,2,0.0.0.0,10.83.46.32,1,0
2015-03-01 20:10:14.191,36,1425269410.228582,37.76613162383833,-122.4604943054576,86.82802,-1,-1,10,2744.897550734554,-9999,1425269414.177764,20.12325286865234,-29.459228515625,-28.02000427246094,355.1599731445312,341.3829040527344,10,196535.4311485833,0.3853912353515625,-0.8226318359375,-0.25177001953125,196535.429217375,-0.1550036986097729,-0.2695747529177448,0.9024725891300946,196535.377440375,-2.008417353531302,0.830476393597572,1.221721243840851,-0.1152474731206894,0.1568199694156647,1.024081707000732,0.1629014313220978,0.07437879592180252,-0.05071104690432549,XTrueNorthZVertical,-0.5605219656986198,0.2654462769537139,0.5082210815840914,-0.5975489954611505,0.2525038421154022,-0.9396894574165344,-0.2307067960500717,18.38191032409668,-28.60956001281738,-29.85273170471191,2,0.0.0.0,10.83.46.32,1,0
2015-03-01 20:10:14.216,37,1425269410.228582,37.76613162383833,-122.4604943054576,86.82802,-1,-1,10,2744.897550734554,-9999,1425269414.177764,20.12325286865234,-29.459228515625,-28.02000427246094,355.1599731445312,341.3829040527344,10,196535.4802811667,0.3000335693359375,-0.8127593994140625,-0.2057952880859375,196535.4809945833,-0.1023889565336224,-0.4394202482825293,0.8858715081589768,196535.429217375,-1.887802412646224,0.7133625127715315,1.250934204740758,-0.1692706346511841,-0.2546018064022064,0.9379312992095947,0.1900219172239304,0.1123952344059944,-0.01809374243021011,XTrueNorthZVertical,-0.551083929328822,0.2782511214182984,0.4952928354517427,-0.6112020068173082,0.2057605534791946,-0.9492787718772888,-0.2377656251192093,20.69968032836914,-28.771484375,-27.79216766357422,2,0.0.0.0,10.83.46.32,1,0
2015-03-01 20:10:14.261,38,1425269410.228582,37.76613162383833,-122.4604943054576,86.82802,-1,-1,10,2744.897550734554,-9999,1425269414.230228,18.67384719848633,-30.02001953125,-27.80366516113281,352.7218322753906,338.9447631835938,10,196535.529177875,0.219818115234375,-0.8115234375,-0.1810150146484375,196535.4809945833,-0.1023889565336224,-0.4394202482825293,0.8858715081589768,196535.4809945833,-1.750343341790406,0.5636269965849945,1.272368665325086,-0.1166557297110558,-0.4244474768638611,0.9213299155235291,0.1429528295993805,0.1430405676364899,0.04274479299783707,XTrueNorthZVertical,-0.53745665113796,0.2947376939326357,0.4872307309418928,-0.6219938299300374,0.157080739736557,-0.95579993724823,-0.248540073633194,18.63321113586426,-29.61996459960938,-28.35737609863281,2,0.0.0.0,10.83.46.32,1,0
2015-03-01 20:10:14.314,39,1425269410.228582,37.76613162383833,-122.4604943054576,86.82802,-1,-1,10,2744.897550734554,-9999,1425269414.281738,16.30364990234375,-30.410888671875,-27.88687133789062,350.0719909667969,336.294921875,10,196535.5783267083,0.1667938232421875,-0.7315826416015625,-0.2435150146484375,196535.5845475,-0.001017061220301261,-0.3606519327212556,0.7515941270488545,196535.5327705,-1.610996868810562,0.4059997075195167,1.289208176645404,-0.0499814860522747,-0.4924657940864563,0.8165072202682495,0.1100722029805183,0.149091899394989,0.07427721470594406,XTrueNorthZVertical,-0.5239345436069398,0.3128042183709094,0.480704264865884,-0.6297377187741484,0.1097459122538567,-0.960615336894989,-0.2552922368049622,16.85261917114258,-30.19857788085938,-28.8568000793457,2,0.0.0.0,10.83.46.32,1,0
2015-03-01 20:10:14.361,40,1425269410.228582,37.76613162383833,-122.4604943054576,86.82802,-1,-1,10,2744.897550734554,-9999,1425269414.333733,14.05281066894531,-30.88668823242188,-28.78553009033203,350.7007751464844,336.9237060546875,10,196535.6272985417,0.152374267578125,-0.8323211669921875,-0.2290191650390625,196535.5845475,-0.001017061220301261,-0.3606519327212556,0.7515941270488545,196535.5845475,-1.471682018358825,0.2515770511560917,1.299873310835131,-0.01528356596827507,-0.3456794321537018,0.787051796913147,0.1001744568347931,0.2319416403770447,0.01568164490163326,XTrueNorthZVertical,-0.5120628760556842,0.328927470349503,0.4738678845391895,-0.6364335220113546,0.06661936640739441,-0.9635242819786072,-0.2591966688632965,15.10005378723145,-30.71356582641602,-29.28045272827148,2,0.0.0.0,10.83.46.32,1,0
2015-03-01 20:10:14.413,41,1425269410.228582,37.76613162383833,-122.4604943054576,86.82802,-1,-1,10,2744.897550734554,-9999,1425269414.38536,11.92133712768555,-31.48147583007812,-29.10173034667969,349.4137268066406,335.6366577148438,10,196535.6763329167,0.0651397705078125,-0.8003997802734375,-0.24609375,196535.6363245833,0.1354363888165247,-0.5843840958988125,0.7251942111628991,196535.6363245833,-1.329935693953296,0.09336490966461791,1.310091963067633,0.1211700215935707,-0.5694117546081543,0.7606515288352966,0.1283433437347412,0.1338874995708466,0.02761957608163357,XTrueNorthZVertical,-0.5017104910718146,0.3463628336330589,0.4664156622665145,-0.640917990339647,0.02403092011809349,-0.9662086367607117,-0.2566387355327606,12.99138641357422,-31.3783130645752,-29.58555603027344,2,0.0.0.0,10.83.46.32,1,0
2015-03-01 20:10:14.460,42,1425269410.228582,37.76613162383833,-122.4604943054576,86.82802,-1,-1,10,2744.897550734554,-9999,1425269414.437348,9.858066558837891,-31.97427368164062,-29.21821594238281,348.0615844726562,334.2845153808594,10,196535.7252272083,0.0081939697265625,-0.7826385498046875,-0.2561798095703125,196535.6881007917,0.1164523113020039,-0.7016191102451906,0.6376699545696629,196535.6881007917,-1.191535505050527,-0.07452631329999206,1.315684695657936,0.1021861061453819,-0.6866468787193298,0.6731268763542175,0.06731253117322922,0.1782827079296112,-0.003336472203955054,XTrueNorthZVertical,-0.489181883519876,0.3672526499953023,0.4625863584518733,-0.6417480086482357,-0.01878958195447922,-0.9676351547241211,-0.2516531646251678,11.135498046875,-31.93108367919922,-29.75039672851562,2,0.0.0.0,10.83.46.32,1,0
2015-03-01 20:10:14.511,43,1425269410.228582,37.76613162383833,-122.4604943054576,86.82802,-1,-1,10,2744.897550734554,-9999,1425269414.489317,7.692478179931641,-32.63700866699219,-28.83545684814453,348.2231140136719,334.446044921875,10,196535.7742273333,-0.04119873046875,-0.8098602294921875,-0.221435546875,196535.73987775,0.1614914253413149,-0.6427712396377097,0.5688275067072236,196535.73987775,-1.061112217689053,-0.2321716066133492,1.31714425531224,0.1472253650426865,-0.6277992129325867,0.6042841076850891,0.05636608600616455,0.1741028875112534,-0.007592482026666403,XTrueNorthZVertical,-0.4779509481509978,0.3865990992982104,0.4586345189729217,-0.6416840930802462,-0.05773937702178955,-0.9680024385452271,-0.2442080527544022,9.251519203186035,-32.38173294067383,-29.90840148925781,2,0.0.0.0,10.83.46.32,1,0
2015-03-01 20:10:14.562,44,1425269410.228582,37.76613162383833,-122.4604943054576,86.82802,-1,-1,10,2744.897550734554,-9999,1425269414.54161,5.663314819335938,-33.09585571289062,-28.75225067138672,348.7094421386719,334.932373046875,10,196535.8232291667,-0.1074676513671875,-0.8243255615234375,-0.2256622314453125,196535.7916549583,0.07170108497653035,-0.8380422002455896,0.3953292195912864,196535.7916549583,-0.9559479286416983,-0.3713391251642533,1.314618215064073,0.05743515118956566,-0.8230702877044678,0.4307854771614075,0.04047646746039391,0.1569864153862,0.01535111851990223,XTrueNorthZVertical,-0.4659684767975085,0.4059750473426487,0.4580312325422588,-0.6389562577393931,-0.09194435924291611,-0.9673654437065125,-0.2361152768135071,6.898647308349609,-32.91344833374023,-29.96319770812988,2,0.0.0.0,10.83.46.32,1,0
2015-03-01 20:10:14.607,45,1425269410.228582,37.76613162383833,-122.4604943054576,86.82802,-1,-1,10,2744.897550734554,-9999,1425269414.592887,3.497734069824219,-32.97689819335938,-29.06845092773438,348.7871704101562,335.0101013183594,10,196535.8722437083,-0.150390625,-0.966033935546875,-0.176239013671875,196535.8434309167,0.0987012773721897,-0.8472474165534485,0.2707457448490526,196535.8434309167,-0.8866096662959428,-0.480271060549502,1.309786392421879,0.08443550020456314,-0.8322756886482239,0.3062016367912292,-0.01375313382595778,0.0936628133058548,0.02630217745900154,XTrueNorthZVertical,-0.4535049172954634,0.424148545998251,0.4612828336102871,-0.6337582489050816,-0.1192272156476974,-0.9661298394203186,-0.2288625985383987,5.154948234558105,-33.10818099975586,-30.09907913208008,2,0.0.0.0,10.83.46.32,1,0
2015-03-01 20:10:14.647,46,1425269410.228582,37.76613162383833,-122.4604943054576,86.82802,-1,-1,10,2744.897550734554,-9999,1425269414.592887,3.497734069824219,-32.97689819335938,-29.06845092773438,348.7871704101562,335.0101013183594,10,196535.9212566667,-0.112152099609375,-1.060592651367188,-0.1573638916015625,196535.895208125,0.01160685497889234,-0.6782557306341435,0.1271899105010943,196535.895208125,-0.8431588203733729,-0.5601026936027997,1.306952677708363,-0.002656009281054139,-0.6632832288742065,0.1626461893320084,-0.01499669440090656,-0.05488421767950058,0.06263430416584015,XTrueNorthZVertical,-0.4433062008684112,0.4393261783428777,0.4655661479959229,-0.6274713960467543,-0.1385525017976761,-0.9653947353363037,-0.2209442406892776,3.579801082611084,-33.27274322509766,-30.14613342285156,2,0.0.0.0,10.83.46.32,1,0
2015-03-01 20:10:14.705,47,1425269410.228582,37.76613162383833,-122.4604943054576,86.82802,-1,-1,10,2744.897550734554,-9999,1425269414.697036,0.5989303588867188,-32.60302734375,-28.86874389648438,352.0083923339844,338.2313232421875,10,196535.9702655833,-0.108978271484375,-0.977020263671875,-0.1912841796875,196535.9469850833,-0.1547443067195992,-0.5810655308644647,0.2033203650026445,196535.9469850833,-0.8284814421301596,-0.6037790587296602,1.299314130437223,-0.1690015494823456,-0.5660896897315979,0.2387712448835373,0.08022826164960861,-0.07411635667085648,0.03707804158329964,XTrueNorthZVertical,-0.4334149199830956,0.4491964648210215,0.4706528127386159,-0.6235864356381881,-0.152249738574028,-0.9633744955062866,-0.2207480818033218,2.040618896484375,-33.28667449951172,-30.27396392822266,2,0.0.0.0,10.83.46.32,1,0
2015-03-01 20:10:14.745,48,1425269410.228582,37.76613162383833,-122.4604943054576,86.82802,-1,-1,10,2744.897550734554,-9999,1425269414.697036,0.5989303588867188,-32.60302734375,-28.86874389648438,352.0083923339844,338.2313232421875,10,196536.019365,-0.1624298095703125,-1.049392700195312,-0.17218017578125,196535.9987614167,-0.2158524021442303,-0.6249440393007193,0.2534660904321825,196535.9469850833,-0.8284814421301596,-0.6037790587296602,1.299314130437223,-0.1690015494823456,-0.5660896897315979,0.2387712448835373,0.08022826164960861,-0.07411635667085648,0.03707804158329964,XTrueNorthZVertical,-0.4334149199830956,0.4491964648210215,0.4706528127386159,-0.6235864356381881,-0.152249738574028,-0.9633744955062866,-0.2207480818033218,2.040618896484375,-33.28667449951172,-30.27396392822266,2,0.0.0.0,10.83.46.32,1,0
2015-03-01 20:10:14.804,49,1425269410.228582,37.76613162383833,-122.4604943054576,86.82802,-1,-1,10,2744.897550734554,-9999,1425269414.748296,-0.6458511352539062,-32.34811401367188,-28.95195007324219,352.4559631347656,338.6788940429688,10,196536.0682764583,-0.154541015625,-1.094039916992188,-0.20916748046875,196536.0505383333,-0.2173272607559162,-0.598520687597171,0.1133555875864597,196536.0505383333,-0.8061632753268181,-0.684802330455642,1.268853890250196,-0.2315715253353119,-0.5835366249084473,0.14879110455513,0.05484092980623245,-0.1318024545907974,0.02502343617379665,XTrueNorthZVertical,-0.4074924679993249,0.4677442321609172,0.480642779439115,-0.6197965876797182,-0.1880959272384644,-0.9547606706619263,-0.2303304374217987,-0.2703123092651367,-32.81485366821289,-30.85112762451172,2,0.0.0.0,10.83.46.32,1,0
2015-03-01 20:10:14.843,50,1425269410.228582,37.76613162383833,-122.4604943054576,86.82802,-1,-1,10,2744.897550734554,-9999,1425269414.801262,-2.19757080078125,-32.16120910644531,-29.56768035888672,354.1308288574219,340.353759765625,10,196536.1173572917,-0.1556854248046875,-1.036819458007812,-0.22332763671875,196536.1023154167,-0.1863017003726021,-0.4509275010366526,0.112020544932003,196536.1023154167,-0.8059419492999605,-0.7090307852179832,1.256439935645311,-0.2005399316549301,-0.4359408318996429,0.1474526971578598,0.02013980038464069,-0.09417043626308441,0.02252604253590107,XTrueNorthZVertical,-0.3968713907435483,0.474500765777122,0.4852231583700692,-0.6179811314190334,-0.2013226598501205,-0.9509955644607544,-0.2346842437982559,-1.639315605163574,-32.41961288452148,-31.224365234375,2,0.0.0.0,10.83.46.32,1,0
2015-03-01 20:10:14.903,51,1425269410.228582,37.76613162383833,-122.4604943054576,86.82802,-1,-1,10,2744.897550734554,-9999,1425269414.851427,-3.305938720703125,-31.9403076171875,-29.68417358398438,355.1497192382812,341.3726501464844,10,196536.166409125,-0.16009521484375,-1.03814697265625,-0.228515625,196536.154091625,-0.1343764507026732,-0.5081207496588673,0.09869275525670144,196536.154091625,-0.8084907887638562,-0.7286863946098836,1.24650584003863,-0.1486073881387711,-0.493129163980484,0.1341139078140259,0.05878031626343727,-0.08659256249666214,0.003847226500511169,XTrueNorthZVertical,-0.3876046624864887,0.4805239665331759,0.4896314062975247,-0.6157276174538818,-0.2121769189834595,-0.947877049446106,-0.2377186864614487,-2.422147274017334,-32.15899276733398,-31.44219970703125,2,0.0.0.0,10.83.46.32,1,0
2015-03-01 20:10:14.941,52,1425269410.228582,37.76613162383833,-122.4604943054576,86.82802,-1,-1,10,2744.897550734554,-9999,1425269414.90815,-4.550727844238281,-31.68539428710938,-29.70081329345703,356.4529724121094,342.6759033203125,10,196536.2154133334,-0.18341064453125,-1.011062622070312,-0.218719482421875,196536.2058689167,-0.1193391779236497,-0.7609114624386057,0.05978876542060592,196536.154091625,-0.8084907887638562,-0.7286863946098836,1.24650584003863,-0.1486073881387711,-0.493129163980484,0.1341139078140259,0.05878031626343727,-0.08659256249666214,0.003847226500511169,XTrueNorthZVertical,-0.3876046624864887,0.4805239665331759,0.4896314062975247,-0.6157276174538818,-0.2121769189834595,-0.947877049446106,-0.2377186864614487,-2.422147274017334,-32.15899276733398,-31.44219970703125,2,0.0.0.0,10.83.46.32,1,0
2015-03-01 20:10:15.000,53,1425269410.228582,37.76613162383833,-122.4604943054576,86.82802,-1,-1,10,2744.897550734554,-9999,1425269414.981585,-6.341163635253906,-30.92070007324219,-29.38462829589844,358.8708190917969,345.09375,10,196536.2644751667,-0.2496795654296875,-1.083633422851562,-0.22198486328125,196536.2576459167,-0.06497287479855417,-0.6293284014033167,-0.09408522025475535,196536.2576459167,-0.8240517437027389,-0.7813069523233899,1.235041592243454,-0.07911280542612076,-0.6142637729644775,-0.05875097587704659,-0.004624703899025917,-0.1180634349584579,0.02601392194628716,XTrueNorthZVertical,-0.3662550932660953,0.4988908853012048,0.5039408185567291,-0.6025021264151391,-0.2320238500833511,-0.9441618919372559,-0.2339301854372025,-4.781314849853516,-31.68570709228516,-31.65177154541016,2,0.0.0.0,10.83.46.32,1,0
2015-03-01 20:10:15.039,54,1425269410.228582,37.76613162383833,-122.4604943054576,86.82802,-1,-1,10,2744.897550734554,-9999,1425269414.981585,-6.341163635253906,-30.92070007324219,-29.38462829589844,358.8708190917969,345.09375,10,196536.3133354167,-0.2429656982421875,-1.059890747070312,-0.2553863525390625,196536.2576459167,-0.06497287479855417,-0.6293284014033167,-0.09408522025475535,196536.2576459167,-0.8240517437027389,-0.7813069523233899,1.235041592243454,-0.07911280542612076,-0.6142637729644775,-0.05875097587704659,-0.004624703899025917,-0.1180634349584579,0.02601392194628716,XTrueNorthZVertical,-0.3662550932660953,0.4988908853012048,0.5039408185567291,-0.6025021264151391,-0.2320238500833511,-0.9441618919372559,-0.2339301854372025,-4.781314849853516,-31.68570709228516,-31.65177154541016,2,0.0.0.0,10.83.46.32,1,0
2015-03-01 20:10:15.098,55,1425269410.228582,37.76613162383833,-122.4604943054576,86.82802,-1,-1,10,2744.897550734554,-9999,1425269415.036594,-7.330162048339844,-31.056640625,-29.15164184570312,0.479853630065918,346.7027893066406,10,196536.3624719583,-0.3025360107421875,-1.081390380859375,-0.2561492919921875,196536.36119925,-0.0399751132265254,-0.3009598400482196,-0.1060894188682875,196536.3094220417,-0.8385313251245891,-0.7904291983821452,1.231536707196123,-0.1201967298984528,-0.3210552632808685,-0.03305312246084213,-0.0009894109098240733,-0.112723782658577,-0.01087976526468992,XTrueNorthZVertical,-0.3589474950384686,0.504074786345067,0.5098162819340011,-0.5976225681599897,-0.2364983856678009,-0.9430013298988342,-0.2341306060552597,-5.570275783538818,-31.55829429626465,-31.65005302429199,2,0.0.0.0,10.83.46.32,1,0
2015-03-01 20:10:15.137,56,1425269410.228582,37.76613162383833,-122.4604943054576,86.82802,-1,-1,10,2744.897550734554,-9999,1425269415.111843,-8.063392639160156,-31.1416015625,-29.56767272949219,2.093440055847168,348.3163757324219,10,196536.4113817083,-0.2589874267578125,-1.05279541015625,-0.3341217041015625,196536.4129765417,-0.05517856725756976,-0.6287094827659823,-0.1393773345976239,196536.36119925,-0.8561328810230888,-0.7889730735571179,1.23293488411719,-0.05411477014422417,-0.2858955562114716,-0.07075585424900055,-0.05184225738048553,-0.1486821323633194,-0.02593017183244228,XTrueNorthZVertical,-0.3554159510188191,0.5068596783425936,0.5148424567983942,-0.5930515008260171,-0.235221341252327,-0.9434657096862793,-0.2335455417633057,-5.995417594909668,-31.4123649597168,-31.71747207641602,2,0.0.0.0,10.83.46.32,1,0
2015-03-01 20:10:15.196,57,1425269410.228582,37.76613162383833,-122.4604943054576,86.82802,-1,-1,10,2744.897550734554,-9999,1425269415.163438,-8.881874084472656,-30.56381225585938,-29.50110626220703,3.975062370300293,350.197998046875,10,196536.460507,-0.1352386474609375,-1.04150390625,-0.2113189697265625,196536.4129765417,-0.05517856725756976,-0.6287094827659823,-0.1393773345976239,196536.4129765417,-0.8713789467788641,-0.7930645357247313,1.231979855967958,-0.06931807100772858,-0.6136453747749329,-0.1040441617369652,-0.02217062562704086,-0.1096467152237892,-0.1009083986282349,XTrueNorthZVertical,-0.3501078218890513,0.5107033001911833,0.520037371597546,-0.588360309750939,-0.236816793680191,-0.943148672580719,-0.2332133054733276,-6.408753395080566,-31.31021881103516,-31.73763847351074,2,0.0.0.0,10.83.46.32,1,0
2015-03-01 20:10:15.235,58,1425269410.228582,37.76613162383833,-122.4604943054576,86.82802,-1,-1,10,2744.897550734554,-9999,1425269415.216253,-9.700363159179688,-30.46186828613281,-28.83544158935547,5.734644889831543,351.9575805664062,10,196536.50953275,-0.24005126953125,-0.9600982666015625,-0.1441497802734375,196536.46475275,0.2145344037207501,-0.5289687736203347,0.07779812597615776,196536.46475275,-0.8590973336289907,-0.8377756185016737,1.235228458796838,0.2003947794437408,-0.513904333114624,0.1131289228796959,0.1094869673252106,-0.09728044271469116,0.009025172330439091,XTrueNorthZVertical,-0.3428649285077025,0.5217964829692714,0.5243142173505008,-0.5790222295964166,-0.2447256147861481,-0.9442234635353088,-0.220344141125679,-7.202576637268066,-31.30324172973633,-31.57387733459473,2,0.0.0.0,10.83.46.32,1,0
2015-03-01 20:10:15.294,59,1425269410.228582,37.76613162383833,-122.4604943054576,86.82802,-1,-1,10,2744.897550734554,-9999,1425269415.267016,-11.18386840820312,-30.88668823242188,-28.02000427246094,7.974696159362793,354.1976318359375,10,196536.5584326667,-0.9117889404296875,-1.137863159179688,-0.0233154296875,196536.5683069583,-0.02585876155245139,-2.090207281579046,1.02037152953623,196536.5165299167,-0.8173801379354741,-0.9134552835198811,1.237461958044657,0.3266913294792175,-1.067331433296204,0.2540867924690247,0.01896340399980545,-0.01514165941625834,0.05577150359749794,XTrueNorthZVertical,-0.3349092449152345,0.5365399843953308,0.525274060218857,-0.5692520304741376,-0.2590146660804749,-0.9449566006660461,-0.1999212801456451,-8.162481307983398,-31.54516792297363,-31.09591293334961,2,0.0.0.0,10.83.46.32,1,0
2015-03-01 20:10:15.333,60,1425269410.228582,37.76613162383833,-122.4604943054576,86.82802,-1,-1,10,2744.897550734554,-9999,1425269415.320481,-13.45175933837891,-30.83572387695312,-26.53889465332031,8.339320182800293,354.562255859375,10,196536.6074424583,-0.4501495361328125,-1.046279907226562,-0.2143096923828125,196536.5683069583,-0.02585876155245139,-2.090207281579046,1.02037152953623,196536.5683069583,-0.7081167884417722,-1.111526310874061,1.217712053463773,-0.03999810293316841,-2.075143098831177,1.055701613426208,-0.540258526802063,-0.1615581214427948,0.04926903545856476,XTrueNorthZVertical,-0.3056674104542295,0.5743895320763354,0.5246304282672044,-0.5490055401231116,-0.3099612295627594,-0.9383106827735901,-0.1532882004976273,-11.14948844909668,-32.06790542602539,-29.59760284423828,2,0.0.0.0,10.83.46.32,1,0
2015-03-01 20:10:15.392,61,1425269410.228582,37.76613162383833,-122.4604943054576,86.82802,-1,-1,10,2744.897550734554,-9999,1425269415.370873,-15.44682312011719,-30.580810546875,-25.59031677246094,6.537013053894043,352.7599487304688,10,196536.6564567917,-0.3291015625,-1.242950439453125,-0.1804962158203125,196536.6200832083,0.4516838387862351,1.098993371237549,0.5377912936795491,196536.6200832083,-0.6461160190049337,-1.180576514628353,1.188762020159915,0.4375446438789368,1.114057421684265,0.5731210708618164,-0.08485841751098633,-0.1651857197284698,-0.08007983863353729,XTrueNorthZVertical,-0.2947692730294087,0.5849823410178272,0.5140821292180876,-0.5537385398506945,-0.3447833061218262,-0.9279081225395203,-0.1418134719133377,-14.51406860351562,-31.65961647033691,-28.56029510498047,2,0.0.0.0,10.83.46.32,1,0
2015-03-01 20:10:15.431,62,1425269410.228582,37.76613162383833,-122.4604943054576,86.82802,-1,-1,10,2744.897550734554,-9999,1425269415.423282,-16.31646728515625,-30.22396850585938,-24.84143829345703,6.149012565612793,352.3719482421875,10,196536.7054545,-0.3957977294921875,-1.025009155273438,-0.1416473388671875,196536.6718605417,0.3586638829675115,-0.1533373587157103,0.5463317849793242,196536.6718605417,-0.5656815508769129,-1.220861091942859,1.17131574425352,0.3445248007774353,-0.1382734924554825,0.5816611647605896,0.03954736515879631,-0.3312698304653168,-0.05920763686299324,XTrueNorthZVertical,-0.3016094322533035,0.585115578362759,0.4948288695514811,-0.5672882599823671,-0.3653682768344879,-0.9212631583213806,-0.1333430260419846,-14.21606159210205,-31.8144416809082,-28.53812599182129,2,0.0.0.0,10.83.46.32,1,0
2015-03-01 20:10:15.490,63,1425269410.228582,37.76613162383833,-122.4604943054576,86.82802,-1,-1,10,2744.897550734554,-9999,1425269415.475399,-16.98149108886719,-29.93510437011719,-24.52523803710938,4.466120719909668,350.6890563964844,10,196536.75446075,-0.4089202880859375,-0.915435791015625,-0.15142822265625,196536.7236377917,0.2696932635862533,-0.2861633170317394,0.3308900422751841,196536.7236377917,-0.5226889136044388,-1.288523532529991,1.149695950604257,0.2555543184280396,-0.2710995972156525,0.3662191033363342,-0.02823398262262344,-0.07211676985025406,-0.04234711453318596,XTrueNorthZVertical,-0.2897131809280091,0.5992810009803269,0.4888485492961185,-0.5638756247915286,-0.3925881683826447,-0.9126396775245667,-0.1138571128249168,-15.50489521026611,-31.83987808227539,-27.82984352111816,2,0.0.0.0,10.83.46.32,1,0
2015-03-01 20:10:15.529,64,1425269410.228582,37.76613162383833,-122.4604943054576,86.82802,-1,-1,10,2744.897550734554,-9999,1425269415.475399,-16.98149108886719,-29.93510437011719,-24.52523803710938,4.466120719909668,350.6890563964844,10,196536.8034679584,-0.3342437744140625,-0.82550048828125,-0.0728302001953125,196536.7754138334,0.3517774810207846,0.5280896641444995,0.1340451534630673,196536.7754138334,-0.4785051961333693,-1.3099635605653,1.144243372627045,0.3376386761665344,0.5431531667709351,0.1693738251924515,0.09183377027511597,0.04211118817329407,-0.04303828626871109,XTrueNorthZVertical,-0.2957796840921044,0.599304824989914,0.4784153862874458,-0.5696199549769844,-0.3997408747673035,-0.9103972911834717,-0.1066962108016014,-16.10371208190918,-31.92549133300781,-27.3881950378418,2,0.0.0.0,10.83.46.32,1,0
2015-03-01 20:10:15.593,65,1425269410.228582,37.76613162383833,-122.4604943054576,86.82802,-1,-1,10,2744.897550734554,-9999,1425269415.578641,-17.97049713134766,-29.86714172363281,-23.69316101074219,2.709956169128418,348.9328918457031,10,196536.8524914167,-0.6010894775390625,-0.92999267578125,0.06036376953125,196536.8271910417,0.4180992469114639,-0.2524487628957722,0.3407815551959564,196536.8271910417,-0.4219308904311561,-1.357435039221753,1.134928861455652,0.4039744138717651,-0.2373856455087662,0.3761170506477356,-0.03482510522007942,0.03345726802945137,0.1055729240179062,XTrueNorthZVertical,-0.2982410989512254,0.6052709663836137,0.4674046390472557,-0.5711674686717381,-0.4126236140727997,-0.9065041542053223,-0.08939860761165619,-15.7780818939209,-32.2197265625,-27.23271942138672,2,0.0.0.0,10.83.46.32,1,0
2015-03-01 20:10:15.627,66,1425269410.228582,37.76613162383833,-122.4604943054576,86.82802,-1,-1,10,2744.897550734554,-9999,1425269415.578641,-17.97049713134766,-29.86714172363281,-23.69316101074219,2.709956169128418,348.9328918457031,10,196536.9016009167,-0.481170654296875,-0.927825927734375,-0.019317626953125,196536.8789684167,0.462500267553592,0.3094966029224686,0.2592392910432563,196536.8789684167,-0.3614144768716319,-1.415780051334356,1.120505234317013,0.4483821392059326,0.3245562613010406,0.2945893704891205,-0.1749409884214401,-0.02312620542943478,0.1069161370396614,XTrueNorthZVertical,-0.2981524786330709,0.6144154509407476,0.4555761345701425,-0.5710071877504923,-0.4300089776515961,-0.9003204703330994,-0.06719750910997391,-16.79977989196777,-32.58502578735352,-26.16606903076172,2,0.0.0.0,10.83.46.32,1,0
2015-03-01 20:10:15.701,67,1425269415.647546,37.76572920555387,-122.4603953828512,85.58482,-1,-1,10,65,-9999,1425269415.631098,-18.29448699951172,-29.986083984375,-23.01084899902344,359.7661437988281,345.9890747070312,10,196536.9505257084,-0.3916168212890625,-0.899993896484375,-0.0212860107421875,196536.9307445833,0.39534972593168,0.633070675367096,0.1386561505744305,196536.9307445833,-0.3109113062537848,-1.429425879323389,1.112812119004973,0.3812317252159119,0.6481301784515381,0.1740058660507202,0.01764050126075745,-0.04441488906741142,0.04323946312069893,XTrueNorthZVertical,-0.3079133463359884,0.6115885265911821,0.4412686689174181,-0.5800266173585613,-0.4377302229404449,-0.896945595741272,-0.06229769065976143,-16.74202346801758,-32.88916778564453,-25.82028579711914,2,0.0.0.0,10.83.46.32,1,0
2015-03-01 20:10:15.726,68,1425269415.647546,37.76572920555387,-122.4603953828512,85.58482,-1,-1,10,65,-9999,1425269415.682803,-18.37974548339844,-30.10502624511719,-22.46167755126953,357.8072204589844,344.0301513671875,10,196536.9996393333,-0.5244140625,-0.8513946533203125,0.0476837158203125,196536.9825217917,0.2696610393370634,0.1008989179037231,0.1425302510121688,196536.9825217917,-0.2735765764878568,-1.446503706708673,1.107290420144823,0.2555432021617889,0.1159582585096359,0.1778795719146729,-0.009898994117975235,0.0503590852022171,0.09461121261119843,XTrueNorthZVertical,-0.313715465018985,0.611448513252061,0.43168571035486,-0.5842609347265567,-0.4436379969120026,-0.8944905400276184,-0.05542664602398872,-16.26130676269531,-33.28078842163086,-25.62496566772461,2,0.0.0.0,10.83.46.32,1,0
2015-03-01 20:10:15.793,69,1425269415.647546,37.76572920555387,-122.4603953828512,85.58482,-1,-1,10,65,-9999,1425269415.78682,-18.31153106689453,-31.09062194824219,-22.26197052001953,354.6310729980469,340.85400390625,10,196537.048553625,-0.5534210205078125,-0.85137939453125,0.0913543701171875,196537.0342989583,0.1419462197851144,0.08898340255449057,0.04398024118989556,196537.0342989583,-0.2413609866614143,-1.475689361309258,1.096579834594697,0.1278561800718307,0.1040307208895683,0.07938050478696823,-0.121914304792881,0.007067158818244934,0.113753154873848,XTrueNorthZVertical,-0.3137492322672345,0.6163434419073442,0.4240976462264335,-0.5846566830688684,-0.4545780122280121,-0.8896507620811462,-0.04336436092853546,-16.67156219482422,-33.43875503540039,-25.15131187438965,2,0.0.0.0,10.83.46.32,1,0
2015-03-01 20:10:15.823,70,1425269415.647546,37.76572920555387,-122.4603953828512,85.58482,-1,-1,10,65,-9999,1425269415.78682,-18.31153106689453,-31.09062194824219,-22.26197052001953,354.6310729980469,340.85400390625,10,196537.0976764583,-0.54150390625,-0.8398590087890625,0.0517425537109375,196537.0860754584,0.07046085085688045,0.3107850402578489,-0.1535341663202672,196537.0342989583,-0.2413609866614143,-1.475689361309258,1.096579834594697,0.1278561800718307,0.1040307208895683,0.07938050478696823,-0.121914304792881,0.007067158818244934,0.113753154873848,XTrueNorthZVertical,-0.3137492322672345,0.6163434419073442,0.4240976462264335,-0.5846566830688684,-0.4545780122280121,-0.8896507620811462,-0.04336436092853546,-16.67156219482422,-33.43875503540039,-25.15131187438965,2,0.0.0.0,10.83.46.32,1,0
2015-03-01 20:10:15.894,71,1425269415.647546,37.76572920555387,-122.4603953828512,85.58482,-1,-1,10,65,-9999,1425269415.838626,-17.79998016357422,-31.2265625,-22.16211700439453,351.3120727539062,337.5350036621094,10,196537.1466141667,-0.528350830078125,-0.940338134765625,0.0181121826171875,196537.1378525,-0.03015736986794829,0.2854543835495603,-0.2615799433253269,196537.1378525,-0.2002881965178925,-1.490821367063119,1.095434436771338,-0.04415856301784515,0.3004717528820038,-0.2260525524616241,-0.09009759128093719,-0.05278263241052628,0.05273668467998505,XTrueNorthZVertical,-0.3228354983661679,0.6144070781109809,0.414151610787041,-0.5888630540003826,-0.4561975598335266,-0.8891271352767944,-0.03656236827373505,-16.3568286895752,-33.85243988037109,-24.80214309692383,2,0.0.0.0,10.83.46.32,1,0
2015-03-01 20:10:15.922,72,1425269415.647546,37.76572920555387,-122.4603953828512,85.58482,-1,-1,10,65,-9999,1425269415.890488,-17.10086059570312,-30.7337646484375,-22.47831726074219,350.0950012207031,336.3179321289062,10,196537.1957057917,-0.4128265380859375,-0.8633880615234375,-0.0250396728515625,196537.1896299583,-0.1136141805283064,0.2523289206467186,-0.5015661775839643,196537.1378525,-0.2002881965178925,-1.490821367063119,1.095434436771338,-0.04415856301784515,0.3004717528820038,-0.2260525524616241,-0.09009759128093719,-0.05278263241052628,0.05273668467998505,XTrueNorthZVertical,-0.3228354983661679,0.6144070781109809,0.414151610787041,-0.5888630540003826,-0.4561975598335266,-0.8891271352767944,-0.03656236827373505,-16.3568286895752,-33.85243988037109,-24.80214309692383,2,0.0.0.0,10.83.46.32,1,0
2015-03-01 20:10:15.990,73,1425269415.647546,37.76572920555387,-122.4603953828512,85.58482,-1,-1,10,65,-9999,1425269415.942137,-16.31648254394531,-31.1416015625,-22.84442901611328,349.8278503417969,336.05078125,10,196537.2446872084,-0.4062957763671875,-0.90985107421875,-0.0860443115234375,196537.241406125,-0.1686510676158839,0.02044002768246716,-0.4430155157541362,196537.1896299583,-0.2101710049070825,-1.467163013253971,1.112670405765772,-0.1275376528501511,0.2673923969268799,-0.4660995006561279,0.004546869546175003,0.01674070581793785,0.04637733101844788,XTrueNorthZVertical,-0.3304442424698639,0.6065729481629536,0.417778086619422,-0.5902011531998209,-0.4398953914642334,-0.8968828916549683,-0.04575172066688538,-15.75293827056885,-34.02127456665039,-24.96152114868164,2,0.0.0.0,10.83.46.32,1,0
2015-03-01 20:10:16.021,74,1425269415.647546,37.76572920555387,-122.4603953828512,85.58482,-1,-1,10,65,-9999,1425269415.993925,-15.31041717529297,-31.39651489257812,-23.09406280517578,351.0662536621094,337.2891845703125,10,196537.2937125,-0.2205047607421875,-0.9633636474609375,-0.2671051025390625,196537.241406125,-0.1686510676158839,0.02044002768246716,-0.4430155157541362,196537.241406125,-0.2350907683777139,-1.439448671899279,1.134316710789623,-0.1825709939002991,0.03550318628549576,-0.4075492322444916,-2.706233999560936e-06,-0.006062215194106102,0.02407217212021351,XTrueNorthZVertical,-0.3360066956009407,0.5995127407502308,0.4260725845233761,-0.5883419045329153,-0.4191104471683502,-0.9062455296516418,-0.05536794662475586,-14.78886699676514,-34.19452667236328,-25.3121223449707,2,0.0.0.0,10.83.46.32,1,0
2015-03-01 20:10:16.093,75,1425269415.647546,37.76572920555387,-122.4603953828512,85.58482,-1,-1,10,65,-9999,1425269416.045538,-14.270263671875,-31.92329406738281,-22.87771606445312,350.99951171875,337.2224426269531,10,196537.3427537917,-0.3594207763671875,-0.9668121337890625,-0.0271453857421875,196537.344960625,-0.1507540924583335,-0.2706293647094162,-0.2032900049662176,196537.2931835,-0.2536229756521898,-1.409765168216201,1.153690156123693,-0.05645365640521049,0.2993616163730621,-0.3789704442024231,0.1595342010259628,-0.0218463446944952,-0.182710587978363,XTrueNorthZVertical,-0.343388511167423,0.5912756731559846,0.4312840821668591,-0.5886183134459988,-0.3998753726482391,-0.9142650961875916,-0.06495481729507446,-13.69776439666748,-34.32954406738281,-25.73972129821777,2,0.0.0.0,10.83.46.32,1,0
2015-03-01 20:10:16.118,76,1425269415.647546,37.76572920555387,-122.4603953828512,85.58482,-1,-1,10,65,-9999,1425269416.098095,-13.40061950683594,-32.51806640625,-23.75971984863281,352.7446594238281,338.9675903320312,10,196537.3918635,-0.2957305908203125,-0.989837646484375,-0.0897216796875,196537.344960625,-0.1507540924583335,-0.2706293647094162,-0.2032900049662176,196537.344960625,-0.2774540099946337,-1.389011726630414,1.166223493436625,-0.1646830439567566,-0.2555646300315857,-0.1678308993577957,0.02771957777440548,-0.04754151031374931,0.04401636123657227,XTrueNorthZVertical,-0.3451414857286791,0.5876193330452371,0.4377112959964682,-0.5865064069044149,-0.3871403634548187,-0.9192706346511841,-0.07116174697875977,-12.95261669158936,-34.42564392089844,-25.99585723876953,2,0.0.0.0,10.83.46.32,1,0
2015-03-01 20:10:16.190,77,1425269415.647546,37.76572920555387,-122.4603953828512,85.58482,-1,-1,10,65,-9999,1425269416.149048,-13.11073303222656,-32.50106811523438,-23.90950012207031,353.1023864746094,339.3253173828125,10,196537.4407792084,-0.0734710693359375,-0.9874725341796875,-0.1715545654296875,196537.4485142083,0.1493655202659661,0.2741721679075486,-0.02431466075242344,196537.396737125,-0.2812391265458493,-1.390402408045128,1.171516890968263,0.1164590194821358,0.1666240394115448,-0.1202794387936592,0.08671584725379944,-0.06849629431962967,-0.01997242867946625,XTrueNorthZVertical,-0.3455330403014383,0.5879900447224009,0.4403024290572183,-0.5839593017120891,-0.3824464380741119,-0.9213413596153259,-0.06974925100803375,-12.96248722076416,-34.36606216430664,-26.06966781616211,2,0.0.0.0,10.83.46.32,1,0
2015-03-01 20:10:16.215,78,1425269415.647546,37.76572920555387,-122.4603953828512,85.58482,-1,-1,10,65,-9999,1425269416.201346,-12.88906097412109,-32.31416320800781,-23.89286804199219,354.573974609375,340.7969055175781,10,196537.4897930833,-0.2912139892578125,-0.9332122802734375,-0.10198974609375,196537.4485142083,0.1493655202659661,0.2741721679075486,-0.02431466075242344,196537.4485142083,-0.2629804905738078,-1.389678940856373,1.176218466829667,0.1354368329048157,0.2892366349697113,0.01114376820623875,0.3046596944332123,-0.064313605427742,-0.1023096889257431,XTrueNorthZVertical,-0.3526437003551308,0.5839691627359838,0.4359373386111688,-0.5870103441169069,-0.3781307637691498,-0.9231589436531067,-0.0692448765039444,-12.42488288879395,-34.62763214111328,-25.98517417907715,2,0.0.0.0,10.83.46.32,1,0
2015-03-01 20:10:16.289,79,1425269415.647546,37.76572920555387,-122.4603953828512,85.58482,-1,-1,10,65,-9999,1425269416.252788,-12.957275390625,-32.45010375976562,-23.79301452636719,356.0384826660156,342.2614135742188,10,196537.5388125,-0.4541778564453125,-0.9243621826171875,0.01531982421875,196537.5002916667,-0.04548119878026422,-0.5725495406467184,0.2188109077991994,196537.5002916667,-0.2605814267042151,-1.401411962398067,1.16882820728151,-0.0594097264111042,-0.5574852228164673,0.2542689442634583,-0.004947715904563665,-0.002009457210078835,-0.01708642952144146,XTrueNorthZVertical,-0.3482804068289804,0.5879836798105997,0.4355335045720108,-0.5859066364302526,-0.3856315016746521,-0.9202927947044373,-0.06595189869403839,-12.40100574493408,-34.67422485351562,-25.93440055847168,2,0.0.0.0,10.83.46.32,1,0
2015-03-01 20:10:16.315,80,1425269415.647546,37.76572920555387,-122.4603953828512,85.58482,-1,-1,10,65,-9999,1425269416.305144,-13.36651611328125,-32.51806640625,-23.79302215576172,354.8847351074219,341.107666015625,10,196537.5879328334,-0.3121795654296875,-0.974700927734375,-0.1321868896484375,196537.552067875,0.1276892532054842,0.2208221270544272,0.1458738497607633,196537.552067875,-0.2537891361793383,-1.418451975252806,1.157176517217865,0.1137608662247658,0.2358862906694412,0.181331530213356,-0.003332677530124784,-0.02941169030964375,0.04359966143965721,XTrueNorthZVertical,-0.3426404098083368,0.5933803234310128,0.4336721031667448,-0.5851716995793442,-0.3972715735435486,-0.9156719446182251,-0.06099468097090721,-13.32348918914795,-34.47786712646484,-25.7379322052002,2,0.0.0.0,10.83.46.32,1,0
2015-03-01 20:10:16.391,81,1425269415.647546,37.76572920555387,-122.4603953828512,85.58482,-1,-1,10,65,-9999,1425269416.356172,-13.40062713623047,-32.58602905273438,-23.72644805908203,354.3597106933594,340.5826416015625,10,196537.6368440833,-0.4557647705078125,-0.90618896484375,-0.004058837890625,196537.6038452917,0.1299068674451932,0.0491571600329006,0.04011439655153654,196537.6038452917,-0.2346726801793621,-1.422739425108449,1.153484342201567,0.1159785985946655,0.06422118097543716,0.07557176053524017,0.09032367169857025,-0.04054546728730202,-0.06823207437992096,XTrueNorthZVertical,-0.3461374452933464,0.5918566426518371,0.4278914847840647,-0.5889002721058496,-0.4008705317974091,-0.9141817092895508,-0.05978916585445404,-13.31943130493164,-34.52974319458008,-25.67040061950684,2,0.0.0.0,10.83.46.32,1,0
2015-03-01 20:10:16.411,82,1425269415.647546,37.76572920555387,-122.4603953828512,85.58482,-1,-1,10,65,-9999,1425269416.408034,-13.58819580078125,-32.67098999023438,-23.77635955810547,353.5576171875,339.7805480957031,10,196537.68584325,-0.45269775390625,-0.9154815673828125,-0.04290771484375,196537.6556224583,0.04932999918764674,-0.2299975159580772,0.03507436418856158,196537.6556224583,-0.2246025757962419,-1.439551225880587,1.149149569253742,0.03540187701582909,-0.2149336487054825,0.07053137570619583,-0.07460276782512665,0.01713728904724121,0.07045125961303711,XTrueNorthZVertical,-0.3440832754609965,0.5956734076441795,0.4267489657428312,-0.5870820052883508,-0.4057439267635345,-0.9124162197113037,-0.05355978012084961,-13.50089645385742,-34.59185409545898,-25.49135971069336,2,0.0.0.0,10.83.46.32,1,0
2015-03-01 20:10:16.492,83,1425269415.647546,37.76572920555387,-122.4603953828512,85.58482,-1,-1,10,65,-9999,1425269416.459188,-13.57114410400391,-32.65400695800781,-23.62657928466797,352.4804077148438,338.7033386230469,10,196537.73485775,-0.3416900634765625,-0.925445556640625,-0.03173828125,196537.7073989167,0.0100728741910067,0.1640414020850658,0.04354534698388562,196537.7073989167,-0.2231182780378722,-1.44050006107776,1.144485658550795,-0.00385509617626667,0.1791051030158997,0.07900197058916092,-0.01287260372191668,-0.02955068275332451,-0.03890901803970337,XTrueNorthZVertical,-0.3427667843915574,0.5963617907752752,0.4252983544779795,-0.5882048328787051,-0.4100094735622406,-0.9104975461959839,-0.05372709035873413,-13.8317985534668,-34.56330490112305,-25.35230255126953,2,0.0.0.0,10.83.46.32,1,0
2015-03-01 20:10:16.512,84,1425269415.647546,37.76572920555387,-122.4603953828512,85.58482,-1,-1,10,65,-9999,1425269416.459188,-13.57114410400391,-32.65400695800781,-23.62657928466797,352.4804077148438,338.7033386230469,10,196537.7840037083,-0.5347900390625,-0.8358306884765625,-0.0198974609375,196537.7591760833,-0.05719298230610569,-0.08253375902653666,0.04010534180383027,196537.7591760833,-0.2166043612039259,-1.439815011739644,1.144365108142821,-0.07110097259283066,-0.06747099012136459,0.07555048167705536,0.02919149957597256,-0.008818068541586399,0.04248664528131485,XTrueNorthZVertical,-0.344812083552343,0.5950575446103619,0.4232316865782808,-0.5898187474445404,-0.4100813865661621,-0.9104476571083069,-0.05402228981256485,-13.67812824249268,-34.52581405639648,-25.48640441894531,2,0.0.0.0,10.83.46.32,1,0
2015-03-01 20:10:16.592,85,1425269415.647546,37.76572920555387,-122.4603953828512,85.58482,-1,-1,10,65,-9999,1425269416.563228,-13.07664489746094,-32.56904602050781,-23.60993194580078,350.2577514648438,336.4806823730469,10,196537.8328958334,-0.47467041015625,-0.9636383056640625,-0.054595947265625,196537.8109535417,-0.004523911743717602,0.1442764857389337,0.07587372577246651,196537.8109535417,-0.2199884391669812,-1.44281115155543,1.129061452892782,-0.01844628155231476,0.1593293398618698,0.1113844811916351,-0.1407462507486343,0.06285534799098969,-0.009170448407530785,XTrueNorthZVertical,-0.3380571986981771,0.5986940569488889,0.4208497833810514,-0.5917501889589115,-0.4240120351314545,-0.9040113687515259,-0.05456551164388657,-13.90790939331055,-34.50187301635742,-25.39430046081543,2,0.0.0.0,10.83.46.32,1,0
2015-03-01 20:10:16.607,86,1425269415.647546,37.76572920555387,-122.4603953828512,85.58482,-1,-1,10,65,-9999,1425269416.563228,-13.07664489746094,-32.56904602050781,-23.60993194580078,350.2577514648438,336.4806823730469,10,196537.8818993334,-0.337249755859375,-0.8729705810546875,-0.1479339599609375,196537.8627297917,0.05327307549761805,0.3149648715887283,-0.1010110369856154,196537.8109535417,-0.2199884391669812,-1.44281115155543,1.129061452892782,-0.01844628155231476,0.1593293398618698,0.1113844811916351,-0.1407462507486343,0.06285534799098969,-0.009170448407530785,XTrueNorthZVertical,-0.3380571986981771,0.5986940569488889,0.4208497833810514,-0.5917501889589115,-0.4240120351314545,-0.9040113687515259,-0.05456551164388657,-13.90790939331055,-34.50187301635742,-25.39430046081543,2,0.0.0.0,10.83.46.32,1,0
2015-03-01 20:10:16.690,87,1425269415.647546,37.76572920555387,-122.4603953828512,85.58482,-1,-1,10,65,-9999,1425269416.666263,-13.24716949462891,-32.77294921875,-23.47679138183594,349.4104309082031,335.6333618164062,10,196537.9309304167,-0.4474334716796875,-0.9030303955078125,0.0084381103515625,196537.91450725,0.01224601364051136,0.001733451553532576,-0.04043184535347399,196537.91450725,-0.2256758344241251,-1.412503005053272,1.135772037145626,-0.001700361142866313,0.0167978573590517,-0.004962285980582237,-0.03169699013233185,-0.01611382700502872,0.02700301259756088,XTrueNorthZVertical,-0.3449896867636232,0.589717097078574,0.4190572321068563,-0.5980024810828644,-0.4161637425422668,-0.906859815120697,-0.06643172353506088,-13.43513584136963,-34.35367584228516,-25.84573173522949,2,0.0.0.0,10.83.46.32,1,0
2015-03-01 20:10:16.705,88,1425269415.647546,37.76572920555387,-122.4603953828512,85.58482,-1,-1,10,65,-9999,1425269416.666263,-13.24716949462891,-32.77294921875,-23.47679138183594,349.4104309082031,335.6333618164062,10,196537.979942625,-0.37469482421875,-0.9356536865234375,0.0377044677734375,196537.9662844167,0.02176921138252571,0.4428650471525468,-0.1262008124722389,196537.9662844167,-0.2277316213634214,-1.396575303333337,1.138612383558378,0.007822961546480656,0.4579293131828308,-0.09073156863451004,-0.02056054398417473,-5.841174061060883e-05,0.1165195554494858,XTrueNorthZVertical,-0.3486811281918341,0.584909471162288,0.4176136449495245,-0.6015823257558848,-0.4125144183635712,-0.9080531597137451,-0.07260476052761078,-13.24833488464355,-34.36135864257812,-25.93180847167969,2,0.0.0.0,10.83.46.32,1,0
2015-03-01 20:10:16.790,89,1425269415.647546,37.76572920555387,-122.4603953828512,85.58482,-1,-1,10,65,-9999,1425269416.770156,-11.74660491943359,-33.04483032226562,-23.70977020263672,346.7020568847656,332.9249877929688,10,196538.028959,-0.32879638671875,-0.992431640625,-0.161956787109375,196538.0180609583,-0.03793140340599859,0.5625200759814799,-0.1511325276492337,196537.9662844167,-0.2277316213634214,-1.396575303333337,1.138612383558378,0.007822961546480656,0.4579293131828308,-0.09073156863451004,-0.02056054398417473,-5.841174061060883e-05,0.1165195554494858,XTrueNorthZVertical,-0.3486811281918341,0.584909471162288,0.4176136449495245,-0.6015823257558848,-0.4125144183635712,-0.9080531597137451,-0.07260476052761078,-13.24833488464355,-34.36135864257812,-25.93180847167969,2,0.0.0.0,10.83.46.32,1,0
2015-03-01 20:10:16.804,90,1425269415.647546,37.76572920555387,-122.4603953828512,85.58482,-1,-1,10,65,-9999,1425269416.770156,-11.74660491943359,-33.04483032226562,-23.70977020263672,346.7020568847656,332.9249877929688,10,196538.07796975,-0.3461761474609375,-0.9414520263671875,-0.1160125732421875,196538.06983825,-0.1025181198464913,0.07646175174115601,-0.1852281801371912,196538.0180609583,-0.2290002661984701,-1.367142439402995,1.143156971413432,-0.05187750980257988,0.5775842070579529,-0.1156636402010918,0.06711838394403458,-0.08794698864221573,0.04011533781886101,XTrueNorthZVertical,-0.355985131885664,0.5756177666029407,0.4139154689845039,-0.6087797852303339,-0.4061534106731415,-0.9099472761154175,-0.08387754857540131,-12.56807136535645,-34.42954254150391,-26.17880630493164,2,0.0.0.0,10.83.46.32,1,0
2015-03-01 20:10:16.896,91,1425269415.647546,37.76572920555387,-122.4603953828512,85.58482,-1,-1,10,65,-9999,1425269416.874155,-10.53591918945312,-32.41609191894531,-25.52369689941406,347.2922058105469,333.51513671875,10,196538.1269738333,-0.2451324462890625,-0.9728240966796875,-0.1553192138671875,196538.121615625,-0.2005714501254647,0.03822674797088838,-0.2440241191034156,196538.121615625,-0.2678153873064902,-1.311521193931017,1.155185843579007,-0.2145172655582428,0.05329054966568947,-0.2085559666156769,0.08135487884283066,-0.0789196640253067,-0.04149119555950165,XTrueNorthZVertical,-0.3606819965639765,0.564049606826114,0.4186057118933819,-0.6136170353620641,-0.3902538120746613,-0.914870023727417,-0.1035130769014359,-11.18844413757324,-34.35333251953125,-26.89511299133301,2,0.0.0.0,10.83.46.32,1,0
2015-03-01 20:10:16.902,92,1425269415.647546,37.76572920555387,-122.4603953828512,85.58482,-1,-1,10,65,-9999,1425269416.874155,-10.53591918945312,-32.41609191894531,-25.52369689941406,347.2922058105469,333.51513671875,10,196538.1759790417,-0.4415130615234375,-0.9155120849609375,-0.0069427490234375,196538.121615625,-0.2005714501254647,0.03822674797088838,-0.2440241191034156,196538.121615625,-0.2678153873064902,-1.311521193931017,1.155185843579007,-0.2145172655582428,0.05329054966568947,-0.2085559666156769,0.08135487884283066,-0.0789196640253067,-0.04149119555950165,XTrueNorthZVertical,-0.3606819965639765,0.564049606826114,0.4186057118933819,-0.6136170353620641,-0.3902538120746613,-0.914870023727417,-0.1035130769014359,-11.18844413757324,-34.35333251953125,-26.89511299133301,2,0.0.0.0,10.83.46.32,1,0
2015-03-01 20:10:17.006,93,1425269415.647546,37.76572920555387,-122.4603953828512,85.58482,-1,-1,10,65,-9999,1425269416.976835,-9.956153869628906,-32.34809875488281,-26.08952331542969,348.2629089355469,334.48583984375,10,196538.2249975417,-0.32098388671875,-0.9065093994140625,-0.220794677734375,196538.2251694167,-0.09740538318575714,0.4352910170123614,-0.275027575249682,196538.1733920834,-0.296378954983696,-1.29156381071404,1.159465689981602,-0.1234775111079216,-0.1623486578464508,-0.1066421791911125,0.003331027692183852,-0.02524388954043388,0.0540631078183651,XTrueNorthZVertical,-0.3583554678773883,0.5625666739707827,0.4247150323436355,-0.6121415743139307,-0.3843429982662201,-0.916589617729187,-0.1102001890540123,-10.91266632080078,-34.18275833129883,-27.22374725341797,2,0.0.0.0,10.83.46.32,1,0
2015-03-01 20:10:17.010,94,1425269415.647546,37.76572920555387,-122.4603953828512,85.58482,-1,-1,10,65,-9999,1425269416.976835,-9.956153869628906,-32.34809875488281,-26.08952331542969,348.2629089355469,334.48583984375,10,196538.2740060417,-0.1793212890625,-0.9307861328125,-0.10833740234375,196538.2769465834,-0.09087930693451797,-0.01094292891913559,-0.1035338494862475,196538.2251694167,-0.3117155683846363,-1.267203596470725,1.166559204011944,-0.1112856045365334,0.4503862857818604,-0.2396144419908524,0.05434678867459297,0.01289331819862127,-0.1032121479511261,XTrueNorthZVertical,-0.361773362401216,0.5570716024108776,0.4265424440738981,-0.6138834394004482,-0.3753306865692139,-0.9194027185440063,-0.1175825297832489,-10.66608619689941,-34.0766487121582,-27.45352935791016,2,0.0.0.0,10.83.46.32,1,0
2015-03-01 20:10:17.062,95,1425269415.647546,37.76572920555387,-122.4603953828512,85.58482,-1,-1,10,65,-9999,1425269417.030134,-9.239974975585938,-32.28012084960938,-26.68862915039062,348.6590270996094,334.8819580078125,10,196538.323037875,-0.393707275390625,-0.9562530517578125,-0.1265716552734375,196538.2769465834,-0.09087930693451797,-0.01094292891913559,-0.1035338494862475,196538.2769465834,-0.3374115077878502,-1.22701802252322,1.172094284155939,-0.1047593876719475,0.004152195528149605,-0.06812108308076859,0.1861856728792191,-0.009220466017723083,0.02251177467405796,XTrueNorthZVertical,-0.3652503307854357,0.5487873970278135,0.4282824985459214,-0.6180604823851727,-0.3655069470405579,-0.9215656518936157,-0.1308491826057434,-9.796140670776367,-34.00300216674805,-27.86595344543457,2,0.0.0.0,10.83.46.32,1,0
2015-03-01 20:10:17.102,96,1425269415.647546,37.76572920555387,-122.4603953828512,85.58482,-1,-1,10,65,-9999,1425269417.080485,-9.359336853027344,-32.22915649414062,-26.57213592529297,349.4905090332031,335.7134399414062,10,196538.372050125,-0.2258148193359375,-0.9691009521484375,-0.1801910400390625,196538.3287230417,0.02641083484642481,-0.2893005207958527,0.1210140399332006,196538.3287230417,-0.3371275908612936,-1.240136736709413,1.167776899130415,0.01253087725490332,-0.2742055356502533,0.1564264893531799,-0.02275546081364155,-0.03637207671999931,0.000762009818572551,XTrueNorthZVertical,-0.3609515490804024,0.5532152805890588,0.4297135866698268,-0.6156404272730495,-0.3709518015384674,-0.9198809862136841,-0.1273336708545685,-9.795766830444336,-33.90304565429688,-27.98760604858398,2,0.0.0.0,10.83.46.32,1,0
2015-03-01 20:10:17.197,97,1425269415.647546,37.76572920555387,-122.4603953828512,85.58482,-1,-1,10,65,-9999,1425269417.188171,-10.67233276367188,-32.28012084960938,-26.05625915527344,350.5880737304688,336.8110046386719,10,196538.4210765417,-0.371337890625,-0.836669921875,-0.09649658203125,196538.4322777083,-0.1569201093301939,-0.4134554929186927,0.3360927937807629,196538.380500375,-0.3361894036660787,-1.247761967292904,1.161598625640011,-0.06137010455131531,-0.04490671679377556,0.1018414497375488,0.1514793336391449,-0.05166061967611313,-0.05388789996504784,XTrueNorthZVertical,-0.3573406774731189,0.5560180487748878,0.4295435315802684,-0.6153405511255794,-0.3772941529750824,-0.9174403548240662,-0.1263031363487244,-10.44861030578613,-33.80169296264648,-27.87385177612305,2,0.0.0.0,10.83.46.32,1,0
2015-03-01 20:10:17.200,98,1425269415.647546,37.76572920555387,-122.4603953828512,85.58482,-1,-1,10,65,-9999,1425269417.188171,-10.67233276367188,-32.28012084960938,-26.05625915527344,350.5880737304688,336.8110046386719,10,196538.470089375,-0.3790283203125,-0.9131011962890625,-0.186859130859375,196538.4322777083,-0.1569201093301939,-0.4134554929186927,0.3360927937807629,196538.4322777083,-0.3431403125010714,-1.254494605897143,1.148741562701521,-0.1707997769117355,-0.3983608186244965,0.3715045154094696,-0.03887731954455376,0.09784181416034698,0.02935060486197472,XTrueNorthZVertical,-0.3493027126319679,0.5606052029106913,0.4302441115507554,-0.6153043926510471,-0.3893148303031921,-0.9122491478919983,-0.1274188458919525,-10.834885597229,-33.61219787597656,-27.95541572570801,2,0.0.0.0,10.83.46.32,1,0
2015-03-01 20:10:17.263,99,1425269415.647546,37.76572920555387,-122.4603953828512,85.58482,-1,-1,10,65,-9999,1425269417.188171,-10.67233276367188,-32.28012084960938,-26.05625915527344,350.5880737304688,336.8110046386719,10,196538.5191035834,-0.30078125,-0.7928009033203125,-0.2309722900390625,196538.484054375,-0.2113657746557739,-0.1307641390000897,0.5003033065950487,196538.484054375,-0.3493310307728367,-1.257123736585931,1.123097434653729,-0.2252656221389771,-0.1156628057360649,0.5357024073600769,0.1143001914024353,-0.02226043492555618,-0.03863993659615517,XTrueNorthZVertical,-0.3376826116675631,0.5649646676902826,0.427313900607073,-0.6198292330225416,-0.4117702841758728,-0.9014456272125244,-0.1335707604885101,-11.8629264831543,-33.2208137512207,-28.00586318969727,2,0.0.0.0,10.83.46.32,1,0
2015-03-01 20:10:17.300,100,1425269415.647546,37.76572920555387,-122.4603953828512,85.58482,-1,-1,10,65,-9999,1425269417.261956,-11.96826171875,-31.05661010742188,-26.08954620361328,348.2373962402344,334.4603271484375,10,196538.56811575,-0.2917938232421875,-0.830535888671875,-0.1033477783203125,196538.5358315417,-0.414438465677041,-0.2171602805555683,0.9480967996608961,196538.5358315417,-0.3656893131311543,-1.250382173621947,1.079984356326231,-0.4283381700515747,-0.2020590901374817,0.9834955930709839,0.1355857700109482,0.07834630459547043,-0.03771867603063583,XTrueNorthZVertical,-0.3186596817905291,0.5694111900589802,0.4223364197702815,-0.6291732051627408,-0.4473533630371094,-0.8819504380226135,-0.1484538018703461,-13.21737861633301,-32.17393493652344,-28.61500549316406,2,0.0.0.0,10.83.46.32,1,0
2015-03-01 20:10:17.364,101,1425269415.647546,37.76572920555387,-122.4603953828512,85.58482,-1,-1,10,65,-9999,1425269417.314132,-14.25321197509766,-29.66316223144531,-26.48894500732422,349.28759765625,335.5105285644531,10,196538.6172040417,-0.4362030029296875,-0.7600555419921875,-0.19195556640625,196538.5876090833,-0.6199554059467828,-0.5173821586657269,1.276526081088847,196538.5876090833,-0.3851762798306579,-1.257554263618258,1.017684911651952,-0.6338545083999634,-0.5022810101509094,1.311923265457153,0.2023498862981796,0.06073296815156937,0.03086788393557072,XTrueNorthZVertical,-0.2883996450399729,0.5795564865497084,0.4164158204385839,-0.6383869186079848,-0.4997742176055908,-0.8508940935134888,-0.1618798524141312,-15.11917114257812,-30.86678695678711,-29.10896682739258,2,0.0.0.0,10.83.46.32,1,0
2015-03-01 20:10:17.405,102,1425269415.647546,37.76572920555387,-122.4603953828512,85.58482,-1,-1,10,65,-9999,1425269417.367052,-16.84508514404297,-27.72592163085938,-27.15460968017578,346.5028991699219,332.725830078125,10,196538.6661669167,-0.433624267578125,-0.6910247802734375,-0.2067108154296875,196538.6393854583,-0.7999195818733233,0.01356987101838975,1.520319037809644,196538.6393854583,-0.4050385287944991,-1.249746295891227,0.9357545353977258,-0.8138185143470764,0.02867086417973042,1.555715799331665,0.1191905587911606,0.01477896142750978,0.05893021076917648,XTrueNorthZVertical,-0.2532778615046273,0.5850235291438761,0.404034533437669,-0.6560136894393696,-0.5629009008407593,-0.8050469160079956,-0.1871955841779709,-17.50531578063965,-29.00373268127441,-29.68210411071777,2,0.0.0.0,10.83.46.32,1,0
2015-03-01 20:10:17.463,103,1425269415.647546,37.76572920555387,-122.4603953828512,85.58482,-1,-1,10,65,-9999,1425269417.422577,-19.2493896484375,-24.99002075195312,-28.13646697998047,342.6160583496094,328.8389892578125,10,196538.7151785417,-0.414520263671875,-0.8041534423828125,-0.2822723388671875,196538.6911629167,-0.8136266056878522,0.4892019195910534,1.957254823111238,196538.6911629167,-0.4209303588837967,-1.217644689626287,0.8407898738473949,-0.8275253772735596,0.5043027400970459,1.992651224136353,0.2220791876316071,0.04350994154810905,-0.08658722788095474,XTrueNorthZVertical,-0.218327666280931,0.5805269432744403,0.3847100176055576,-0.683607906877217,-0.6257199645042419,-0.7451701164245605,-0.2306429892778397,-19.7769603729248,-25.77821159362793,-31.19351768493652,2,0.0.0.0,10.83.46.32,1,0
2015-03-01 20:10:17.505,104,1425269415.647546,37.76572920555387,-122.4603953828512,85.58482,-1,-1,10,65,-9999,1425269417.422577,-19.2493896484375,-24.99002075195312,-28.13646697998047,342.6160583496094,328.8389892578125,10,196538.7641885834,-0.6982269287109375,-0.7982177734375,-0.179107666015625,196538.7429401667,-0.8540906752905162,0.2985510108422429,2.161523273461951,196538.7429401667,-0.422984301159839,-1.198288416284511,0.7252594056515356,-0.8679893612861633,0.3136517405509949,2.196919441223145,0.1755056530237198,-0.1976170688867569,0.1500259190797806,XTrueNorthZVertical,-0.175736586860709,0.5770085228071395,0.3576712824428811,-0.7129159418083568,-0.6970052719116211,-0.6633296012878418,-0.2723556458950043,-21.35907936096191,-22.67793273925781,-32.52969741821289,2,0.0.0.0,10.83.46.32,1,0
2015-03-01 20:10:17.565,105,1425269415.647546,37.76572920555387,-122.4603953828512,85.58482,-1,-1,10,65,-9999,1425269417.547543,-22.26755523681641,-14.81106567382812,-30.91563415527344,331.8707275390625,318.0936584472656,10,196538.8133675417,-0.6611785888671875,-0.681793212890625,-0.3043975830078125,196538.794716625,-0.9729752516160893,0.8562100188860012,2.134203235419373,196538.794716625,-0.4256121073935616,-1.163957372529267,0.6074271678908394,-0.9868737459182739,0.8713105320930481,2.169598817825317,0.05928746983408928,-0.1030713766813278,0.04826658219099045,XTrueNorthZVertical,-0.1334163977050243,0.5654539955569095,0.329041104510884,-0.744441982290601,-0.7540964484214783,-0.570756733417511,-0.3249236941337585,-22.82796096801758,-19.19468307495117,-33.75096893310547,2,0.0.0.0,10.83.46.32,1,0
2015-03-01 20:10:17.610,106,1425269415.647546,37.76572920555387,-122.4603953828512,85.58482,-1,-1,10,65,-9999,1425269417.547543,-22.26755523681641,-14.81106567382812,-30.91563415527344,331.8707275390625,318.0936584472656,10,196538.8622089583,-0.7671356201171875,-0.442840576171875,-0.296722412109375,196538.8464940417,-1.117759602174901,0.4343860748739525,2.143888885987882,196538.794716625,-0.4256121073935616,-1.163957372529267,0.6074271678908394,-0.9868737459182739,0.8713105320930481,2.169598817825317,0.05928746983408928,-0.1030713766813278,0.04826658219099045,XTrueNorthZVertical,-0.1334163977050243,0.5654539955569095,0.329041104510884,-0.744441982290601,-0.7540964484214783,-0.570756733417511,-0.3249236941337585,-22.82796096801758,-19.19468307495117,-33.75096893310547,2,0.0.0.0,10.83.46.32,1,0
2015-03-01 20:10:17.647,107,1425269415.647546,37.76572920555387,-122.4603953828512,85.58482,-1,-1,10,65,-9999,1425269417.599535,-22.93257904052734,-9.933990478515625,-32.19703674316406,329.8289489746094,316.0518798828125,10,196538.9113489167,-0.8866729736328125,-0.4144134521484375,-0.439453125,196538.8982715833,-1.172283564436529,0.5167363421013826,2.177381066172828,196538.8982715833,-0.4362825821601728,-1.095978653828574,0.3614522388170677,-1.186181783676147,0.5318365693092346,2.212776184082031,-0.04747084528207779,-0.05403606221079826,0.01647219806909561,XTrueNorthZVertical,-0.03887865625448362,0.5335453927491871,0.2731402584681961,-0.7995074939550278,-0.8319084048271179,-0.3536330163478851,-0.42763552069664,-23.58144187927246,-9.799266815185547,-37.10215377807617,2,0.0.0.0,10.83.46.32,1,0
2015-03-01 20:10:17.701,108,1425269415.647546,37.76572920555387,-122.4603953828512,85.58482,-1,-1,10,65,-9999,1425269417.654227,-23.92159271240234,-5.10791015625,-33.16224670410156,325.0717163085938,311.2946472167969,10,196538.96022975,-0.9474334716796875,-0.197906494140625,-0.4816741943359375,196538.9500479167,-1.122969544215423,0.4493884602426959,1.804690580059978,196538.8982715833,-0.4362825821601728,-1.095978653828574,0.3614522388170677,-1.186181783676147,0.5318365693092346,2.212776184082031,-0.04747084528207779,-0.05403606221079826,0.01647219806909561,XTrueNorthZVertical,-0.03887865625448362,0.5335453927491871,0.2731402584681961,-0.7995074939550278,-0.8319084048271179,-0.3536330163478851,-0.42763552069664,-23.58144187927246,-9.799266815185547,-37.10215377807617,2,0.0.0.0,10.83.46.32,1,0
2015-03-01 20:10:17.745,109,1425269415.647546,37.76572920555387,-122.4603953828512,85.58482,-1,-1,10,65,-9999,1425269417.705194,-23.75106811523438,-0.34979248046875,-33.99433135986328,323.2815551757812,309.5044860839844,10,196539.00923525,-0.934722900390625,-0.0337371826171875,-0.5222930908203125,196539.0018254167,-1.190013293077623,0.3350368504085465,1.479877338760136,196539.0018254167,-0.4485316970629304,-1.045075575997712,0.1470343624726045,-1.203911185264587,0.350136786699295,1.515271663665771,-0.09384867548942566,0.03536012396216393,-0.005546670872718096,XTrueNorthZVertical,0.04863569925178825,0.4994233798700514,0.2279332416823675,-0.834420375743541,-0.8556294441223145,-0.1465051472187042,-0.4964217245578766,-22.62238693237305,-0.5114398002624512,-38.94413757324219,2,0.0.0.0,10.83.46.32,1,0
2015-03-01 20:10:17.800,110,1425269415.647546,37.76572920555387,-122.4603953828512,85.58482,-1,-1,10,65,-9999,1425269417.780376,-22.38692474365234,6.17559814453125,-34.72655487060547,318.9210205078125,305.1439514160156,10,196539.05828825,-1.036895751953125,0.1071319580078125,-0.5964508056640625,196539.0536027084,-0.763845733327655,0.1089097064626814,1.213268548348413,196539.0018254167,-0.4485316970629304,-1.045075575997712,0.1470343624726045,-1.203911185264587,0.350136786699295,1.515271663665771,-0.09384867548942566,0.03536012396216393,-0.005546670872718096,XTrueNorthZVertical,0.04863569925178825,0.4994233798700514,0.2279332416823675,-0.834420375743541,-0.8556294441223145,-0.1465051472187042,-0.4964217245578766,-22.62238693237305,-0.5114398002624512,-38.94413757324219,2,0.0.0.0,10.83.46.32,1,0
2015-03-01 20:10:17.844,111,1425269415.647546,37.76572920555387,-122.4603953828512,85.58482,-1,-1,10,65,-9999,1425269417.832691,-21.75600433349609,9.14947509765625,-34.61006164550781,317.6239318847656,303.8468627929688,10,196539.1073755417,-0.96539306640625,0.1983184814453125,-0.672515869140625,196539.105379375,-0.2656335408205365,-0.07921945504993305,0.6446612850633389,196539.0536027084,-0.4581408039851068,-1.031273538792894,0.06461282522251735,-0.7777435779571533,0.1240094900131226,1.24866247177124,-0.1371377110481262,0.1465380936861038,-0.04606116190552711,XTrueNorthZVertical,0.08454145388407659,0.4863387850828632,0.2129561454340588,-0.8431945674300328,-0.8561636805534363,-0.06456787884235382,-0.5126546621322632,-21.97879409790039,2.91327691078186,-39.2061882019043,2,0.0.0.0,10.83.46.32,3,0
2015-03-01 20:10:17.904,112,1425269415.647546,37.76572920555387,-122.4603953828512,85.58482,-1,-1,10,65,-9999,1425269417.888228,-21.51728057861328,10.81478881835938,-34.51020812988281,315.4103698730469,301.63330078125,10,196539.1562742917,-1.049072265625,0.100555419921875,-0.6566925048828125,196539.105379375,-0.2656335408205365,-0.07921945504993305,0.6446612850633389,196539.105379375,-0.4554591063094665,-1.028659278906442,0.01089065396217508,-0.2795312404632568,-0.06411980092525482,0.6800549626350403,-0.0696207582950592,0.2113298922777176,-0.1684805303812027,XTrueNorthZVertical,0.1064459640256033,0.4803130820266593,0.1991639911382307,-0.8475272115589942,-0.8565572500228882,-0.01089043822139502,-0.5159372091293335,-21.53130722045898,5.335369110107422,-39.19969940185547,2,0.0.0.0,10.83.46.32,3,0
2015-03-01 20:10:17.941,113,1425269415.647546,37.76572920555387,-122.4603953828512,85.58482,-1,-1,10,65,-9999,1425269417.888228,-21.51728057861328,10.81478881835938,-34.51020812988281,315.4103698730469,301.63330078125,10,196539.2052939583,-1.045623779296875,0.13995361328125,-0.6006927490234375,196539.208934125,0.5105602052173799,-0.2305386702915813,-0.8880398539185193,196539.157156625,-0.4537543626859089,-1.032120512654047,-0.0006855669884521789,0.03671770542860031,-0.0434221476316452,-0.1259074956178665,-0.1906836926937103,0.09986985474824905,-0.1436928361654282,XTrueNorthZVertical,0.1112867167838616,0.4807446624530465,0.1954776155949776,-0.8475189718903282,-0.8583885431289673,0.0006855669198557734,-0.5129996538162231,-21.4417552947998,6.583365440368652,-39.05880355834961,2,0.0.0.0,10.83.46.32,3,0
2015-03-01 20:10:17.990,114,1425269415.647546,37.76572920555387,-122.4603953828512,85.58482,-1,-1,10,65,-9999,1425269417.962018,-21.55138397216797,10.98471069335938,-34.07752990722656,317.5801696777344,303.8031005859375,10,196539.2543034167,-0.9887237548828125,0.037628173828125,-0.5895843505859375,196539.208934125,0.5105602052173799,-0.2305386702915813,-0.8880398539185193,196539.208934125,-0.4569484265654929,-1.039293306306612,0.02944025682138687,0.496727854013443,-0.2154219299554825,-0.8526867032051086,-0.1839510351419449,0.169389620423317,-0.09408277273178101,XTrueNorthZVertical,0.100013040596259,0.4865104344160769,0.2036916637728129,-0.8436911548349885,-0.8616727590560913,-0.02943600341677666,-0.5066099762916565,-21.66627502441406,6.100597381591797,-39.01326751708984,2,0.0.0.0,10.83.46.32,3,0
2015-03-01 20:10:18.039,115,1425269415.647546,37.76572920555387,-122.4603953828512,85.58482,-1,-1,10,65,-9999,1425269418.014554,-22.09703826904297,8.911529541015625,-33.84455108642578,319.147705078125,305.3706359863281,10,196539.3033131667,-0.9245758056640625,-0.1451416015625,-0.5423736572265625,196539.2607105417,0.815066576889258,-0.2782409454209716,-1.496540471384653,196539.2607105417,-0.458348568031498,-1.050019531062942,0.09775625967620497,0.8012343049049377,-0.2631243467330933,-1.461187601089478,-0.1254321932792664,0.1352288126945496,-0.09440571814775467,XTrueNorthZVertical,0.07255528109912344,0.4971382256346146,0.2201914885764369,-0.8361250467952442,-0.8632915616035461,-0.09760063886642456,-0.4951786398887634,-21.89242172241211,10.27099609375,-33.87780380249023,2,0.0.0.0,10.83.46.32,3,0
2015-03-01 20:10:18.090,116,1425269415.647546,37.76572920555387,-122.4603953828512,85.58482,-1,-1,10,65,-9999,1425269418.066026,-22.79616546630859,5.325958251953125,-33.66149139404297,320.402099609375,306.6250305175781,10,196539.352324375,-0.8682708740234375,-0.3715972900390625,-0.47412109375,196539.3124880417,1.166968427532949,-0.4219379273067041,-1.880078811565723,196539.3124880417,-0.4555991840324137,-1.067477779156365,0.19563792305796,1.153136372566223,-0.4068214595317841,-1.844726324081421,-0.06529948115348816,0.04925072565674782,-0.069239541888237,XTrueNorthZVertical,0.03243829842955902,0.5122310979550548,0.2418969648128985,-0.8234397289537491,-0.8592763543128967,-0.1943923234939575,-0.4731341302394867,-23.22891616821289,6.459425926208496,-33.92890167236328,2,0.0.0.0,10.83.46.32,3,0
2015-03-01 20:10:18.137,117,1425269415.647546,37.76572920555387,-122.4603953828512,85.58482,-1,-1,10,65,-9999,1425269418.117922,-23.69990539550781,0.51690673828125,-33.31200408935547,328.6526489257812,314.8755798339844,10,196539.4013428334,-0.8958740234375,-0.5110626220703125,-0.3498992919921875,196539.364265375,1.265010039903126,-0.8137616279551192,-2.141916016252351,196539.364265375,-0.4476953843277877,-1.100279430250134,0.3132206114307872,1.251178026199341,-0.7986453175544739,-2.106564044952393,-0.02042566053569317,-0.108242429792881,-0.03540004789829254,XTrueNorthZVertical,-0.01500663036574731,0.5330382664367572,0.2664219598392476,-0.8029099679272509,-0.847967267036438,-0.3081241548061371,-0.4312900006771088,-24.36111068725586,2.589300155639648,-33.64979553222656,2,0.0.0.0,10.83.46.32,3,0
2015-03-01 20:10:18.189,118,1425269415.647546,37.76572920555387,-122.4603953828512,85.58482,-1,-1,10,65,-9999,1425269418.169252,-24.72301483154297,-4.37713623046875,-31.94739532470703,334.4966125488281,320.7195434570312,10,196539.4503460834,-0.78009033203125,-0.596954345703125,-0.2727203369140625,196539.4160420834,1.152427567981117,-0.9036331947331512,-2.379194081998487,196539.4160420834,-0.4433926060457491,-1.147321852616059,0.438217711326114,1.138595700263977,-0.8885170221328735,-2.343842267990112,-0.0746084600687027,-0.08595816045999527,0.04077208414673805,XTrueNorthZVertical,-0.06161607029574873,0.55691358851282,0.2953464150428996,-0.7738354344786446,-0.825522780418396,-0.4243262708187103,-0.3721014261245728,-25.63010025024414,-1.59046745300293,-32.75737380981445,2,0.0.0.0,10.83.46.32,3,0
2015-03-01 20:10:18.236,119,1425269415.647546,37.76572920555387,-122.4603953828512,85.58482,-1,-1,10,65,-9999,1425269418.221744,-24.75711822509766,-10.05288696289062,-30.15009307861328,337.6372375488281,323.8601684570312,10,196539.4995201667,-0.6492919921875,-0.802032470703125,-0.17315673828125,196539.4678194167,1.293058452503841,-0.8168857822298912,-2.502734130225628,196539.4678194167,-0.4330258699476975,-1.19241195150614,0.5734489638010383,1.279226660728455,-0.8017697930335999,-2.467382907867432,0.03300868347287178,-0.08341352641582489,0.05669375881552696,XTrueNorthZVertical,-0.1128537935630389,0.576282348820594,0.3255981219250811,-0.741045618324184,-0.7806130647659302,-0.5425325036048889,-0.3103253543376923,-26.63197326660156,-7.546600341796875,-31.08478546142578,2,0.0.0.0,10.83.46.32,3,0
2015-03-01 20:10:18.290,120,1425269415.647546,37.76572920555387,-122.4603953828512,85.58482,-1,-1,10,65,-9999,1425269418.272776,-23.78515625,-15.81356811523438,-28.53585815429688,344.1627502441406,330.3856811523438,10,196539.5483832917,-0.537109375,-0.7378692626953125,-0.0471649169921875,196539.5195967084,1.230231552911673,-0.7975344548010483,-2.62176145198563,196539.5195967084,-0.4138063815268321,-1.245636064859286,0.7148128643091362,1.216400027275085,-0.7824186682701111,-2.586410284042358,0.133565291762352,-0.1348071098327637,0.1376851350069046,XTrueNorthZVertical,-0.165837119260133,0.5931839117909579,0.3560356043742002,-0.7027585750513026,-0.7156423330307007,-0.6554760932922363,-0.2412617951631546,-26.64032745361328,-12.29201984405518,-29.52416610717773,2,0.0.0.0,10.83.46.32,3,0
2015-03-01 20:10:18.333,121,1425269415.647546,37.76572920555387,-122.4603953828512,85.58482,-1,-1,10,65,-9999,1425269418.325057,-21.90946197509766,-21.14945983886719,-27.07139587402344,347.7865295410156,334.0094604492188,10,196539.5975252917,-0.4066009521484375,-0.4648590087890625,-0.1544647216796875,196539.5713734583,1.097564052680503,-0.365637103965775,-2.346195651879643,196539.5713734583,-0.3871927869071748,-1.293011802410031,0.8519301530848624,1.083733916282654,-0.3505216538906097,-2.310846328735352,0.137346163392067,0.09402931481599808,0.06661853194236755,XTrueNorthZVertical,-0.2181128955809812,0.6017753328899422,0.3841035043146993,-0.6654004667882403,-0.6332873106002808,-0.75255286693573,-0.1805864274501801,-25.90493011474609,-16.9272403717041,-27.836669921875,2,0.0.0.0,10.83.46.32,3,0
2015-03-01 20:10:18.393,122,1425269415.647546,37.76572920555387,-122.4603953828512,85.58482,-1,-1,10,65,-9999,1425269418.3765,-19.99965667724609,-24.7860107421875,-26.67198944091797,351.2989501953125,337.5218811035156,10,196539.6464257083,-0.20654296875,-0.473846435546875,-0.178619384765625,196539.623150875,0.4594205880690244,0.06680353173187463,-1.20125662656772,196539.623150875,-0.3629182671150245,-1.313807210891158,0.946301297830262,0.4455905258655548,0.08191882818937302,-1.165907621383667,0.2761645317077637,0.3705083429813385,-0.08373565971851349,XTrueNorthZVertical,-0.2568358286456072,0.5997752884183934,0.4009156531738799,-0.6430953811753586,-0.5654864311218262,-0.8112584948539734,-0.148609921336174,-23.80903625488281,-21.7524471282959,-26.31421661376953,2,0.0.0.0,10.83.46.32,3,0
2015-03-01 20:10:18.431,123,1425269415.647546,37.76572920555387,-122.4603953828512,85.58482,-1,-1,10,65,-9999,1425269418.3765,-19.99965667724609,-24.7860107421875,-26.67198944091797,351.2989501953125,337.5218811035156,10,196539.6954532917,-0.2118072509765625,-0.5966796875,-0.14990234375,196539.6749282083,-0.08324349145704278,0.1663154753398844,0.1048158952350116,196539.6749282083,-0.3614009396389605,-1.302241638744351,0.9680172966771894,-0.09707342088222504,0.1814306229352951,0.1401646137237549,0.2861144542694092,0.2729515135288239,-0.1200480386614799,XTrueNorthZVertical,-0.2676880414169038,0.5942461466438597,0.4039646175574169,-0.6418935169990088,-0.5466125011444092,-0.8237632513046265,-0.1504292637109756,-22.70186996459961,-23.07252502441406,-26.16793823242188,2,0.0.0.0,10.83.46.32,3,0
2015-03-01 20:10:18.490,124,1425269415.647546,37.76572920555387,-122.4603953828512,85.58482,-1,-1,10,65,-9999,1425269418.480436,-19.24938201904297,-26.28141784667969,-26.03960418701172,350.6307983398438,336.8537292480469,10,196539.7444620834,-0.3734283447265625,-0.78778076171875,-0.1222381591796875,196539.7267047917,-0.2717494902639035,-0.232577053789928,1.159845536881423,196539.6749282083,-0.3614009396389605,-1.302241638744351,0.9680172966771894,-0.09707342088222504,0.1814306229352951,0.1401646137237549,0.2861144542694092,0.2729515135288239,-0.1200480386614799,XTrueNorthZVertical,-0.2676880414169038,0.5942461466438597,0.4039646175574169,-0.6418935169990088,-0.5466125011444092,-0.8237632513046265,-0.1504292637109756,-22.70186996459961,-23.07252502441406,-26.16793823242188,2,0.0.0.0,10.83.46.32,3,0
2015-03-01 20:10:18.529,125,1425269415.647546,37.76572920555387,-122.4603953828512,85.58482,-1,-1,10,65,-9999,1425269418.480436,-19.24938201904297,-26.28141784667969,-26.03960418701172,350.6307983398438,336.8537292480469,10,196539.7935922917,-0.573028564453125,-0.640655517578125,-0.1095123291015625,196539.7784824584,-0.7678732318441819,-0.3692653946348989,1.887103165256916,196539.7784824584,-0.3701336199731559,-1.320616959909272,0.8450211693214671,-0.7817028760910034,-0.3541505336761475,1.922451138496399,0.2007614970207214,0.1445305794477463,-0.02766488678753376,XTrueNorthZVertical,-0.2153890684607646,0.6094644788316241,0.3797677411990809,-0.6617681850142156,-0.6430527567863464,-0.7479851841926575,-0.1643211990594864,-24.95617866516113,-20.25809478759766,-26.44382667541504,2,0.0.0.0,10.83.46.32,3,0
2015-03-01 20:10:18.592,126,1425269415.647546,37.76572920555387,-122.4603953828512,85.58482,-1,-1,10,65,-9999,1425269418.587848,-22.83027648925781,-20.63967895507812,-27.60392761230469,342.2827758789062,328.5057067871094,10,196539.84249125,-0.5754241943359375,-0.7694091796875,-0.303009033203125,196539.830259875,-1.215573514271876,1.35617244086152,2.066972798964759,196539.830259875,-0.4022350504979177,-1.272344555661903,0.7320455152032437,-1.229400992393494,1.371286273002625,2.102319478988647,0.06616704910993576,-0.06267134100198746,0.1638852953910828,XTrueNorthZVertical,-0.1712646142492273,0.6010934791556902,0.3583941315072561,-0.693475866520308,-0.7109271883964539,-0.6683924794197083,-0.2187101244926453,-26.69071197509766,-16.87880897521973,-27.11436462402344,2,0.0.0.0,10.83.46.32,3,0
2015-03-01 20:10:18.627,127,1425269415.647546,37.76572920555387,-122.4603953828512,85.58482,-1,-1,10,65,-9999,1425269418.587848,-22.83027648925781,-20.63967895507812,-27.60392761230469,342.2827758789062,328.5057067871094,10,196539.8916255,-0.5824432373046875,-0.622589111328125,-0.2760772705078125,196539.8820362917,-1.367727364199156,0.9553525820508171,2.288980032704271,196539.830259875,-0.4022350504979177,-1.272344555661903,0.7320455152032437,-1.229400992393494,1.371286273002625,2.102319478988647,0.06616704910993576,-0.06267134100198746,0.1638852953910828,XTrueNorthZVertical,-0.1712646142492273,0.6010934791556902,0.3583941315072561,-0.693475866520308,-0.7109271883964539,-0.6683924794197083,-0.2187101244926453,-26.69071197509766,-16.87880897521973,-27.11436462402344,2,0.0.0.0,10.83.46.32,3,0
2015-03-01 20:10:18.691,128,1425269415.647546,37.76572920555387,-122.4603953828512,85.58482,-1,-1,10,65,-9999,1425269418.660935,-24.21147918701172,-13.11172485351562,-30.81575012207031,334.5242919921875,320.7472229003906,10,196539.94052825,-0.896697998046875,-0.554107666015625,-0.385467529296875,196539.93381375,-1.269633021239395,0.4000813642404238,2.486302958932057,196539.8820362917,-0.4347905702292728,-1.183349756792279,0.6074314940749924,-1.381554365158081,0.9704667329788208,2.324324369430542,0.2575369477272034,-0.1126808598637581,0.05665303394198418,XTrueNorthZVertical,-0.1275921163265863,0.573237147298654,0.3337078602284355,-0.7373998634067706,-0.7602530121803284,-0.5707603096961975,-0.3102388381958008,-26.40847206115723,-12.81346130371094,-29.5107593536377,2,0.0.0.0,10.83.46.32,3,0
2015-03-01 20:10:18.725,129,1425269415.647546,37.76572920555387,-122.4603953828512,85.58482,-1,-1,10,65,-9999,1425269418.713936,-24.51840209960938,-7.60589599609375,-32.24693298339844,331.7876586914062,318.0105895996094,10,196539.989653875,-0.87353515625,-0.51641845703125,-0.3922119140625,196539.9855912084,-1.136928236752965,0.9609574708809978,2.190567441994246,196539.9855912084,-0.4523833783071012,-1.110487565332026,0.3382845812367439,-1.150754928588867,0.976071298122406,2.225911140441895,-0.09332157671451569,-0.2357575744390488,0.0442010760307312,XTrueNorthZVertical,-0.02286842779560463,0.5384726463994169,0.2743354048952896,-0.796407181932122,-0.845139741897583,-0.3318693935871124,-0.4190484881401062,-25.84021759033203,-2.045405387878418,-32.56649780273438,2,0.0.0.0,10.83.46.32,3,0
2015-03-01 20:10:18.792,130,1425269415.647546,37.76572920555387,-122.4603953828512,85.58482,-1,-1,10,65,-9999,1425269418.765056,-24.62071990966797,-2.10009765625,-33.11229705810547,329.6941833496094,315.9171142578125,10,196540.0385565417,-0.9358062744140625,-0.303375244140625,-0.47491455078125,196539.9855912084,-1.136928236752965,0.9609574708809978,2.190567441994246,196539.9855912084,-0.4523833783071012,-1.110487565332026,0.3382845812367439,-1.150754928588867,0.976071298122406,2.225911140441895,-0.09332157671451569,-0.2357575744390488,0.0442010760307312,XTrueNorthZVertical,-0.02286842779560463,0.5384726463994169,0.2743354048952896,-0.796407181932122,-0.845139741897583,-0.3318693935871124,-0.4190484881401062,-25.84021759033203,-2.045405387878418,-32.56649780273438,2,0.0.0.0,10.83.46.32,3,0
2015-03-01 20:10:18.823,131,1425269415.647546,37.76572920555387,-122.4603953828512,85.58482,-1,-1,10,65,-9999,1425269418.817105,-23.46118927001953,2.6240234375,-33.77796173095703,324.2856140136719,310.508544921875,10,196540.0876895833,-0.9398193359375,-0.110870361328125,-0.6446685791015625,196540.0891454583,-1.009121804459517,0.2892360722974728,1.598136604861759,196540.0373678333,-0.4550554594015176,-1.070670196767633,0.2199473991921388,-1.096211552619934,0.6692315936088562,1.977908372879028,-0.07373307645320892,-0.05208538100123405,0.08030364662408829,XTrueNorthZVertical,0.02240986614888552,0.5152726925802716,0.2473847390017245,-0.8202394228587623,-0.8563816547393799,-0.2181782871484756,-0.4679836928844452,-24.51782608032227,2.18721866607666,-33.56440734863281,2,0.0.0.0,10.83.46.32,3,0
2015-03-01 20:10:18.896,132,1425269415.647546,37.76572920555387,-122.4603953828512,85.58482,-1,-1,10,65,-9999,1425269418.876128,-22.40397644042969,6.770355224609375,-34.04421997070312,322.6598205566406,308.8827514648438,10,196540.1365855417,-0.9051971435546875,0.1157989501953125,-0.7249755859375,196540.1409227083,-0.8501678390048294,-0.06066467910313298,0.9437052470233555,196540.0891454583,-0.4564311641209053,-1.046193267974322,0.1120461799112816,-1.022948145866394,0.3043495714664459,1.633479356765747,-0.07972383499145508,0.000941521255299449,-0.14693982899189,XTrueNorthZVertical,0.06559572896122638,0.4968227335447358,0.2229259092245407,-0.8361629509216222,-0.8600955009460449,-0.1118118837475777,-0.4977287352085114,-22.77009582519531,7.227719306945801,-34.08460235595703,2,0.0.0.0,10.83.46.32,3,0
2015-03-01 20:10:18.922,133,1425269415.647546,37.76572920555387,-122.4603953828512,85.58482,-1,-1,10,65,-9999,1425269418.876128,-22.40397644042969,6.770355224609375,-34.04421997070312,322.6598205566406,308.8827514648438,10,196540.185611125,-1.073410034179688,0.2882080078125,-0.6572418212890625,196540.1409227083,-0.8501678390048294,-0.06066467910313298,0.9437052470233555,196540.1409227083,-0.4641004765203049,-1.03718021176974,0.03122375692879985,-0.8639940619468689,-0.04555131494998932,0.9790477752685547,-0.04464340582489967,0.147017627954483,-0.2165734618902206,XTrueNorthZVertical,0.1007785203108723,0.4854303506381201,0.2072422096513133,-0.8433574573005835,-0.8605537414550781,-0.03121868334710598,-0.5084021091461182,-21.71449279785156,10.27898216247559,-33.98971176147461,2,0.0.0.0,10.83.46.32,3,0
2015-03-01 20:10:18.962,134,1425269415.647546,37.76572920555387,-122.4603953828512,85.58482,-1,-1,10,65,-9999,1425269418.946314,-21.94356536865234,11.17156982421875,-33.76130676269531,320.6448059082031,306.8677368164062,10,196540.2346327083,-1.143218994140625,0.243194580078125,-0.5709686279296875,196540.1926995,-0.2305418660848894,-0.2521318467260528,0.05448321589695006,196540.1926995,-0.4748406504294554,-1.046531649785934,-0.004547137638485594,-0.2443051189184189,-0.2370121479034424,0.08979678899049759,-0.2077266871929169,0.283660888671875,-0.156670406460762,XTrueNorthZVertical,0.1194440145241743,0.4852292426191713,0.2026201561553089,-0.842158448003423,-0.8656833171844482,0.004547121934592724,-0.5005714297294617,-21.34141540527344,12.37682914733887,-33.52365112304688,2,0.0.0.0,10.83.46.32,3,0
2015-03-01 20:10:19.020,135,1425269415.647546,37.76572920555387,-122.4603953828512,85.58482,-1,-1,10,65,-9999,1425269418.998688,-22.14818572998047,11.54544067382812,-33.62818145751953,321.2240600585938,307.4469909667969,10,196540.2836755,-0.959716796875,0.0366363525390625,-0.6121063232421875,196540.2962544167,0.8471057363834563,-0.08296599007145652,-1.369421134652446,196540.2444768334,-0.4795108499151194,-1.052332123687866,0.01407301209305377,0.3859717845916748,0.04629423469305038,-0.7111263871192932,-0.2428786158561707,0.2340279966592789,-0.05980014801025391,XTrueNorthZVertical,0.1133464930746099,0.48928899427096,0.208772959799695,-0.8391440719994608,-0.8684952855110168,-0.0140725476667285,-0.4954977035522461,-21.74348258972168,12.65997409820557,-33.15755081176758,2,0.0.0.0,10.83.46.32,3,0
2015-03-01 20:10:19.064,136,1425269415.647546,37.76572920555387,-122.4603953828512,85.58482,-1,-1,10,65,-9999,1425269419.05389,-22.35280609130859,9.37030029296875,-33.49504852294922,323.1731567382812,309.3960876464844,10,196540.3326905,-0.945404052734375,-0.13348388671875,-0.5761871337890625,196540.2962544167,0.8471057363834563,-0.08296599007145652,-1.369421134652446,196540.2962544167,-0.4766186387356423,-1.050881783575949,0.07627955118119896,0.8333427906036377,-0.06784660369157791,-1.334108352661133,-0.09343271702528,0.07382522523403168,-0.1377105563879013,XTrueNorthZVertical,0.08626573238701429,0.4948510400975278,0.2226532553199851,-0.8355275394311678,-0.8653380274772644,-0.07620559632778168,-0.4953613579273224,-22.11940002441406,11.08645343780518,-33.47087860107422,2,0.0.0.0,10.83.46.32,3,0
2015-03-01 20:10:19.117,137,1425269415.647546,37.76572920555387,-122.4603953828512,85.58482,-1,-1,10,65,-9999,1425269419.05389,-22.35280609130859,9.37030029296875,-33.49504852294922,323.1731567382812,309.3960876464844,10,196540.381727,-0.878387451171875,-0.290191650390625,-0.47918701171875,196540.3480309167,1.026472298961383,-0.3441528508198877,-1.895245780289833,196540.3480309167,-0.4756865026414855,-1.063229685949091,0.1712641439666423,1.012709498405457,-0.3290335834026337,-1.859933257102966,-0.07284611463546753,0.008822299540042877,-0.07719585299491882,XTrueNorthZVertical,0.04734940663753357,0.5082198520821806,0.2444822806944328,-0.8244386573841923,-0.8611443638801575,-0.170428141951561,-0.4789412319660187,-22.90796279907227,8.385992050170898,-33.72502899169922,2,0.0.0.0,10.83.46.32,3,0
2015-03-01 20:10:19.163,138,1425269415.647546,37.76572920555387,-122.4603953828512,85.58482,-1,-1,10,65,-9999,1425269419.12794,-23.44412994384766,4.272308349609375,-33.69474792480469,328.465576171875,314.6885070800781,10,196540.43073625,-0.873077392578125,-0.4769134521484375,-0.3839111328125,196540.3998085417,1.193774209169033,-0.6152860856075468,-2.16392331423633,196540.3998085417,-0.4751479209437289,-1.087703538455107,0.2869840361739304,1.180011510848999,-0.6001669764518738,-2.128611087799072,-0.03931187465786934,-0.03815186768770218,-0.01605607755482197,XTrueNorthZVertical,0.001593390802298895,0.5265323501214765,0.2712355367156205,-0.8057248281679402,-0.8493447303771973,-0.2830609083175659,-0.445522278547287,-24.37495040893555,3.556947708129883,-33.55126190185547,2,0.0.0.0,10.83.46.32,3,0
2015-03-01 20:10:19.215,139,1425269415.647546,37.76572920555387,-122.4603953828512,85.58482,-1,-1,10,65,-9999,1425269419.179753,-24.39903259277344,-0.2138671875,-32.76280975341797,331.246337890625,317.4692687988281,10,196540.4798880834,-0.782806396484375,-0.5594329833984375,-0.3321533203125,196540.4515859167,1.11340027378655,-0.7408389509865695,-2.306171802805169,196540.4515859167,-0.4726659781390259,-1.122787173202671,0.4109338992445383,1.099637627601624,-0.7257199883460999,-2.270860195159912,-0.01611647941172123,-0.1006869375705719,0.04011504724621773,XTrueNorthZVertical,-0.04588272095763819,0.5471196749826597,0.2996295388708023,-0.7802416589255055,-0.8262754678726196,-0.3994656503200531,-0.3971096873283386,-25.461181640625,-0.6097993850708008,-32.92162322998047,2,0.0.0.0,10.83.46.32,3,0
2015-03-01 20:10:19.293,140,1425269415.647546,37.76572920555387,-122.4603953828512,85.58482,-1,-1,10,65,-9999,1425269419.283304,-24.53544616699219,-11.42938232421875,-30.49955749511719,342.9439086914062,329.1668395996094,10,196540.5287804583,-0.601226806640625,-0.7655792236328125,-0.3089141845703125,196540.5033627083,1.249360506389494,-0.6939808979227343,-2.433589413579464,196540.5033627083,-0.4683621980474145,-1.159854437334086,0.5437054677102895,1.235598087310791,-0.6788620948791504,-2.398277997970581,0.07092522084712982,-0.1216053515672684,0.04142251238226891,XTrueNorthZVertical,-0.0960006509307781,0.5655526854594736,0.3300999117515137,-0.7496453514659116,-0.784548282623291,-0.5173106789588928,-0.3418680727481842,-26.21476936340332,-4.928510665893555,-31.95266342163086,2,0.0.0.0,10.83.46.32,3,0
2015-03-01 20:10:19.313,141,1425269415.647546,37.76572920555387,-122.4603953828512,85.58482,-1,-1,10,65,-9999,1425269419.283304,-24.53544616699219,-11.42938232421875,-30.49955749511719,342.9439086914062,329.1668395996094,10,196540.57780625,-0.4774169921875,-0.7971954345703125,-0.1572723388671875,196540.5551400833,1.196716735857462,-0.9276285424708741,-2.49731912478117,196540.5551400833,-0.4552349792631916,-1.205434762621844,0.6796347015377519,1.182955861091614,-0.9125092029571533,-2.462012529373169,0.1705550998449326,-0.1741033643484116,-0.05729110911488533,XTrueNorthZVertical,-0.1468957096652727,0.5826425111202941,0.3593424997017343,-0.714018481797107,-0.7264633178710938,-0.6285089254379272,-0.2778986990451813,-26.37153816223145,-11.07418918609619,-30.23874282836914,2,0.0.0.0,10.83.46.32,3,0
2015-03-01 20:10:19.363,142,1425269415.647546,37.76572920555387,-122.4603953828512,85.58482,-1,-1,10,65,-9999,1425269419.335683,-23.52938842773438,-16.81625366210938,-29.05172729492188,345.9595947265625,332.1825256347656,10,196540.6268464584,-0.5894317626953125,-0.5703277587890625,-0.1012725830078125,196540.6069177084,1.181260281522859,-0.596438095624729,-2.356420592568893,196540.6069177084,-0.4388657588315705,-1.257944887869089,0.8140029657007023,1.167500257492065,-0.5813189148902893,-2.321115970611572,0.1434549391269684,0.03134743124246597,0.1257283985614777,XTrueNorthZVertical,-0.1948267073590632,0.5969799681381331,0.3889453996331747,-0.6740764181960172,-0.6532663106918335,-0.7270414233207703,-0.2113149464130402,-26.07458305358887,-15.50925922393799,-28.4965991973877,2,0.0.0.0,10.83.46.32,3,0
2015-03-01 20:10:19.412,143,1425269415.647546,37.76572920555387,-122.4603953828512,85.58482,-1,-1,10,65,-9999,1425269419.38747,-21.63664245605469,-21.82925415039062,-27.60389709472656,349.2690124511719,335.491943359375,10,196540.675871625,-0.3013458251953125,-0.512359619140625,-0.3036651611328125,196540.65869425,0.7448613894970252,0.1476232802808363,-1.569549434772521,196540.65869425,-0.4078962286542664,-1.287720320459066,0.9206893497290271,0.7311015725135803,0.1627423167228699,-1.534245252609253,0.1439264863729477,0.275846928358078,-0.03569893166422844,XTrueNorthZVertical,-0.2390219906196836,0.5986143232880117,0.4062778801009733,-0.6476632873782961,-0.5811823606491089,-0.7960190773010254,-0.1690587550401688,-24.90459060668945,-19.49394989013672,-27.05964660644531,2,0.0.0.0,10.83.46.32,3,0
2015-03-01 20:10:19.464,144,1425269415.647546,37.76572920555387,-122.4603953828512,85.58482,-1,-1,10,65,-9999,1425269419.43925,-19.53926849365234,-25.58476257324219,-26.42233276367188,354.0191650390625,340.2420959472656,10,196540.7248653334,-0.2891998291015625,-0.584930419921875,-0.17535400390625,196540.710471875,0.3278593649546739,0.1600730257447387,-0.50125325615588,196540.65869425,-0.4078962286542664,-1.287720320459066,0.9206893497290271,0.7311015725135803,0.1627423167228699,-1.534245252609253,0.1439264863729477,0.275846928358078,-0.03569893166422844,XTrueNorthZVertical,-0.2390219906196836,0.5986143232880117,0.4062778801009733,-0.6476632873782961,-0.5811823606491089,-0.7960190773010254,-0.1690587550401688,-24.90459060668945,-19.49394989013672,-27.05964660644531,2,0.0.0.0,10.83.46.32,3,0
2015-03-01 20:10:19.509,145,1425269415.647546,37.76572920555387,-122.4603953828512,85.58482,-1,-1,10,65,-9999,1425269419.490835,-18.60141754150391,-27.30107116699219,-26.07284545898438,354.5471801757812,340.7701110839844,10,196540.7741151667,-0.2744140625,-0.6967620849609375,-0.1267547607421875,196540.7622492917,-0.07299831074350795,-0.05665795324310877,0.5679068519183832,196540.7622492917,-0.379895182396309,-1.297186078333977,0.9677234440319131,-0.08675782382488251,-0.04153921455144882,0.6032103896141052,0.1848109662532806,0.1167179793119431,-0.07507636398077011,XTrueNorthZVertical,-0.2631072868126138,0.5951020719389954,0.409152019282563,-0.6397052246459952,-0.5460780262947083,-0.8235966563224792,-0.1532561630010605,-22.55819511413574,-23.09619903564453,-26.27109909057617,2,0.0.0.0,10.83.46.32,3,0
2015-03-01 20:10:19.557,146,1425269415.647546,37.76572920555387,-122.4603953828512,85.58482,-1,-1,10,65,-9999,1425269419.542853,-19.14707183837891,-27.09713745117188,-25.83987426757812,352.8597717285156,339.0827026367188,10,196540.822918875,-0.484771728515625,-0.73394775390625,-0.15093994140625,196540.8140260833,-0.3904244758116875,-0.4920344577264617,1.312170361750686,196540.7622492917,-0.379895182396309,-1.297186078333977,0.9677234440319131,-0.08675782382488251,-0.04153921455144882,0.6032103896141052,0.1848109662532806,0.1167179793119431,-0.07507636398077011,XTrueNorthZVertical,-0.2631072868126138,0.5951020719389954,0.409152019282563,-0.6397052246459952,-0.5460780262947083,-0.8235966563224792,-0.1532561630010605,-22.55819511413574,-23.09619903564453,-26.27109909057617,2,0.0.0.0,10.83.46.32,3,0
