loggingTime,loggingSample,locationTimestamp_since1970,locationLatitude,locationLongitude,locationAltitude,locationSpeed,locationCourse,locationVerticalAccuracy,locationHorizontalAccuracy,locationFloor,locationHeadingTimestamp_since1970,locationHeadingX,locationHeadingY,locationHeadingZ,locationTrueHeading,locationMagneticHeading,locationHeadingAccuracy,accelerometerTimestamp_sinceReboot,accelerometerAccelerationX,accelerometerAccelerationY,accelerometerAccelerationZ,gyroTimestamp_sinceReboot,gyroRotationX,gyroRotationY,gyroRotationZ,motionTimestamp_sinceReboot,motionYaw,motionRoll,motionPitch,motionRotationRateX,motionRotationRateY,motionRotationRateZ,motionUserAccelerationX,motionUserAccelerationY,motionUserAccelerationZ,motionAttitudeReferenceFrame,motionQuaternionX,motionQuaternionY,motionQuaternionZ,motionQuaternionW,motionGravityX,motionGravityY,motionGravityZ,motionMagneticFieldX,motionMagneticFieldY,motionMagneticFieldZ,motionMagneticFieldCalibrationAccuracy,IP_en0,IP_pdp_ip0,deviceOrientation,state
2015-02-21 12:39:09.117,1,1424547435.145531,39.63853406314023,-106.3703337299413,2516.133,-1,-1,10,65,-9999,1424547549.081949,-27.53670120239258,7.633575439453125,-39.24117279052734,3.208497047424316,354.0819396972656,10,16877.531936875,-0.6243743896484375,-0.313018798828125,-0.6869354248046875,16877.50055983333,-0.02909556754133369,-0.07208537912182879,-0.1021010688197849,16877.50055983333,-0.7355454978274393,-0.6989345797624715,0.2991380131532431,-0.04379747435450554,-0.05714034661650658,-0.07042262703180313,0.03830667957663536,0.005618850700557232,-0.004247121512889862,XTrueNorthZVertical,-0.008912465433624592,0.3662713807067259,0.3816438754461041,-0.8485952177539858,-0.6148294806480408,-0.2946965992450714,-0.7315316796302795,-28.75248336791992,7.05704402923584,-42.43702697753906,2,192.168.1.118,10.97.20.126,3,0
2015-02-21 12:39:09.191,2,1424547435.145531,39.63853406314023,-106.3703337299413,2516.133,-1,-1,10,65,-9999,1424547549.136033,-27.6730842590332,7.429718017578125,-38.77506256103516,3.889679908752441,354.7631225585938,10,16877.58100583333,-0.6004486083984375,-0.2965545654296875,-0.6893463134765625,16877.55233529167,0.03314650187545323,-0.4019983075930628,-0.03883954133771561,16877.55233529167,-0.7366315623935534,-0.7150298213509008,0.2997755104610792,0.01844307966530323,-0.3870676457881927,-0.007154668681323528,0.002163181779906154,0.01610041409730911,0.03307555615901947,XTrueNorthZVertical,-0.005919727796570211,0.3731825165435499,0.3822492465329146,-0.8453314896059588,-0.6264002323150635,-0.2953057289123535,-0.7213995456695557,-29.30711364746094,7.058762550354004,-42.05561828613281,2,192.168.1.118,10.97.20.126,3,0
2015-02-21 12:39:09.214,3,1424547435.145531,39.63853406314023,-106.3703337299413,2516.133,-1,-1,10,65,-9999,1424547549.136033,-27.6730842590332,7.429718017578125,-38.77506256103516,3.889679908752441,354.7631225585938,10,16877.63012858334,-0.6463623046875,-0.3021240234375,-0.6913604736328125,16877.60411170833,0.06038531350478367,-0.4353426823375089,-0.01358265419162213,16877.60411170833,-0.7364112069403839,-0.7361195783253134,0.30096173765676,0.04568241164088249,-0.4204114973545074,0.01810134202241898,0.02817068062722683,-0.0103848772123456,0.02466389164328575,XTrueNorthZVertical,-0.0024527789557177,0.3822424674460686,0.3823647743748955,-0.8412383175407211,-0.6412383317947388,-0.2964388430118561,-0.7077693343162537,-29.81681823730469,7.01655387878418,-41.70291900634766,2,192.168.1.118,10.97.20.126,3,0
2015-02-21 12:39:09.259,4,1424547435.145531,39.63853406314023,-106.3703337299413,2516.133,-1,-1,10,65,-9999,1424547549.211844,-29.22456741333008,7.58258056640625,-38.35890960693359,4.074677467346191,354.9481201171875,10,16877.6792,-0.6275482177734375,-0.3082427978515625,-0.6556243896484375,16877.65588833333,0.05299370989926874,-0.6368552935922076,-0.06475023453142355,16877.65588833333,-0.7342933180664648,-0.7599039677830731,0.3035936361161279,0.03829425573348999,-0.6219241619110107,-0.03306926414370537,0.03497401252388954,-0.01937743462622166,0.02382821775972843,XTrueNorthZVertical,0.0005250773989281883,0.3925864602709108,0.3818650284926079,-0.8366927411812498,-0.6573495268821716,-0.2989514172077179,-0.6917511820793152,-30.59789657592773,6.941946029663086,-41.14591598510742,2,192.168.1.118,10.97.20.126,3,0
2015-02-21 12:39:09.312,5,1424547435.145531,39.63853406314023,-106.3703337299413,2516.133,-1,-1,10,65,-9999,1424547549.263262,-30.34981155395508,7.548614501953125,-37.55988311767578,5.309754371643066,356.1831970214844,10,16877.72842695834,-0.7227630615234375,-0.2950286865234375,-0.63995361328125,16877.70766354167,0.0104827346827699,-0.9056561318971754,0.02284379688237268,16877.70766354167,-0.7324786707838199,-0.8012462734926651,0.3032317597570099,-0.004216509871184826,-0.8907250761985779,0.05452438816428185,0.02464353479444981,0.00383678893558681,0.01906246691942215,XTrueNorthZVertical,0.008203765298892463,0.409755205781078,0.3809646989211936,-0.8287938919728377,-0.6854559183120728,-0.2986060678958893,-0.6640667319297791,-32.67176055908203,6.846462249755859,-39.53593444824219,2,192.168.1.118,10.97.20.126,3,0
2015-02-21 12:39:09.389,6,1424547435.145531,39.63853406314023,-106.3703337299413,2516.133,-1,-1,10,65,-9999,1424547549.36684,-32.92424392700195,7.259765625,-36.34468841552734,3.529511451721191,354.4029541015625,10,16877.77739529167,-0.7822418212890625,-0.2891693115234375,-0.6318206787109375,16877.75944016667,0.003133209022478224,-0.5123618336948186,-0.01642850813248081,16877.75944016667,-0.7317286293740023,-0.8379371439927511,0.3015381893501639,-0.01157005317509174,-0.4974646866321564,0.01525663398206234,-0.0589018240571022,0.004493617452681065,0.003482671454548836,XTrueNorthZVertical,0.01576428291279299,0.4246705211282215,0.3801657931998541,-0.8215110791553747,-0.7097291350364685,-0.2969893515110016,-0.6388128995895386,-33.65834045410156,6.903648376464844,-38.68932342529297,2,192.168.1.118,10.97.20.126,3,0
2015-02-21 12:39:09.411,7,1424547435.145531,39.63853406314023,-106.3703337299413,2516.133,-1,-1,10,65,-9999,1424547549.36684,-32.92424392700195,7.259765625,-36.34468841552734,3.529511451721191,354.4029541015625,10,16877.82661741667,-0.71905517578125,-0.29345703125,-0.6284332275390625,16877.81121654167,0.04352164485018392,0.1113265251519283,-0.01389797246468751,16877.81121654167,-0.7300955183356752,-0.8461388461886451,0.3008609210375475,0.02881775610148907,0.1262161880731583,0.01779056712985039,-0.03794148191809654,0.006608679424971342,0.007706922944635153,XTrueNorthZVertical,0.01726624172881814,0.4279603382365257,0.3793165807131891,-0.820165108386395,-0.715095043182373,-0.2963425517082214,-0.6331036686897278,-34.5145378112793,6.963597297668457,-37.91653060913086,2,192.168.1.118,10.97.20.126,3,0
2015-02-21 12:39:09.458,8,1424547435.145531,39.63853406314023,-106.3703337299413,2516.133,-1,-1,10,65,-9999,1424547549.419725,-33.69145584106445,7.0728759765625,-35.89522552490234,3.930024147033691,354.803466796875,10,16877.87558191667,-0.673614501953125,-0.2883758544921875,-0.619598388671875,16877.86299208333,0.03516517798173328,0.07150720684917258,-0.02021685478311852,16877.81121654167,-0.7300955183356752,-0.8461388461886451,0.3008609210375475,0.02881775610148907,0.1262161880731583,0.01779056712985039,-0.03794148191809654,0.006608679424971342,0.007706922944635153,XTrueNorthZVertical,0.01726624172881814,0.4279603382365257,0.3793165807131891,-0.820165108386395,-0.715095043182373,-0.2963425517082214,-0.6331036686897278,-34.5145378112793,6.963597297668457,-37.91653060913086,2,192.168.1.118,10.97.20.126,3,0
2015-02-21 12:39:09.509,9,1424547435.145531,39.63853406314023,-106.3703337299413,2516.133,-1,-1,10,65,-9999,1424547549.470669,-33.58915328979492,7.10687255859375,-35.76204681396484,4.755494117736816,355.6289367675781,10,16877.92481816667,-0.6985626220703125,-0.290985107421875,-0.616607666015625,16877.91476841667,0.03029478898019638,-0.1346126730913632,-0.01011149002681285,16877.91476841667,-0.727459947751662,-0.8413218417154513,0.3004435217360877,0.01559047680348158,-0.1197225376963615,0.02157676033675671,0.02151643112301826,0.004562054295092821,0.02213659882545471,XTrueNorthZVertical,0.01597181298123378,0.4259498269255597,0.378205979151685,-0.8217493115856351,-0.7121292352676392,-0.2959438860416412,-0.6366232633590698,-34.21320724487305,6.963991165161133,-38.18857955932617,2,192.168.1.118,10.97.20.126,3,0
2015-02-21 12:39:09.559,10,1424547435.145531,39.63853406314023,-106.3703337299413,2516.133,-1,-1,10,65,-9999,1424547549.52289,-33.55504989624023,7.20880126953125,-35.39583587646484,5.024567604064941,355.8980102539062,10,16877.97388120833,-0.7034454345703125,-0.2911224365234375,-0.62884521484375,16877.96654508333,0.02642787907740132,-0.1075112805742808,-0.03647625218637929,16877.91476841667,-0.727459947751662,-0.8413218417154513,0.3004435217360877,0.01559047680348158,-0.1197225376963615,0.02157676033675671,0.02151643112301826,0.004562054295092821,0.02213659882545471,XTrueNorthZVertical,0.01597181298123378,0.4259498269255597,0.378205979151685,-0.8217493115856351,-0.7121292352676392,-0.2959438860416412,-0.6366232633590698,-34.21320724487305,6.963991165161133,-38.18857955932617,2,192.168.1.118,10.97.20.126,3,0
2015-02-21 12:39:09.607,11,1424547435.145531,39.63853406314023,-106.3703337299413,2516.133,-1,-1,10,65,-9999,1424547549.574312,-33.52094650268555,7.41265869140625,-35.62889862060547,4.310944557189941,355.1843872070312,10,16878.02300270833,-0.7069549560546875,-0.291046142578125,-0.6368408203125,16878.01832045833,0.01139566630444906,-0.05898662130027405,-0.03155845891743897,16877.96654508333,-0.7266714827855433,-0.8472175791315844,0.3009100972443203,0.01172370277345181,-0.09262160211801529,-0.004788198973983526,0.01226015947759151,0.007403327152132988,0.006528780795633793,XTrueNorthZVertical,0.01671611850377621,0.428438388244441,0.3779110622689081,-0.8205756488592815,-0.7157666087150574,-0.2963895201683044,-0.6323222517967224,-34.40106582641602,6.960060119628906,-38.02016067504883,2,192.168.1.118,10.97.20.126,3,0
2015-02-21 12:39:09.647,12,1424547435.145531,39.63853406314023,-106.3703337299413,2516.133,-1,-1,10,65,-9999,1424547549.626821,-33.67438888549805,7.39569091796875,-35.41249847412109,4.501313209533691,355.374755859375,10,16878.071975,-0.70166015625,-0.287567138671875,-0.633758544921875,16878.070097,-0.0487169395047105,-0.06839796627650507,-0.01653423562775695,16878.01832045833,-0.7267789894375285,-0.8501536173150706,0.3010743353405168,-0.003308941842988133,-0.04409527033567429,0.0001290757936658338,0.00852280855178833,0.005042481236159801,0.001340652583166957,XTrueNorthZVertical,0.01722303560519409,0.4296631626510978,0.3779574988389385,-0.8199031103746244,-0.7175834774971008,-0.2965463995933533,-0.6301858425140381,-34.62371444702148,6.935657501220703,-37.82199478149414,2,192.168.1.118,10.97.20.126,3,0
2015-02-21 12:39:09.706,13,1424547435.145531,39.63853406314023,-106.3703337299413,2516.133,-1,-1,10,65,-9999,1424547549.677081,-34.10062026977539,7.65057373046875,-35.59560394287109,4.465851783752441,355.3392944335938,10,16878.12109766667,-0.7259063720703125,-0.3019561767578125,-0.580535888671875,16878.121873375,-0.1009463221711265,0.04056473709186894,0.01872788141765522,16878.070097,-0.7284023999340392,-0.850132942846893,0.2990762792096427,-0.06342527270317078,-0.05349960178136826,0.01515357382595539,0.02163359895348549,0.01076310500502586,-0.004755022469907999,XTrueNorthZVertical,0.01843068633660716,0.429377563046326,0.3782909005873786,-0.8198727098225199,-0.7180142402648926,-0.2946376204490662,-0.6305904388427734,-34.64108657836914,6.972545623779297,-37.79930114746094,2,192.168.1.118,10.97.20.126,3,0
2015-02-21 12:39:09.744,14,1424547435.145531,39.63853406314023,-106.3703337299413,2516.133,-1,-1,10,65,-9999,1424547549.730413,-34.50980758666992,7.854461669921875,-35.46242523193359,4.531006813049316,355.4044494628906,10,16878.17028391667,-0.6342315673828125,-0.37054443359375,-0.629058837890625,16878.121873375,-0.1009463221711265,0.04056473709186894,0.01872788141765522,16878.121873375,-0.7299470502193053,-0.8531030735330767,0.2950723420415796,-0.1156479641795158,0.05545000359416008,0.05041462555527687,-0.005139459390193224,-0.01114711072295904,0.04868996888399124,XTrueNorthZVertical,0.02105254960943866,0.4300509986357587,0.3782267814996988,-0.8194861061110675,-0.7207669019699097,-0.2908090651035309,-0.6292258501052856,-34.71749877929688,7.206344604492188,-37.68517303466797,2,192.168.1.118,10.97.20.126,3,0
2015-02-21 12:39:09.803,15,1424547435.145531,39.63853406314023,-106.3703337299413,2516.133,-1,-1,10,65,-9999,1424547549.782917,-34.78259658813477,8.1602783203125,-35.29596710205078,4.660126686096191,355.5335693359375,10,16878.21936775,-0.5086212158203125,-0.3540191650390625,-0.695465087890625,16878.22542541667,-0.4489106891431356,-1.324870178040946,-0.2739974645400394,16878.17364866667,-0.7346767016760885,-0.8525047108336838,0.2950628561190373,-0.1261514574289322,-0.2422745525836945,-0.04603423923254013,0.08616078644990921,-0.07974444329738617,0.0006000022985972464,XTrueNorthZVertical,0.02195983676740232,0.4297538196060471,0.3801686672810374,-0.8187192755433904,-0.7203923463821411,-0.290800005197525,-0.6296588182449341,-34.73601531982422,7.342482566833496,-37.64180755615234,2,192.168.1.118,10.97.20.126,3,0
2015-02-21 12:39:09.843,16,1424547435.145531,39.63853406314023,-106.3703337299413,2516.133,-1,-1,10,65,-9999,1424547549.834085,-35.66915512084961,8.466156005859375,-33.89768218994141,6.751496315002441,357.6249389648438,10,16878.26848125,-0.5423431396484375,-0.3747100830078125,-0.6042633056640625,16878.22542541667,-0.4489106891431356,-1.324870178040946,-0.2739974645400394,16878.22542541667,-0.7500025803621762,-0.8877263766415955,0.2890618913234477,-0.4636019766330719,-1.309982299804688,-0.2423226088285446,0.2348375618457794,-0.06896600127220154,-0.09047437459230423,XTrueNorthZVertical,0.03461670797121389,0.443064696468094,0.3848848494112245,-0.8089246309712314,-0.7434588074684143,-0.285053163766861,-0.6049907207489014,-35.29765319824219,7.445487022399902,-37.09513473510742,2,192.168.1.118,10.97.20.126,3,0
2015-02-21 12:39:09.901,17,1424547435.145531,39.63853406314023,-106.3703337299413,2516.133,-1,-1,10,65,-9999,1424547549.885742,-38.39702224731445,8.805938720703125,-31.06777954101562,9.230652809143066,0.104095458984375,10,16878.31747241667,-0.8141326904296875,-0.3971099853515625,-0.5047760009765625,16878.27720191667,-0.8870994917376123,-2.203789237858162,-0.632664543300859,16878.27720191667,-0.7958250128328013,-0.9671395734178786,0.286630410168089,-0.9017906188964844,-2.188901424407959,-0.6009900569915771,0.2473346292972565,-0.09198836237192154,-0.05976582691073418,XTrueNorthZVertical,0.06174609980590257,0.4732215965205693,0.4007651701951284,-0.7820716499970606,-0.7896777391433716,-0.2827217280864716,-0.5444974899291992,-38.53499221801758,7.904006958007812,-33.61531829833984,2,192.168.1.118,10.97.20.126,3,0
2015-02-21 12:39:09.941,18,1424547435.145531,39.63853406314023,-106.3703337299413,2516.133,-1,-1,10,65,-9999,1424547549.885742,-38.39702224731445,8.805938720703125,-31.06777954101562,9.230652809143066,0.104095458984375,10,16878.36653575,-0.9970855712890625,-0.3455810546875,-0.3072509765625,16878.32897729167,-1.069065299539456,-2.173950648372696,-0.658778702001849,16878.32897729167,-0.8581482170610822,-1.063025130500617,0.2869119620818801,-1.083756327629089,-2.159063100814819,-0.6271044611930847,-0.01957100629806519,-0.1116768047213554,-0.002501920331269503,XTrueNorthZVertical,0.09662362983434498,0.5074312057366227,0.4208416965607668,-0.7457008513227944,-0.8381102681159973,-0.2829917669296265,-0.4663548767566681,-42.96941375732422,8.16321849822998,-27.64777946472168,2,192.168.1.118,10.97.20.126,3,0
2015-02-21 12:39:10.000,19,1424547435.145531,39.63853406314023,-106.3703337299413,2516.133,-1,-1,10,65,-9999,1424547549.989106,-45.1314582824707,9.128753662109375,-23.89319610595703,14.93989562988281,5.813338756561279,10,16878.41564995833,-0.9649505615234375,-0.26556396484375,-0.2175140380859375,16878.38075366667,-0.8883727490547791,-0.9872119781714349,-0.5496157289195009,16878.38075366667,-0.9194582671706282,-1.123595968954222,0.2886122466593364,-0.9030635356903076,-0.972324550151825,-0.5179418921470642,-0.1602897644042969,-0.04238896444439888,0.1290040016174316,XTrueNorthZVertical,0.1248422960250374,0.5264369945779575,0.4402569668701779,-0.7165558893837713,-0.8643684387207031,-0.2846221327781677,-0.4145569801330566,-44.63115310668945,8.227371215820312,-24.85515975952148,2,192.168.1.118,10.97.20.126,3,0
2015-02-21 12:39:10.039,20,1424547435.145531,39.63853406314023,-106.3703337299413,2516.133,-1,-1,10,65,-9999,1424547549.989106,-45.1314582824707,9.128753662109375,-23.89319610595703,14.93989562988281,5.813338756561279,10,16878.464719625,-0.882415771484375,-0.2681732177734375,-0.163543701171875,16878.432530375,-0.3652301729512109,-0.1670100277521771,-0.4367075523961745,16878.432530375,-0.9591931904644128,-1.133647123656612,0.2967517829508161,-0.3799193501472473,-0.1521214246749878,-0.4050362408161163,-0.08721885830163956,0.05016697943210602,0.2002336978912354,XTrueNorthZVertical,0.1343974330895061,0.528687334554251,0.4554067271288696,-0.7035849577499628,-0.8663638830184937,-0.2924154996871948,-0.4048540592193604,-46.0609130859375,7.984957695007324,-22.1819953918457,2,192.168.1.118,10.97.20.126,3,0
2015-02-21 12:39:10.098,21,1424547435.145531,39.63853406314023,-106.3703337299413,2516.133,-1,-1,10,65,-9999,1424547550.092498,-47.12621688842773,9.38360595703125,-20.51398468017578,21.78098678588867,12.6544303894043,10,16878.513914125,-0.8666229248046875,-0.3034515380859375,-0.178802490234375,16878.48430558333,0.2844423823353301,-0.3472588955992472,-0.2694130990395769,16878.48430558333,-0.9666202536896723,-1.143924225418413,0.3123351829572704,0.2697560787200928,-0.3324280381202698,-0.2377256155014038,-0.01232993975281715,0.02401751652359962,0.2334109991788864,XTrueNorthZVertical,0.1326802091426596,0.5342272142499119,0.460539040101881,-0.6963483939983272,-0.8662253618240356,-0.3072816729545593,-0.3939944803714752,-46.52154541015625,7.110901832580566,-21.50788497924805,2,192.168.1.118,10.97.20.126,3,0
2015-02-21 12:39:10.137,22,1424547435.145531,39.63853406314023,-106.3703337299413,2516.133,-1,-1,10,65,-9999,1424547550.092498,-47.12621688842773,9.38360595703125,-20.51398468017578,21.78098678588867,12.6544303894043,10,16878.56299895834,-0.8764495849609375,-0.2730560302734375,-0.1717987060546875,16878.53608225,0.7632441252374061,-0.6986427614109181,-0.06813457964469624,16878.53608225,-0.9421322481862489,-1.181450642011256,0.328921912939574,0.7485589385032654,-0.6838179230690002,-0.0364457368850708,0.01902414485812187,0.03843124955892563,0.1838648766279221,XTrueNorthZVertical,0.1281935626363226,0.5513160060167112,0.4530968541027376,-0.6887091987449886,-0.875560998916626,-0.3230229318141937,-0.3592341542243958,-46.87482833862305,6.597253799438477,-20.89580917358398,2,192.168.1.118,10.97.20.126,3,0
2015-02-21 12:39:10.198,23,1424547435.145531,39.63853406314023,-106.3703337299413,2516.133,-1,-1,10,65,-9999,1424547550.144672,-47.48424911499023,8.75494384765625,-19.83148956298828,19.51506805419922,10.38851070404053,10,16878.61212308333,-0.9856414794921875,-0.4569549560546875,-0.1874542236328125,16878.58785858333,1.077768509981835,-0.4983445516132954,0.1256274338895448,16878.58785858333,-0.8986053256024178,-1.224765856474214,0.3420483153802711,1.063083410263062,-0.483520120382309,0.1573161035776138,-0.06753604114055634,0.01269406173378229,0.1086570173501968,XTrueNorthZVertical,0.12058051499283,0.5707023984427255,0.4383447174816958,-0.683822395141494,-0.8862298130989075,-0.3354174494743347,-0.3195182383060455,-47.64631271362305,5.633771896362305,-19.37777137756348,2,192.168.1.118,10.97.20.126,3,0
2015-02-21 12:39:10.236,24,1424547435.145531,39.63853406314023,-106.3703337299413,2516.133,-1,-1,10,65,-9999,1424547550.196857,-47.94458389282227,7.888427734375,-19.28215789794922,17.7854118347168,8.658853530883789,10,16878.66108670833,-1.005157470703125,-0.38226318359375,-0.211395263671875,16878.63963416667,1.551437276198893,0.3801846214203328,0.255500212872785,16878.58785858333,-0.8986053256024178,-1.224765856474214,0.3420483153802711,1.063083410263062,-0.483520120382309,0.1573161035776138,-0.06753604114055634,0.01269406173378229,0.1086570173501968,XTrueNorthZVertical,0.12058051499283,0.5707023984427255,0.4383447174816958,-0.683822395141494,-0.8862298130989075,-0.3354174494743347,-0.3195182383060455,-47.64631271362305,5.633771896362305,-19.37777137756348,2,192.168.1.118,10.97.20.126,3,0
2015-02-21 12:39:10.294,25,1424547435.145531,39.63853406314023,-106.3703337299413,2516.133,-1,-1,10,65,-9999,1424547550.2482,-47.9957389831543,6.580169677734375,-19.1656494140625,14.87636947631836,5.749812602996826,10,16878.710314125,-0.865997314453125,-0.55047607421875,-0.32708740234375,16878.69141054167,1.729921267191567,1.548881973132961,0.5914164390732757,16878.69141054167,-0.734975292378235,-1.228944711300178,0.3594861510299091,1.715236663818359,1.563705801963806,0.6231043934822083,-0.03988657146692276,-0.09309197962284088,0.006903321947902441,XTrueNorthZVertical,0.06747163602625615,0.5818469774618638,0.3850119469766046,-0.7132093111149699,-0.8819121122360229,-0.3517932891845703,-0.3138033449649811,-47.3481330871582,4.323703765869141,-20.41735458374023,2,192.168.1.118,10.97.20.126,3,0
2015-02-21 12:39:10.333,26,1424547435.145531,39.63853406314023,-106.3703337299413,2516.133,-1,-1,10,65,-9999,1424547550.299762,-47.24557876586914,5.86651611328125,-20.89687347412109,11.68791580200195,2.561358690261841,10,16878.75938366667,-0.824371337890625,-0.43084716796875,-0.4255828857421875,16878.74318725,1.365107346318736,1.365331318166411,0.6737669726168148,16878.74318725,-0.6430811547792501,-1.18408223875938,0.3529908328239618,1.350423097610474,1.380154967308044,0.7054543495178223,0.007614553906023502,-0.100690096616745,-0.02415832504630089,XTrueNorthZVertical,0.03539156251900163,0.5672748199281183,0.3511296938241431,-0.7440797683839552,-0.8690494894981384,-0.3457057774066925,-0.3538934290409088,-45.12194061279297,3.826164245605469,-25.03555679321289,2,192.168.1.118,10.97.20.126,3,0
2015-02-21 12:39:10.392,27,1424547435.145531,39.63853406314023,-106.3703337299413,2516.133,-1,-1,10,65,-9999,1424547550.351524,-45.31901168823242,4.66021728515625,-23.54365539550781,7.519745826721191,358.3931884765625,10,16878.80839466667,-0.89080810546875,-0.4254608154296875,-0.4773712158203125,16878.7949625,0.9490701850393201,0.9312946500274772,0.8395953557933239,16878.7949625,-0.5706262237248235,-1.154500886281445,0.3399641623789477,0.9343861937522888,0.9461184740066528,0.871282160282135,0.0461316742002964,-0.177761897444725,-0.08934972435235977,XTrueNorthZVertical,0.01536038998005972,0.5560111452411808,0.3210379413232236,-0.7665183315769883,-0.8622480034828186,-0.3334532976150513,-0.3812313377857208,-43.50804138183594,3.72789478302002,-27.75898742675781,2,192.168.1.118,10.97.20.126,3,0
2015-02-21 12:39:10.431,28,1424547435.145531,39.63853406314023,-106.3703337299413,2516.133,-1,-1,10,65,-9999,1424547550.404214,-43.27309799194336,4.150482177734375,-26.27364349365234,1.535462379455566,352.4089050292969,10,16878.85747229167,-0.8358917236328125,-0.4270172119140625,-0.4589385986328125,16878.84673920833,0.4085108017227426,1.368376909189026,0.9286112489131134,16878.7949625,-0.5706262237248235,-1.154500886281445,0.3399641623789477,0.9343861937522888,0.9461184740066528,0.871282160282135,0.0461316742002964,-0.177761897444725,-0.08934972435235977,XTrueNorthZVertical,0.01536038998005972,0.5560111452411808,0.3210379413232236,-0.7665183315769883,-0.8622480034828186,-0.3334532976150513,-0.3812313377857208,-43.50804138183594,3.72789478302002,-27.75898742675781,2,192.168.1.118,10.97.20.126,3,0
2015-02-21 12:39:10.491,29,1424547435.145531,39.63853406314023,-106.3703337299413,2516.133,-1,-1,10,65,-9999,1424547550.455122,-41.36358261108398,4.93206787109375,-28.60413360595703,356.8990173339844,347.7724609375,10,16878.90658404167,-0.693603515625,-0.3660736083984375,-0.4744720458984375,16878.89851558334,-0.05207332142653736,1.372376710830216,0.9256673906441398,16878.89851558334,-0.4901659262302288,-1.048024543025228,0.2699678128728413,-0.06675630807876587,1.387201189994812,0.9573519825935364,0.1311678290367126,-0.1570514142513275,0.001127312309108675,XTrueNorthZVertical,0.007265781726127434,0.5092617613224617,0.2734916617155699,-0.8159669266999005,-0.8350557684898376,-0.26670041680336,-0.481199324131012,-39.10255813598633,6.08457088470459,-33.33730316162109,2,192.168.1.118,10.97.20.126,3,0
2015-02-21 12:39:10.531,30,1424547435.145531,39.63853406314023,-106.3703337299413,2516.133,-1,-1,10,65,-9999,1424547550.507826,-38.99374771118164,6.47821044921875,-31.35078430175781,352.7521667480469,343.6256103515625,10,16878.95575416667,-0.686279296875,-0.2028350830078125,-0.4725341796875,16878.89851558334,-0.05207332142653736,1.372376710830216,0.9256673906441398,16878.89851558334,-0.4901659262302288,-1.048024543025228,0.2699678128728413,-0.06675630807876587,1.387201189994812,0.9573519825935364,0.1311678290367126,-0.1570514142513275,0.001127312309108675,XTrueNorthZVertical,0.007265781726127434,0.5092617613224617,0.2734916617155699,-0.8159669266999005,-0.8350557684898376,-0.26670041680336,-0.481199324131012,-39.10255813598633,6.08457088470459,-33.33730316162109,2,192.168.1.118,10.97.20.126,3,0
2015-02-21 12:39:10.588,31,1424547435.145531,39.63853406314023,-106.3703337299413,2516.133,-1,-1,10,65,-9999,1424547550.560016,-36.23178482055664,8.313140869140625,-33.18187713623047,349.7710876464844,340.64453125,10,16879.00476016667,-0.604156494140625,-0.2558441162109375,-0.4640655517578125,16879.0020675,-0.2550019354328312,0.7487991394848164,0.2249726636133157,16878.95029116667,-0.47883757679194,-0.9937653134430495,0.2336107468112655,-0.2418502122163773,1.064697027206421,0.5963982343673706,0.1351147294044495,0.02804625779390335,0.0645177960395813,XTrueNorthZVertical,0.012745570645085,0.4842290396452225,0.261009676170869,-0.8350052599617241,-0.8153210282325745,-0.2314916998147964,-0.5307195782661438,-36.85891342163086,7.754329681396484,-35.4781494140625,2,192.168.1.118,10.97.20.126,3,0
2015-02-21 12:39:10.628,32,1424547435.145531,39.63853406314023,-106.3703337299413,2516.133,-1,-1,10,65,-9999,1424547550.611084,-34.61209487915039,9.383544921875,-34.36374664306641,349.1310119628906,340.0044555664062,10,16879.053926625,-0.6825408935546875,-0.240966796875,-0.508544921875,16879.05384420833,-0.3658917021659865,-0.4025668924857947,0.1404793506566988,16879.0020675,-0.4777674295844413,-0.9461163874432922,0.2087160592027639,-0.2696846425533295,0.7636234164237976,0.2566566467285156,0.1586131155490875,-0.03161131218075752,0.09756655246019363,XTrueNorthZVertical,0.01712371820892592,0.4622056616707173,0.2555992848968173,-0.8489651098719216,-0.7935465574264526,-0.2072039991617203,-0.572145402431488,-34.93063354492188,9.073122978210449,-37.08014678955078,2,192.168.1.118,10.97.20.126,3,0
2015-02-21 12:39:10.690,33,1424547435.145531,39.63853406314023,-106.3703337299413,2516.133,-1,-1,10,65,-9999,1424547550.662762,-34.06652450561523,10.47091674804688,-35.19608306884766,348.2483215332031,339.1217651367188,10,16879.10292895833,-0.876495361328125,-0.1441802978515625,-0.51336669921875,16879.10561945834,-0.3810059403005132,-0.1239821329680939,0.3132852158892153,16879.05384420833,-0.485504923614426,-0.937548451674552,0.1929923506649592,-0.3805742561817169,-0.3877427577972412,0.1721630245447159,0.1622073650360107,-0.07210420817136765,0.08110015839338303,XTrueNorthZVertical,0.02466190683827419,0.4571672885943943,0.2556990567270772,-0.8514739576784518,-0.7911441326141357,-0.1917965412139893,-0.5807797312736511,-33.53486633300781,10.18619918823242,-38.06655120849609,2,192.168.1.118,10.97.20.126,3,0
2015-02-21 12:39:10.726,34,1424547435.145531,39.63853406314023,-106.3703337299413,2516.133,-1,-1,10,65,-9999,1424547550.715212,-33.86193466186523,11.49038696289062,-34.96303558349609,346.9346923828125,337.8081359863281,10,16879.15209808333,-0.8294830322265625,-0.1137237548828125,-0.6007537841796875,16879.10561945834,-0.3810059403005132,-0.1239821329680939,0.3132852158892153,16879.10561945834,-0.4939805663377947,-0.9565017580290347,0.170040227923949,-0.3956861197948456,-0.1091709434986115,0.3449722230434418,-0.07110050320625305,0.02504169940948486,0.05470290780067444,XTrueNorthZVertical,0.03901077406582799,0.4630802914838055,0.2541669911732101,-0.8481945480662965,-0.8053948879241943,-0.1692219972610474,-0.5680695772171021,-34.11665344238281,11.14596366882324,-37.27237319946289,2,192.168.1.118,10.97.20.126,3,0
2015-02-21 12:39:10.790,35,1424547435.145531,39.63853406314023,-106.3703337299413,2516.133,-1,-1,10,65,-9999,1424547550.766627,-33.89604568481445,13.15545654296875,-34.63011932373047,346.1949768066406,337.0684204101562,10,16879.20109054167,-0.885009765625,-0.0183563232421875,-0.6043853759765625,16879.20917254167,-0.7156025701808696,0.2192050556405311,0.8727911261489435,16879.15739595833,-0.4985368783659573,-0.9520319912340894,0.1365154587412153,-0.5512209534645081,0.04762251675128937,0.6348649859428406,-0.022466029971838,0.02236807160079479,-0.02612119354307652,XTrueNorthZVertical,0.05403411472581274,0.4580000211607476,0.249047073173779,-0.8516407094728974,-0.8070170283317566,-0.1360918283462524,-0.5746325850486755,-34.11079025268555,12.43094921112061,-36.86914825439453,2,192.168.1.118,10.97.20.126,3,0
2015-02-21 12:39:10.825,36,1424547435.145531,39.63853406314023,-106.3703337299413,2516.133,-1,-1,10,65,-9999,1424547550.819006,-33.46980667114258,15.24526977539062,-34.21393585205078,345.4583129882812,336.3317565917969,10,16879.250175,-0.7992706298828125,0.049713134765625,-0.5642242431640625,16879.20917254167,-0.7156025701808696,0.2192050556405311,0.8727911261489435,16879.20917254167,-0.5031077843795464,-0.9472236386100783,0.08425717292951844,-0.7302836179733276,0.2340158820152283,0.9044792056083679,-0.07609222084283829,0.06580118834972382,-0.02251772955060005,XTrueNorthZVertical,0.07712699970170128,0.4506857027817958,0.2399191807198821,-0.8563717986792689,-0.8089175224304199,-0.08415751159191132,-0.5818676352500916,-33.40723037719727,15.13155555725098,-36.5020751953125,2,192.168.1.118,10.97.20.126,3,0
2015-02-21 12:39:10.889,37,1424547435.145531,39.63853406314023,-106.3703337299413,2516.133,-1,-1,10,65,-9999,1424547550.870573,-32.42980575561523,17.81082153320312,-34.03084564208984,344.4828796386719,335.3563232421875,10,16879.299259625,-0.7471923828125,0.071136474609375,-0.5630340576171875,16879.26094808333,-0.621206559026902,0.4547486045686983,0.9474078398868926,16879.26094808333,-0.5025753259502155,-0.9266073535741011,0.0259517712631719,-0.6358875036239624,0.4695591032505035,0.9790957570075989,0.0167098306119442,0.09249243885278702,0.03722232952713966,XTrueNorthZVertical,0.09987132854453877,0.435719804877216,0.2280367782113597,-0.864970083171011,-0.7993178367614746,-0.02594885788857937,-0.6003479361534119,-32.21832275390625,17.65151214599609,-36.43915557861328,2,192.168.1.118,10.97.20.126,3,0
2015-02-21 12:39:10.923,38,1424547435.145531,39.63853406314023,-106.3703337299413,2516.133,-1,-1,10,65,-9999,1424547550.870573,-32.42980575561523,17.81082153320312,-34.03084564208984,344.4828796386719,335.3563232421875,10,16879.34832558333,-0.7331390380859375,0.022125244140625,-0.622833251953125,16879.3127245,-0.4879307928027586,0.354882460535708,0.9839392195078366,16879.3127245,-0.4941706383128954,-0.9060229526902264,-0.03134720496811132,-0.5026115775108337,0.3696928024291992,1.015626907348633,0.04756473004817963,0.01415963750332594,0.05384884774684906,XTrueNorthZVertical,0.1206970402886098,0.420884021901771,0.213230592448982,-0.873396603292335,-0.7866699695587158,0.03134207054972649,-0.6165777444839478,-30.63910293579102,20.07073402404785,-36.54885864257812,2,192.168.1.118,10.97.20.126,3,0
2015-02-21 12:39:10.989,39,1424547435.145531,39.63853406314023,-106.3703337299413,2516.133,-1,-1,10,65,-9999,1424547550.973841,-29.58258438110352,23.02685546875,-33.94762420654297,340.86767578125,331.7411193847656,10,16879.397436125,-0.7585906982421875,0.1105194091796875,-0.6499786376953125,16879.36450120834,-0.5463855808333439,0.2636902321731057,0.8799273326059198,16879.36450120834,-0.4843968052677448,-0.8893284574171958,-0.08508353778030789,-0.561066210269928,0.2785004675388336,0.9116146564483643,0.04649874567985535,-0.03125472366809845,-0.01281741540879011,XTrueNorthZVertical,0.1403465121276801,0.4080139189019273,0.1985585103180909,-0.880001172795537,-0.7738394141197205,0.08498091995716095,-0.6276549696922302,-28.56619453430176,22.96907806396484,-36.52125549316406,2,192.168.1.118,10.97.20.126,3,0
2015-02-21 12:39:11.021,40,1424547435.145531,39.63853406314023,-106.3703337299413,2516.133,-1,-1,10,65,-9999,1424547550.973841,-29.58258438110352,23.02685546875,-33.94762420654297,340.86767578125,331.7411193847656,10,16879.44661116667,-0.69793701171875,0.1429290771484375,-0.619293212890625,16879.41627658334,-0.6737563199724546,0.4053845169190986,0.8778021300560366,16879.41627658334,-0.479838840693368,-0.8717470912039162,-0.1402048909388781,-0.6884378790855408,0.4201981127262115,0.9094890952110291,-0.001120475819334388,-0.02945546992123127,-0.008560793474316597,XTrueNorthZVertical,0.1617563916847152,0.3940138569703334,0.1861516498399463,-0.8854013559689992,-0.7579432725906372,0.1397459954023361,-0.6371759176254272,-27.08057975769043,25.07900238037109,-36.26422500610352,2,192.168.1.118,10.97.20.126,3,0
2015-02-21 12:39:11.089,41,1424547435.145531,39.63853406314023,-106.3703337299413,2516.133,-1,-1,10,65,-9999,1424547551.077595,-26.27505111694336,27.68228149414062,-33.61470794677734,340.5268859863281,331.4003295898438,10,16879.49561583333,-0.6578369140625,0.21527099609375,-0.6123504638671875,16879.46805320833,-0.7456163956660626,0.502528644001919,0.8265501275096797,16879.46805320833,-0.4786934947002964,-0.8459589615474268,-0.1973141949387957,-0.7602896094322205,0.5172955393791199,0.8582626581192017,0.07148411124944687,-0.01592160388827324,0.03636422380805016,XTrueNorthZVertical,0.1840944762579541,0.3755458926952389,0.175845589082202,-0.8911525586097773,-0.7340817451477051,0.1960363537073135,-0.6501489877700806,-25.30102729797363,27.26333236694336,-35.97188949584961,2,192.168.1.118,10.97.20.126,3,0
2015-02-21 12:39:11.119,42,1424547435.145531,39.63853406314023,-106.3703337299413,2516.133,-1,-1,10,65,-9999,1424547551.077595,-26.27505111694336,27.68228149414062,-33.61470794677734,340.5268859863281,331.4003295898438,10,16879.54468416667,-0.634063720703125,0.2969818115234375,-0.60345458984375,16879.51982958334,-0.7470872595361134,0.3341145977230521,0.7476257507085274,16879.51982958334,-0.4802034783489861,-0.8252424397405651,-0.253668757154036,-0.7617603540420532,0.348881334066391,0.779338002204895,0.05276818946003914,0.008839151822030544,0.06229394301772118,XTrueNorthZVertical,0.2071493497293429,0.3588235911360848,0.1668228673325034,-0.8947094254065114,-0.7112001776695251,0.2509569823741913,-0.656669557094574,-22.81515312194824,30.12335586547852,-35.34770965576172,2,192.168.1.118,10.97.20.126,3,0
2015-02-21 12:39:11.191,43,1424547435.145531,39.63853406314023,-106.3703337299413,2516.133,-1,-1,10,65,-9999,1424547551.181633,-22.72881698608398,32.23574829101562,-32.24974822998047,339.3065185546875,330.1799621582031,10,16879.59378466667,-0.6383514404296875,0.330230712890625,-0.6399078369140625,16879.571605125,-0.6861107242693322,0.2050159996686979,0.7556684972005667,16879.571605125,-0.479519720277497,-0.8101832698343886,-0.3065325601053174,-0.7007837295532227,0.2197826206684113,0.7873804569244385,0.06547760218381882,0.005114857107400894,0.02707386575639248,XTrueNorthZVertical,0.2287877542340804,0.3450224564807926,0.1572462601758656,-0.8965987560344728,-0.6906454563140869,0.3017546534538269,-0.657231330871582,-21.19431114196777,32.05936431884766,-34.64688491821289,2,192.168.1.118,10.97.20.126,3,0
2015-02-21 12:39:11.217,44,1424547435.145531,39.63853406314023,-106.3703337299413,2516.133,-1,-1,10,65,-9999,1424547551.181633,-22.72881698608398,32.23574829101562,-32.24974822998047,339.3065185546875,330.1799621582031,10,16879.64285366667,-0.6400909423828125,0.43316650390625,-0.6511383056640625,16879.62338170833,-0.7776227982788529,0.1086465861469816,0.7692745872097816,16879.62338170833,-0.4790258629482035,-0.8027906887382735,-0.3618708101198519,-0.7922956347465515,0.1234130337834358,0.8009861707687378,0.02587779052555561,0.01923599652945995,0.003989075310528278,XTrueNorthZVertical,0.2520914484445371,0.3340578484009992,0.1465089949469875,-0.8963204882004141,-0.6727131009101868,0.3540244996547699,-0.6497105360031128,-19.69059944152832,33.89867401123047,-33.77230453491211,2,192.168.1.118,10.97.20.126,3,0
2015-02-21 12:39:11.287,45,1424547435.145531,39.63853406314023,-106.3703337299413,2516.133,-1,-1,10,65,-9999,1424547551.233407,-21.33078384399414,34.3765869140625,-31.25096130371094,337.8631896972656,328.7366333007812,10,16879.69194670834,-0.6337890625,0.5111541748046875,-0.642547607421875,16879.67515825,-0.7849829765835049,0.1074593489330243,0.7717641101967876,16879.67515825,-0.4801724167735797,-0.7979442741239319,-0.4182363985296544,-0.7996556162834167,0.1222256571054459,0.8034753799438477,0.01484082546085119,0.094415083527565,-0.0112294889986515,XTrueNorthZVertical,0.2761668768537852,0.323621881318452,0.136004807349032,-0.8947085972896758,-0.65421462059021,0.4061495065689087,-0.6380014419555664,-17.79060745239258,36.36588287353516,-32.22460174560547,2,192.168.1.118,10.97.20.126,3,0
2015-02-21 12:39:11.315,46,1424547435.145531,39.63853406314023,-106.3703337299413,2516.133,-1,-1,10,65,-9999,1424547551.285595,-19.77930068969727,36.50039672851562,-30.80150604248047,335.0776062011719,325.9510498046875,10,16879.74101554167,-0.6172027587890625,0.599639892578125,-0.621673583984375,16879.72693370833,-0.7497988901580321,0.1775079424531605,0.7674860082216843,16879.67515825,-0.4801724167735797,-0.7979442741239319,-0.4182363985296544,-0.7996556162834167,0.1222256571054459,0.8034753799438477,0.01484082546085119,0.094415083527565,-0.0112294889986515,XTrueNorthZVertical,0.2761668768537852,0.323621881318452,0.136004807349032,-0.8947085972896758,-0.65421462059021,0.4061495065689087,-0.6380014419555664,-17.79060745239258,36.36588287353516,-32.22460174560547,2,192.168.1.118,10.97.20.126,3,0
2015-02-21 12:39:11.387,47,1424547435.145531,39.63853406314023,-106.3703337299413,2516.133,-1,-1,10,65,-9999,1424547551.337197,-17.80159378051758,38.47125244140625,-29.66954040527344,334.4855041503906,325.3589477539062,10,16879.79013404167,-0.5634307861328125,0.6064453125,-0.5719146728515625,16879.77871008333,-0.6086281828823488,0.386307495082534,0.7436136985263231,16879.77871008333,-0.4764922790331706,-0.7726620417288412,-0.5273643498438224,-0.6233005523681641,0.4010735154151917,0.7753244042396545,0.01267479918897152,0.1230242103338242,0.01378878299146891,XTrueNorthZVertical,0.3204571969640596,0.2965173839394445,0.1156172210036684,-0.8921980339411256,-0.6032052040100098,0.5032575130462646,-0.6187692284584045,-14.548659324646,39.71154022216797,-29.81170845031738,2,192.168.1.118,10.97.20.126,3,0
2015-02-21 12:39:11.414,48,1424547435.145531,39.63853406314023,-106.3703337299413,2516.133,-1,-1,10,65,-9999,1424547551.388736,-15.89208602905273,40.30624389648438,-28.67076110839844,333.5345764160156,324.4080200195312,10,16879.839299875,-0.4815216064453125,0.64080810546875,-0.555755615234375,16879.83048683333,-0.5179978815097532,0.4247419696184485,0.7155700796155706,16879.77871008333,-0.4764922790331706,-0.7726620417288412,-0.5273643498438224,-0.6233005523681641,0.4010735154151917,0.7753244042396545,0.01267479918897152,0.1230242103338242,0.01378878299146891,XTrueNorthZVertical,0.3204571969640596,0.2965173839394445,0.1156172210036684,-0.8921980339411256,-0.6032052040100098,0.5032575130462646,-0.6187692284584045,-14.548659324646,39.71154022216797,-29.81170845031738,2,192.168.1.118,10.97.20.126,3,0
2015-02-21 12:39:11.487,49,1424547435.145531,39.63853406314023,-106.3703337299413,2516.133,-1,-1,10,65,-9999,1424547551.440743,-14.34061050415039,41.784423828125,-27.45557403564453,332.2519226074219,323.1253662109375,10,16879.8883015,-0.4448394775390625,0.5617218017578125,-0.5289764404296875,16879.88226208333,-0.4237520726412661,0.2647158155088952,0.589780725531749,16879.83048683333,-0.4676250815397803,-0.7460480000299554,-0.5748134401139224,-0.5326700806617737,0.4395078122615814,0.7472804188728333,0.07424140721559525,0.102150022983551,0.06154845654964447,XTrueNorthZVertical,0.3377609719813022,0.2788162708312461,0.1064113351286618,-0.8926677367909709,-0.5696637630462646,0.5436782240867615,-0.6163580417633057,-11.95160961151123,41.42446899414062,-28.61084747314453,2,192.168.1.118,10.97.20.126,3,0
2015-02-21 12:39:11.511,50,1424547435.145531,39.63853406314023,-106.3703337299413,2516.133,-1,-1,10,65,-9999,1424547551.493526,-12.58452987670898,42.85482788085938,-26.97281646728516,330.8611145019531,321.7345581054688,10,16879.93736291667,-0.4885406494140625,0.6417083740234375,-0.58868408203125,16879.93403883333,-0.484648979391454,-0.01943761384816134,0.5836077844410543,16879.88226208333,-0.45557941297431,-0.7208730334169812,-0.6154847756404697,-0.43842414021492,0.2794815301895142,0.6214907169342041,0.0969635546207428,-0.01828763447701931,0.08035434782505035,XTrueNorthZVertical,0.3520247638962222,0.2634224428807989,0.09731575863717876,-0.8928700201802989,-0.5389190912246704,0.5773544311523438,-0.6133743524551392,-10.03591728210449,42.436279296875,-27.85409927368164,2,192.168.1.118,10.97.20.126,3,0
2015-02-21 12:39:11.586,51,1424547435.145531,39.63853406314023,-106.3703337299413,2516.133,-1,-1,10,65,-9999,1424547551.544577,-10.77730941772461,43.77230834960938,-26.20709228515625,329.0790100097656,319.9524536132812,10,16879.986458875,-0.581787109375,0.712615966796875,-0.642852783203125,16879.98581520834,-0.5461477605479997,0.003985953203521596,0.6699748975406511,16879.93403883333,-0.4462938344431654,-0.7093700218411823,-0.6529378202183846,-0.499320924282074,-0.004672033246606588,0.6153175234794617,0.04517510160803795,0.005041545256972313,0.03830266743898392,XTrueNorthZVertical,0.3660789358184712,0.2542416839327009,0.08794753796926599,-0.8908494020268527,-0.5173735618591309,0.6075225472450256,-0.6026947498321533,-8.541677474975586,43.25003814697266,-27.09025955200195,2,192.168.1.118,10.97.20.126,3,0
2015-02-21 12:39:11.610,52,1424547435.145531,39.63853406314023,-106.3703337299413,2516.133,-1,-1,10,65,-9999,1424547551.596499,-9.191738128662109,44.70675659179688,-25.59117889404297,326.007568359375,316.8810119628906,10,16880.03562520833,-0.5432281494140625,0.739959716796875,-0.615325927734375,16879.98581520834,-0.5461477605479997,0.003985953203521596,0.6699748975406511,16879.98581520834,-0.4362321497665978,-0.7053523110821054,-0.695746359641586,-0.5608195662498474,0.01875138469040394,0.7016842365264893,-0.07157775014638901,0.0823996514081955,-0.0684434175491333,XTrueNorthZVertical,0.3826039995994349,0.2477995458659429,0.07594792039726334,-0.8868153841538021,-0.4976208508014679,0.6409584879875183,-0.5844191312789917,-6.868749618530273,44.36573028564453,-25.72761726379395,2,192.168.1.118,10.97.20.126,3,0
2015-02-21 12:39:11.688,53,1424547435.145531,39.63853406314023,-106.3703337299413,2516.133,-1,-1,10,65,-9999,1424547551.64984,-7.48681640625,45.86212158203125,-24.09300994873047,325.2380981445312,316.1115417480469,10,16880.084632875,-0.4318084716796875,0.7225189208984375,-0.5550537109375,16880.08936725,-0.5460715941408235,0.6137489090263532,0.8894374808585929,16880.03759083333,-0.4209129914648568,-0.6810268428829301,-0.7423851696129211,-0.5562123656272888,0.4819830358028412,0.8343197107315063,-0.07930876314640045,0.06391235440969467,-0.04284116625785828,XTrueNorthZVertical,0.3993737586050752,0.2329339405250432,0.06503359698260677,-0.8843150225898069,-0.4639194011688232,0.6760473847389221,-0.5724847316741943,-5.257534027099609,45.20882415771484,-24.61562728881836,2,192.168.1.118,10.97.20.126,3,0
2015-02-21 12:39:11.708,54,1424547435.145531,39.63853406314023,-106.3703337299413,2516.133,-1,-1,10,65,-9999,1424547551.700764,-4.963527679443359,46.67764282226562,-22.86117553710938,324.4855041503906,315.3589477539062,10,16880.133806125,-0.2784576416015625,0.6697998046875,-0.522491455078125,16880.08936725,-0.5460715941408235,0.6137489090263532,0.8894374808585929,16880.08936725,-0.3955162398049584,-0.6342052187011589,-0.7918312351004008,-0.5607430934906006,0.6285140514373779,0.9211462140083313,-0.01552521623671055,0.01087793428450823,0.01087508164346218,XTrueNorthZVertical,0.4158074839941895,0.210094597282993,0.05432695375279879,-0.883183461217564,-0.4162832498550415,0.7116410136222839,-0.5659288167953491,-2.992753982543945,45.97141647338867,-23.56015396118164,2,192.168.1.118,10.97.20.126,3,0
2015-02-21 12:39:11.788,55,1424547435.145531,39.63853406314023,-106.3703337299413,2516.133,-1,-1,10,65,-9999,1424547551.751497,-2.354995727539062,47.61212158203125,-21.34635925292969,324.1846618652344,315.05810546875,10,16880.18280820833,-0.186553955078125,0.854583740234375,-0.5439910888671875,16880.141144,-0.576405265272935,0.5356154910689545,0.7092061898747173,16880.141144,-0.3694008396244325,-0.5845728769740602,-0.8380505132584728,-0.5910766124725342,0.5503804683685303,0.7409145832061768,0.09067761898040771,-0.07354068756103516,0.03534733131527901,XTrueNorthZVertical,0.431326843634686,0.1871837621761341,0.04540577961473959,-0.8813953459944531,-0.3691352605819702,0.7433404922485352,-0.5578387975692749,0.3161678314208984,46.80073547363281,-22.06806755065918,2,192.168.1.118,10.97.20.126,3,0
2015-02-21 12:39:11.806,56,1424547435.145531,39.63853406314023,-106.3703337299413,2516.133,-1,-1,10,65,-9999,1424547551.751497,-2.354995727539062,47.61212158203125,-21.34635925292969,324.1846618652344,315.05810546875,10,16880.23187820833,-0.2438507080078125,0.883697509765625,-0.487701416015625,16880.19291929167,-0.6478392351921305,0.1500691274259651,0.5270236007601408,16880.19291929167,-0.3539148882124822,-0.5545277414867401,-0.8836891516112583,-0.6625104546546936,0.1648339629173279,0.5587316751480103,0.1502562612295151,0.08024834096431732,0.0001900927745737135,XTrueNorthZVertical,0.4484116367457153,0.1711744947139327,0.03783312822008882,-0.8764673401929574,-0.3339873254299164,0.7730841636657715,-0.5392525792121887,2.308042526245117,47.35917282104492,-20.71689414978027,2,192.168.1.118,10.97.20.126,3,0
2015-02-21 12:39:11.887,57,1424547435.145531,39.63853406314023,-106.3703337299413,2516.133,-1,-1,10,65,-9999,1424547551.854365,1.242385864257812,48.68255615234375,-19.06582641601562,320.7781677246094,311.651611328125,10,16880.28098054167,-0.2330474853515625,0.909393310546875,-0.4566802978515625,16880.24469608333,-0.5278209511905105,-0.01288357440547633,0.3413243074261146,16880.24469608333,-0.3487731948158974,-0.5500200106071447,-0.9210146712667074,-0.5424919724464417,0.001881104311905801,0.3730320632457733,0.06302308291196823,0.09764394164085388,0.03543507680296898,XTrueNorthZVertical,0.4634241185248998,0.1653699119765399,0.0307388898765124,-0.8700264633083453,-0.3162426948547363,0.7962158918380737,-0.5157817602157593,3.576485633850098,47.87321472167969,-19.30730819702148,2,192.168.1.118,10.97.20.126,3,0
2015-02-21 12:39:11.904,58,1424547435.145531,39.63853406314023,-106.3703337299413,2516.133,-1,-1,10,65,-9999,1424547551.854365,1.242385864257812,48.68255615234375,-19.06582641601562,320.7781677246094,311.651611328125,10,16880.33017575,-0.1921234130859375,0.8780975341796875,-0.42510986328125,16880.29647245833,-0.3250332184058818,0.1667269337283017,0.3682296912869671,16880.29647245833,-0.3395150437929406,-0.5360615764962194,-0.9492615097374856,-0.3397041261196136,0.1814914792776108,0.3999371826648712,0.07589186728000641,0.09285229444503784,0.04860909283161163,XTrueNorthZVertical,0.4741536392190773,0.1577208165128955,0.02561154799595969,-0.8658213249212786,-0.2974037230014801,0.8129857182502747,-0.5006049275398254,4.766324043273926,48.33946990966797,-17.83215522766113,2,192.168.1.118,10.97.20.126,3,0
2015-02-21 12:39:11.990,59,1424547435.145531,39.63853406314023,-106.3703337299413,2516.133,-1,-1,10,65,-9999,1424547551.959542,3.083698272705078,48.81851196289062,-17.1015625,318.2170104980469,309.0904541015625,10,16880.37917,-0.183349609375,0.863128662109375,-0.4009857177734375,16880.34824804167,-0.2039379520594339,0.03853807150231864,0.2844005707062159,16880.34824804167,-0.323512164038216,-0.5171353442994779,-0.9700811641516528,-0.2186087220907211,0.05330247059464455,0.3161077499389648,0.08858960866928101,0.03957036137580872,0.06657858937978745,XTrueNorthZVertical,0.4812913232121682,0.150657030899892,0.02007843161670794,-0.8632832822719894,-0.279446542263031,0.8249316215515137,-0.491322249174118,5.745802879333496,48.49294281005859,-17.11222267150879,2,192.168.1.118,10.97.20.126,2,0
2015-02-21 12:39:12.002,60,1424547435.145531,39.63853406314023,-106.3703337299413,2516.133,-1,-1,10,65,-9999,1424547551.959542,3.083698272705078,48.81851196289062,-17.1015625,318.2170104980469,309.0904541015625,10,16880.42823783333,-0.1511383056640625,0.87469482421875,-0.424591064453125,16880.4000245,-0.1525000608689894,0.05601879458148975,0.2227065798417673,16880.4000245,-0.3104950388880937,-0.5038625175144861,-0.9847246494268928,-0.1671706736087799,0.07078303396701813,0.2544133961200714,0.09502720087766647,0.05485014244914055,0.06194751709699631,XTrueNorthZVertical,0.4862468525738737,0.1462385427771021,0.01553961814211264,-0.861357565045902,-0.2670395374298096,0.833119809627533,-0.4843565821647644,6.449542999267578,48.56826782226562,-16.641357421875,2,192.168.1.118,10.97.20.126,2,0
2015-02-21 12:39:12.088,61,1424547435.145531,39.63853406314023,-106.3703337299413,2516.133,-1,-1,10,65,-9999,1424547552.062445,4.549930572509766,49.1922607421875,-16.46898651123047,315.9154663085938,306.7889099121094,10,16880.47736604167,-0.1975860595703125,0.8715057373046875,-0.4091949462890625,16880.45180120834,-0.1208209607541698,-0.1113715325743507,0.1375810324423655,16880.45180120834,-0.3001231307741011,-0.4952321086837393,-0.9956476279983271,-0.1354914158582687,-0.09660744667053223,0.1692875325679779,0.09116598963737488,0.02873220294713974,0.06170681864023209,XTrueNorthZVertical,0.4899413095025831,0.1437142533841201,0.01162661456010792,-0.8597491471797961,-0.2585091292858124,0.8391114473342896,-0.4786074459552765,7.179361343383789,48.62354278564453,-16.174560546875,2,192.168.1.118,10.97.20.126,2,0
2015-02-21 12:39:12.101,62,1424547435.145531,39.63853406314023,-106.3703337299413,2516.133,-1,-1,10,65,-9999,1424547552.062445,4.549930572509766,49.1922607421875,-16.46898651123047,315.9154663085938,306.7889099121094,10,16880.52644083334,-0.1857147216796875,0.8834228515625,-0.4003753662109375,16880.50357654167,-0.09645676520547092,-0.08725554363924715,0.05375004764885125,16880.50357654167,-0.2933151243414313,-0.4938791073517377,-1.011611233868096,-0.1111320331692696,-0.0725378692150116,0.08551749587059021,0.05767692625522614,0.04209807142615318,0.05499235913157463,XTrueNorthZVertical,0.4960187262998673,0.1428795164619589,0.006794895798868985,-0.8564489149691961,-0.2514787912368774,0.8476877212524414,-0.4671017229557037,7.42808723449707,48.67801284790039,-15.89599227905273,2,192.168.1.118,10.97.20.126,2,0
2015-02-21 12:39:12.190,63,1424547435.145531,39.63853406314023,-106.3703337299413,2516.133,-1,-1,10,65,-9999,1424547552.166416,4.60107421875,49.27719116210938,-15.55343627929688,315.5553894042969,306.4288330078125,10,16880.575551125,-0.1871795654296875,0.90582275390625,-0.39715576171875,16880.55535325,0.04250884468762679,-0.1248295508269571,-0.0226126344997538,16880.55535325,-0.2793318961599167,-0.4814975115084827,-1.03952057352962,0.02776058949530125,-0.1101148575544357,0.009248958900570869,0.04833103343844414,0.0257780198007822,0.05103568360209465,XTrueNorthZVertical,0.5064600065860638,0.1377785281933653,7.467530942916218e-05,-0.8511846926177004,-0.2346255928277969,0.8621614575386047,-0.4490306675434113,8.40727424621582,48.86418914794922,-14.79923629760742,2,192.168.1.118,10.97.20.126,2,0
2015-02-21 12:39:12.199,64,1424547435.145531,39.63853406314023,-106.3703337299413,2516.133,-1,-1,10,65,-9999,1424547552.166416,4.60107421875,49.27719116210938,-15.55343627929688,315.5553894042969,306.4288330078125,10,16880.62462079167,-0.1829681396484375,0.8562164306640625,-0.4050445556640625,16880.60712975,0.1559648334471825,-0.2030061119940151,-0.04530702804497304,16880.60712975,-0.2662402143870681,-0.4755661510241975,-1.054480580977788,0.1411619782447815,-0.1882978528738022,-0.01337703783065081,0.04034295678138733,0.002350100083276629,0.0382172018289566,XTrueNorthZVertical,0.5116847014416303,0.1368572026041035,-0.005992478010966137,-0.8481821798638742,-0.2260271608829498,0.8696439266204834,-0.4388977587223053,9.114283561706543,48.95241928100586,-14.07119655609131,2,192.168.1.118,10.97.20.126,2,0
2015-02-21 12:39:12.286,65,1424547435.145531,39.63853406314023,-106.3703337299413,2516.133,-1,-1,10,65,-9999,1424547552.269507,4.072547912597656,49.39614868164062,-16.86848449707031,313.4819946289062,304.3554382324219,10,16880.67372916667,-0.198333740234375,0.835113525390625,-0.43719482421875,16880.65890533333,0.2754350388964641,-0.264810357727593,-0.1112375755715197,16880.65890533333,-0.2519212081316329,-0.4722329162420254,-1.050396618875718,0.260613888502121,-0.2500922381877899,-0.07927864044904709,0.03533494099974632,-0.01312831602990627,0.01493621524423361,XTrueNorthZVertical,0.5090381731882979,0.1395570805052748,-0.010678638253514,-0.8492879216310517,-0.2261766195297241,0.8676205277442932,-0.4428079128265381,9.346943855285645,48.87221527099609,-14.19681072235107,2,192.168.1.118,10.97.20.126,2,0
2015-02-21 12:39:12.297,66,1424547435.145531,39.63853406314023,-106.3703337299413,2516.133,-1,-1,10,65,-9999,1424547552.269507,4.072547912597656,49.39614868164062,-16.86848449707031,313.4819946289062,304.3554382324219,10,16880.72278708333,-0.2019500732421875,0.8204498291015625,-0.457763671875,16880.71068175,0.3232166762263388,-0.2625796939985426,-0.2814061123765308,16880.65890533333,-0.2519212081316329,-0.4722329162420254,-1.050396618875718,0.260613888502121,-0.2500922381877899,-0.07927864044904709,0.03533494099974632,-0.01312831602990627,0.01493621524423361,XTrueNorthZVertical,0.5090381731882979,0.1395570805052748,-0.010678638253514,-0.8492879216310517,-0.2261766195297241,0.8676205277442932,-0.4428079128265381,9.346943855285645,48.87221527099609,-14.19681072235107,2,192.168.1.118,10.97.20.126,2,0
2015-02-21 12:39:12.387,67,1424547435.145531,39.63853406314023,-106.3703337299413,2516.133,-1,-1,10,65,-9999,1424547552.373126,2.725658416748047,48.93740844726562,-18.61635589599609,313.0577392578125,303.9311828613281,10,16880.77189720833,-0.2389984130859375,0.826141357421875,-0.4603729248046875,16880.7624585,0.290721583553519,-0.3849247818445649,-0.4225975923087167,16880.7624585,-0.2624186506624184,-0.507556140680986,-1.012676674802856,0.2759003341197968,-0.3701959848403931,-0.390631765127182,0.02380772866308689,-0.02267564460635185,0.0001063244635588489,XTrueNorthZVertical,0.4941354980182943,0.1562547861831089,-0.009961049926393491,-0.855169793960722,-0.2574045360088348,0.8482524156570435,-0.4628291130065918,8.18521785736084,48.55357360839844,-15.90474796295166,2,192.168.1.118,10.97.20.126,2,0
2015-02-21 12:39:12.395,68,1424547435.145531,39.63853406314023,-106.3703337299413,2516.133,-1,-1,10,65,-9999,1424547552.373126,2.725658416748047,48.93740844726562,-18.61635589599609,313.0577392578125,303.9311828613281,10,16880.82109804167,-0.2498016357421875,0.8580322265625,-0.458282470703125,16880.814234,0.2708506733960017,-0.3683817577852107,-0.6186933339061943,16880.7624585,-0.2624186506624184,-0.507556140680986,-1.012676674802856,0.2759003341197968,-0.3701959848403931,-0.390631765127182,0.02380772866308689,-0.02267564460635185,0.0001063244635588489,XTrueNorthZVertical,0.4941354980182943,0.1562547861831089,-0.009961049926393491,-0.855169793960722,-0.2574045360088348,0.8482524156570435,-0.4628291130065918,8.18521785736084,48.55357360839844,-15.90474796295166,2,192.168.1.118,10.97.20.126,2,0
2015-02-21 12:39:12.459,69,1424547435.145531,39.63853406314023,-106.3703337299413,2516.133,-1,-1,10,65,-9999,1424547552.425311,0.8161506652832031,48.66558837890625,-18.91600036621094,314.8653869628906,305.7388305664062,10,16880.87008995833,-0.253509521484375,0.876190185546875,-0.445465087890625,16880.86601058333,0.3739994297886238,-0.1750889932350415,-0.7154987068983566,16880.814234,-0.2904387391098559,-0.5497437767171724,-0.9885370187199504,0.2560295462608337,-0.3536531329154968,-0.5867278575897217,0.03293279185891151,0.01934611983597279,0.003997919149696827,XTrueNorthZVertical,0.4863500939495292,0.1703521747360433,-0.004796905663815674,-0.8569835237619295,-0.2873120605945587,0.8352223634719849,-0.4688874483108521,2.607690811157227,48.56460189819336,-19.2134838104248,2,192.168.1.118,10.97.20.126,2,0
2015-02-21 12:39:12.493,70,1424547435.145531,39.63853406314023,-106.3703337299413,2516.133,-1,-1,10,65,-9999,1424547552.477011,-0.7694244384765625,48.51266479492188,-19.46531677246094,316.1445922851562,307.0180358886719,10,16880.91926554167,-0.1696319580078125,1.091323852539062,-0.43572998046875,16880.917787,0.6190291585196532,-0.1049511838183877,-0.9978241424831827,16880.86601058333,-0.3230588703138846,-0.5887961969200959,-0.9585156642619671,0.3591761589050293,-0.1603589951992035,-0.6835297346115112,0.06930728256702423,0.04301927238702774,0.02512048371136189,XTrueNorthZVertical,0.4769464037685989,0.1831511527010561,0.004510041011419958,-0.8596263667151715,-0.3191852271556854,0.8183393478393555,-0.4779555797576904,1.062798500061035,48.37668991088867,-19.82536315917969,2,192.168.1.118,10.97.20.126,2,0
2015-02-21 12:39:12.589,71,1424547435.145531,39.63853406314023,-106.3703337299413,2516.133,-1,-1,10,65,-9999,1424547552.580879,-6.515003204345703,47.06851196289062,-21.84574127197266,323.1502990722656,314.0237426757812,10,16880.96828254167,-0.2000274658203125,0.8572998046875,-0.4342193603515625,16880.969562625,1.155914178480248,-0.9840670512401604,-1.492789408989277,16880.917787,-0.3560053935640864,-0.6194506703930635,-0.9176228344176928,0.6042044162750244,-0.09022092819213867,-0.9658533334732056,0.1470794677734375,0.2733151316642761,0.0602407231926918,XTrueNorthZVertical,0.4635314972318214,0.1942695638982218,0.01834184723586884,-0.8643272018640702,-0.3528289794921875,0.7941592335700989,-0.4947957694530487,-1.13569450378418,47.9139518737793,-20.91510772705078,2,192.168.1.118,10.97.20.126,2,0
2015-02-21 12:39:12.591,72,1424547435.145531,39.63853406314023,-106.3703337299413,2516.133,-1,-1,10,65,-9999,1424547552.580879,-6.515003204345703,47.06851196289062,-21.84574127197266,323.1502990722656,314.0237426757812,10,16881.01732566667,-0.66845703125,0.5780029296875,-0.458526611328125,16880.969562625,1.155914178480248,-0.9840670512401604,-1.492789408989277,16880.969562625,-0.3902820801547032,-0.6684778677174416,-0.8441474531812211,1.141089558601379,-0.9693369269371033,-1.460819005966187,0.211743101477623,0.1098948270082474,0.08715463429689407,XTrueNorthZVertical,0.4376663389485167,0.2185433063308992,0.03526294088591698,-0.8714605967195609,-0.4117705523967743,0.7474049925804138,-0.521373987197876,-3.594073295593262,47.09315872192383,-22.44539451599121,2,192.168.1.118,10.97.20.126,2,0
2015-02-21 12:39:12.659,73,1424547435.145531,39.63853406314023,-106.3703337299413,2516.133,-1,-1,10,65,-9999,1424547552.63235,-10.82844924926758,45.18255615234375,-23.66018676757812,323.8292541503906,314.7026977539062,10,16881.06644141667,-0.801422119140625,0.6565093994140625,-0.8148193359375,16881.07311583333,1.226352658783972,-0.8486711424722049,-1.43272687060861,16881.02133920834,-0.411725288911875,-0.7632538623410579,-0.7483592003947607,1.277197599411011,-1.728798389434814,-1.401525259017944,-0.1618853658437729,-0.1024343594908714,0.07099230587482452,XTrueNorthZVertical,0.4029134240082841,0.2700024305168887,0.0433275733554944,-0.8734312962571203,-0.5065716505050659,0.6804372668266296,-0.5295189023017883,-7.830810546875,45.49434280395508,-24.56463813781738,2,192.168.1.118,10.97.20.126,2,0
2015-02-21 12:39:12.690,74,1424547435.145531,39.63853406314023,-106.3703337299413,2516.133,-1,-1,10,65,-9999,1424547552.684022,-15.67043685913086,42.66793823242188,-26.15713500976562,323.7380676269531,314.6115112304688,10,16881.11550575,-0.8633880615234375,0.4210662841796875,-0.73651123046875,16881.07311583333,1.226352658783972,-0.8486711424722049,-1.43272687060861,16881.07311583333,-0.4161246633675865,-0.8271003085833043,-0.6532176826274648,1.211528420448303,-0.8339413404464722,-1.400757074356079,-0.2169634252786636,0.04876458644866943,-0.2771816253662109,XTrueNorthZVertical,0.366072887311544,0.311723884461834,0.05300152927964367,-0.8752198275580882,-0.5844587087631226,0.6077448129653931,-0.5376377105712891,-13.93549537658691,42.56206512451172,-26.99538612365723,2,192.168.1.118,10.97.20.126,2,0
2015-02-21 12:39:12.759,75,1424547435.145531,39.63853406314023,-106.3703337299413,2516.133,-1,-1,10,65,-9999,1424547552.736443,-19.60879898071289,40.20431518554688,-27.43888854980469,326.0718383789062,316.9452819824219,10,16881.16460704167,-0.7646026611328125,0.469085693359375,-0.6412353515625,16881.12489129167,0.6042590007979648,-0.7187184686562623,-1.185356223279401,16881.12489129167,-0.4264373624458239,-0.8722348457908986,-0.5769563636933276,0.5894348621368408,-0.703988790512085,-1.15338671207428,-0.2215772867202759,-0.1244092285633087,-0.1974978297948837,XTrueNorthZVertical,0.3377192249203048,0.3412316297940352,0.06641914619391694,-0.8746972302411742,-0.6418107748031616,0.5454755425453186,-0.5390133857727051,-17.47195053100586,40.25091552734375,-28.44421005249023,2,192.168.1.118,10.97.20.126,2,0
2015-02-21 12:39:12.792,76,1424547435.145531,39.63853406314023,-106.3703337299413,2516.133,-1,-1,10,65,-9999,1424547552.736443,-19.60879898071289,40.20431518554688,-27.43888854980469,326.0718383789062,316.9452819824219,10,16881.213679875,-0.6655731201171875,0.469207763671875,-0.5350189208984375,16881.176667875,0.4240317045557244,-0.1777502901123577,-1.27452817763907,16881.176667875,-0.4503443727085734,-0.901918198841649,-0.5169067020310623,0.4092077314853668,-0.1630207896232605,-1.24255895614624,-0.03999318927526474,-0.02832725271582603,-0.07716607302427292,XTrueNorthZVertical,0.318304859613081,0.3593559479972274,0.08569941131089936,-0.8730412232604203,-0.6820222139358521,0.4941933453083038,-0.539090633392334,-20.3264274597168,38.53178405761719,-28.9243278503418,2,192.168.1.118,10.97.20.126,2,0
2015-02-21 12:39:12.858,77,1424547435.145531,39.63853406314023,-106.3703337299413,2516.133,-1,-1,10,65,-9999,1424547552.840001,-24.7917594909668,35.85476684570312,-28.7373046875,330.6361999511719,321.5096435546875,10,16881.262793375,-0.6600341796875,0.429656982421875,-0.441741943359375,16881.2284445,0.4376021082063322,-0.2106073063773193,-1.507356101203683,16881.2284445,-0.4793725156894216,-0.9236246279832322,-0.4506818147051312,0.4227782785892487,-0.1958779543638229,-1.475387215614319,0.05642033740878105,0.04733078554272652,0.02591464668512344,XTrueNorthZVertical,0.2974176332496625,0.3744033052970354,0.1104446780971699,-0.8713018633746928,-0.7181329727172852,0.4355793595314026,-0.5427298545837402,-23.50914764404297,36.13489532470703,-29.59844017028809,2,192.168.1.118,10.97.20.126,2,0
2015-02-21 12:39:12.889,78,1424547435.145531,39.63853406314023,-106.3703337299413,2516.133,-1,-1,10,65,-9999,1424547552.840001,-24.7917594909668,35.85476684570312,-28.7373046875,330.6361999511719,321.5096435546875,10,16881.31186620834,-0.7060089111328125,0.407684326171875,-0.4473876953125,16881.28021979167,0.7059589975575837,-0.3142799065563599,-1.534577602285928,16881.28021979167,-0.5036858451304957,-0.9464445931890232,-0.3726279972458665,0.6911352872848511,-0.2995506823062897,-1.502609014511108,0.09042550623416901,0.008997799828648567,0.1102656871080399,XTrueNorthZVertical,0.2712840845545234,0.3926546584601958,0.1362054382079152,-0.86814479834005,-0.7556629180908203,0.3640643358230591,-0.5444545149803162,-26.16031646728516,33.82318878173828,-30.10163116455078,2,192.168.1.118,10.97.20.126,2,0
2015-02-21 12:39:12.945,79,1424547435.145531,39.63853406314023,-106.3703337299413,2516.133,-1,-1,10,65,-9999,1424547552.891229,-27.33208847045898,33.42510986328125,-29.08687591552734,335.1160583496094,325.989501953125,10,16881.36098691667,-0.6790771484375,0.199462890625,-0.427490234375,16881.33199658334,0.722403750972714,-0.1700556187747918,-1.310730923181498,16881.33199658334,-0.5163102148735008,-0.9632116069621609,-0.296817103779573,0.7075802087783813,-0.1553265601396561,-1.278762698173523,0.09980953484773636,0.04072820022702217,0.1041348427534103,XTrueNorthZVertical,0.2436571546292924,0.4094751627969835,0.1575490551468168,-0.8649506488222669,-0.7851275205612183,0.2924779653549194,-0.545922577381134,-28.71390533447266,31.09191131591797,-30.71291732788086,2,192.168.1.118,10.97.20.126,2,0
2015-02-21 12:39:12.989,80,1424547435.145531,39.63853406314023,-106.3703337299413,2516.133,-1,-1,10,65,-9999,1424547552.943317,-29.53143692016602,30.41775512695312,-29.53632354736328,337.3649597167969,328.2384033203125,10,16881.410063,-0.6714019775390625,0.1544189453125,-0.520660400390625,16881.383773,0.5765988770841838,-0.008056062297489695,-1.127407968488149,16881.383773,-0.5231432566662224,-0.9668416319321109,-0.2313305426278193,0.5617755055427551,0.006672849878668785,-1.095440030097961,0.1352008730173111,-0.06051062047481537,0.1083926409482956,XTrueNorthZVertical,0.2181036679648631,0.4195755163401979,0.1756183028919495,-0.8634497295285086,-0.8011707067489624,0.2292728275060654,-0.5527743697166443,-31.1179313659668,27.60707664489746,-31.68599510192871,2,192.168.1.118,10.97.20.126,2,0
2015-02-21 12:39:13.043,81,1424547435.145531,39.63853406314023,-106.3703337299413,2516.133,-1,-1,10,65,-9999,1424547552.995323,-31.42389297485352,27.61431884765625,-30.25212097167969,339.4327392578125,330.3061828613281,10,16881.459187125,-0.9248504638671875,0.12091064453125,-0.536651611328125,16881.435548625,0.5867617661200352,-0.4763013009546006,-1.257497795100231,16881.435548625,-0.5334554744380285,-0.9788881673167324,-0.1678995430789031,0.5719385147094727,-0.4615724980831146,-1.22553014755249,0.07170204818248749,-0.008115217089653015,0.006078124977648258,XTrueNorthZVertical,0.194869735352779,0.4324071235687367,0.1937842845422574,-0.858776783815427,-0.8182078003883362,0.167111799120903,-0.5500997304916382,-32.52396392822266,25.21296119689941,-32.26416778564453,2,192.168.1.118,10.97.20.126,2,0
2015-02-21 12:39:13.087,82,1424547435.145531,39.63853406314023,-106.3703337299413,2516.133,-1,-1,10,65,-9999,1424547553.048706,-33.0947151184082,24.82791137695312,-30.35199737548828,342.9301452636719,333.8035888671875,10,16881.50825754167,-1.064361572265625,0.072357177734375,-0.558441162109375,16881.487325125,0.5816040220368787,-0.4205749214608016,-1.097431693574326,16881.487325125,-0.5418546164022326,-1.006138346900457,-0.1032522973845867,0.5668113231658936,-0.4058910012245178,-1.065433263778687,-0.1789381951093674,0.006290808785706758,-0.01945033483207226,XTrueNorthZVertical,0.1724154163515337,0.4518123994543236,0.2101844974788097,-0.8496828846979376,-0.8402726054191589,0.103068932890892,-0.53227698802948,-34.51335525512695,22.55712509155273,-32.16337966918945,2,192.168.1.118,10.97.20.126,2,0
2015-02-21 12:39:13.141,83,1424547435.145531,39.63853406314023,-106.3703337299413,2516.133,-1,-1,10,65,-9999,1424547553.124481,-35.22587203979492,20.56329345703125,-30.53511810302734,345.2436828613281,336.1171264648438,10,16881.55736741667,-0.906829833984375,0.0219879150390625,-0.556884765625,16881.53910183334,0.5603551923313544,0.272538851211003,-0.7711691600092639,16881.53910183334,-0.5419117547889625,-1.007479894006526,-0.0508770494220865,0.5455626845359802,0.2872225940227509,-0.7391711473464966,-0.1428030729293823,0.009813842363655567,-0.0286027230322361,XTrueNorthZVertical,0.1506187290906311,0.4589802901241857,0.2224998240936241,-0.8468441223910821,-0.8443948030471802,0.05085510388016701,-0.5333021879196167,-36.33896636962891,19.29876708984375,-32.27252960205078,2,192.168.1.118,10.97.20.126,3,0
2015-02-21 12:39:13.196,84,1424547435.145531,39.63853406314023,-106.3703337299413,2516.133,-1,-1,10,65,-9999,1424547553.176106,-36.09538650512695,18.26956176757812,-31.45067596435547,346.6690368652344,337.54248046875,10,16881.60643879167,-0.78289794921875,-0.0694732666015625,-0.5140533447265625,16881.59087720833,0.5015432743985896,0.4625306275900189,-0.6437531471316219,16881.53910183334,-0.5419117547889625,-1.007479894006526,-0.0508770494220865,0.5455626845359802,0.2872225940227509,-0.7391711473464966,-0.1428030729293823,0.009813842363655567,-0.0286027230322361,XTrueNorthZVertical,0.1506187290906311,0.4589802901241857,0.2224998240936241,-0.8468441223910821,-0.8443948030471802,0.05085510388016701,-0.5333021879196167,-36.33896636962891,19.29876708984375,-32.27252960205078,2,192.168.1.118,10.97.20.126,3,0
2015-02-21 12:39:13.240,85,1424547435.145531,39.63853406314023,-106.3703337299413,2516.133,-1,-1,10,65,-9999,1424547553.228288,-35.85668563842773,16.12875366210938,-32.41616058349609,347.3094787597656,338.1829223632812,10,16881.655666625,-0.724334716796875,-0.095123291015625,-0.5035552978515625,16881.64265391667,0.5027132010654615,0.2722128802935773,-0.6401738586265554,16881.64265391667,-0.534915885083569,-0.9660463879051197,0.02959103616262881,0.487921804189682,0.2868958711624146,-0.6081778407096863,0.07011742889881134,-0.07501228153705597,0.06015929579734802,XTrueNorthZVertical,0.1100974555052792,0.4513588430408478,0.240647265645447,-0.8521987363654292,-0.8222841620445251,-0.02958671748638153,-0.5683075189590454,-36.15813064575195,15.6004467010498,-34.40485382080078,2,192.168.1.118,10.97.20.126,3,0
2015-02-21 12:39:13.294,86,1424547435.145531,39.63853406314023,-106.3703337299413,2516.133,-1,-1,10,65,-9999,1424547553.279468,-34.98718643188477,14.00497436523438,-33.59806060791016,347.5279541015625,338.4013977050781,10,16881.70462470833,-0.6776580810546875,-0.1326904296875,-0.51031494140625,16881.69443033333,0.4410357217997714,0.3142428886172078,-0.6594724554658146,16881.64265391667,-0.534915885083569,-0.9660463879051197,0.02959103616262881,0.487921804189682,0.2868958711624146,-0.6081778407096863,0.07011742889881134,-0.07501228153705597,0.06015929579734802,XTrueNorthZVertical,0.1100974555052792,0.4513588430408478,0.240647265645447,-0.8521987363654292,-0.8222841620445251,-0.02958671748638153,-0.5683075189590454,-36.15813064575195,15.6004467010498,-34.40485382080078,2,192.168.1.118,10.97.20.126,3,0
2015-02-21 12:39:13.338,87,1424547435.145531,39.63853406314023,-106.3703337299413,2516.133,-1,-1,10,65,-9999,1424547553.331998,-34.25406265258789,11.74520874023438,-33.41495513916016,349.6114807128906,340.4849243164062,10,16881.75385258333,-0.697021484375,-0.1825714111328125,-0.5074462890625,16881.746206,0.3829796089843709,0.155577609824685,-0.7886927599819853,16881.69443033333,-0.533669567135054,-0.9512273794303484,0.06797287074952137,0.4262444674968719,0.3289257287979126,-0.6274767518043518,0.1212545484304428,-0.04427733644843102,0.07665779441595078,XTrueNorthZVertical,0.09152549390887106,0.4493900470454598,0.2492871227015632,-0.8529523126539762,-0.8122488260269165,-0.06792054325342178,-0.579343318939209,-36.05570602416992,13.27498531341553,-35.47167205810547,2,192.168.1.118,10.97.20.126,3,0
2015-02-21 12:39:13.391,88,1424547435.145531,39.63853406314023,-106.3703337299413,2516.133,-1,-1,10,65,-9999,1424547553.383658,-34.03241348266602,10.16513061523438,-33.93096160888672,350.0031433105469,340.8765869140625,10,16881.80282175,-0.764404296875,-0.295623779296875,-0.519683837890625,16881.79798245833,0.3292708403324159,0.1036438380392678,-0.7701603545883419,16881.746206,-0.539077769898279,-0.9377928324342911,0.1071356561192212,0.3681885302066803,0.1702602654695511,-0.756697416305542,0.1194722726941109,-0.06212130188941956,0.08509495854377747,XTrueNorthZVertical,0.07412431424060301,0.447679539519,0.2605274638397614,-0.8521819665687674,-0.8016316890716553,-0.1069308221340179,-0.5881772041320801,-35.92583465576172,11.57430839538574,-36.19182586669922,2,192.168.1.118,10.97.20.126,3,0
2015-02-21 12:39:13.437,89,1424547435.145531,39.63853406314023,-106.3703337299413,2516.133,-1,-1,10,65,-9999,1424547553.383658,-34.03241348266602,10.16513061523438,-33.93096160888672,350.0031433105469,340.8765869140625,10,16881.85194729167,-0.72613525390625,-0.283203125,-0.5427703857421875,16881.84975920833,0.268709758195687,0.1795639028147016,-0.6312991406099753,16881.84975920833,-0.5569322822407878,-0.9215573700940995,0.18342183719647,0.2539207935333252,0.1942454725503922,-0.5993071794509888,0.04946351423859596,-0.09687128663063049,0.06248684227466583,XTrueNorthZVertical,0.04284010923634163,0.4482692839210116,0.284331224151032,-0.8463894946959767,-0.7831823825836182,-0.1823950707912445,-0.5944387316703796,-36.12163162231445,7.516253471374512,-37.05688095092773,2,192.168.1.118,10.97.20.126,3,0
2015-02-21 12:39:13.489,90,1424547435.145531,39.63853406314023,-106.3703337299413,2516.133,-1,-1,10,65,-9999,1424547553.436057,-33.87897872924805,8.00732421875,-34.41368865966797,351.5478515625,342.4212951660156,10,16881.901016625,-0.7979736328125,-0.376068115234375,-0.6014556884765625,16881.84975920833,0.268709758195687,0.1795639028147016,-0.6312991406099753,16881.84975920833,-0.5569322822407878,-0.9215573700940995,0.18342183719647,0.2539207935333252,0.1942454725503922,-0.5993071794509888,0.04946351423859596,-0.09687128663063049,0.06248684227466583,XTrueNorthZVertical,0.04284010923634163,0.4482692839210116,0.284331224151032,-0.8463894946959767,-0.7831823825836182,-0.1823950707912445,-0.5944387316703796,-36.12163162231445,7.516253471374512,-37.05688095092773,2,192.168.1.118,10.97.20.126,3,0
2015-02-21 12:39:13.534,91,1424547435.145531,39.63853406314023,-106.3703337299413,2516.133,-1,-1,10,65,-9999,1424547553.487624,-33.65734481811523,6.733062744140625,-35.26267242431641,351.9714050292969,342.8448486328125,10,16881.950138625,-0.792755126953125,-0.358489990234375,-0.646209716796875,16881.95331129167,-0.07684897536365352,0.4663583890247898,-0.4923569665344703,16881.90153454167,-0.5660254960370702,-0.9120696845192082,0.2145815633751876,0.1425014734268188,0.142615020275116,-0.5684565305709839,-0.0253372136503458,-0.1631295084953308,-0.003383660688996315,XTrueNorthZVertical,0.02995520094245169,0.4472881308805083,0.2945537481763397,-0.84396335878435,-0.7726364135742188,-0.2129386067390442,-0.5980720520019531,-36.00521850585938,6.170648574829102,-37.41691970825195,2,192.168.1.118,10.97.20.126,3,0
2015-02-21 12:39:13.595,92,1424547435.145531,39.63853406314023,-106.3703337299413,2516.133,-1,-1,10,65,-9999,1424547553.539396,-33.24814987182617,5.23785400390625,-35.39583587646484,352.6690979003906,343.5425415039062,10,16881.99920525,-0.7605133056640625,-0.368682861328125,-0.6102447509765625,16881.95331129167,-0.07684897536365352,0.4663583890247898,-0.4923569665344703,16881.95331129167,-0.5822456156141925,-0.893823831955411,0.2380449630120034,-0.09162579476833344,0.4810392260551453,-0.4603802263736725,-0.03526276722550392,-0.1226868182420731,-0.03743863850831985,XTrueNorthZVertical,0.02059702882372961,0.4418033754601022,0.3061653240085518,-0.8429996333544912,-0.7574923634529114,-0.2358031719923019,-0.6087710857391357,-35.87934875488281,4.906702995300293,-37.72366714477539,2,192.168.1.118,10.97.20.126,3,0
2015-02-21 12:39:13.632,93,1424547435.145531,39.63853406314023,-106.3703337299413,2516.133,-1,-1,10,65,-9999,1424547553.590574,-32.61732864379883,4.711151123046875,-36.11164093017578,354.981689453125,345.8551330566406,10,16882.048331375,-0.6771087646484375,-0.3686676025390625,-0.5659027099609375,16882.00508779167,-0.2654529784986291,0.7857747343755855,-0.4340286786556639,16882.00508779167,-0.6049003390300499,-0.8540024123526895,0.2482844891648903,-0.2802292704582214,0.8004552721977234,-0.4020528197288513,-0.02971590124070644,-0.1229414418339729,0.02658045664429665,XTrueNorthZVertical,0.0148174088804949,0.4258730333995615,0.3179823290260772,-0.846935587792631,-0.7307974100112915,-0.2457414120435715,-0.6368252038955688,-34.77081298828125,4.109421730041504,-38.8404655456543,2,192.168.1.118,10.97.20.126,3,0
2015-02-21 12:39:13.689,94,1424547435.145531,39.63853406314023,-106.3703337299413,2516.133,-1,-1,10,65,-9999,1424547553.642874,-31.3897819519043,4.847076416015625,-36.84406280517578,357.7628173828125,348.6362609863281,10,16882.09739775,-0.5796966552734375,-0.3471221923828125,-0.5794219970703125,16882.05686341667,-0.3114969032172271,0.7052418082760253,-0.2166279146536614,16882.05686341667,-0.6265776137781907,-0.8094338903404608,0.2495277574006937,-0.3262702822685242,0.7199201583862305,-0.1846568584442139,0.0243682749569416,-0.1217212304472923,0.1026386022567749,XTrueNorthZVertical,0.01158920711080835,0.4069336985401925,0.3277040724177654,-0.8525730137748484,-0.70147705078125,-0.2469463646411896,-0.6685413122177124,-33.42496871948242,4.01302433013916,-40.01432037353516,2,192.168.1.118,10.97.20.126,3,0
2015-02-21 12:39:13.731,95,1424547435.145531,39.63853406314023,-106.3703337299413,2516.133,-1,-1,10,65,-9999,1424547553.694913,-29.56550979614258,5.577667236328125,-37.72634124755859,357.3718566894531,348.2453002929688,10,16882.14650241667,-0.53759765625,-0.388916015625,-0.557769775390625,16882.160416625,-0.1862588234790518,0.3365196985035026,0.04810627666675533,16882.108639875,-0.6402354574740599,-0.7779494836120897,0.2391681527893184,-0.3294616639614105,0.4640342891216278,0.06400231271982193,0.1158336400985718,-0.1162090972065926,0.1131130084395409,XTrueNorthZVertical,0.01370674917060849,0.392139647859689,0.3320365001295499,-0.8577822752952786,-0.6818431615829468,-0.2368945330381393,-0.6920772194862366,-32.21001434326172,4.375295639038086,-40.96156692504883,2,192.168.1.118,10.97.20.126,3,0
2015-02-21 12:39:13.789,96,1424547435.145531,39.63853406314023,-106.3703337299413,2516.133,-1,-1,10,65,-9999,1424547553.747471,-28.33797073364258,5.98541259765625,-38.32559967041016,356.7030334472656,347.5764770507812,10,16882.19557033333,-0.4903564453125,-0.3983612060546875,-0.5753936767578125,16882.160416625,-0.1862588234790518,0.3365196985035026,0.04810627666675533,16882.160416625,-0.646445142474207,-0.7572189530121282,0.2264359444521319,-0.2010311335325241,0.3511973321437836,0.08007550239562988,0.1440996825695038,-0.1713071018457413,0.150396928191185,XTrueNorthZVertical,0.01711201742852571,0.3815869085862867,0.3328369467488894,-0.8621590482963897,-0.6693682074546814,-0.2245058864355087,-0.7081972360610962,-31.09414100646973,5.270415306091309,-41.71157455444336,2,192.168.1.118,10.97.20.126,3,0
2015-02-21 12:39:13.829,97,1424547435.145531,39.63853406314023,-106.3703337299413,2516.133,-1,-1,10,65,-9999,1424547553.798454,-27.5536994934082,6.3931884765625,-38.82500457763672,356.0067443847656,346.8801879882812,10,16882.24468616667,-0.52569580078125,-0.473358154296875,-0.6286773681640625,16882.21219195833,-0.01148461588485771,0.2692977841643766,-0.01167103716116325,16882.21219195833,-0.6484827754625676,-0.7404737776171286,0.2211201272359831,-0.02625679224729538,0.2839752733707428,0.02029790170490742,0.1635829955339432,-0.1863170266151428,0.1322404593229294,XTrueNorthZVertical,0.0170743600444464,0.373657645243485,0.3330322117006438,-0.8655507056061572,-0.658211886882782,-0.2193226218223572,-0.7201768755912781,-30.42213821411133,5.671662330627441,-42.15215682983398,2,192.168.1.118,10.97.20.126,3,0
2015-02-21 12:39:13.890,98,1424547435.145531,39.63853406314023,-106.3703337299413,2516.133,-1,-1,10,65,-9999,1424547553.850398,-27.09337997436523,6.444122314453125,-38.84165191650391,356.2464294433594,347.119873046875,10,16882.293750875,-0.5302276611328125,-0.545562744140625,-0.69927978515625,16882.26396870834,0.0772045073691791,0.2261852008576288,-0.01563435349541917,16882.26396870834,-0.6475709959853877,-0.7269009807178195,0.2413611228412635,0.06248847767710686,0.2408626973628998,0.01626682467758656,0.1085202917456627,-0.2598158121109009,0.0837625116109848,XTrueNorthZVertical,0.005606234260084833,0.3703778083878755,0.3357855577598581,-0.866046740087675,-0.6452939510345459,-0.2390245199203491,-0.725577712059021,-29.90536308288574,5.725885391235352,-42.51308441162109,2,192.168.1.118,10.97.20.126,3,0
2015-02-21 12:39:13.927,99,1424547435.145531,39.63853406314023,-106.3703337299413,2516.133,-1,-1,10,65,-9999,1424547553.901683,-26.44551467895508,6.444122314453125,-39.54080963134766,358.92236328125,349.7958068847656,10,16882.342972375,-0.5487823486328125,-0.504058837890625,-0.65740966796875,16882.31574516667,-0.02581242254948401,0.1891129332192898,-0.1466203338143125,16882.31574516667,-0.6491872730691203,-0.7106209975517184,0.2622900821452988,-0.04047172516584396,0.2037945538759232,-0.1147859767079353,0.1181693747639656,-0.2844997346401215,0.03751480206847191,XTrueNorthZVertical,-0.006204282887902744,0.3659844034281588,0.339552296750466,-0.8664416937786628,-0.6299949288368225,-0.2592929899692535,-0.7320338487625122,-29.16794586181641,3.6318359375,-43.2495002746582,2,192.168.1.118,10.97.20.126,3,0
2015-02-21 12:39:13.988,100,1424547435.145531,39.63853406314023,-106.3703337299413,2516.133,-1,-1,10,65,-9999,1424547553.953386,-26.01928329467773,6.35919189453125,-39.75722503662109,0.6068124771118164,351.4802551269531,10,16882.39194533333,-0.5663299560546875,-0.4757232666015625,-0.605255126953125,16882.36752079167,-0.01605326873488864,-0.003189668037587903,-0.1760330838414746,16882.36752079167,-0.6570948338201955,-0.7049667850055893,0.2654827945481348,-0.03071242570877075,0.01149181462824345,-0.1441990435123444,0.05435280129313469,-0.2239376902580261,0.1077527180314064,XTrueNorthZVertical,-0.007155965968122467,0.3639695024308355,0.3434140319780686,-0.8657608467222643,-0.6253061890602112,-0.2623751759529114,-0.7349500060081482,-28.90242385864258,3.546828269958496,-43.43441390991211,2,192.168.1.118,10.97.20.126,3,0
2015-02-21 12:39:14.025,101,1424547435.145531,39.63853406314023,-106.3703337299413,2516.133,-1,-1,10,65,-9999,1424547554.005728,-26.0192756652832,6.291229248046875,-39.89040374755859,1.327027320861816,352.2004699707031,10,16882.44118854167,-0.523773193359375,-0.46527099609375,-0.6361541748046875,16882.41929741667,0.07431204810924404,-0.1054582496899387,-0.03906031739208318,16882.41929741667,-0.658769359734796,-0.7056076953118432,0.2685568390322974,0.05965302139520645,-0.09077689796686172,-0.007226564455777407,0.08368613570928574,-0.1999001950025558,0.132781133055687,XTrueNorthZVertical,-0.008116479735300381,0.3646481911759487,0.3445769204053169,-0.865004400554226,-0.6252510547637939,-0.265340268611908,-0.7339316606521606,-28.89922332763672,3.41115665435791,-43.44741058349609,2,192.168.1.118,10.97.20.126,3,0
2015-02-21 12:39:14.090,102,1424547435.145531,39.63853406314023,-106.3703337299413,2516.133,-1,-1,10,65,-9999,1424547554.057058,-26.4284553527832,6.121337890625,-39.65735626220703,2.348237037658691,353.2216796875,10,16882.49012366667,-0.5595855712890625,-0.5224609375,-0.647918701171875,16882.47107404167,0.03898148782381684,-0.3523452669651895,-0.04010347759106721,16882.47107404167,-0.6566678307821282,-0.7183196507352928,0.2704009947266474,0.02442830242216587,-0.3377467393875122,-0.008200343698263168,0.08719456940889359,-0.2522302567958832,0.07015922665596008,XTrueNorthZVertical,-0.007138894384768243,0.3703669380500579,0.3439815076239894,-0.8628175574387025,-0.6342068910598755,-0.2671178877353668,-0.7255547642707825,-29.27013778686523,3.257683753967285,-43.21024322509766,2,192.168.1.118,10.97.20.126,3,0
2015-02-21 12:39:14.123,103,1424547435.145531,39.63853406314023,-106.3703337299413,2516.133,-1,-1,10,65,-9999,1424547554.109643,-26.66714096069336,6.155303955078125,-39.12468719482422,2.903717994689941,353.7771606445312,10,16882.53924283334,-0.588653564453125,-0.45947265625,-0.670074462890625,16882.52284933333,0.02223659615383462,-0.4312813616751381,-0.09801844286869339,16882.52284933333,-0.6582752098008363,-0.7368063527316983,0.2729914753330637,0.007683558389544487,-0.4166829884052277,-0.06611563265323639,0.07941680401563644,-0.2186526507139206,0.0641137883067131,XTrueNorthZVertical,-0.00480839122754077,0.3786565748015365,0.3451077946344435,-0.8587763011642181,-0.647043764591217,-0.2696133255958557,-0.7131921648979187,-29.95132064819336,3.164204597473145,-42.74792098999023,2,192.168.1.118,10.97.20.126,3,0
2015-02-21 12:39:14.192,104,1424547435.145531,39.63853406314023,-106.3703337299413,2516.133,-1,-1,10,65,-9999,1424547554.16035,-27.7071418762207,6.64801025390625,-38.40888214111328,4.712281227111816,355.5857238769531,10,16882.58831045833,-0.67626953125,-0.4202117919921875,-0.655609130859375,16882.574626125,-0.1037644792366483,-0.495842245453057,0.0714169256882189,16882.52284933333,-0.6582752098008363,-0.7368063527316983,0.2729914753330637,0.007683558389544487,-0.4166829884052277,-0.06611563265323639,0.07941680401563644,-0.2186526507139206,0.0641137883067131,XTrueNorthZVertical,-0.00480839122754077,0.3786565748015365,0.3451077946344435,-0.8587763011642181,-0.647043764591217,-0.2696133255958557,-0.7131921648979187,-29.95132064819336,3.164204597473145,-42.74792098999023,2,192.168.1.118,10.97.20.126,3,0
2015-02-21 12:39:14.221,105,1424547435.145531,39.63853406314023,-106.3703337299413,2516.133,-1,-1,10,65,-9999,1424547554.213688,-28.54254531860352,6.5970458984375,-38.29236602783203,3.903779029846191,354.7772216796875,10,16882.63752425,-0.6530609130859375,-0.39544677734375,-0.632110595703125,16882.62640270833,-0.06485862518778977,-0.2172455017104508,0.2135458383241127,16882.62640270833,-0.6565760994683936,-0.7783877450440575,0.2597651261714077,-0.07941138744354248,-0.2026474177837372,0.2454480528831482,-0.01028199587017298,-0.1367316395044327,0.06305075436830521,XTrueNorthZVertical,0.007878357098826396,0.3947900043298421,0.3423180216503687,-0.8525826667540326,-0.6785760521888733,-0.2568535506725311,-0.6881575584411621,-31.85475540161133,3.616279602050781,-41.31192779541016,2,192.168.1.118,10.97.20.126,3,0
2015-02-21 12:39:14.289,106,1424547435.145531,39.63853406314023,-106.3703337299413,2516.133,-1,-1,10,65,-9999,1424547554.26528,-29.36091232299805,6.936859130859375,-37.99274444580078,3.509613990783691,354.383056640625,10,16882.686476375,-0.6128082275390625,-0.33953857421875,-0.611175537109375,16882.67817804167,-0.03075125479103595,-0.1693882306056179,0.2342942600608111,16882.62640270833,-0.6565760994683936,-0.7783877450440575,0.2597651261714077,-0.07941138744354248,-0.2026474177837372,0.2454480528831482,-0.01028199587017298,-0.1367316395044327,0.06305075436830521,XTrueNorthZVertical,0.007878357098826396,0.3947900043298421,0.3423180216503687,-0.8525826667540326,-0.6785760521888733,-0.2568535506725311,-0.6881575584411621,-31.85475540161133,3.616279602050781,-41.31192779541016,2,192.168.1.118,10.97.20.126,3,0
2015-02-21 12:39:14.320,107,1424547435.145531,39.63853406314023,-106.3703337299413,2516.133,-1,-1,10,65,-9999,1424547554.26528,-29.36091232299805,6.936859130859375,-37.99274444580078,3.509613990783691,354.383056640625,10,16882.73559275,-0.645751953125,-0.2918243408203125,-0.580078125,16882.72995483334,0.09473023787077255,-0.2011488234497939,0.2593348985263901,16882.67817804167,-0.6482522151073441,-0.7891751085930294,0.2648348709102175,-0.04525607824325562,-0.1548007875680923,0.2661393880844116,0.06442128121852875,-0.08406003564596176,0.0575876459479332,XTrueNorthZVertical,0.005822533730000318,0.4000378819621486,0.339546447054896,-0.8512602710181949,-0.6850267648696899,-0.2617498934268951,-0.6798715591430664,-32.22460174560547,3.61023998260498,-41.02462387084961,2,192.168.1.118,10.97.20.126,3,0
2015-02-21 12:39:14.388,108,1424547435.145531,39.63853406314023,-106.3703337299413,2516.133,-1,-1,10,65,-9999,1424547554.368542,-29.87239456176758,7.92236328125,-37.62650299072266,1.637482643127441,352.5109252929688,10,16882.784654875,-0.6421051025390625,-0.258544921875,-0.569732666015625,16882.78173141667,0.3131283557010097,-0.1572018717735243,0.3520206276283088,16882.72995483334,-0.6373758769024715,-0.8029993754854503,0.2596304845857232,0.08023834228515625,-0.1865687966346741,0.2911646366119385,0.05119585245847702,-0.04414936527609825,0.09136372059583664,XTrueNorthZVertical,0.008258617948937862,0.4053329458576987,0.3340196220153218,-0.8509218166000957,-0.6953303813934326,-0.2567234337329865,-0.6712740063667297,-32.49280166625977,3.719489097595215,-40.8027229309082,2,192.168.1.118,10.97.20.126,3,0
2015-02-21 12:39:14.418,109,1424547435.145531,39.63853406314023,-106.3703337299413,2516.133,-1,-1,10,65,-9999,1424547554.368542,-29.87239456176758,7.92236328125,-37.62650299072266,1.637482643127441,352.5109252929688,10,16882.83377225,-0.69134521484375,-0.33978271484375,-0.57769775390625,16882.83350691667,0.3226028175950755,-0.2772310747356136,0.5849971555817487,16882.78173141667,-0.6183841079054481,-0.8147274953721995,0.2548475182422467,0.2986365854740143,-0.1426219791173935,0.38385009765625,0.06336967647075653,0.002326736459508538,0.09095565974712372,XTrueNorthZVertical,0.008431824189975356,0.4098474567854219,0.3250835728354388,-0.8522175102667565,-0.7040404677391052,-0.2520978450775146,-0.6639079451560974,-32.89774322509766,3.791799545288086,-40.47022247314453,2,192.168.1.118,10.97.20.126,3,0
2015-02-21 12:39:14.458,110,1424547435.145531,39.63853406314023,-106.3703337299413,2516.133,-1,-1,10,65,-9999,1424547554.42143,-30.34976577758789,7.51458740234375,-37.29357147216797,1.064484596252441,351.9379272460938,10,16882.88283275,-0.7102203369140625,-0.330780029296875,-0.6242218017578125,16882.83350691667,0.3226028175950755,-0.2772310747356136,0.5849971555817487,16882.83350691667,-0.5875670103368441,-0.832658635942767,0.2485496003309397,0.3081139326095581,-0.2626536190509796,0.616823136806488,0.03226860985159874,-0.08748244494199753,0.09127422422170639,XTrueNorthZVertical,0.007693349374256502,0.4169223772530825,0.3107779824183175,-0.8541274126208666,-0.7169914841651917,-0.2459983825683594,-0.6522330641746521,-33.10830307006836,3.84373664855957,-40.29323196411133,2,192.168.1.118,10.97.20.126,3,0
2015-02-21 12:39:14.516,111,1424547435.145531,39.63853406314023,-106.3703337299413,2516.133,-1,-1,10,65,-9999,1424547554.472549,-31.08288192749023,7.225738525390625,-37.34352874755859,359.6087951660156,350.4822387695312,10,16882.931949,-0.74273681640625,-0.328948974609375,-0.632720947265625,16882.93706016667,0.09645756415379794,-0.04888551760171251,0.5979867237986102,16882.885283375,-0.5548496724053592,-0.8554411268018283,0.2330194450753827,0.2026188969612122,-0.2739535570144653,0.7004694938659668,0.02423883229494095,-0.09986361861228943,0.0139375627040863,XTrueNorthZVertical,0.01110485180472206,0.4252023047330809,0.2938925052244053,-0.8559830169544058,-0.7344591617584229,-0.2309164106845856,-0.6381593942642212,-33.52239990234375,4.108798027038574,-39.92299270629883,2,192.168.1.118,10.97.20.126,3,0
2015-02-21 12:39:14.559,112,1424547435.145531,39.63853406314023,-106.3703337299413,2516.133,-1,-1,10,65,-9999,1424547554.52488,-30.94648361206055,7.7694091796875,-37.21033477783203,356.1264343261719,346.9998779296875,10,16882.98101116667,-0.7057647705078125,-0.3015289306640625,-0.644683837890625,16882.93706016667,0.09645756415379794,-0.04888551760171251,0.5979867237986102,16882.93706016667,-0.5272824795441228,-0.8696760832703306,0.2162923811732182,0.08198695629835129,-0.03430833294987679,0.6297906041145325,0.003579114563763142,-0.1143390983343124,-0.002677164971828461,XTrueNorthZVertical,0.0146304812496871,0.4298418987049595,0.2788634782529931,-0.8586367679398156,-0.7463159561157227,-0.2146098762750626,-0.6300438046455383,-33.91313552856445,4.955055236816406,-39.49462127685547,2,192.168.1.118,10.97.20.126,3,0
2015-02-21 12:39:14.614,113,1424547435.145531,39.63853406314023,-106.3703337299413,2516.133,-1,-1,10,65,-9999,1424547554.576035,-31.04877853393555,8.652923583984375,-37.47667694091797,354.1033020019531,344.9767456054688,10,16883.03023308333,-0.709564208984375,-0.2996063232421875,-0.6051788330078125,16882.98883554167,-0.0785723069050438,0.05018300968479911,0.5578803167303439,16882.98883554167,-0.5084728768466839,-0.8682454824190002,0.1996915347631677,-0.09302529692649841,0.06476978212594986,0.5896621942520142,0.04226526245474815,-0.1031619235873222,-0.01135798636823893,XTrueNorthZVertical,0.01773378985647979,0.4278113918048201,0.2676192807020247,-0.8631586725285518,-0.7480300068855286,-0.1983669996261597,-0.6333258748054504,-33.75481414794922,5.690853118896484,-39.53106689453125,2,192.168.1.118,10.97.20.126,3,0
2015-02-21 12:39:14.659,114,1424547435.145531,39.63853406314023,-106.3703337299413,2516.133,-1,-1,10,65,-9999,1424547554.628318,-30.70779037475586,10.01214599609375,-37.14376068115234,353.78369140625,344.6571350097656,10,16883.079194125,-0.6017303466796875,-0.15753173828125,-0.6201629638671875,16883.04061229167,-0.2512231761621178,0.1603697018901735,0.5028106727613584,16883.04061229167,-0.4972726874131255,-0.8649035209530574,0.1896047741523286,-0.265625536441803,0.1749618500471115,0.5345325469970703,0.04930447414517403,-0.08276946842670441,0.02650738507509232,XTrueNorthZVertical,0.01936642990960358,0.4255361640761695,0.2608771202538344,-0.8663065798026324,-0.7473940849304199,-0.1884707659482956,-0.6370878219604492,-33.36297225952148,6.045817375183105,-39.81003570556641,2,192.168.1.118,10.97.20.126,3,0
2015-02-21 12:39:14.712,115,1424547435.145531,39.63853406314023,-106.3703337299413,2516.133,-1,-1,10,65,-9999,1424547554.680083,-30.5202522277832,10.9805908203125,-37.02722930908203,353.2579650878906,344.1314086914062,10,16883.12842654167,-0.7064361572265625,-0.236846923828125,-0.5736846923828125,16883.09238870833,-0.2673664597418511,0.1717472586992101,0.3251868828007795,16883.09238870833,-0.4938934771081943,-0.8546269073982394,0.1634635142771054,-0.2817686796188354,0.186339259147644,0.3569084703922272,0.1480486243963242,-0.01013030111789703,0.02773819118738174,XTrueNorthZVertical,0.02892045246982945,0.4186756782082769,0.2545297357092783,-0.8712571062384035,-0.7442705631256104,-0.1627365201711655,-0.647748589515686,-32.83465957641602,7.190021514892578,-40.05829620361328,2,192.168.1.118,10.97.20.126,3,0
2015-02-21 12:39:14.759,116,1424547435.145531,39.63853406314023,-106.3703337299413,2516.133,-1,-1,10,65,-9999,1424547554.732215,-29.70188522338867,11.83013916015625,-36.59444427490234,352.9262084960938,343.7996520996094,10,16883.17739354167,-0.668853759765625,-0.1856536865234375,-0.561248779296875,16883.144164375,-0.3359902620787948,0.1458357665571751,0.314955284208804,16883.144164375,-0.4944781045026657,-0.8478436035557221,0.1439404808362096,-0.3503827750682831,0.1604282408952713,0.3466654717922211,0.02576170302927494,-0.09991847723722458,0.1000569313764572,XTrueNorthZVertical,0.03685537508861601,0.4138379359839235,0.2511669360801347,-0.8742397050655689,-0.7421008348464966,-0.1434439420700073,-0.6547597050666809,-32.45144271850586,8.056268692016602,-40.20545959472656,2,192.168.1.118,10.97.20.126,3,0
2015-02-21 12:39:14.811,117,1424547435.145531,39.63853406314023,-106.3703337299413,2516.133,-1,-1,10,65,-9999,1424547554.783545,-29.34385299682617,13.24038696289062,-36.84412384033203,352.4468078613281,343.3202514648438,10,16883.226498125,-0.6879730224609375,-0.049224853515625,-0.606353759765625,16883.195940875,-0.5278835354761273,0.01573049361077104,0.5277533068988225,16883.195940875,-0.4956707590116396,-0.839829979269495,0.1121454119724645,-0.5422759056091309,0.03032281436026096,0.5594631433486938,0.08456402271986008,-0.06446585059165955,0.09732527285814285,XTrueNorthZVertical,0.05023899981103732,0.4071586033471499,0.2457924988091464,-0.8782277664552134,-0.7398527264595032,-0.111910492181778,-0.6633958220481873,-31.8327751159668,9.775583267211914,-40.31861877441406,2,192.168.1.118,10.97.20.126,3,0
2015-02-21 12:39:14.858,118,1424547435.145531,39.63853406314023,-106.3703337299413,2516.133,-1,-1,10,65,-9999,1424547554.835615,-28.98582077026367,15.2962646484375,-36.62772369384766,351.5666198730469,342.4400634765625,10,16883.27556116667,-0.6992034912109375,0.0601043701171875,-0.64434814453125,16883.24771766667,-0.6901584628101436,-0.1470712069868629,0.6446895145708937,16883.24771766667,-0.498722693889587,-0.8446908971765281,0.06711701944398456,-0.7045508027076721,-0.1324790716171265,0.6763991117477417,0.05537798628211021,0.06387755274772644,0.04773671552538872,XTrueNorthZVertical,0.07144307989278112,0.4045517419598584,0.2383010746043331,-0.8800263745368491,-0.7460823059082031,-0.06706663966178894,-0.6624675393104553,-31.64424133300781,11.72751235961914,-39.94478607177734,2,192.168.1.118,10.97.20.126,3,0
2015-02-21 12:39:14.909,119,1424547435.145531,39.63853406314023,-106.3703337299413,2516.133,-1,-1,10,65,-9999,1424547554.887362,-28.81532669067383,17.60696411132812,-36.52783966064453,349.3934020996094,340.266845703125,10,16883.32476233333,-0.726898193359375,0.0944976806640625,-0.665069580078125,16883.29949295833,-0.8562955063569927,-0.07242812795412198,0.846156319454843,16883.29949295833,-0.5025980985205594,-0.8487361568042964,0.01108380710391033,-0.8706876635551453,-0.0578361377120018,0.8778655529022217,0.04436017945408821,0.07443807274103165,0.002673148410394788,XTrueNorthZVertical,0.09749224946090258,0.4000618641834364,0.2288125208707845,-0.8820944643513283,-0.7503995895385742,-0.01108358055353165,-0.6608915328979492,-31.42679405212402,14.07180976867676,-39.35504150390625,2,192.168.1.118,10.97.20.126,3,0
2015-02-21 12:39:14.959,120,1424547435.145531,39.63853406314023,-106.3703337299413,2516.133,-1,-1,10,65,-9999,1424547554.938924,-28.7812385559082,20.18951416015625,-35.52907562255859,349.2878112792969,340.1612548828125,10,16883.37383054167,-0.761138916015625,0.197540283203125,-0.662261962890625,16883.35126975,-0.9294083330273741,0.03574761131213362,0.8655742259109378,16883.35126975,-0.5075326099130749,-0.849598340854735,-0.05281124658080345,-0.9438003301620483,0.0503394678235054,0.8972832560539246,-0.002854665275663137,0.0810328796505928,-0.01205293647944927,XTrueNorthZVertical,0.1267172188735782,0.3927602279229366,0.2181256074075232,-0.8843661101723318,-0.7499682307243347,0.0527867004275322,-0.6593642830848694,-30.67905426025391,17.79024696350098,-38.42890930175781,2,192.168.1.118,10.97.20.126,3,0
2015-02-21 12:39:15.007,121,1424547435.145531,39.63853406314023,-106.3703337299413,2516.133,-1,-1,10,65,-9999,1424547554.990287,-27.89467239379883,23.24777221679688,-34.89650726318359,347.4764099121094,338.349853515625,10,16883.42294529167,-0.700775146484375,0.1749114990234375,-0.627044677734375,16883.40304620834,-0.8635771214094874,0.3193649463417572,0.9035548977971029,16883.40304620834,-0.5115745705460371,-0.8389251721858872,-0.1173978214593632,-0.8779690265655518,0.3339566588401794,0.9352635741233826,0.00771033763885498,0.07481196522712708,0.02140532806515694,XTrueNorthZVertical,0.1547008339431162,0.3797843370239325,0.2075602683665987,-0.8881161477811084,-0.7388046979904175,0.1171283423900604,-0.6636630296707153,-29.64468002319336,20.62118911743164,-37.82113265991211,2,192.168.1.118,10.97.20.126,3,0
2015-02-21 12:39:15.056,122,1424547435.145531,39.63853406314023,-106.3703337299413,2516.133,-1,-1,10,65,-9999,1424547555.042506,-26.58189010620117,26.085205078125,-33.71462249755859,347.4168395996094,338.290283203125,10,16883.47190879167,-0.6953887939453125,0.25299072265625,-0.6657257080078125,16883.45482183333,-0.8281988905405477,0.1495372941562763,0.8172612879435923,16883.40304620834,-0.5115745705460371,-0.8389251721858872,-0.1173978214593632,-0.8779690265655518,0.3339566588401794,0.9352635741233826,0.00771033763885498,0.07481196522712708,0.02140532806515694,XTrueNorthZVertical,0.1547008339431162,0.3797843370239325,0.2075602683665987,-0.8881161477811084,-0.7388046979904175,0.1171283423900604,-0.6636630296707153,-29.64468002319336,20.62118911743164,-37.82113265991211,2,192.168.1.118,10.97.20.126,3,0
2015-02-21 12:39:15.105,123,1424547435.145531,39.63853406314023,-106.3703337299413,2516.133,-1,-1,10,65,-9999,1424547555.094338,-25.47369003295898,28.548828125,-33.16527557373047,346.293212890625,337.1666564941406,10,16883.52112195834,-0.648895263671875,0.2722930908203125,-0.624359130859375,16883.50659833333,-0.7767532761829421,0.1699903713280848,0.7983043746721903,16883.50659833333,-0.5146844461392006,-0.8197082764544257,-0.2371167002277759,-0.7911227941513062,0.1845415532588959,0.8300725817680359,0.03486572951078415,0.08104750514030457,0.01149928104132414,XTrueNorthZVertical,0.2056168000151053,0.355038006712981,0.1862137209578656,-0.8927453405609135,-0.7104943990707397,0.2349009811878204,-0.6633394956588745,-27.01725006103516,25.73623657226562,-36.63594818115234,2,192.168.1.118,10.97.20.126,3,0
2015-02-21 12:39:15.144,124,1424547435.145531,39.63853406314023,-106.3703337299413,2516.133,-1,-1,10,65,-9999,1424547555.094338,-25.47369003295898,28.548828125,-33.16527557373047,346.293212890625,337.1666564941406,10,16883.57018929167,-0.6248931884765625,0.264678955078125,-0.6137847900390625,16883.55837516667,-0.8151182422144055,0.2196798972628922,0.8191366859832261,16883.55837516667,-0.5138542210516518,-0.8073652938355541,-0.2962611840130666,-0.8294876217842102,0.2342309206724167,0.8509045243263245,0.06245347857475281,-0.05079641938209534,0.05787428468465805,XTrueNorthZVertical,0.2299942693434289,0.3412639537040552,0.1750541311321864,-0.8944258766216393,-0.6909934878349304,0.2919463217258453,-0.6612830758094788,-25.19232368469238,28.78110885620117,-35.65772247314453,2,192.168.1.118,10.97.20.126,3,0
2015-02-21 12:39:15.203,125,1424547435.145531,39.63853406314023,-106.3703337299413,2516.133,-1,-1,10,65,-9999,1424547555.197779,-22.42187118530273,33.59506225585938,-31.48400115966797,342.6913146972656,333.5647583007812,10,16883.61940558333,-0.67584228515625,0.4131317138671875,-0.65606689453125,16883.61015045833,-0.8602513658401965,0.1712907928883705,0.8387876190347028,16883.55837516667,-0.5138542210516518,-0.8073652938355541,-0.2962611840130666,-0.8294876217842102,0.2342309206724167,0.8509045243263245,0.06245347857475281,-0.05079641938209534,0.05787428468465805,XTrueNorthZVertical,0.2299942693434289,0.3412639537040552,0.1750541311321864,-0.8944258766216393,-0.6909934878349304,0.2919463217258453,-0.6612830758094788,-25.19232368469238,28.78110885620117,-35.65772247314453,2,192.168.1.118,10.97.20.126,3,0
2015-02-21 12:39:15.242,126,1424547435.145531,39.63853406314023,-106.3703337299413,2516.133,-1,-1,10,65,-9999,1424547555.197779,-22.42187118530273,33.59506225585938,-31.48400115966797,342.6913146972656,333.5647583007812,10,16883.668371875,-0.6575164794921875,0.498321533203125,-0.674652099609375,16883.66192725,-0.8817316242444485,0.2737774874339988,0.8839441784780864,16883.61015045833,-0.5158928058463932,-0.7994235778342694,-0.3564798165968573,-0.8746206164360046,0.1858416497707367,0.8705551028251648,0.008443359285593033,0.05341199785470963,0.006594928912818432,XTrueNorthZVertical,0.2556168616525291,0.3286541594426541,0.1645510248028609,-0.8941864857968144,-0.6718802452087402,0.3489775359630585,-0.6532929539680481,-23.74140548706055,31.0476188659668,-34.74002838134766,2,192.168.1.118,10.97.20.126,3,0
2015-02-21 12:39:15.301,127,1424547435.145531,39.63853406314023,-106.3703337299413,2516.133,-1,-1,10,65,-9999,1424547555.249617,-20.66580581665039,36.26260375976562,-30.56844329833984,341.4939880371094,332.367431640625,10,16883.71739175,-0.6306915283203125,0.5973052978515625,-0.644500732421875,16883.71370370833,-0.9751947300685614,0.3107112706956537,1.05442883250449,16883.71370370833,-0.5131185741838472,-0.7707878822218293,-0.4877328562038091,-0.9895637035369873,0.3252618610858917,1.086195707321167,-0.02345234155654907,0.1010168120265007,-0.02370909042656422,XTrueNorthZVertical,0.3089920021231758,0.2960844884323764,0.1403854450648617,-0.8928325110416639,-0.6154636740684509,0.4686242938041687,-0.633715808391571,-19.64412307739258,36.27754211425781,-32.13295364379883,2,192.168.1.118,10.97.20.126,3,0
2015-02-21 12:39:15.341,128,1424547435.145531,39.63853406314023,-106.3703337299413,2516.133,-1,-1,10,65,-9999,1424547555.301549,-18.87563705444336,38.38641357421875,-29.48643493652344,339.4923706054688,330.3658142089844,10,16883.76656670833,-0.5536651611328125,0.6384124755859375,-0.5876312255859375,16883.71370370833,-0.9751947300685614,0.3107112706956537,1.05442883250449,16883.71370370833,-0.5131185741838472,-0.7707878822218293,-0.4877328562038091,-0.9895637035369873,0.3252618610858917,1.086195707321167,-0.02345234155654907,0.1010168120265007,-0.02370909042656422,XTrueNorthZVertical,0.3089920021231758,0.2960844884323764,0.1403854450648617,-0.8928325110416639,-0.6154636740684509,0.4686242938041687,-0.633715808391571,-19.64412307739258,36.27754211425781,-32.13295364379883,2,192.168.1.118,10.97.20.126,3,0
2015-02-21 12:39:15.400,129,1424547435.145531,39.63853406314023,-106.3703337299413,2516.133,-1,-1,10,65,-9999,1424547555.352813,-16.21596145629883,40.42526245117188,-27.88838958740234,337.8497924804688,328.7232360839844,10,16883.81558245833,-0.5156707763671875,0.6927337646484375,-0.6130218505859375,16883.817256,-0.7457450263467135,0.3556619677867742,1.154408693516027,16883.765479375,-0.5027303343402969,-0.7468519822731668,-0.5631701123515511,-0.8915512561798096,0.3738380372524261,1.181426525115967,0.006671683397144079,0.1174519956111908,0.02116857282817364,XTrueNorthZVertical,0.3377608889125284,0.2750744213973451,0.1242778288062328,-0.8915193287341087,-0.574420690536499,0.5338694453239441,-0.620503306388855,-17.25158309936523,38.61880493164062,-30.7481575012207,2,192.168.1.118,10.97.20.126,3,0
2015-02-21 12:39:15.439,130,1424547435.145531,39.63853406314023,-106.3703337299413,2516.133,-1,-1,10,65,-9999,1424547555.4054,-13.31760025024414,42.5321044921875,-26.45679473876953,335.8356323242188,326.7090759277344,10,16883.86478241667,-0.50323486328125,0.7198944091796875,-0.6130218505859375,16883.817256,-0.7457450263467135,0.3556619677867742,1.154408693516027,16883.817256,-0.4828603310956706,-0.7173608761035218,-0.6333803507481237,-0.7601136565208435,0.3702122569084167,1.186174988746643,0.01421287283301353,0.1008609607815742,-0.005642281845211983,XTrueNorthZVertical,0.3629036447449236,0.2541872543930092,0.1065919690757781,-0.8901280717340145,-0.5298836231231689,0.5918728113174438,-0.6073795557022095,-13.74564933776855,41.27659606933594,-29.01342010498047,2,192.168.1.118,10.97.20.126,3,0
2015-02-21 12:39:15.498,131,1424547435.145531,39.63853406314023,-106.3703337299413,2516.133,-1,-1,10,65,-9999,1424547555.45645,-10.21464920043945,44.26513671875,-25.19167327880859,332.9394836425781,323.8129272460938,10,16883.91379675,-0.477447509765625,0.7050628662109375,-0.5717315673828125,16883.86903258333,-0.7172209731753107,0.3105826400150029,1.154272339668215,16883.86903258333,-0.4555868270945388,-0.6832203247192474,-0.700419740074287,-0.7315894961357117,0.3251327872276306,1.186038255691528,-0.02056546695530415,0.07535574585199356,-0.02006299793720245,XTrueNorthZVertical,0.3859801724648222,0.2335377488119378,0.08789457359639379,-0.8881182454502096,-0.4826693832874298,0.6445386409759521,-0.5929588675498962,-11.0304536819458,42.90814208984375,-27.77947235107422,2,192.168.1.118,10.97.20.126,3,0
2015-02-21 12:39:15.537,132,1424547435.145531,39.63853406314023,-106.3703337299413,2516.133,-1,-1,10,65,-9999,1424547555.508745,-6.872997283935547,45.52239990234375,-23.66020965576172,329.909912109375,320.7833557128906,10,16883.96288333333,-0.258209228515625,0.7730560302734375,-0.551544189453125,16883.92080808333,-0.7184177977691923,0.5172045258210186,1.27137925596616,16883.92080808333,-0.4195874823199339,-0.638672158382525,-0.7672737655984738,-0.7327861785888672,0.5317545533180237,1.303144931793213,-0.04834974557161331,0.01088740490376949,0.006191938649863005,XTrueNorthZVertical,0.4082079449827394,0.2107238017055359,0.06842793706728165,-0.8855955160804643,-0.4290977716445923,0.6941754817962646,-0.5779234766960144,-8.242180824279785,44.31973266601562,-26.50106048583984,2,192.168.1.118,10.97.20.126,3,0
2015-02-21 12:39:15.596,133,1424547435.145531,39.63853406314023,-106.3703337299413,2516.133,-1,-1,10,65,-9999,1424547555.560727,-3.39495849609375,46.57577514648438,-22.26192474365234,327.5021667480469,318.3756103515625,10,16884.012004,-0.070526123046875,0.8517913818359375,-0.624420166015625,16884.02436133333,-0.9353503780515589,-0.02516367650794071,0.5772220567792623,16883.97258475,-0.3709114525116139,-0.5707186110196422,-0.8338016288892424,-0.6905871629714966,0.652528703212738,1.227850317955017,0.1048654019832611,0.03256437182426453,0.01400771364569664,XTrueNorthZVertical,0.4293522672936952,0.1813303031290695,0.04974895537664571,-0.88334650098429,-0.3630746304988861,0.7404916882514954,-0.5655518770217896,-3.75658130645752,45.90352630615234,-24.7635383605957,2,192.168.1.118,10.97.20.126,3,0
2015-02-21 12:39:15.635,134,1424547435.145531,39.63853406314023,-106.3703337299413,2516.133,-1,-1,10,65,-9999,1424547555.61191,-0.4284019470214844,47.4932861328125,-20.79704284667969,325.1817932128906,316.0552368164062,10,16884.06120145833,-0.2585906982421875,0.8541717529296875,-0.470062255859375,16884.02436133333,-0.9353503780515589,-0.02516367650794071,0.5772220567792623,16884.02436133333,-0.3483049718530423,-0.5378780108801438,-0.8915157164159807,-0.9497184753417969,-0.01061397418379784,0.608987033367157,0.2461086958646774,0.1062524765729904,-0.07926414906978607,XTrueNorthZVertical,0.4508979752880736,0.1640983021995651,0.03789667508072798,-0.876542442064008,-0.3218533098697662,0.7780248522758484,-0.5395255088806152,-1.129084587097168,46.83916473388672,-23.22275352478027,2,192.168.1.118,10.97.20.126,3,0
2015-02-21 12:39:15.694,135,1424547435.145531,39.63853406314023,-106.3703337299413,2516.133,-1,-1,10,65,-9999,1424547555.663832,1.447013854980469,48.92047119140625,-19.39874267578125,323.3375549316406,314.2109985351562,10,16884.11020033333,-0.2278594970703125,0.9261322021484375,-0.405548095703125,16884.07613666667,-0.8173997723202765,0.1477572372836673,0.3793779499261478,16884.07613666667,-0.3549786758474779,-0.545128759175276,-0.9436614867548766,-0.8317676782608032,0.1623068004846573,0.4111426472663879,0.02611875161528587,0.04168247058987617,0.05607885494828224,XTrueNorthZVertical,0.4731985741661726,0.1587346738308992,0.03102706520636633,-0.8659813979416375,-0.3042864799499512,0.8097121715545654,-0.5017728209495544,0.004452705383300781,47.80830001831055,-21.18596458435059,2,192.168.1.118,10.97.20.126,3,0
2015-02-21 12:39:15.734,136,1424547435.145531,39.63853406314023,-106.3703337299413,2516.133,-1,-1,10,65,-9999,1424547555.716173,2.674560546875,49.93991088867188,-17.60093688964844,322.6892395019531,313.5626831054688,10,16884.159379875,-0.1944122314453125,0.8854827880859375,-0.4064788818359375,16884.1279135,-0.4821314932130021,0.1624224664584066,0.4982803694310246,16884.1279135,-0.3481679362877673,-0.5269544739268989,-0.983031886498507,-0.4964993000030518,0.1769718825817108,0.5300447344779968,0.0629032775759697,0.113740473985672,0.07014589011669159,XTrueNorthZVertical,0.4885578059854698,0.1472119927607888,0.02637203409338452,-0.8596187892555698,-0.2788609266281128,0.8321824073791504,-0.4792797863483429,1.517230033874512,48.68123245239258,-19.03454971313477,2,192.168.1.118,10.97.20.126,3,0
2015-02-21 12:39:15.792,137,1424547435.145531,39.63853406314023,-106.3703337299413,2516.133,-1,-1,10,65,-9999,1424547555.767583,3.424724578857422,50.34765625,-16.16934967041016,322.2011108398438,313.0745544433594,10,16884.208386875,-0.1783599853515625,0.9178314208984375,-0.401031494140625,16884.179690125,-0.3444324827343461,-0.06380188286724632,0.475610476967834,16884.179690125,-0.3239231798408961,-0.505162921839472,-1.013617694353094,-0.3588001430034637,-0.04925261810421944,0.5073744654655457,0.06494598090648651,0.000233356244280003,0.06117952615022659,XTrueNorthZVertical,0.4990703400643809,0.1398436893604319,0.01679755151759785,-0.8550382611921368,-0.2559097409248352,0.8487504124641418,-0.4627450704574585,2.766711235046387,48.99726486206055,-18.05801391601562,2,192.168.1.118,10.97.20.126,2,0
2015-02-21 12:39:15.832,138,1424547435.145531,39.63853406314023,-106.3703337299413,2516.133,-1,-1,10,65,-9999,1424547555.819476,5.180793762207031,50.12677001953125,-14.92086791992188,320.4348449707031,311.3082885742188,10,16884.25745175,-0.1591796875,0.86785888671875,-0.37457275390625,16884.231465625,-0.3032557512239769,0.03148175987804469,0.481693403213684,16884.231465625,-0.2961894430617306,-0.4814702803019834,-1.041185708272887,-0.3176232576370239,0.04603088274598122,0.5134570598602295,0.0687108039855957,0.05288970470428467,0.05401098728179932,XTrueNorthZVertical,0.5082825816397663,0.1332921536066607,0.007026284799694669,-0.8507835787882833,-0.2339482307434082,0.8630038499832153,-0.4477640390396118,3.872895240783691,49.20774078369141,-17.26490783691406,2,192.168.1.118,10.97.20.126,2,0
2015-02-21 12:39:15.892,139,1424547435.145531,39.63853406314023,-106.3703337299413,2516.133,-1,-1,10,65,-9999,1424547555.871063,6.425384521484375,49.77001953125,-14.37152862548828,318.6597290039062,309.5331726074219,10,16884.306564125,-0.098052978515625,0.9107513427734375,-0.3607635498046875,16884.28324204167,-0.2695790139754889,-0.06398377676969874,0.3678382066067254,16884.28324204167,-0.2685229624102147,-0.4573860177104217,-1.06426140710455,-0.2839463949203491,-0.04943478479981422,0.3996016085147858,0.07798346132040024,-0.007716360501945019,0.07108483463525772,XTrueNorthZVertical,0.5158634978146113,0.1274521367259619,-0.001641858907642946,-0.8471352645186964,-0.2142444550991058,0.8744308352470398,-0.4352816045284271,5.322914123535156,49.38081359863281,-16.36094665527344,2,192.168.1.118,10.97.20.126,2,0
2015-02-21 12:39:15.930,140,1424547435.145531,39.63853406314023,-106.3703337299413,2516.133,-1,-1,10,65,-9999,1424547555.923441,7.243743896484375,49.15835571289062,-13.70568084716797,316.5783386230469,307.4517822265625,10,16884.355736625,-0.1359100341796875,0.901458740234375,-0.3559417724609375,16884.33501883334,-0.264404758293574,-0.3169151044549933,0.265348582583898,16884.33501883334,-0.2471399406181599,-0.4467735611342798,-1.085122794706453,-0.2787719964981079,-0.3023662567138672,0.2971116900444031,0.1026264354586601,0.02951865270733833,0.0449783019721508,XTrueNorthZVertical,0.5230465087126547,0.1262127534315745,-0.01058036844776964,-0.8428409067099235,-0.2016864866018295,0.8843607306480408,-0.4209853708744049,6.110503196716309,49.48845672607422,-15.74905586242676,2,192.168.1.118,10.97.20.126,2,0
2015-02-21 12:39:15.989,141,1424547435.145531,39.63853406314023,-106.3703337299413,2516.133,-1,-1,10,65,-9999,1424547555.974798,7.482429504394531,49.66806030273438,-13.57250213623047,314.9224548339844,305.7958984375,10,16884.40475075,-0.188568115234375,0.94171142578125,-0.328704833984375,16884.38679420833,-0.2519845739177714,-0.34416297083203,0.2183086356176104,16884.38679420833,-0.2360637830747668,-0.4564195672075745,-1.104160858408166,-0.2663516402244568,-0.3296142816543579,0.2500713765621185,0.01204704493284225,0.049082200974226,0.06571276485919952,XTrueNorthZVertical,0.5299905690919574,0.1311253630860827,-0.02016131570804483,-0.8375617617844191,-0.1982805728912354,0.8930869698524475,-0.4038322567939758,6.488800048828125,49.61524963378906,-15.1888370513916,2,192.168.1.118,10.97.20.126,2,0
2015-02-21 12:39:16.029,142,1424547435.145531,39.63853406314023,-106.3703337299413,2516.133,-1,-1,10,65,-9999,1424547555.974798,7.482429504394531,49.66806030273438,-13.57250213623047,314.9224548339844,305.7958984375,10,16884.45381866667,-0.1373291015625,0.910003662109375,-0.321563720703125,16884.438571,-0.09372595982370367,-0.1174400777503142,0.2012923678325491,16884.38679420833,-0.2360637830747668,-0.4564195672075745,-1.104160858408166,-0.2663516402244568,-0.3296142816543579,0.2500713765621185,0.01204704493284225,0.049082200974226,0.06571276485919952,XTrueNorthZVertical,0.5299905690919574,0.1311253630860827,-0.02016131570804483,-0.8375617617844191,-0.1982805728912354,0.8930869698524475,-0.4038322567939758,6.488800048828125,49.61524963378906,-15.1888370513916,2,192.168.1.118,10.97.20.126,2,0
2015-02-21 12:39:16.087,143,1424547435.145531,39.63853406314023,-106.3703337299413,2516.133,-1,-1,10,65,-9999,1424547556.078732,8.045055389404297,50.36465454101562,-13.08976745605469,311.4205627441406,302.2940063476562,10,16884.50292508334,-0.125244140625,0.9041290283203125,-0.358489990234375,16884.49034745833,0.0150705622926494,-0.23993723209458,0.1479218206390342,16884.49034745833,-0.2015682077542545,-0.4426063856434752,-1.123542289485767,0.000730357482098043,-0.225428119301796,0.1797484904527664,0.05660279467701912,-0.002941205631941557,0.04425820335745811,XTrueNorthZVertical,0.535748425596384,0.1325357057816281,-0.03325794039349528,-0.8332477831894411,-0.1852343827486038,0.9016380906105042,-0.3908158242702484,7.38714599609375,49.69167709350586,-14.51365280151367,2,192.168.1.118,10.97.20.126,2,0
2015-02-21 12:39:16.126,144,1424547435.145531,39.63853406314023,-106.3703337299413,2516.133,-1,-1,10,65,-9999,1424547556.078732,8.045055389404297,50.36465454101562,-13.08976745605469,311.4205627441406,302.2940063476562,10,16884.55210070833,-0.10699462890625,0.8833160400390625,-0.3701324462890625,16884.542123125,0.03841876188548309,-0.04984505454246806,0.06724215436341069,16884.49034745833,-0.2015682077542545,-0.4426063856434752,-1.123542289485767,0.000730357482098043,-0.225428119301796,0.1797484904527664,0.05660279467701912,-0.002941205631941557,0.04425820335745811,XTrueNorthZVertical,0.535748425596384,0.1325357057816281,-0.03325794039349528,-0.8332477831894411,-0.1852343827486038,0.9016380906105042,-0.3908158242702484,7.38714599609375,49.69167709350586,-14.51365280151367,2,192.168.1.118,10.97.20.126,2,0
2015-02-21 12:39:16.191,145,1424547435.145531,39.63853406314023,-106.3703337299413,2516.133,-1,-1,10,65,-9999,1424547556.18152,8.89752197265625,49.95687866210938,-13.28952026367188,308.9382934570312,299.8117370605469,10,16884.60111641667,-0.0807952880859375,0.9514007568359375,-0.35546875,16884.593899625,0.007481352134250596,-0.02245151325380401,-0.04103585028870396,16884.593899625,-0.1707679675509841,-0.4201342379802788,-1.129402091758954,-0.006870722863823175,-0.007929721847176552,-0.009193829260766506,0.0963822528719902,0.04193377494812012,0.03453418985009193,XTrueNorthZVertical,0.5365142548041825,0.1308743553206731,-0.04073193757969999,-0.8326856035729743,-0.1742478460073471,0.9041569232940674,-0.3900487124919891,8.118232727050781,49.55608749389648,-14.58653163909912,2,192.168.1.118,10.97.20.126,2,0
2015-02-21 12:39:16.224,146,1424547435.145531,39.63853406314023,-106.3703337299413,2516.133,-1,-1,10,65,-9999,1424547556.18152,8.89752197265625,49.95687866210938,-13.28952026367188,308.9382934570312,299.8117370605469,10,16884.65029679167,-0.0935211181640625,0.924652099609375,-0.3046875,16884.64567641667,0.0615190211808304,-0.03539181299049902,-0.1741363805131202,16884.593899625,-0.1707679675509841,-0.4201342379802788,-1.129402091758954,-0.006870722863823175,-0.007929721847176552,-0.009193829260766506,0.0963822528719902,0.04193377494812012,0.03453418985009193,XTrueNorthZVertical,0.5365142548041825,0.1308743553206731,-0.04073193757969999,-0.8326856035729743,-0.1742478460073471,0.9041569232940674,-0.3900487124919891,8.118232727050781,49.55608749389648,-14.58653163909912,2,192.168.1.118,10.97.20.126,2,0
