loggingTime,loggingSample,locationTimestamp_since1970,locationLatitude,locationLongitude,locationAltitude,locationSpeed,locationCourse,locationVerticalAccuracy,locationHorizontalAccuracy,locationFloor,locationHeadingTimestamp_since1970,locationHeadingX,locationHeadingY,locationHeadingZ,locationTrueHeading,locationMagneticHeading,locationHeadingAccuracy,accelerometerTimestamp_sinceReboot,accelerometerAccelerationX,accelerometerAccelerationY,accelerometerAccelerationZ,gyroTimestamp_sinceReboot,gyroRotationX,gyroRotationY,gyroRotationZ,motionTimestamp_sinceReboot,motionYaw,motionRoll,motionPitch,motionRotationRateX,motionRotationRateY,motionRotationRateZ,motionUserAccelerationX,motionUserAccelerationY,motionUserAccelerationZ,motionAttitudeReferenceFrame,motionQuaternionX,motionQuaternionY,motionQuaternionZ,motionQuaternionW,motionGravityX,motionGravityY,motionGravityZ,motionMagneticFieldX,motionMagneticFieldY,motionMagneticFieldZ,motionMagneticFieldCalibrationAccuracy,IP_en0,IP_pdp_ip0,deviceOrientation,state
2015-02-28 16:00:02.804,1,1425167987.341164,37.77919114577834,-122.4388061442798,56.94049,-1,-1,10,65,-9999,1425168002.771026,19.45209503173828,-31.00282287597656,-24.90167236328125,329.4244995117188,315.6463623046875,10,161463.8378334584,0.0059051513671875,-1.020782470703125,-0.250885009765625,161463.8325875,-0.04471607259908446,-0.5068056807125862,0.1205160288093558,161463.7808121667,-0.4399865436720564,0.2937456000532316,1.302363226576902,-0.2130374312400818,-0.4088510572910309,0.1905383318662643,0.01466927584260702,-0.02742001228034496,-0.0302734486758709,XTrueNorthZVertical,-0.6105506369604465,0.0172536573889942,0.08513301737831092,-0.7871991973252531,0.0767919048666954,-0.9641876816749573,-0.2538604736328125,21.46480178833008,-33.96197128295898,-23.66079711914062,2,192.168.1.8,10.83.46.32,1,0
2015-02-28 16:00:02.807,2,1425167987.341164,37.77919114577834,-122.4388061442798,56.94049,-1,-1,10,65,-9999,1425168002.771026,19.45209503173828,-31.00282287597656,-24.90167236328125,329.4244995117188,315.6463623046875,10,161463.8868695833,0.02093505859375,-0.936553955078125,-0.2267303466796875,161463.8843627917,-0.07980561680585949,-0.5779022281216686,0.2703827559924748,161463.8325875,-0.3744845289402445,0.2066114911081813,1.296433123441301,-0.06026721000671387,-0.4907931387424469,0.1544129848480225,-0.08240559697151184,-0.0282620619982481,0.002934085205197334,XTrueNorthZVertical,-0.6053525536910682,0.03102368063687989,0.08642728101155059,-0.7906428510901465,0.05558064952492714,-0.9625979065895081,-0.2651716470718384,20.52645111083984,-33.98291015625,-24.45022201538086,2,192.168.1.8,10.83.46.32,1,0
2015-02-28 16:00:02.886,3,1425167987.341164,37.77919114577834,-122.4388061442798,56.94049,-1,-1,10,65,-9999,1425168002.823425,18.78718185424805,-30.98583984375,-26.04945373535156,330.5203247070312,316.7421875,10,161463.9359497083,0.0140228271484375,-0.9577789306640625,-0.2802734375,161463.9361365417,0.08624593926999811,-0.04339594364673218,0.01561890716109672,161463.8843627917,-0.3530397489595215,0.1608109414958669,1.296452915838146,-0.09535661339759827,-0.5618898272514343,0.3042794167995453,-0.0002114368253387511,0.005922987125813961,0.01213994529098272,XTrueNorthZVertical,-0.6037144488918583,0.04265115268256726,0.09179113629904778,-0.7907490794016384,0.0433785505592823,-0.9626032710075378,-0.2674194872379303,20.03558158874512,-34.02887725830078,-24.79108047485352,2,192.168.1.8,10.83.46.32,1,0
2015-02-28 16:00:02.897,4,1425167987.341164,37.77919114577834,-122.4388061442798,56.94049,-1,-1,10,65,-9999,1425168002.876605,18.48030090332031,-30.88388061523438,-26.24907684326172,330.6178894042969,316.8397521972656,10,161463.9849908334,0.0548858642578125,-0.966644287109375,-0.2809600830078125,161463.9361365417,0.08624593926999811,-0.04339594364673218,0.01561890716109672,161463.9361365417,-0.3345468288799338,0.1363211492681682,1.297527172099037,0.07069510966539383,-0.02738374285399914,0.04951519519090652,-0.02265377156436443,0.005114831030368805,-0.01289655733853579,XTrueNorthZVertical,-0.6034208045735565,0.04684968163026116,0.09178346505583714,-0.7907364993377054,0.03667659685015678,-0.9628937840461731,-0.2673768699169159,19.05014801025391,-34.19874572753906,-25.32833099365234,2,192.168.1.8,10.83.46.32,1,0
2015-02-28 16:00:02.983,5,1425167987.341164,37.77919114577834,-122.4388061442798,56.94049,-1,-1,10,65,-9999,1425168002.927292,18.41210174560547,-31.42752075195312,-25.68350982666016,329.5409240722656,315.7627868652344,10,161464.0340483334,0.0443115234375,-0.9752655029296875,-0.268341064453125,161464.0396870833,0.03251559901321345,-0.09485487380978826,0.003558782164672886,161463.9879117917,-0.3275439012421447,0.1276204171686152,1.299785847493026,0.0361168161034584,0.002197068184614182,0.03659489378333092,0.02081389166414738,-0.003143409267067909,-0.01543207373470068,XTrueNorthZVertical,-0.6040667580428917,0.04836679766722269,0.09147142311797123,-0.7901879266144869,0.03407197445631027,-0.9635008573532104,-0.2655280232429504,18.90118026733398,-34.30845260620117,-25.29154777526855,2,192.168.1.8,10.83.46.32,1,0
2015-02-28 16:00:02.995,6,1425167987.341164,37.77919114577834,-122.4388061442798,56.94049,-1,-1,10,65,-9999,1425168002.97926,18.22455978393555,-31.75035095214844,-25.40072631835938,329.0740051269531,315.2958679199219,10,161464.08308625,0.0269012451171875,-0.960174560546875,-0.264495849609375,161464.0396870833,0.03251559901321345,-0.09485487380978826,0.003558782164672886,161464.0396870833,-0.3215490184943357,0.1191848555179779,1.301115450518786,0.01696286909282207,-0.07884259521961212,0.03744981810450554,0.01263296604156494,-0.01140953507274389,-0.00380731001496315,XTrueNorthZVertical,-0.6043453917979632,0.04999770208271528,0.09155467618308565,-0.7898636555580871,0.03167855739593506,-0.9638559818267822,-0.2645337581634521,18.88148307800293,-34.34454345703125,-25.25725364685059,2,192.168.1.8,10.83.46.32,1,0
2015-02-28 16:00:03.084,7,1425167987.341164,37.77919114577834,-122.4388061442798,56.94049,-1,-1,10,65,-9999,1425168003.030774,17.8494758605957,-31.98820495605469,-25.26765441894531,329.1553344726562,315.377197265625,10,161464.1321505417,0.0361480712890625,-0.975616455078125,-0.2608184814453125,161464.0914609584,0.04569771377688767,-0.04266916698524956,-0.008790828442242557,161464.0914609584,-0.3168259520990099,0.1118923121314309,1.302124085115801,0.03013373538851738,-0.02666469477117062,0.02514152601361275,-0.002738795941695571,0.00394964125007391,-0.0007043479126878083,XTrueNorthZVertical,-0.6045236220463845,0.05153095722737009,0.09182228695525481,-0.7895976154707013,0.02964004129171371,-0.9641242027282715,-0.2637915015220642,18.68412208557129,-34.41313171386719,-25.31060981750488,2,192.168.1.8,10.83.46.32,1,0
2015-02-28 16:00:03.093,8,1425167987.341164,37.77919114577834,-122.4388061442798,56.94049,-1,-1,10,65,-9999,1425168003.082366,17.44029998779297,-31.81831359863281,-25.36746215820312,329.2230834960938,315.4449462890625,10,161464.1812994167,0.0328216552734375,-0.9633941650390625,-0.2588653564453125,161464.1432361667,0.04320952237042663,-0.03776069478012451,-0.0113567841525339,161464.1432361667,-0.3156450878658262,0.1097804412440313,1.304702227284161,0.02764854766428471,-0.02175513841211796,0.02257260493934155,0.003767057089135051,-0.007866140455007553,-0.001542246085591614,XTrueNorthZVertical,-0.6054610114988178,0.05221100887045257,0.09181615614594857,-0.788835054673472,0.02881045825779438,-0.9648053646087646,-0.2613819539546967,18.62711906433105,-34.48430633544922,-25.25569534301758,2,192.168.1.8,10.83.46.32,1,0
2015-02-28 16:00:03.180,9,1425167987.341164,37.77919114577834,-122.4388061442798,56.94049,-1,-1,10,65,-9999,1425168003.135578,17.74718475341797,-31.88626098632812,-25.46727752685547,329.2616577148438,315.4835205078125,10,161464.2302530417,0.0357818603515625,-0.9803619384765625,-0.2554779052734375,161464.1950114167,0.0504716963469637,-0.02183525777755967,-0.02645024963055799,161464.1950114167,-0.3157987934780683,0.1091557431604374,1.306449498315668,0.03491035103797913,-0.005829136352986097,0.007474835030734539,0.005945092998445034,0.00374603271484375,-8.76485210028477e-05,XTrueNorthZVertical,-0.6061080745596916,0.05264148106839118,0.09194518446905776,-0.788294320277001,0.02846347726881504,-0.9652633666992188,-0.2597237527370453,18.59671401977539,-34.51730346679688,-25.23300743103027,2,192.168.1.8,10.83.46.32,1,0
2015-02-28 16:00:03.191,10,1425167987.341164,37.77919114577834,-122.4388061442798,56.94049,-1,-1,10,65,-9999,1425168003.186285,17.62783813476562,-31.93724060058594,-25.71678161621094,329.3399047851562,315.561767578125,10,161464.279394125,0.0421142578125,-0.970947265625,-0.2678375244140625,161464.2467852084,0.05172817574926309,-0.02561614757714517,-0.01779444345558245,161464.2467852084,-0.3176461300745438,0.1111218442033291,1.30832055454478,0.03616880252957344,-0.009609133936464787,0.01612765714526176,0.004292062483727932,-0.01790729351341724,-0.001603796146810055,XTrueNorthZVertical,-0.6068771903789035,0.05257489758744881,0.09194687478728145,-0.7877066103962108,0.02877373248338699,-0.965750515460968,-0.2578719258308411,18.60968589782715,-34.5794563293457,-25.13816452026367,2,192.168.1.8,10.83.46.32,1,0
2015-02-28 16:00:03.278,11,1425167987.341164,37.77919114577834,-122.4388061442798,56.94049,-1,-1,10,65,-9999,1425168003.238559,17.55964279174805,-32.00518798828125,-25.48390960693359,329.3966064453125,315.6184692382812,10,161464.3283619584,0.0447845458984375,-0.964813232421875,-0.2605133056640625,161464.2985606667,0.05912830147026627,-0.0305475229676449,-0.01646019974945275,161464.2985606667,-0.3205285798948767,0.1134417228620887,1.309879905422684,0.0435667596757412,-0.0145401107147336,0.01745635829865932,0.01083768159151077,-0.005693555809557438,-0.007791232317686081,XTrueNorthZVertical,-0.6075136803926517,0.05266102693658343,0.09226788584027193,-0.7871725081098071,0.02920138090848923,-0.9661539793014526,-0.2563078999519348,18.61864852905273,-34.60840606689453,-25.09165954589844,2,192.168.1.8,10.83.46.32,1,0
2015-02-28 16:00:03.290,12,1425167987.341164,37.77919114577834,-122.4388061442798,56.94049,-1,-1,10,65,-9999,1425168003.238559,17.55964279174805,-32.00518798828125,-25.48390960693359,329.3966064453125,315.6184692382812,10,161464.3775067917,0.0379486083984375,-0.972320556640625,-0.260589599609375,161464.3503358334,0.0258893879049873,-0.01704210044763506,-0.009402023912415743,161464.3503358334,-0.3240085937213962,0.1172760851938736,1.310163957810423,0.01032552681863308,-0.001033588428981602,0.024505864828825,0.01617385447025299,-0.004338580649346113,-0.005568395834416151,XTrueNorthZVertical,-0.6077096827056921,0.05223222460393247,0.09245227798488408,-0.7870281370177533,0.03015182912349701,-0.9662272334098816,-0.255921483039856,18.62370300292969,-34.62566375732422,-25.06407165527344,2,192.168.1.8,10.83.46.32,1,0
2015-02-28 16:00:03.379,13,1425167987.341164,37.77919114577834,-122.4388061442798,56.94049,-1,-1,10,65,-9999,1425168003.34247,17.67898559570312,-32.05615234375,-25.43401336669922,329.4740905761719,315.6959533691406,10,161464.4264760833,0.0291595458984375,-0.9764404296875,-0.258514404296875,161464.40210975,0.02230610465828568,-0.03286580469655887,-0.002880475035029704,161464.40210975,-0.321525263437077,0.1142749330561553,1.310379511090896,0.006740943063050508,-0.01685696095228195,0.03102340176701546,0.002454690169543028,-0.003520117374137044,-0.003366643097251654,XTrueNorthZVertical,-0.607719742989959,0.05267608056424663,0.09237157802388939,-0.7870002617493477,0.02935988456010818,-0.9662827253341675,-0.2558038830757141,18.63240242004395,-34.62643432617188,-25.05654525756836,2,192.168.1.8,10.83.46.32,1,0
2015-02-28 16:00:03.387,14,1425167987.341164,37.77919114577834,-122.4388061442798,56.94049,-1,-1,10,65,-9999,1425168003.34247,17.67898559570312,-32.05615234375,-25.43401336669922,329.4740905761719,315.6959533691406,10,161464.4756184167,0.0320587158203125,-0.97125244140625,-0.261993408203125,161464.4538849583,0.006210491662064783,-0.01208143028514446,-0.005822469091240239,161464.4538849583,-0.3162313537015783,0.1093613690077409,1.310423994025671,-0.009354712441563606,0.003927295096218586,0.02808079682290554,-9.805749141378328e-05,-0.01058874279260635,-0.00354285491630435,XTrueNorthZVertical,-0.6076506658491194,0.05300472134622412,0.09177811838781098,-0.7871009596594848,0.02809793502092361,-0.9662941694259644,-0.2559023499488831,18.59004592895508,-34.64867782592773,-25.05725288391113,2,192.168.1.8,10.83.46.32,1,0
2015-02-28 16:00:03.448,15,1425167987.341164,37.77919114577834,-122.4388061442798,56.94049,-1,-1,10,65,-9999,1425168003.445957,17.55964279174805,-31.93724060058594,-25.21775817871094,329.5114440917969,315.7333068847656,10,161464.5245816667,0.020843505859375,-0.970550537109375,-0.2603607177734375,161464.5056604167,-0.008386560588768528,-0.0339289386037185,0.004540689658585101,161464.5056604167,-0.3096247760337292,0.1023325460800291,1.309076482467424,-0.02395358122885227,-0.01792052760720253,0.03844217956066132,-0.0028262073174119,-0.002986694918945432,-0.007412469014525414,XTrueNorthZVertical,-0.6069812263149117,0.05366109071970603,0.09140337882224726,-0.7876164526515759,0.02643155492842197,-0.9659464359283447,-0.257388561964035,18.57012557983398,-34.64859771728516,-25.0721321105957,2,192.168.1.8,10.83.46.32,1,0
2015-02-28 16:00:03.486,16,1425167987.341164,37.77919114577834,-122.4388061442798,56.94049,-1,-1,10,65,-9999,1425168003.445957,17.55964279174805,-31.93724060058594,-25.21775817871094,329.5114440917969,315.7333068847656,10,161464.573624,0.0220489501953125,-0.9715118408203125,-0.263885498046875,161464.5574340417,-0.009626794708418431,-0.03365276879867728,-0.01258849615669555,161464.5056604167,-0.3096247760337292,0.1023325460800291,1.309076482467424,-0.02395358122885227,-0.01792052760720253,0.03844217956066132,-0.0028262073174119,-0.002986694918945432,-0.007412469014525414,XTrueNorthZVertical,-0.6069812263149117,0.05366109071970603,0.09140337882224726,-0.7876164526515759,0.02643155492842197,-0.9659464359283447,-0.257388561964035,18.57012557983398,-34.64859771728516,-25.0721321105957,2,192.168.1.8,10.83.46.32,1,0
2015-02-28 16:00:03.583,17,1425167987.341164,37.77919114577834,-122.4388061442798,56.94049,-1,-1,10,65,-9999,1425168003.548889,17.57669448852539,-31.9542236328125,-25.23439025878906,329.4712829589844,315.6931457519531,10,161464.6227069584,0.028289794921875,-0.969512939453125,-0.2598724365234375,161464.6092095417,0.006284527540368986,-0.02628726417184514,-0.02748169192074567,161464.6092095417,-0.299301718761557,0.09103113855895203,1.306603619452678,-0.009284195490181446,-0.01027997303754091,0.006420605350285769,0.004627943970263004,-0.007306850049644709,-0.0005560577847063541,XTrueNorthZVertical,-0.6057826190473686,0.05479980066421623,0.09092302531029146,-0.7885159349558223,0.02373814396560192,-0.9653035998344421,-0.2600488066673279,18.39948081970215,-34.62041854858398,-25.23633193969727,2,192.168.1.8,10.83.46.32,1,0
2015-02-28 16:00:03.586,18,1425167987.341164,37.77919114577834,-122.4388061442798,56.94049,-1,-1,10,65,-9999,1425168003.548889,17.57669448852539,-31.9542236328125,-25.23439025878906,329.4712829589844,315.6931457519531,10,161464.67176375,0.025634765625,-0.9661102294921875,-0.2553863525390625,161464.6609847083,0.001537709213411752,-0.05295456143124458,-0.0243535429043386,161464.6092095417,-0.299301718761557,0.09103113855895203,1.306603619452678,-0.009284195490181446,-0.01027997303754091,0.006420605350285769,0.004627943970263004,-0.007306850049644709,-0.0005560577847063541,XTrueNorthZVertical,-0.6057826190473686,0.05479980066421623,0.09092302531029146,-0.7885159349558223,0.02373814396560192,-0.9653035998344421,-0.2600488066673279,18.39948081970215,-34.62041854858398,-25.23633193969727,2,192.168.1.8,10.83.46.32,1,0
2015-02-28 16:00:03.650,19,1425167987.341164,37.77919114577834,-122.4388061442798,56.94049,-1,-1,10,65,-9999,1425168003.601699,17.57669067382812,-31.92025756835938,-25.600341796875,329.4555053710938,315.6773681640625,10,161464.720849,0.0189056396484375,-0.9674224853515625,-0.2551727294921875,161464.712758625,0.003896204674785925,-0.0382376669313577,-0.03696148013699173,161464.6609847083,-0.2983172182673293,0.08887835666469274,1.306310654662023,-0.01403058972209692,-0.03694680705666542,0.009546278975903988,0.003591071115806699,-0.0006847847835160792,0.0005237959558144212,XTrueNorthZVertical,-0.6055973864542017,0.05532918458156499,0.09120522943539326,-0.7885886563225305,0.02320336177945137,-0.9652270674705505,-0.2603809833526611,18.38338661193848,-34.61848449707031,-25.25070762634277,2,192.168.1.8,10.83.46.32,1,0
2015-02-28 16:00:03.684,20,1425167987.341164,37.77919114577834,-122.4388061442798,56.94049,-1,-1,10,65,-9999,1425168003.652898,17.42324829101562,-31.69940185546875,-25.61697387695312,329.4449157714844,315.6667785644531,10,161464.7698952917,0.0363311767578125,-0.9732513427734375,-0.2577667236328125,161464.764533875,0.01981338587797152,-0.02994484961295996,-0.03352973075631562,161464.712758625,-0.2984639080659182,0.08754072826631373,1.306023501590244,-0.01167000271379948,-0.02222942374646664,-0.00306315696798265,-0.0002047198940999806,-0.003063967218622565,0.005271004047244787,XTrueNorthZVertical,-0.6054200656706797,0.05588029168723399,0.0916859699574549,-0.7886302022499373,0.02287928014993668,-0.9651519656181335,-0.2606878876686096,18.3221435546875,-34.60932159423828,-25.30771827697754,2,192.168.1.8,10.83.46.32,1,0
2015-02-28 16:00:03.778,21,1425167987.341164,37.77919114577834,-122.4388061442798,56.94049,-1,-1,10,65,-9999,1425168003.756341,17.1334114074707,-31.6484375,-25.56707000732422,329.4789123535156,315.7007751464844,10,161464.8189724583,0.041046142578125,-0.9656982421875,-0.25299072265625,161464.816309375,0.02960130183233974,-0.02500868053249809,-0.0446806525565864,161464.816309375,-0.3057603701503182,0.09390139634184459,1.306531438823811,0.01403821911662817,-0.008998382836580276,-0.01079039927572012,0.01713499054312706,0.005064435768872499,0.001214124611578882,XTrueNorthZVertical,-0.6057078736997444,0.05561915114134501,0.09260437427720168,-0.7883202950151261,0.02449098601937294,-0.9652847647666931,-0.2600489556789398,18.33808708190918,-34.60068511962891,-25.30798149108887,2,192.168.1.8,10.83.46.32,1,0
2015-02-28 16:00:03.781,22,1425167987.341164,37.77919114577834,-122.4388061442798,56.94049,-1,-1,10,65,-9999,1425168003.756341,17.1334114074707,-31.6484375,-25.56707000732422,329.4789123535156,315.7007751464844,10,161464.8680200833,0.031951904296875,-0.966461181640625,-0.26971435546875,161464.816309375,0.02960130183233974,-0.02500868053249809,-0.0446806525565864,161464.816309375,-0.3057603701503182,0.09390139634184459,1.306531438823811,0.01403821911662817,-0.008998382836580276,-0.01079039927572012,0.01713499054312706,0.005064435768872499,0.001214124611578882,XTrueNorthZVertical,-0.6057078736997444,0.05561915114134501,0.09260437427720168,-0.7883202950151261,0.02449098601937294,-0.9652847647666931,-0.2600489556789398,18.33808708190918,-34.60068511962891,-25.30798149108887,2,192.168.1.8,10.83.46.32,1,0
2015-02-28 16:00:03.847,23,1425167987.341164,37.77919114577834,-122.4388061442798,56.94049,-1,-1,10,65,-9999,1425168003.808839,17.1845588684082,-32.07316589355469,-25.71677398681641,329.5038452148438,315.7257080078125,10,161464.9170775833,0.038665771484375,-0.963287353515625,-0.2602691650390625,161464.9198585417,0.0321880301991337,-0.04571555695619119,-0.03926990816987241,161464.8680830417,-0.3114888639129124,0.09810961825472558,1.307082953317275,0.0130743533372879,-0.05145638808608055,-0.007277279160916805,0.006418945267796516,-0.001032500294968486,-0.01030060555785894,XTrueNorthZVertical,-0.6059591130458205,0.05573758635911333,0.09355101268907505,-0.788007016917989,0.02553295902907848,-0.9654287099838257,-0.2594137489795685,18.38035583496094,-34.5904655456543,-25.29128646850586,2,192.168.1.8,10.83.46.32,1,0
2015-02-28 16:00:03.882,24,1425167987.341164,37.77919114577834,-122.4388061442798,56.94049,-1,-1,10,65,-9999,1425168003.859863,17.08227157592773,-31.73338317871094,-25.68350982666016,329.5212707519531,315.7431335449219,10,161464.966117125,0.03192138671875,-0.96551513671875,-0.260772705078125,161464.9198585417,0.0321880301991337,-0.04571555695619119,-0.03926990816987241,161464.9198585417,-0.317052398688707,0.1016139698657431,1.307424503941217,0.01662375405430794,-0.02970323339104652,-0.005391181446611881,0.01225734408944845,0.002230302663519979,-0.001274541718885303,XTrueNorthZVertical,-0.6061014182477834,0.05606923526904863,0.09465791191152532,-0.7877418151085256,0.02640842646360397,-0.9655176401138306,-0.2589946091175079,18.37160873413086,-34.57686996459961,-25.31621932983398,2,192.168.1.8,10.83.46.32,1,0
2015-02-28 16:00:03.947,25,1425167987.341164,37.77919114577834,-122.4388061442798,56.94049,-1,-1,10,65,-9999,1425168003.912509,17.21866226196289,-31.83531188964844,-25.65024566650391,329.5445251464844,315.7663879394531,10,161465.0151775,0.0190277099609375,-0.9724273681640625,-0.2575531005859375,161464.97163375,0.03102103300946098,-0.05752401322960254,-0.0585410744499038,161464.97163375,-0.321821293388338,0.1047884492916502,1.307880234590012,0.01545577775686979,-0.04151108860969543,-0.02466637641191483,0.004736948292702436,0.0001210629925481044,-0.002300848951563239,XTrueNorthZVertical,-0.6062955901341656,0.05630034955391183,0.09554251093118475,-0.7874690676670996,0.02718443796038628,-0.9656361937522888,-0.2584718465805054,18.37860298156738,-34.57033157348633,-25.32007026672363,2,192.168.1.8,10.83.46.32,1,0
2015-02-28 16:00:03.982,26,1425167987.341164,37.77919114577834,-122.4388061442798,56.94049,-1,-1,10,65,-9999,1425168003.963716,17.04817199707031,-32.0391845703125,-25.61697387695312,329.5641174316406,315.7859802246094,10,161465.0642102083,0.022216796875,-0.9691619873046875,-0.2561187744140625,161465.0234075417,0.02606622180136856,-0.05132577210855212,-0.06480456301766116,161465.0234075417,-0.3264100708892061,0.1069424496683592,1.308474933282582,0.01050124317407608,-0.03531323745846748,-0.03092924691736698,-0.008652112446725368,-0.006636778358370066,0.0002885728317778558,XTrueNorthZVertical,-0.6065002505292825,0.05689120664247986,0.09665432395637948,-0.7871332506499591,0.02767982333898544,-0.9657905697822571,-0.2578416764736176,18.37143325805664,-34.55783081054688,-25.34232711791992,2,192.168.1.8,10.83.46.32,1,0
2015-02-28 16:00:04.083,27,1425167987.341164,37.77919114577834,-122.4388061442798,56.94049,-1,-1,10,65,-9999,1425168004.066918,17.73013305664062,-31.80133056640625,-25.61697387695312,329.5828247070312,315.8046875,10,161465.113379375,0.033843994140625,-0.9674530029296875,-0.2645263671875,161465.1269584583,0.02469602542052279,-0.03036349853632042,-0.08734928690961795,161465.0751830833,-0.3315589699711288,0.1112759481753771,1.309266355090014,0.02005232684314251,0.006167926359921694,-0.0551779493689537,-0.001627677935175598,-0.002052574418485165,-0.002195672364905477,XTrueNorthZVertical,-0.6068711295176118,0.05681224926983096,0.0973094862942923,-0.7867722925164674,0.02871202863752842,-0.9659955501556396,-0.2569595873355865,18.36223220825195,-34.5618896484375,-25.34345626831055,2,192.168.1.8,10.83.46.32,1,0
2015-02-28 16:00:04.085,28,1425167987.341164,37.77919114577834,-122.4388061442798,56.94049,-1,-1,10,65,-9999,1425168004.066918,17.73013305664062,-31.80133056640625,-25.61697387695312,329.5828247070312,315.8046875,10,161465.1623127083,0.036224365234375,-0.968719482421875,-0.2555999755859375,161465.1269584583,0.02469602542052279,-0.03036349853632042,-0.08734928690961795,161465.1269584583,-0.343732164346658,0.1230587116277532,1.309488244347374,0.009124583564698696,-0.01436664536595345,-0.05341766402125359,0.004604569636285305,-0.006237170193344355,-0.004198864568024874,XTrueNorthZVertical,-0.607190891542646,0.05589144535914421,0.09850459980735755,-0.7864427425335305,0.03171134740114212,-0.9660528898239136,-0.2563907206058502,18.42726135253906,-34.5523567199707,-25.30923652648926,2,192.168.1.8,10.83.46.32,1,0
2015-02-28 16:00:04.134,29,1425167987.341164,37.77919114577834,-122.4388061442798,56.94049,-1,-1,10,65,-9999,1425168004.119418,17.93472671508789,-32.00520324707031,-25.48390960693359,329.584228515625,315.8060913085938,10,161465.211502125,0.040069580078125,-0.9733123779296875,-0.2556304931640625,161465.17873225,0.03450950772135578,-0.02703854191535649,-0.07277220836696022,161465.17873225,-0.3539223053926453,0.1324045709528983,1.309887714415364,0.01893885992467403,-0.01104151085019112,-0.03884176537394524,0.0007348684011958539,-0.002044691005721688,-0.0001434957812307402,XTrueNorthZVertical,-0.6075248223557322,0.05534690600746936,0.09964149970819267,-0.7860800580452949,0.03405516967177391,-0.966156005859375,-0.2557006180286407,18.56468200683594,-34.49211502075195,-25.29097747802734,2,192.168.1.8,10.83.46.32,1,0
2015-02-28 16:00:04.182,30,1425167987.341164,37.77919114577834,-122.4388061442798,56.94049,-1,-1,10,65,-9999,1425168004.119418,17.93472671508789,-32.00520324707031,-25.48390960693359,329.584228515625,315.8060913085938,10,161465.2604176667,0.0463714599609375,-0.97344970703125,-0.2499847412109375,161465.2305074584,0.04205397677344125,-0.05402009218338528,-0.05620281901281423,161465.2305074584,-0.3622939139717661,0.139502217738992,1.310937312091242,0.02648448012769222,-0.0380224697291851,-0.02227507904171944,0.004707647953182459,-0.01259295176714659,-0.0007704002200625837,XTrueNorthZVertical,-0.608053594234887,0.05519758790025973,0.1006891972233016,-0.785548034364616,0.03572814166545868,-0.9664261937141418,-0.2544481158256531,18.61789703369141,-34.48276138305664,-25.26459503173828,2,192.168.1.8,10.83.46.32,1,0
2015-02-28 16:00:04.232,31,1425167987.341164,37.77919114577834,-122.4388061442798,56.94049,-1,-1,10,65,-9999,1425168004.223006,17.38915634155273,-31.59747314453125,-25.61698913574219,329.640625,315.8624877929688,10,161465.3095889583,0.046844482421875,-0.97393798828125,-0.24951171875,161465.2822830417,0.05059100596379926,-0.04123265789326081,-0.02596076062220142,161465.2822830417,-0.3667443849404114,0.1425151228161142,1.313042886025625,0.03502488881349564,-0.02523373812437057,0.007962531410157681,0.01021173037588596,-0.008620851673185825,0.004201321396976709,XTrueNorthZVertical,-0.6088927545677024,0.05556409139973755,0.1013458457482393,-0.7847873856242891,0.03620550781488419,-0.9669650793075562,-0.2523244917392731,18.6201171875,-34.49418640136719,-25.24736022949219,2,192.168.1.8,10.83.46.32,1,0
2015-02-28 16:00:04.275,32,1425167987.341164,37.77919114577834,-122.4388061442798,56.94049,-1,-1,10,65,-9999,1425168004.223006,17.38915634155273,-31.59747314453125,-25.61698913574219,329.640625,315.8624877929688,10,161465.3585195417,0.0468292236328125,-0.9832000732421875,-0.24395751953125,161465.33405675,0.0532139533214183,-0.06483918411183219,0.01010323422743361,161465.33405675,-0.3655531509205836,0.1399023368889969,1.315869208820603,0.03765033185482025,-0.04883900657296181,0.04402177035808563,0.009482345543801785,-0.01191732194274664,0.002961089368909597,XTrueNorthZVertical,-0.6098799251755883,0.05648887735756726,0.1014403746645695,-0.7839421597886966,0.03516487032175064,-0.9676817059516907,-0.2497109621763229,18.57648277282715,-34.59146118164062,-25.14621353149414,2,192.168.1.8,10.83.46.32,1,0
2015-02-28 16:00:04.329,33,1425167987.341164,37.77919114577834,-122.4388061442798,56.94049,-1,-1,10,65,-9999,1425168004.274856,17.55964660644531,-31.49555969238281,-25.716796875,329.6853332519531,315.9071960449219,10,161465.407584125,0.0255279541015625,-0.96234130859375,-0.2400665283203125,161465.38583225,0.05094121164714468,-0.09506952459364865,0.007200921271465252,161465.38583225,-0.3603258137315314,0.1314732295340232,1.318217314169156,0.03538046777248383,-0.07906807214021683,0.0411149226129055,0.004394311923533678,-0.01094638742506504,0.0007664446020498872,XTrueNorthZVertical,-0.6105042763409798,0.05841169722553102,0.1017726889147461,-0.7832719182322486,0.03276083990931511,-0.9682711362838745,-0.2477452009916306,18.5102424621582,-34.64234924316406,-25.12499237060547,2,192.168.1.8,10.83.46.32,1,0
2015-02-28 16:00:04.377,34,1425167987.341164,37.77919114577834,-122.4388061442798,56.94049,-1,-1,10,65,-9999,1425168004.327187,17.33800888061523,-32.05618286132812,-25.63362884521484,329.724853515625,315.9467163085938,10,161465.4566098333,0.0218353271484375,-0.9824981689453125,-0.2484588623046875,161465.4376075,0.02847798048454432,-0.0367452314564773,0.009438509219349828,161465.4376075,-0.3499336884288844,0.1187862504509419,1.320258077345328,0.01292118243873119,-0.02074421383440495,0.04335569962859154,-0.01071941666305065,-0.01892229914665222,0.004738468211144209,XTrueNorthZVertical,-0.6109536514960542,0.06038619022171113,0.1014182220264165,-0.7828176440900531,0.02938091568648815,-0.9687790870666504,-0.2461782842874527,18.35859489440918,-34.72056579589844,-25.1282958984375,2,192.168.1.8,10.83.46.32,1,0
2015-02-28 16:00:04.427,35,1425167987.341164,37.77919114577834,-122.4388061442798,56.94049,-1,-1,10,65,-9999,1425168004.380041,17.4403076171875,-32.09014892578125,-25.56710815429688,329.7548522949219,315.9767150878906,10,161465.5057280833,0.0267791748046875,-0.9752197265625,-0.244384765625,161465.4893815417,0.04323615398132742,-0.04149258241565255,-0.00514629249046912,161465.4893815417,-0.3419227077537538,0.1099832069812276,1.321470528697777,0.02767926082015038,-0.02549190260469913,0.0287712849676609,0.004593504592776299,-0.006232277490198612,-0.002420958830043674,XTrueNorthZVertical,-0.6112197002735711,0.06148679022902943,0.1008819512945843,-0.782593547399523,0.0270837415009737,-0.9690790176391602,-0.245259702205658,18.16610527038574,-34.83755874633789,-25.10625267028809,2,192.168.1.8,10.83.46.32,1,0
2015-02-28 16:00:04.479,36,1425167987.341164,37.77919114577834,-122.4388061442798,56.94049,-1,-1,10,65,-9999,1425168004.430656,17.45735549926758,-32.31098937988281,-25.48394012451172,329.7753601074219,315.9972229003906,10,161465.5547162917,0.0274505615234375,-0.974029541015625,-0.2476806640625,161465.5411567917,0.01745702094546941,-0.04365826501410498,-0.007491738462501905,161465.4893815417,-0.3419227077537538,0.1099832069812276,1.321470528697777,0.02767926082015038,-0.02549190260469913,0.0287712849676609,0.004593504592776299,-0.006232277490198612,-0.002420958830043674,XTrueNorthZVertical,-0.6112197002735711,0.06148679022902943,0.1008819512945843,-0.782593547399523,0.0270837415009737,-0.9690790176391602,-0.245259702205658,18.16610527038574,-34.83755874633789,-25.10625267028809,2,192.168.1.8,10.83.46.32,1,0
2015-02-28 16:00:04.526,37,1425167987.341164,37.77919114577834,-122.4388061442798,56.94049,-1,-1,10,65,-9999,1425168004.482078,17.50850296020508,-32.05615234375,-25.56710815429688,329.789794921875,316.0116577148438,10,161465.6038758333,0.0323944091796875,-0.9755706787109375,-0.243438720703125,161465.5929321667,0.001490304946008342,-0.04562367789858346,-0.02820820226611929,161465.5929321667,-0.3345399042612227,0.1003404396265447,1.322017706905947,-0.01406572293490171,-0.02962282486259937,0.005706887226551771,0.00876759085804224,-0.01111754775047302,0.003145284485071898,XTrueNorthZVertical,-0.611174246305409,0.06304858828334065,0.1009006477810501,-0.7825023650759237,0.02466441504657269,-0.9692139029502869,-0.2449818253517151,18.05053329467773,-34.89286041259766,-25.11281585693359,2,192.168.1.8,10.83.46.32,1,0
2015-02-28 16:00:04.576,38,1425167987.341164,37.77919114577834,-122.4388061442798,56.94049,-1,-1,10,65,-9999,1425168004.534596,17.47440338134766,-31.98817443847656,-25.36750030517578,329.8019104003906,316.0237731933594,10,161465.6528065,0.0317230224609375,-0.97674560546875,-0.23876953125,161465.6447060833,0.0003760383459191885,-0.06383597132919934,-0.02529976403964376,161465.5929321667,-0.3345399042612227,0.1003404396265447,1.322017706905947,-0.01406572293490171,-0.02962282486259937,0.005706887226551771,0.00876759085804224,-0.01111754775047302,0.003145284485071898,XTrueNorthZVertical,-0.611174246305409,0.06304858828334065,0.1009006477810501,-0.7825023650759237,0.02466441504657269,-0.9692139029502869,-0.2449818253517151,18.05053329467773,-34.89286041259766,-25.11281585693359,2,192.168.1.8,10.83.46.32,1,0
2015-02-28 16:00:04.625,39,1425167987.341164,37.77919114577834,-122.4388061442798,56.94049,-1,-1,10,65,-9999,1425168004.585969,17.35505676269531,-31.59742736816406,-25.583740234375,329.8226623535156,316.0445251464844,10,161465.7019768333,0.0534210205078125,-0.965240478515625,-0.2468414306640625,161465.696481625,0.005387308569121291,-0.07967645349299064,-0.02246269853038234,161465.6447060833,-0.3354065154627796,0.09958815965328667,1.321511203443481,-0.0151775386184454,-0.04783421754837036,0.008611247874796391,0.007590832188725471,-0.005260938312858343,0.00015795357467141,XTrueNorthZVertical,-0.6109131568735426,0.06356675778320116,0.1015052973927243,-0.7825861183080786,0.02452891878783703,-0.9690890312194824,-0.2454887628555298,18.00283622741699,-34.88020324707031,-25.16458129882812,2,192.168.1.8,10.83.46.32,1,0
2015-02-28 16:00:04.682,40,1425167987.341164,37.77919114577834,-122.4388061442798,56.94049,-1,-1,10,65,-9999,1425168004.638408,16.97998428344727,-31.63139343261719,-25.11798858642578,329.8430786132812,316.06494140625,10,161465.7509107083,0.0445556640625,-0.98553466796875,-0.2524261474609375,161465.7482569167,0.009529589328630537,-0.1526760958170436,-0.005948702926909994,161465.696481625,-0.3382620898635768,0.09994403410053068,1.320982423487108,-0.01016426552087069,-0.06367304176092148,0.01144059840589762,0.02738032303750515,0.001596995745785534,4.870079646934755e-05,XTrueNorthZVertical,-0.6106358598351882,0.06425663569068964,0.1025514235715297,-0.7826098088320026,0.02466740645468235,-0.9689584374427795,-0.2459898591041565,17.97111511230469,-34.87256240844727,-25.19782257080078,2,192.168.1.8,10.83.46.32,1,0
2015-02-28 16:00:04.722,41,1425167987.341164,37.77919114577834,-122.4388061442798,56.94049,-1,-1,10,65,-9999,1425168004.689769,16.67309951782227,-31.86924743652344,-25.55049133300781,329.8815002441406,316.1033630371094,10,161465.80008475,0.0411834716796875,-0.9816741943359375,-0.243255615234375,161465.8000309583,0.01078926452423802,-0.1575739153778084,-0.003381149319964601,161465.7482569167,-0.342322562424178,0.09929620174892489,1.320426835987813,-0.006020905449986458,-0.1366698145866394,0.02794110588729382,0.02364110946655273,-0.01323472242802382,-0.002100524492561817,XTrueNorthZVertical,-0.6102558982616382,0.06570401052721088,0.1043775572518036,-0.7825445821697469,0.02456140518188477,-0.9688209295272827,-0.246541440486908,17.96117210388184,-34.83046722412109,-25.2630443572998,2,192.168.1.8,10.83.46.32,1,0
2015-02-28 16:00:04.782,42,1425167987.341164,37.77919114577834,-122.4388061442798,56.94049,-1,-1,10,65,-9999,1425168004.741089,16.67310333251953,-31.76730346679688,-25.45068359375,331.3373718261719,317.5592346191406,10,161465.849018875,0.0713958740234375,-0.964630126953125,-0.231536865234375,161465.8000309583,0.01078926452423802,-0.1575739153778084,-0.003381149319964601,161465.8000309583,-0.3437407125715171,0.09356281851506847,1.320424573921412,-0.004761209711432457,-0.1415658742189407,0.03049946948885918,0.0184019859880209,-0.008581351488828659,-0.0002678498858585954,XTrueNorthZVertical,-0.6099049662710908,0.06837935333208979,0.1066814216185728,-0.7822782409991609,0.0231476966291666,-0.9688203930854797,-0.2466803938150406,17.74615669250488,-34.81547546386719,-25.43507766723633,2,192.168.1.8,10.83.46.32,1,0
2015-02-28 16:00:04.820,43,1425167987.341164,37.77919114577834,-122.4388061442798,56.94049,-1,-1,10,65,-9999,1425168004.793836,16.45146560668945,-31.75032043457031,-25.80000305175781,332.1444702148438,318.3663330078125,10,161465.8981981667,0.0592193603515625,-0.9341583251953125,-0.2374420166015625,161465.903581875,-0.01470304606221847,-0.406912638752586,-0.008049670710873506,161465.85180625,-0.3463036964402227,0.08994611190728152,1.320688795266073,-0.01209808886051178,-0.141045555472374,0.07940976321697235,0.04916349053382874,0.004255685489624739,0.01497067511081696,XTrueNorthZVertical,-0.6097231625547503,0.07059670609370493,0.1087678378057329,-0.7819356133951022,0.02223238348960876,-0.9688858389854431,-0.246507540345192,17.66145133972168,-34.80932235717773,-25.50237274169922,2,192.168.1.8,10.83.46.32,1,0
2015-02-28 16:00:04.877,44,1425167987.341164,37.77919114577834,-122.4388061442798,56.94049,-1,-1,10,65,-9999,1425168004.844859,16.17868423461914,-31.75032043457031,-25.60037994384766,331.8181762695312,318.0400390625,10,161465.9471315417,-0.0672454833984375,-0.9622650146484375,-0.240020751953125,161465.903581875,-0.01470304606221847,-0.406912638752586,-0.008049670710873506,161465.903581875,-0.3505287837237088,0.08301006884829203,1.32020147838119,-0.03024341724812984,-0.3908938765525818,0.0257875956594944,0.03865813836455345,0.03460675850510597,0.009684297256171703,XTrueNorthZVertical,-0.608997799016712,0.07455550896509872,0.1125667075514923,-0.7815957197492371,0.0205612201243639,-0.9687650799751282,-0.2471263110637665,17.51300239562988,-34.82183456420898,-25.58752822875977,2,192.168.1.8,10.83.46.32,1,0
2015-02-28 16:00:04.918,45,1425167987.341164,37.77919114577834,-122.4388061442798,56.94049,-1,-1,10,65,-9999,1425168004.897035,15.53081130981445,-31.85224914550781,-25.66691589355469,332.6686401367188,318.8905029296875,10,161465.99630425,-0.03472900390625,-1.012405395507812,-0.235626220703125,161465.9553555833,-0.02546860845275478,-0.4749833025311204,-0.2228200305042047,161465.9553555833,-0.3626321252759864,0.06984126685179641,1.317312079695319,-0.04100869968533516,-0.4589661955833435,-0.1889755576848984,-0.08474592119455338,0.005779510829597712,0.01014618203043938,XTrueNorthZVertical,-0.606633087542676,0.08314343097378089,0.1214975611493368,-0.7812309425020659,0.01750043965876102,-0.9680445194244385,-0.2501669228076935,16.9107780456543,-34.67623138427734,-26.18342018127441,2,192.168.1.8,10.83.46.32,1,0
2015-02-28 16:00:04.979,46,1425167987.341164,37.77919114577834,-122.4388061442798,56.94049,-1,-1,10,65,-9999,1425168004.948319,15.20688247680664,-31.25762939453125,-26.18258666992188,334.3592834472656,320.5811462402344,10,161466.0452392917,0.077301025390625,-0.98760986328125,-0.230987548828125,161466.0071312083,0.005017129177600277,-0.2484138075281932,-0.3154423763721795,161466.0071312083,-0.4109118826144123,0.09985241062173753,1.314461306535199,-0.01052279025316238,-0.2323968857526779,-0.2815982699394226,-0.03821368142962456,-0.03668738156557083,0.01205495093017817,XTrueNorthZVertical,-0.6053930372900442,0.0858034792488096,0.1314662853890333,-0.7802907311118708,0.02527422830462456,-0.9673256874084473,-0.2522740662097931,16.73330116271973,-34.56282806396484,-26.44606781005859,2,192.168.1.8,10.83.46.32,1,0
2015-02-28 16:00:05.016,47,1425167987.341164,37.77919114577834,-122.4388061442798,56.94049,-1,-1,10,65,-9999,1425168005.001542,15.3432731628418,-30.98580932617188,-27.01431274414062,336.9832153320312,323.205078125,10,161466.094401375,0.140167236328125,-0.89898681640625,-0.250457763671875,161466.0589064583,0.02853017844190987,-0.2745284988614012,-0.2854682319872286,161466.0589064583,-0.4634952264842346,0.1394747911920282,1.314108907914678,0.01299041416496038,-0.2585117518901825,-0.2516244649887085,0.06304803490638733,0.009701484814286232,0.01432139705866575,XTrueNorthZVertical,-0.6056859040963255,0.08624589835568508,0.1399939989240989,-0.7785293101512823,0.03529486432671547,-0.9672362804412842,-0.2514124512672424,16.83676910400391,-34.34332275390625,-26.66545104980469,2,192.168.1.8,10.83.46.32,1,0
2015-02-28 16:00:05.080,48,1425167987.341164,37.77919114577834,-122.4388061442798,56.94049,-1,-1,10,65,-9999,1425168005.052392,15.30918121337891,-30.68002319335938,-27.48006439208984,338.8961181640625,325.1179809570312,10,161466.143338625,0.1739044189453125,-0.9012451171875,-0.279296875,161466.1106805,0.01835663676169817,-0.4195911497541263,-0.3025825041004049,161466.1106805,-0.5119226887372654,0.1699136446715176,1.312684337375321,0.002813201397657394,-0.4035960733890533,-0.2686763405799866,0.1107981875538826,0.07811019569635391,-0.00466121407225728,XTrueNorthZVertical,-0.6052326760034897,0.0889021511738923,0.1497564801842071,-0.7767643065696962,0.0431629940867424,-0.9668736457824707,-0.2515796422958374,16.93601608276367,-34.05904388427734,-26.96552658081055,2,192.168.1.8,10.83.46.32,1,0
2015-02-28 16:00:05.114,49,1425167987.341164,37.77919114577834,-122.4388061442798,56.94049,-1,-1,10,65,-9999,1425168005.104725,15.17278671264648,-30.44219970703125,-27.64641571044922,340.7239990234375,326.9458618164062,10,161466.1925440417,0.081146240234375,-0.9997406005859375,-0.3041839599609375,161466.1624558333,0.01315708104942747,-0.7754603114737086,-0.3253924788369336,161466.1624558333,-0.5646298551945931,0.191385003589207,1.310102648432276,-0.002386198379099369,-0.7594653964042664,-0.2914866805076599,0.1101201251149178,0.05645189434289932,-0.03340854868292809,XTrueNorthZVertical,-0.6035148462392709,0.09616382363076044,0.1640049132478229,-0.7743543851026027,0.04902904480695724,-0.9662114381790161,-0.2530446946620941,16.84478378295898,-33.92540740966797,-27.1901969909668,2,192.168.1.8,10.83.46.32,1,0
2015-02-28 16:00:05.180,50,1425167987.341164,37.77919114577834,-122.4388061442798,56.94049,-1,-1,10,65,-9999,1425168005.155524,14.38852691650391,-30.40821838378906,-28.2452392578125,343.7240905761719,329.9459533691406,10,161466.2414452917,0.011993408203125,-0.990081787109375,-0.3084869384765625,161466.2142314167,0.08245998946434147,-1.082882045590897,-0.5440499885573443,161466.2142314167,-0.6384212799864528,0.2160096346895108,1.307775601823505,0.06691687554121017,-1.066887259483337,-0.5101445317268372,-0.008317385800182819,-0.0303779374808073,-0.06249576061964035,XTrueNorthZVertical,-0.6010335673473882,0.1085380925216857,0.185376293717068,-0.7698140938075271,0.05572644248604774,-0.9656090140342712,-0.2539562582969666,16.39486694335938,-33.70805358886719,-27.73016738891602,2,192.168.1.8,10.83.46.32,1,0
2015-02-28 16:00:05.212,51,1425167987.341164,37.77919114577834,-122.4388061442798,56.94049,-1,-1,10,65,-9999,1425168005.208027,13.67246627807617,-30.06843566894531,-29.14350891113281,348.5214538574219,334.7433166503906,10,161466.2905188334,0.0005035400390625,-0.979461669921875,-0.25457763671875,161466.2660052083,0.1772179242104509,-1.33595052607233,-0.7653485551307867,161466.2660052083,-0.7653554764632288,0.2782730636661647,1.305959878050319,0.1616748571395874,-1.319955945014954,-0.7314434051513672,-0.07345832884311676,-0.03471208736300468,-0.0477105937898159,XTrueNorthZVertical,-0.5992968210592272,0.1224837403739049,0.2155554292721545,-0.761168106548858,0.07190193235874176,-0.9651353359222412,-0.2516821026802063,15.42270183563232,-33.25404357910156,-28.81484985351562,2,192.168.1.8,10.83.46.32,1,0
2015-02-28 16:00:05.281,52,1425167987.341164,37.77919114577834,-122.4388061442798,56.94049,-1,-1,10,65,-9999,1425168005.261242,12.22329711914062,-29.71165466308594,-29.95859527587891,354.3501281738281,340.5719909667969,10,161466.339553625,-0.03582763671875,-0.888580322265625,-0.205780029296875,161466.3177807917,0.2213108171144568,-1.523110030632047,-0.8328724719375278,161466.3177807917,-0.9156443473463687,0.3512640015099069,1.302757008093736,0.205767884850502,-1.507115602493286,-0.7989676594734192,-0.09613274782896042,0.0194372832775116,0.01406573597341776,XTrueNorthZVertical,-0.5968972877314332,0.1392078260064489,0.2510626130515223,-0.7492011407550796,0.09112786501646042,-0.9642919898033142,-0.2486696243286133,14.97570896148682,-33.05954742431641,-29.27082633972168,2,192.168.1.8,10.83.46.32,1,0
2015-02-28 16:00:05.312,53,1425167987.341164,37.77919114577834,-122.4388061442798,56.94049,-1,-1,10,65,-9999,1425168005.261242,12.22329711914062,-29.71165466308594,-29.95859527587891,354.3501281738281,340.5719909667969,10,161466.3887579583,-0.0132598876953125,-0.88348388671875,-0.2440338134765625,161466.369556125,0.3078145503779746,-1.415160926374557,-0.8871277212451671,161466.369556125,-1.078321549909281,0.434084852601929,1.298317711976326,0.2922717928886414,-1.399166703224182,-0.8532232642173767,-0.1441616415977478,0.09685009717941284,0.01880291849374771,XTrueNorthZVertical,-0.594660409130621,0.1558814007212643,0.2876770815054462,-0.7343853616473047,0.1131863072514534,-0.9631068110466003,-0.2441599667072296,14.17070960998535,-32.80813217163086,-29.94668960571289,2,192.168.1.8,10.83.46.32,1,0
2015-02-28 16:00:05.381,54,1425167987.341164,37.77919114577834,-122.4388061442798,56.94049,-1,-1,10,65,-9999,1425168005.363269,10.16035461425781,-29.15104675292969,-30.87348175048828,5.851234436035156,352.0730895996094,10,161466.4376647084,-0.0090789794921875,-0.9707183837890625,-0.24371337890625,161466.42133025,0.3840584555419621,-1.21583290616205,-0.7332790356001616,161466.369556125,-1.078321549909281,0.434084852601929,1.298317711976326,0.2922717928886414,-1.399166703224182,-0.8532232642173767,-0.1441616415977478,0.09685009717941284,0.01880291849374771,XTrueNorthZVertical,-0.594660409130621,0.1558814007212643,0.2876770815054462,-0.7343853616473047,0.1131863072514534,-0.9631068110466003,-0.2441599667072296,14.17070960998535,-32.80813217163086,-29.94668960571289,2,192.168.1.8,10.83.46.32,1,0
2015-02-28 16:00:05.408,55,1425167987.341164,37.77919114577834,-122.4388061442798,56.94049,-1,-1,10,65,-9999,1425168005.363269,10.16035461425781,-29.15104675292969,-30.87348175048828,5.851234436035156,352.0730895996094,10,161466.486853,-0.015045166015625,-0.8687286376953125,-0.20184326171875,161466.4731056667,0.4572770097076196,-0.9232476424776938,-0.5744401187045656,161466.4731056667,-1.367952525954621,0.5966416199325985,1.29797090488172,0.4417343139648438,-0.9072538614273071,-0.5405357480049133,-0.1550744473934174,-0.0381004698574543,0.01116820145398378,XTrueNorthZVertical,-0.5957054512281381,0.1835359264107031,0.3435019182030055,-0.7024642248456898,0.1513970792293549,-0.9630134105682373,-0.2228991538286209,12.62918090820312,-32.75136947631836,-30.68938255310059,2,192.168.1.8,10.83.46.32,1,0
2015-02-28 16:00:05.448,56,1425167987.341164,37.77919114577834,-122.4388061442798,56.94049,-1,-1,10,65,-9999,1425168005.415604,9.734130859375,-29.37190246582031,-30.82357788085938,8.898445129394531,355.1203002929688,10,161466.5358193333,-0.02886962890625,-0.731842041015625,-0.1465606689453125,161466.5248809583,0.2852876696653213,-0.9533743859931062,-0.9586820660456341,161466.4731056667,-1.367952525954621,0.5966416199325985,1.29797090488172,0.4417343139648438,-0.9072538614273071,-0.5405357480049133,-0.1550744473934174,-0.0381004698574543,0.01116820145398378,XTrueNorthZVertical,-0.5957054512281381,0.1835359264107031,0.3435019182030055,-0.7024642248456898,0.1513970792293549,-0.9630134105682373,-0.2228991538286209,12.62918090820312,-32.75136947631836,-30.68938255310059,2,192.168.1.8,10.83.46.32,1,0
2015-02-28 16:00:05.507,57,1425167987.341164,37.77919114577834,-122.4388061442798,56.94049,-1,-1,10,65,-9999,1425168005.467261,8.728233337402344,-29.5247802734375,-30.773681640625,14.19593048095703,0.41778564453125,10,161466.584981,0.0630035400390625,-1.066558837890625,-0.1455535888671875,161466.576655125,0.01432061612968309,-0.1981895188464978,-0.667788442285696,161466.5248809583,-1.518308683481438,0.6953745797867951,1.290441304341728,0.2697451412677765,-0.9373807907104492,-0.9247780442237854,-0.2178452908992767,0.2510726153850555,0.02583659254014492,XTrueNorthZVertical,-0.5975210787481133,0.1916840351801872,0.3683888085592067,-0.6859412895726683,0.1772721707820892,-0.9609572887420654,-0.2124515771865845,12.15441799163818,-33.04811859130859,-30.56270217895508,2,192.168.1.8,10.83.46.32,1,0
2015-02-28 16:00:05.579,58,1425167987.341164,37.77919114577834,-122.4388061442798,56.94049,-1,-1,10,65,-9999,1425168005.570815,10.09216690063477,-29.45683288574219,-30.77367401123047,19.89421463012695,6.116069316864014,10,161466.6339320417,0.3173065185546875,-1.106307983398438,-0.185577392578125,161466.6284304167,0.4811373351780755,0.5851825115936182,-0.6492592326853607,161466.576655125,-1.63596439912391,0.7773666592692724,1.266268341920964,-0.001221597311086953,-0.1821967512369156,-0.6338818073272705,-0.1653893738985062,-0.06984563916921616,0.08912888914346695,XTrueNorthZVertical,-0.597307468853621,0.1906969763373244,0.391135479506951,-0.6736998318553341,0.2103112488985062,-0.9539886116981506,-0.2137168943881989,12.3887300491333,-32.78607559204102,-30.75027465820312,2,192.168.1.8,10.83.46.32,1,0
2015-02-28 16:00:05.605,59,1425167987.341164,37.77919114577834,-122.4388061442798,56.94049,-1,-1,10,65,-9999,1425168005.570815,10.09216690063477,-29.45683288574219,-30.77367401123047,19.89421463012695,6.116069316864014,10,161466.6830200417,0.477508544921875,-1.152847290039062,-0.0626678466796875,161466.680206125,0.1321593690951822,0.02747103927638536,-0.5159022400479699,161466.680206125,-1.823890294746762,0.9931444164743566,1.240357063680201,0.1166172921657562,0.0434633307158947,-0.4819956719875336,0.1962339133024216,-0.2124863117933273,0.1080967336893082,XTrueNorthZVertical,-0.6193783505677316,0.1666848067857531,0.3962231066682956,-0.6569580349462761,0.2718141674995422,-0.9458999037742615,-0.1771732717752457,14.53216361999512,-32.78605651855469,-29.79727172851562,2,192.168.1.8,10.83.46.32,1,0
2015-02-28 16:00:05.647,60,1425167987.341164,37.77919114577834,-122.4388061442798,56.94049,-1,-1,10,65,-9999,1425168005.622864,11.69477462768555,-29.25299072265625,-30.00848388671875,21.14505386352539,7.366908073425293,10,161466.7320568333,0.311279296875,-0.99969482421875,-0.20806884765625,161466.680206125,0.1321593690951822,0.02747103927638536,-0.5159022400479699,161466.680206125,-1.823890294746762,0.9931444164743566,1.240357063680201,0.1166172921657562,0.0434633307158947,-0.4819956719875336,0.1962339133024216,-0.2124863117933273,0.1080967336893082,XTrueNorthZVertical,-0.6193783505677316,0.1666848067857531,0.3962231066682956,-0.6569580349462761,0.2718141674995422,-0.9458999037742615,-0.1771732717752457,14.53216361999512,-32.78605651855469,-29.79727172851562,2,192.168.1.8,10.83.46.32,1,0
2015-02-28 16:00:05.702,61,1425167987.341164,37.77919114577834,-122.4388061442798,56.94049,-1,-1,10,65,-9999,1425168005.674314,12.9564094543457,-29.42286682128906,-29.74233245849609,20.9371166229248,7.158972263336182,10,161466.7811464584,0.296356201171875,-0.8876800537109375,-0.0692901611328125,161466.7837555417,0.2233063237192531,-0.4575374668622293,-0.9380614760412596,161466.731979875,-1.878920413301296,1.036397001813215,1.225259391396377,0.3273182511329651,-0.2853245735168457,-0.6514396667480469,0.05459107086062431,-0.08712141215801239,-0.02466501295566559,XTrueNorthZVertical,-0.6219568836756085,0.1640582376678642,0.4056216972071527,-0.6494039914877218,0.2914782762527466,-0.9408937096595764,-0.1725090593099594,15.86154270172119,-32.66309356689453,-29.24928283691406,2,192.168.1.8,10.83.46.32,1,0
2015-02-28 16:00:05.749,62,1425167987.341164,37.77919114577834,-122.4388061442798,56.94049,-1,-1,10,65,-9999,1425168005.727906,13.45082855224609,-29.13404846191406,-29.45954895019531,23.34844779968262,9.570302963256836,10,161466.830191875,0.3784332275390625,-0.8538665771484375,0.024658203125,161466.7837555417,0.2233063237192531,-0.4575374668622293,-0.9380614760412596,161466.7837555417,-1.977254983966064,1.107245806916816,1.194418743345757,0.2077645808458328,-0.4415455162525177,-0.9041556119918823,-0.03241002932190895,0.04232211410999298,0.0950530543923378,XTrueNorthZVertical,-0.6261553779827703,0.1604924732547353,0.4249556735982135,-0.6337067618639372,0.3287662267684937,-0.9300021529197693,-0.1643432229757309,16.28969192504883,-32.6116943359375,-29.07078170776367,2,192.168.1.8,10.83.46.32,1,0
2015-02-28 16:00:05.801,63,1425167987.341164,37.77919114577834,-122.4388061442798,56.94049,-1,-1,10,65,-9999,1425168005.778266,13.89409637451172,-29.10006713867188,-29.75896453857422,28.27473449707031,14.49659061431885,10,161466.8792602083,0.4639129638671875,-0.8897705078125,0.015869140625,161466.8355307917,0.3160794045049264,-0.1598314770338685,-0.8858062607122698,161466.8355307917,-2.050927656639036,1.161095041988606,1.160006391629774,0.3005377948284149,-0.1438396722078323,-0.8519007563591003,0.01214851811528206,0.06293908506631851,0.1837269067764282,XTrueNorthZVertical,-0.6299290961834464,0.1538017715200794,0.4420571928973207,-0.6197739611907628,0.3662846982479095,-0.9168056845664978,-0.1590687036514282,17.03620147705078,-32.25659561157227,-29.03904914855957,2,192.168.1.8,10.83.46.32,1,0
2015-02-28 16:00:05.848,64,1425167987.341164,37.77919114577834,-122.4388061442798,56.94049,-1,-1,10,65,-9999,1425168005.829736,14.59311294555664,-28.84521484375,-29.54270935058594,32.62282562255859,18.84468269348145,10,161466.9283042084,0.464080810546875,-0.836090087890625,-0.0478973388671875,161466.8873048333,0.4368774620737216,-0.6300903317911883,-0.8692584429629534,161466.8873048333,-2.131624607031796,1.218269741790763,1.127669362430008,0.4213359951972961,-0.6140987277030945,-0.8353532552719116,0.06151420623064041,0.01364483684301376,0.1639093905687332,XTrueNorthZVertical,-0.6352852680665939,0.1496412584253531,0.4587378793313709,-0.6029756677715494,0.4023987650871277,-0.903415322303772,-0.1480402499437332,18.54445648193359,-31.78423118591309,-28.63306617736816,2,192.168.1.8,10.83.46.32,1,0
2015-02-28 16:00:05.899,65,1425167987.341164,37.77919114577834,-122.4388061442798,56.94049,-1,-1,10,65,-9999,1425168005.881275,14.64426040649414,-27.97877502441406,-29.89203643798828,35.99069976806641,22.21255302429199,10,161466.9773716667,0.4504852294921875,-0.68890380859375,-0.0259246826171875,161466.9908557917,0.3692848357108565,-1.415955613643836,-0.791807326876833,161466.9390802917,-2.207124439028006,1.232126604585348,1.093026895770067,0.3854231834411621,-1.372612953186035,-0.8980957865715027,0.02382257021963596,0.08206876367330551,0.1083420738577843,XTrueNorthZVertical,-0.6318025513601648,0.1563500275378854,0.4872808023256782,-0.5821834767254123,0.4336816966533661,-0.8880227208137512,-0.1527604162693024,18.70316696166992,-31.66971588134766,-28.65671920776367,2,192.168.1.8,10.83.46.32,1,0
2015-02-28 16:00:05.948,66,1425167987.341164,37.77919114577834,-122.4388061442798,56.94049,-1,-1,10,65,-9999,1425168005.933322,14.03049087524414,-28.11468505859375,-30.42433929443359,42.19367218017578,28.41552734375,10,161467.026421875,0.3227996826171875,-0.615753173828125,-0.044677734375,161466.9908557917,0.3692848357108565,-1.415955613643836,-0.791807326876833,161466.9908557917,-2.275472257829156,1.221065141744739,1.059449953095063,0.353743702173233,-1.399964213371277,-0.7579028010368347,-0.02602825872600079,0.2018288820981979,0.1413984447717667,XTrueNorthZVertical,-0.6227994758759621,0.168177794582604,0.5202102159159551,-0.5596591368129268,0.4597288072109222,-0.8720864653587341,-0.1676740795373917,18.29032135009766,-31.42436790466309,-29.18835258483887,2,192.168.1.8,10.83.46.32,1,0
2015-02-28 16:00:05.997,67,1425167987.341164,37.77919114577834,-122.4388061442798,56.94049,-1,-1,10,65,-9999,1425168005.985088,12.35967636108398,-28.25062561035156,-31.28931427001953,47.59159088134766,33.81344604492188,10,161467.0755107917,0.1720123291015625,-0.5933685302734375,-0.3661651611328125,161467.0426298333,0.04477279793030314,-1.352912199055045,-0.6142280117064584,161467.0426298333,-2.313345058523189,1.187111157533239,1.033196627309094,0.02923180535435677,-1.336920976638794,-0.5803238153457642,-0.1752828806638718,0.2694475054740906,0.08298692852258682,XTrueNorthZVertical,-0.6099697490093786,0.1791413821778758,0.5486906886161933,-0.5429399364702138,0.4748434126377106,-0.8589403033256531,-0.1916905343532562,16.92294692993164,-31.09316062927246,-30.34495162963867,2,192.168.1.8,10.83.46.32,1,0
2015-02-28 16:00:06.050,68,1425167987.341164,37.77919114577834,-122.4388061442798,56.94049,-1,-1,10,65,-9999,1425168006.038133,10.89345932006836,-28.25062561035156,-31.65526580810547,52.44779205322266,38.66964721679688,10,161467.1245402917,0.2682952880859375,-0.6731414794921875,-0.3319854736328125,161467.0944054583,0.07414773106998615,-1.974910515874027,-0.9985679633756418,161467.0944054583,-2.345308311449974,1.126251249673129,0.9979592692209962,0.05860786512494087,-1.958943963050842,-0.9646037817001343,-0.3653599917888641,0.2419626861810684,-0.1486966758966446,XTrueNorthZVertical,-0.5889604030082642,0.1912561100578323,0.5853721934983954,-0.523341298806355,0.4893376529216766,-0.8403666019439697,-0.2330934852361679,16.1722526550293,-30.79935264587402,-31.04585266113281,2,192.168.1.8,10.83.46.32,1,0
2015-02-28 16:00:06.096,69,1425167987.341164,37.77919114577834,-122.4388061442798,56.94049,-1,-1,10,65,-9999,1425168006.088974,9.870513916015625,-27.84288024902344,-32.28737640380859,58.34611129760742,44.56796646118164,10,161467.1736160833,0.24078369140625,-0.82489013671875,-0.26287841796875,161467.1461808333,0.2895250252757464,-0.3856172037279854,-0.3773193264035166,161467.1461808333,-2.390600569338088,1.107227650529693,0.9695854228835129,0.2739853262901306,-0.3696507811546326,-0.3433555662631989,-0.1621340066194534,0.05972818657755852,-0.0147165572270751,XTrueNorthZVertical,-0.5781493214421028,0.1981970252380527,0.6103185752107052,-0.503956857239936,0.5059450268745422,-0.824651300907135,-0.2529225945472717,14.74918174743652,-30.25358581542969,-32.26715087890625,2,192.168.1.8,10.83.46.32,1,0
2015-02-28 16:00:06.148,70,1425167987.341164,37.77919114577834,-122.4388061442798,56.94049,-1,-1,10,65,-9999,1425168006.14007,10.04100036621094,-27.53706359863281,-32.38718414306641,59.376220703125,45.59807586669922,10,161467.2227587083,0.233673095703125,-0.798187255859375,-0.363067626953125,161467.1979549167,0.08841268713288658,0.3734287143670198,-0.2958170096671676,161467.1979549167,-2.40795469857778,1.123279237705783,0.9632978156799216,0.07287314534187317,0.3893949389457703,-0.2618536055088043,-0.330918550491333,-0.0188568290323019,-0.06686526536941528,XTrueNorthZVertical,-0.5812035349626401,0.196719182981673,0.6117083438029635,-0.4993164247442159,0.514603853225708,-0.8210784792900085,-0.2470080256462097,14.60422134399414,-30.27432441711426,-32.3135986328125,2,192.168.1.8,10.83.46.32,1,0
2015-02-28 16:00:06.196,71,1425167987.341164,37.77919114577834,-122.4388061442798,56.94049,-1,-1,10,65,-9999,1425168006.14007,10.04100036621094,-27.53706359863281,-32.38718414306641,59.376220703125,45.59807586669922,10,161467.2717295417,0.51904296875,-0.653839111328125,-0.3104705810546875,161467.2497303333,0.2957264621901049,0.796107000456766,-0.4732162951478528,161467.2497303333,-2.442883323793465,1.190891657885457,0.9479137021677925,0.2801870405673981,0.8120731115341187,-0.439253181219101,-0.1273094117641449,0.06558762490749359,-0.1192357912659645,XTrueNorthZVertical,-0.5982449491473035,0.1842151797241314,0.6045177262686773,-0.4926723484319487,0.5417839288711548,-0.8122001886367798,-0.2163354903459549,11.13257694244385,-27.25610160827637,-32.36816787719727,2,192.168.1.8,10.83.46.32,1,0
2015-02-28 16:00:06.233,72,1425167987.341164,37.77919114577834,-122.4388061442798,56.94049,-1,-1,10,65,-9999,1425168006.197628,11.30263519287109,-27.571044921875,-32.0877685546875,59.55593109130859,45.77778625488281,10,161467.3207749584,0.436370849609375,-0.5594635009765625,-0.250213623046875,161467.3015059583,0.1377157883935235,0.1408961353672961,-0.331624542103828,161467.3015059583,-2.463554037948159,1.229957956559002,0.9377772235777134,0.1221765577793121,0.1568620651960373,-0.2976618111133575,-0.1009008958935738,0.2600720524787903,-0.1306015700101852,XTrueNorthZVertical,-0.6081274175474439,0.1769318685007332,0.6004533538642313,-0.4881924862927212,0.5575506687164307,-0.8062451481819153,-0.1977523118257523,12.8424596786499,-27.4072208404541,-31.59815216064453,2,192.168.1.8,10.83.46.32,1,0
2015-02-28 16:00:06.291,73,1425167987.341164,37.77919114577834,-122.4388061442798,56.94049,-1,-1,10,65,-9999,1425168006.271125,13.38262176513672,-27.26527404785156,-31.45565795898438,59.37391662597656,45.59577178955078,10,161467.3699523333,0.508331298828125,-0.5899658203125,-0.191070556640625,161467.3532798333,-0.1276399847253177,0.3570558663013216,-0.292569817350034,161467.3532798333,-2.475306885556942,1.248872046116316,0.9208739598875785,-0.1431790590286255,0.3730216324329376,-0.258607417345047,-0.0839412733912468,0.195529580116272,0.01744568906724453,XTrueNorthZVertical,-0.6128434929273491,0.1693941959158274,0.6018919628503943,-0.4831712952217801,0.5740383267402649,-0.7961307764053345,-0.1914569139480591,14.06260967254639,-27.29799652099609,-31.17034339904785,2,192.168.1.8,10.83.46.32,1,0
2015-02-28 16:00:06.331,74,1425167987.341164,37.77919114577834,-122.4388061442798,56.94049,-1,-1,10,65,-9999,1425168006.322106,14.14983367919922,-27.01042175292969,-31.50555419921875,59.58253479003906,45.80438995361328,10,161467.4189940417,0.6144561767578125,-0.6227874755859375,-0.1316375732421875,161467.4050555,-0.1725006669715935,0.8638277248680638,-0.2832644661851881,161467.3532798333,-2.475306885556942,1.248872046116316,0.9208739598875785,-0.1431790590286255,0.3730216324329376,-0.258607417345047,-0.0839412733912468,0.195529580116272,0.01744568906724453,XTrueNorthZVertical,-0.6128434929273491,0.1693941959158274,0.6018919628503943,-0.4831712952217801,0.5740383267402649,-0.7961307764053345,-0.1914569139480591,14.06260967254639,-27.29799652099609,-31.17034339904785,2,192.168.1.8,10.83.46.32,1,0
2015-02-28 16:00:06.390,75,1425167987.341164,37.77919114577834,-122.4388061442798,56.94049,-1,-1,10,65,-9999,1425168006.373636,15.66719818115234,-26.44976806640625,-30.98988342285156,58.23995971679688,44.46181488037109,10,161467.4680632917,0.738922119140625,-0.891632080078125,-0.14794921875,161467.4568308333,-0.2553161884414605,0.7850809809116198,0.07360258199484693,161467.4568308333,-2.44838582174264,1.307811229354554,0.9020284288024782,-0.2708549797534943,0.8010464310646057,0.1075643375515938,0.1546392887830734,0.02198242954909801,0.03395513445138931,XTrueNorthZVertical,-0.6324339545499847,0.1394124638698037,0.5817964567661665,-0.4920409707005184,0.5987023711204529,-0.7845861911773682,-0.1611829102039337,16.05090713500977,-26.62576293945312,-30.78903770446777,2,192.168.1.8,10.83.46.32,1,0
2015-02-28 16:00:06.429,76,1425167987.341164,37.77919114577834,-122.4388061442798,56.94049,-1,-1,10,65,-9999,1425168006.373636,15.66719818115234,-26.44976806640625,-30.98988342285156,58.23995971679688,44.46181488037109,10,161467.5169967083,0.791534423828125,-0.8415374755859375,-0.2335205078125,161467.508605,0.00919962366956972,0.4838886469002364,-0.185928058871664,161467.4568308333,-2.44838582174264,1.307811229354554,0.9020284288024782,-0.2708549797534943,0.8010464310646057,0.1075643375515938,0.1546392887830734,0.02198242954909801,0.03395513445138931,XTrueNorthZVertical,-0.6324339545499847,0.1394124638698037,0.5817964567661665,-0.4920409707005184,0.5987023711204529,-0.7845861911773682,-0.1611829102039337,16.05090713500977,-26.62576293945312,-30.78903770446777,2,192.168.1.8,10.83.46.32,1,0
2015-02-28 16:00:06.488,77,1425167987.341164,37.77919114577834,-122.4388061442798,56.94049,-1,-1,10,65,-9999,1425168006.429208,17.30390930175781,-26.14398193359375,-30.45758819580078,56.03678512573242,42.25864028930664,10,161467.566069625,0.8209075927734375,-0.79046630859375,-0.1891326904296875,161467.560380375,-0.02435407553655662,0.3630378587418576,-0.03236220093442489,161467.508605,-2.435918801167674,1.325230982515343,0.8991579635579054,-0.006338982842862606,0.4998539388179779,-0.1519666761159897,0.1581937968730927,-0.08601697534322739,-0.09779258817434311,XTrueNorthZVertical,-0.6383157423715736,0.1300565335105475,0.5739170928170801,-0.4962433451521477,0.6036012768745422,-0.7828032374382019,-0.1512766182422638,17.7337760925293,-26.12599563598633,-30.28982162475586,2,192.168.1.8,10.83.46.32,1,0
2015-02-28 16:00:06.527,78,1425167987.341164,37.77919114577834,-122.4388061442798,56.94049,-1,-1,10,65,-9999,1425168006.504079,19.24750518798828,-25.36247253417969,-29.95855712890625,53.04370880126953,39.26556396484375,10,161467.615245,0.7144927978515625,-0.847076416015625,-0.1690521240234375,161467.6121560417,-0.07967272506746453,0.1530947447404041,-0.2165605366780824,161467.560380375,-2.437087681217347,1.350997040344581,0.8976868761612044,-0.03989252820611,0.3790029883384705,0.001598842558450997,0.2348402440547943,-0.01614771410822868,-0.04005297273397446,XTrueNorthZVertical,-0.6455930466215641,0.1234759009007783,0.566314037336955,-0.4972441121514679,0.6084215044975281,-0.7818869352340698,-0.1359266340732574,18.28519058227539,-26.07837295532227,-30.00163269042969,2,192.168.1.8,10.83.46.32,1,0
2015-02-28 16:00:06.586,79,1425167987.341164,37.77919114577834,-122.4388061442798,56.94049,-1,-1,10,65,-9999,1425168006.555128,20.01471328735352,-25.10765075683594,-29.90863800048828,52.42964553833008,38.6515007019043,10,161467.6642873333,0.841949462890625,-0.862152099609375,-0.132965087890625,161467.6639299167,-0.05805824334427243,0.2538991204254294,-0.008752212606436409,161467.6121560417,-2.434037511910378,1.356530827435884,0.888695423595409,-0.09521103650331497,0.1690597236156464,-0.1825997978448868,0.1076083853840828,-0.0712384358048439,-0.03923163563013077,XTrueNorthZVertical,-0.6473919838032927,0.1177286390072727,0.5660657670432511,-0.4965814234846331,0.6160091757774353,-0.7762499451637268,-0.1340471804141998,18.84545516967773,-26.02366065979004,-29.70093727111816,2,192.168.1.8,10.83.46.32,1,0
2015-02-28 16:00:06.627,80,1425167987.341164,37.77919114577834,-122.4388061442798,56.94049,-1,-1,10,65,-9999,1425168006.607337,20.69667816162109,-24.97174072265625,-29.84210968017578,51.71944808959961,37.94130325317383,10,161467.7133222917,0.825653076171875,-0.784637451171875,-0.1740264892578125,161467.6639299167,-0.05805824334427243,0.2538991204254294,-0.008752212606436409,161467.6639299167,-2.426787094001501,1.363773799318603,0.8859356597945326,-0.07359640300273895,0.2698639631271362,0.02520818449556828,0.1892762780189514,-0.08915552496910095,-0.004453906323760748,XTrueNorthZVertical,-0.6498649433601741,0.1125373470483314,0.5626176907066386,-0.4984698696193048,0.6190580725669861,-0.7745071649551392,-0.130021795630455,19.51103591918945,-25.63750076293945,-29.60685348510742,2,192.168.1.8,10.83.46.32,1,0
2015-02-28 16:00:06.684,81,1425167987.341164,37.77919114577834,-122.4388061442798,56.94049,-1,-1,10,65,-9999,1425168006.65971,21.60028076171875,-25.09065246582031,-29.6258544921875,50.22154998779297,36.44340515136719,10,161467.7622830417,0.884429931640625,-0.8689117431640625,-0.1411590576171875,161467.7674809583,-0.1939412442756034,0.1896157380330967,0.07017642525245998,161467.7157055833,-2.417787288879996,1.368346354818241,0.8890535039507467,-0.127361997961998,0.2359406799077988,0.1325798034667969,0.2083754241466522,-0.008161787874996662,-0.04732287302613258,XTrueNorthZVertical,-0.6516349151579731,0.1096363516178053,0.5580804361463059,-0.5018944216120594,0.6172776222229004,-0.7764756679534912,-0.1267036199569702,19.71773910522461,-25.58528900146484,-29.51493835449219,2,192.168.1.8,10.83.46.32,1,0
2015-02-28 16:00:06.723,82,1425167987.341164,37.77919114577834,-122.4388061442798,56.94049,-1,-1,10,65,-9999,1425168006.71141,21.92420959472656,-24.90376281738281,-29.47615051269531,49.42538833618164,35.64724349975586,10,161467.811304625,0.81744384765625,-0.82232666015625,-0.1787872314453125,161467.7674809583,-0.1939412442756034,0.1896157380330967,0.07017642525245998,161467.7674809583,-2.402986270542428,1.368479775041271,0.8921083723355696,-0.2094790786504745,0.2055802494287491,0.1041361391544342,0.2694618999958038,-0.09051468968391418,-0.01501502469182014,XTrueNorthZVertical,-0.6524631782447059,0.1059234843329238,0.5535174397747576,-0.5066462634524656,0.6149680018424988,-0.7783970832824707,-0.1261440366506577,19.88725471496582,-25.53046989440918,-29.4485969543457,2,192.168.1.8,10.83.46.32,1,0
2015-02-28 16:00:06.782,83,1425167987.341164,37.77919114577834,-122.4388061442798,56.94049,-1,-1,10,65,-9999,1425168006.762271,22.35043716430664,-25.15858459472656,-29.39297485351562,48.99748229980469,35.21933746337891,10,161467.8603622917,0.863128662109375,-0.8663330078125,-0.162567138671875,161467.819255125,-0.13400147762119,0.03324823462909425,0.1180518058527054,161467.819255125,-2.387409001123907,1.364072320005958,0.896883263649329,-0.1495391726493835,0.04921257868409157,0.1520111858844757,0.2066823840141296,-0.04094094783067703,-0.05069833621382713,XTrueNorthZVertical,-0.6520658856234873,0.103757572479801,0.5497480110525282,-0.5116850077992349,0.6107614636421204,-0.7813857197761536,-0.1280888915061951,20.12064361572266,-25.30037117004395,-29.48862075805664,2,192.168.1.8,10.83.46.32,1,0
2015-02-28 16:00:06.821,84,1425167987.341164,37.77919114577834,-122.4388061442798,56.94049,-1,-1,10,65,-9999,1425168006.815097,22.36749267578125,-25.07363891601562,-29.30980682373047,46.50452041625977,32.72637557983398,10,161467.909509875,0.6692352294921875,-0.7331085205078125,-0.163604736328125,161467.8710305,-0.01979474375034096,-0.1421912306054017,0.3497931596925665,161467.8710305,-2.378131239580791,1.357142503839471,0.9083365639472309,-0.03533226251602173,-0.1262270659208298,0.383752167224884,0.2494057267904282,-0.03805636614561081,-0.03471857309341431,XTrueNorthZVertical,-0.6506792839609454,0.1068196987828081,0.5466168037365428,-0.5161550805256357,0.6010733842849731,-0.7884817123413086,-0.1304120421409607,20.04062271118164,-25.2972412109375,-29.54574012756348,2,192.168.1.8,10.83.46.32,1,0
2015-02-28 16:00:06.884,85,1425167987.341164,37.77919114577834,-122.4388061442798,56.94049,-1,-1,10,65,-9999,1425168006.866529,21.82192230224609,-24.97171020507812,-29.94191741943359,45.95824813842773,32.18010330200195,10,161467.9584642917,0.64288330078125,-0.6580810546875,-0.1337127685546875,161467.9228062083,-0.05113162766508534,-0.2169219276380062,0.5755834137605366,161467.9228062083,-2.36673628742899,1.333401039725768,0.9312909517607423,-0.06666899472475052,-0.2009579241275787,0.6095420718193054,0.0358298234641552,0.07195281237363815,-0.01393143553286791,XTrueNorthZVertical,-0.6449146205175185,0.1179408416622487,0.5452502611380093,-0.5223765105201773,0.5800606608390808,-0.8023910522460938,-0.1403501778841019,19.52606964111328,-25.54290008544922,-29.67862319946289,2,192.168.1.8,10.83.46.32,1,0
2015-02-28 16:00:06.919,86,1425167987.341164,37.77919114577834,-122.4388061442798,56.94049,-1,-1,10,65,-9999,1425168006.866529,21.82192230224609,-24.97171020507812,-29.94191741943359,45.95824813842773,32.18010330200195,10,161468.0076344167,0.689056396484375,-0.5683441162109375,-0.0469207763671875,161467.9745801667,0.02475754444170362,0.2656343397688635,0.9852723979495303,161467.9745801667,-2.344100961858989,1.320385450592233,0.9724051136068116,0.009220319800078869,0.2815981805324554,1.019230723381042,0.09547554701566696,0.1781411319971085,0.03625781834125519,XTrueNorthZVertical,-0.6429656770235064,0.1296146937028724,0.5322909023632044,-0.5352210202439159,0.5457445383071899,-0.8262429237365723,-0.1395903378725052,17.96261978149414,-26.36954498291016,-29.94192695617676,2,192.168.1.8,10.83.46.32,1,0
2015-02-28 16:00:06.982,87,1425167987.341164,37.77919114577834,-122.4388061442798,56.94049,-1,-1,10,65,-9999,1425168006.970112,21.02061462402344,-26.14390563964844,-29.95855712890625,38.68360137939453,24.90545463562012,10,161468.0565670417,0.7355499267578125,-1.239486694335938,-0.1794281005859375,161468.0263557083,0.1823026976797391,0.1825626222021309,0.7069715314040318,161468.0263557083,-2.331639158350838,1.321468897526415,1.015741764388835,0.1667656302452087,0.1985263228416443,0.7409295439720154,0.2352010160684586,0.289218008518219,0.09924363344907761,XTrueNorthZVertical,-0.6441443709084648,0.1416336577242066,0.5164941040379932,-0.5461243016238603,0.5106943845748901,-0.8498716950416565,-0.1300358772277832,17.42620849609375,-26.91403388977051,-29.77397727966309,2,192.168.1.8,10.83.46.32,1,0
2015-02-28 16:00:07.017,88,1425167987.341164,37.77919114577834,-122.4388061442798,56.94049,-1,-1,10,65,-9999,1425168006.970112,21.02061462402344,-26.14390563964844,-29.95855712890625,38.68360137939453,24.90545463562012,10,161468.10572125,1.832199096679688,-1.31182861328125,1.098114013671875,161468.0781310833,-0.7697323846011662,1.384830717351863,0.3639643724850962,161468.0781310833,-2.320052854103876,1.340748687274448,1.058928289137803,-0.7851739525794983,1.400720596313477,0.3980078101158142,0.902033805847168,-1.391108393669128,-0.8917150497436523,XTrueNorthZVertical,-0.6496431579716109,0.1487277771478326,0.4947384098711857,-0.5577433973674867,0.476902961730957,-0.8718310594558716,-0.1116876304149628,16.70711517333984,-27.75200653076172,-29.41473007202148,2,192.168.1.8,10.83.46.32,1,0
2015-02-28 16:00:07.086,89,1425167987.341164,37.77919114577834,-122.4388061442798,56.94049,-1,-1,10,65,-9999,1425168007.07271,20.73078536987305,-26.60263061523438,-29.64250946044922,33.66256713867188,19.88442420959473,10,161468.1546670417,0.9678192138671875,-0.33038330078125,-0.0792083740234375,161468.1299050417,-0.2165829072312391,0.740855995217546,0.7156116249285759,161468.1299050417,-2.260269997605233,1.332928500025348,1.059893134308558,-0.2320243418216705,0.7567456960678101,0.7496547102928162,0.4701915383338928,1.435611963272095,0.5931053757667542,XTrueNorthZVertical,-0.6519278272670225,0.1318423863589731,0.4801178205942152,-0.5719218018623612,0.4751972556114197,-0.8723032474517822,-0.1152153834700584,17.59235763549805,-27.55949783325195,-29.07766914367676,2,192.168.1.8,10.83.46.32,1,0
2015-02-28 16:00:07.116,90,1425167987.341164,37.77919114577834,-122.4388061442798,56.94049,-1,-1,10,65,-9999,1425168007.07271,20.73078536987305,-26.60263061523438,-29.64250946044922,33.66256713867188,19.88442420959473,10,161468.2038107083,-0.2092437744140625,-0.6921539306640625,0.1206817626953125,161468.18168075,-0.7745172861317116,-3.707413984058535,1.712065837347022,161468.18168075,-2.196434578326571,1.167091075190257,1.128130829085122,-0.7899585962295532,-3.691524267196655,1.746108651161194,-0.1251774728298187,-1.360531806945801,0.0208679623901844,XTrueNorthZVertical,-0.6176795377547608,0.1853053048800502,0.4938581572708222,-0.5832992619770769,0.3939152657985687,-0.9036130905151367,-0.1682678610086441,16.58753967285156,-27.83559226989746,-29.40342330932617,2,192.168.1.8,10.83.46.32,1,0
2015-02-28 16:00:07.184,91,1425167987.341164,37.77919114577834,-122.4388061442798,56.94049,-1,-1,10,65,-9999,1425168007.126775,17.21867370605469,-25.8551025390625,-30.90673065185547,28.55965042114258,14.78150463104248,10,161468.2527694167,-0.2000885009765625,-0.7122039794921875,0.3774871826171875,161468.2334560833,-0.8526352577547879,0.1783292613333409,1.318094297279458,161468.2334560833,-2.047297396602455,0.9231328674315514,1.146029899557938,-0.8680760860443115,0.1942183077335358,1.352140188217163,-0.855097770690918,-0.1117684245109558,0.3575826287269592,XTrueNorthZVertical,-0.5721326480308346,0.2198790374677048,0.5168902991963917,-0.5976134506850759,0.3286542892456055,-0.9111350178718567,-0.2486348897218704,17.11714744567871,-25.54060554504395,-31.12070465087891,2,192.168.1.8,10.83.46.32,1,0
2015-02-28 16:00:07.214,92,1425167987.341164,37.77919114577834,-122.4388061442798,56.94049,-1,-1,10,65,-9999,1425168007.177271,12.66657257080078,-25.22651672363281,-32.48699188232422,30.93121719360352,17.15307235717773,10,161468.3019109583,0.318878173828125,-0.7803192138671875,-0.8207244873046875,161468.28523025,-1.368907677194279,3.254545304903324,1.325764201218886,161468.2334560833,-2.047297396602455,0.9231328674315514,1.146029899557938,-0.8680760860443115,0.1942183077335358,1.352140188217163,-0.855097770690918,-0.1117684245109558,0.3575826287269592,XTrueNorthZVertical,-0.5721326480308346,0.2198790374677048,0.5168902991963917,-0.5976134506850759,0.3286542892456055,-0.9111350178718567,-0.2486348897218704,17.11714744567871,-25.54060554504395,-31.12070465087891,2,192.168.1.8,10.83.46.32,1,0
2015-02-28 16:00:07.279,93,1425167987.341164,37.77919114577834,-122.4388061442798,56.94049,-1,-1,10,65,-9999,1425168007.229422,11.38788604736328,-23.17082214355469,-33.03592681884766,25.83098220825195,12.05283641815186,10,161468.3508705417,0.2844390869140625,-0.5091705322265625,-0.9318695068359375,161468.337005625,-2.530639264759696,1.498794837247405,1.959313446633869,161468.337005625,-1.465102861758342,0.6150250734727449,1.158429107875464,-2.546079635620117,1.514683485031128,1.993358731269836,0.06604580581188202,0.02594638615846634,-0.2930060625076294,XTrueNorthZVertical,-0.557271974810106,0.160555108948909,0.4102529559444107,-0.7038199280526809,0.2312411814928055,-0.9161746501922607,-0.3273400068283081,17.46524238586426,-24.03657150268555,-32.10959243774414,2,192.168.1.8,10.83.46.32,1,0
2015-02-28 16:00:07.312,94,1425167987.341164,37.77919114577834,-122.4388061442798,56.94049,-1,-1,10,65,-9999,1425168007.280846,12.66656112670898,-21.04719543457031,-33.81773376464844,15.6611852645874,1.883040189743042,10,161468.3999089167,0.785186767578125,-0.8860321044921875,-0.67230224609375,161468.3887813333,-1.938070742198852,1.325133032040537,1.187118969604925,161468.3887813333,-1.195138146144757,0.4522925126149692,1.095577546946781,-1.953511118888855,1.341021537780762,1.221163988113403,0.7056540846824646,0.4617939591407776,0.04067730531096458,XTrueNorthZVertical,-0.5272828647548491,0.1273158405334314,0.371539791658823,-0.7534730362812345,0.1999550312757492,-0.8891926407814026,-0.4115269184112549,18.04876327514648,-22.12181854248047,-33.14641189575195,2,192.168.1.8,10.83.46.32,1,0
2015-02-28 16:00:07.380,95,1425167987.341164,37.77919114577834,-122.4388061442798,56.94049,-1,-1,10,65,-9999,1425168007.333371,13.82589721679688,-18.12507629394531,-34.91560363769531,8.540412902832031,354.7622680664062,10,161468.44897575,0.4404449462890625,-0.3024749755859375,-0.4777679443359375,161468.4405552083,-1.567583755571934,-1.096406642870755,0.3032669365005553,161468.3887813333,-1.195138146144757,0.4522925126149692,1.095577546946781,-1.953511118888855,1.341021537780762,1.221163988113403,0.7056540846824646,0.4617939591407776,0.04067730531096458,XTrueNorthZVertical,-0.5272828647548491,0.1273158405334314,0.371539791658823,-0.7534730362812345,0.1999550312757492,-0.8891926407814026,-0.4115269184112549,18.04876327514648,-22.12181854248047,-33.14641189575195,2,192.168.1.8,10.83.46.32,1,0
2015-02-28 16:00:07.411,96,1425167987.341164,37.77919114577834,-122.4388061442798,56.94049,-1,-1,10,65,-9999,1425168007.385138,12.8881950378418,-15.25393676757812,-36.52915191650391,3.993812561035156,350.2156677246094,10,161468.498110125,0.223419189453125,-0.6662139892578125,-0.23211669921875,161468.4923308333,-1.076697919223623,-1.3984818147835,0.6781982063545977,161468.4405552083,-1.03315524354776,0.3028809193947876,1.029209127257988,-1.583024024963379,-1.080518126487732,0.3373115062713623,0.2640736103057861,0.5687903761863708,0.09309082478284836,XTrueNorthZVertical,-0.4879305350525163,0.1261263733961033,0.3604552117732406,-0.7849127003090083,0.1537578254938126,-0.8568915724754333,-0.4920318722724915,18.37190818786621,-18.71134567260742,-35.01679229736328,2,192.168.1.8,10.83.46.32,1,0
2015-02-28 16:00:07.487,97,1425167987.341164,37.77919114577834,-122.4388061442798,56.94049,-1,-1,10,65,-9999,1425168007.436641,9.734111785888672,-12.416748046875,-38.24248504638672,3.406593322753906,349.6284484863281,10,161468.5470705417,0.1240234375,-1.284042358398438,-0.7514495849609375,161468.5441061667,0.6315524072296419,-2.184486379961159,0.6411536355915955,161468.5441061667,-0.8954662797555492,0.01339012057656226,0.9418290057258034,0.6161124706268311,-2.168598175048828,0.6751975417137146,0.164333388209343,0.2277333736419678,-0.1612392067909241,XTrueNorthZVertical,-0.4115542292697026,0.1910353088649954,0.3830543902933716,-0.8046104256828949,0.007877306081354618,-0.8086354732513428,-0.5882572531700134,13.84731388092041,-15.88540649414062,-38.33696746826172,2,192.168.1.8,10.83.46.32,1,0
2015-02-28 16:00:07.508,98,1425167987.341164,37.77919114577834,-122.4388061442798,56.94049,-1,-1,10,65,-9999,1425168007.488264,5.113811492919922,-10.97268676757812,-39.85602569580078,6.230110168457031,352.4519653320312,10,161468.596221125,0.0119476318359375,-0.343780517578125,-0.5799407958984375,161468.5441061667,0.6315524072296419,-2.184486379961159,0.6411536355915955,161468.5441061667,-0.8954662797555492,0.01339012057656226,0.9418290057258034,0.6161124706268311,-2.168598175048828,0.6751975417137146,0.164333388209343,0.2277333736419678,-0.1612392067909241,XTrueNorthZVertical,-0.4115542292697026,0.1910353088649954,0.3830543902933716,-0.8046104256828949,0.007877306081354618,-0.8086354732513428,-0.5882572531700134,13.84731388092041,-15.88540649414062,-38.33696746826172,2,192.168.1.8,10.83.46.32,1,0
2015-02-28 16:00:07.580,99,1425167987.341164,37.77919114577834,-122.4388061442798,56.94049,-1,-1,10,65,-9999,1425168007.539354,-0.1884536743164062,-11.26144409179688,-40.70437622070312,8.445533752441406,354.6673889160156,10,161468.6451864167,-1.002487182617188,-0.751861572265625,-0.1036224365234375,161468.64765575,-0.1061496063089233,-1.920272037685526,-0.04674353713696178,161468.5958802083,-0.7786996222024507,-0.132985087902413,0.9834296267681819,0.6745807528495789,-2.093406677246094,0.6389443874359131,0.07221296429634094,0.1410728991031647,0.02811397239565849,XTrueNorthZVertical,-0.4136032743673591,0.2330093888392921,0.3628984411019742,-0.8018376727833721,-0.07347944378852844,-0.8324028849601746,-0.5492779016494751,8.091133117675781,-17.43259429931641,-39.299560546875,2,192.168.1.8,10.83.46.32,1,0
2015-02-28 16:00:07.606,100,1425167987.341164,37.77919114577834,-122.4388061442798,56.94049,-1,-1,10,65,-9999,1425168007.595662,-4.8258056640625,-11.94107055664062,-40.83744812011719,9.076728820800781,355.298583984375,10,161468.69422525,0.087158203125,-0.9081268310546875,-0.317840576171875,161468.64765575,-0.1061496063089233,-1.920272037685526,-0.04674353713696178,161468.64765575,-0.7498505583743436,-0.3111621993288163,0.9965044859877723,-0.1215891987085342,-1.904384255409241,-0.01270033325999975,-0.8361658453941345,0.08771564066410065,0.4135306477546692,XTrueNorthZVertical,-0.3894775069249665,0.2995508883599357,0.3867016266636335,-0.780409100870527,-0.1663213074207306,-0.8395771980285645,-0.5171530842781067,4.563010692596436,-18.29694366455078,-39.47427368164062,2,192.168.1.8,10.83.46.32,1,0
2015-02-28 16:00:07.682,101,1425167987.341164,37.77919114577834,-122.4388061442798,56.94049,-1,-1,10,65,-9999,1425168007.66916,-10.75888061523438,-12.824462890625,-41.26995849609375,13.96833038330078,0.190185546875,10,161468.7432973333,-0.1156463623046875,-0.6842193603515625,-0.3257293701171875,161468.6994314583,0.7721846233329112,-0.3105448231275238,0.3746393873985698,161468.6994314583,-0.7447466188677864,-0.3427509762627605,1.008117860535719,0.7567451596260071,-0.2946571707725525,0.4086822867393494,0.2664409279823303,-0.062297523021698,0.1845840066671371,XTrueNorthZVertical,-0.3889632313525141,0.3122423969848425,0.3906330053645514,-0.7737041561245401,-0.1792827248573303,-0.8458293080329895,-0.5024245977401733,0.3635883331298828,-18.34153175354004,-39.71490097045898,2,192.168.1.8,10.83.46.32,1,0
2015-02-28 16:00:07.704,102,1425167987.341164,37.77919114577834,-122.4388061442798,56.94049,-1,-1,10,65,-9999,1425168007.66916,-10.75888061523438,-12.824462890625,-41.26995849609375,13.96833038330078,0.190185546875,10,161468.792392625,-0.4506988525390625,-0.6365966796875,-0.0526123046875,161468.7512052917,0.8083817762370501,-1.613587200241963,0.2998271976366089,161468.7512052917,-0.6750969628706913,-0.4563993338186826,1.035139298099734,0.7929424643516541,-1.597699642181396,0.3338697552680969,0.1092992350459099,0.1757141053676605,0.1324342340230942,XTrueNorthZVertical,-0.3896393534903226,0.3451077680661203,0.385950559854193,-0.7616586793858894,-0.224945604801178,-0.8599334359169006,-0.4581636190414429,-2.021866321563721,-20.10682678222656,-38.80006408691406,2,192.168.1.8,10.83.46.32,1,0
2015-02-28 16:00:07.785,103,1425167987.341164,37.77919114577834,-122.4388061442798,56.94049,-1,-1,10,65,-9999,1425168007.721642,-14.20278930664062,-14.93109130859375,-41.23667907714844,15.2940559387207,1.515911102294922,10,161468.8414018333,-0.38525390625,-0.376251220703125,-0.2706146240234375,161468.854756375,1.157519531985348,0.690105465904451,-0.1320344668400575,161468.8029809583,-0.6573896043768798,-0.5514887289266857,1.084359991283632,1.1768399477005,-1.047854661941528,-1.029900431632996,-0.1907613575458527,0.382127583026886,0.3635199964046478,XTrueNorthZVertical,-0.3946461104383737,0.3810093067507598,0.39903480653559,-0.7347499947341476,-0.2449381053447723,-0.8840044140815735,-0.3981727063655853,-4.103064060211182,-21.02564811706543,-38.14320755004883,2,192.168.1.8,10.83.46.32,1,0
2015-02-28 16:00:07.802,104,1425167987.341164,37.77919114577834,-122.4388061442798,56.94049,-1,-1,10,65,-9999,1425168007.773375,-17.06703186035156,-17.81922912597656,-41.03707885742188,18.75025749206543,4.972113132476807,10,161468.890444625,-0.0538787841796875,-1.82391357421875,-0.2841796875,161468.854756375,1.157519531985348,0.690105465904451,-0.1320344668400575,161468.854756375,-0.6344173391827556,-0.5836979680435322,1.159180159325819,1.142080545425415,0.705992579460144,-0.09799262136220932,0.108084000647068,0.3081990480422974,-0.1737508028745651,XTrueNorthZVertical,-0.423264113760729,0.3923307999631285,0.399659120536626,-0.7121773632165547,-0.2204955071210861,-0.9164754152297974,-0.3338480591773987,-5.3526930809021,-23.0841236114502,-36.77348327636719,2,192.168.1.8,10.83.46.32,1,0
2015-02-28 16:00:07.880,105,1425167987.341164,37.77919114577834,-122.4388061442798,56.94049,-1,-1,10,65,-9999,1425168007.827059,-19.40276336669922,-21.16607666015625,-39.82277679443359,22.424072265625,8.645927429199219,10,161468.9395164583,-0.52069091796875,-0.2667083740234375,-0.148040771484375,161468.9065305417,0.8658304220078035,-2.686326596821293,1.146355827011845,161468.9065305417,-0.4892937694101041,-0.7674792432989275,1.194633997179778,0.8503915667533875,-2.670439481735229,1.180397391319275,-0.09653070569038391,-0.5301085710525513,0.2254000455141068,XTrueNorthZVertical,-0.4310113531148591,0.4266658133171492,0.3900051841975924,-0.6928790871682255,-0.2550623118877411,-0.9300812482833862,-0.2643710076808929,-6.107348918914795,-26.72158432006836,-34.0950813293457,2,192.168.1.8,10.83.46.32,1,0
2015-02-28 16:00:07.901,106,1425167987.341164,37.77919114577834,-122.4388061442798,56.94049,-1,-1,10,65,-9999,1425168007.87842,-24.67092132568359,-23.49359130859375,-38.20923614501953,21.87054061889648,8.092394828796387,10,161468.988558,-0.4757232666015625,-0.9640960693359375,-0.223388671875,161468.9583059167,0.5365651743136767,-1.620611287617047,1.605657105464034,161468.9583059167,-0.3343023861157009,-1.049030110372674,1.161686394855875,0.5211265087127686,-1.604724526405334,1.639698266983032,-0.3555921018123627,0.6127572059631348,0.03903929889202118,XTrueNorthZVertical,-0.398687369528405,0.4918495703825704,0.391360426447853,-0.6678093844856585,-0.3448626101016998,-0.9174752235412598,-0.1982647627592087,-10.07892990112305,-27.21609115600586,-32.73403167724609,2,192.168.1.8,10.83.46.32,1,0
2015-02-28 16:00:07.981,107,1425167987.341164,37.77919114577834,-122.4388061442798,56.94049,-1,-1,10,65,-9999,1425168007.92932,-31.78038787841797,-24.29205322265625,-36.69550323486328,22.13361549377441,8.355470657348633,10,161469.0376475,-4.679840087890625,-3.15185546875,0.271728515625,161469.0100815833,0.85018648113246,-0.593073191587414,0.577345627453842,161469.0100815833,-0.2051751622768835,-1.182412415199634,1.115617982778479,0.8347446918487549,-0.5771874189376831,0.611386239528656,-0.1197309494018555,0.7608382701873779,-0.5871343016624451,XTrueNorthZVertical,-0.3887483457975557,0.5153966519574891,0.3656144939435905,-0.6704976006762475,-0.4068803787231445,-0.8981826305389404,-0.1664820313453674,-14.55739688873291,-27.06223487854004,-31.13735580444336,2,192.168.1.8,10.83.46.32,1,0
2015-02-28 16:00:08.000,108,1425167987.341164,37.77919114577834,-122.4388061442798,56.94049,-1,-1,10,65,-9999,1425168007.980805,-37.62821197509766,-22.33831787109375,-35.88042449951172,15.16453456878662,1.386389493942261,10,161469.0866911667,0.609771728515625,-0.8088226318359375,-1.051971435546875,161469.0618554583,0.8861332968941316,3.16016447376757,0.615861062086895,161469.0618554583,-0.0552250042011763,-1.316200850212986,0.962502788101937,0.87069171667099,3.176049947738647,0.6499013304710388,-0.185570165514946,0.6767187714576721,1.601781725883484,XTrueNorthZVertical,-0.3511093037082986,0.5520498483411415,0.3023638644315922,-0.6932094136590675,-0.5530467629432678,-0.8206244111061096,-0.1439264416694641,-20.91975021362305,-24.73464775085449,-29.40031433105469,2,192.168.1.8,10.83.46.32,1,0
2015-02-28 16:00:08.082,109,1425167987.341164,37.77919114577834,-122.4388061442798,56.94049,-1,-1,10,65,-9999,1425168008.03297,-39.70821380615234,-20.36756896972656,-36.17984008789062,9.361824035644531,355.5836791992188,10,161469.1357669584,-0.85247802734375,-0.6186981201171875,-0.2671356201171875,161469.1136311667,0.8343412052787065,-0.5003725487833908,-0.3117933130465529,161469.1136311667,0.01222748931353975,-1.319437519091008,0.9560145207316179,0.8189903497695923,-0.4845582246780396,-0.2776718437671661,-0.4139095544815063,-0.987238883972168,-0.1495728343725204,XTrueNorthZVertical,-0.3668044658667225,0.5419649486539045,0.2776434844254586,-0.7033082892376907,-0.5586551427841187,-0.816899299621582,-0.1434569507837296,-18.84571075439453,-24.89452171325684,-30.64179229736328,2,192.168.1.8,10.83.46.32,1,0
2015-02-28 16:00:08.097,110,1425167987.341164,37.77919114577834,-122.4388061442798,56.94049,-1,-1,10,65,-9999,1425168008.084416,-38.87281799316406,-20.52046203613281,-37.59375762939453,7.145973205566406,353.3678283691406,10,161469.1848129167,-0.7805023193359375,-0.514007568359375,0.18463134765625,161469.1654065417,-0.288806770729752,-0.4187346771475568,-0.5002130254340951,161469.1654065417,0.01607774455686652,-1.289161417460249,0.9934455088869033,-0.3041574954986572,-0.4029205441474915,-0.4660919308662415,0.1753798276185989,0.1034297198057175,0.2426363527774811,XTrueNorthZVertical,-0.3851627923605068,0.525169151761518,0.2806810775653024,-0.7050284349013761,-0.5243025422096252,-0.8379115462303162,-0.1516939699649811,-18.6210823059082,-25.90081405639648,-29.93694305419922,2,192.168.1.8,10.83.46.32,1,0
2015-02-28 16:00:08.177,111,1425167987.341164,37.77919114577834,-122.4388061442798,56.94049,-1,-1,10,65,-9999,1425168008.136396,-37.79872131347656,-21.76065063476562,-37.80999755859375,8.980171203613281,355.2020263671875,10,161469.2338595834,-0.6410980224609375,-0.845703125,-0.0323944091796875,161469.21718075,0.2276808321258173,0.3302098709327779,0.06954019606804006,161469.21718075,-0.006802266649912359,-1.274031635645432,1.009522185761691,0.2123302519321442,0.3460238575935364,0.1036609411239624,-0.3788034617900848,0.1223802268505096,0.5061435699462891,XTrueNorthZVertical,-0.386979342688093,0.5219409881081806,0.2900353625108752,-0.7026407742666884,-0.5089986324310303,-0.8465776443481445,-0.1556491851806641,-16.91808891296387,-26.57884407043457,-30.35062789916992,2,192.168.1.8,10.83.46.32,1,0
2015-02-28 16:00:08.195,112,1425167987.341164,37.77919114577834,-122.4388061442798,56.94049,-1,-1,10,65,-9999,1425168008.188315,-37.03150939941406,-22.15141296386719,-38.25912475585938,7.932777404785156,354.1546325683594,10,161469.2828973334,-0.561614990234375,-0.9551544189453125,-0.010498046875,161469.2689561667,-0.2357321007333448,-0.2270954693182179,-0.1504148057354573,161469.21718075,-0.006802266649912359,-1.274031635645432,1.009522185761691,0.2123302519321442,0.3460238575935364,0.1036609411239624,-0.3788034617900848,0.1223802268505096,0.5061435699462891,XTrueNorthZVertical,-0.386979342688093,0.5219409881081806,0.2900353625108752,-0.7026407742666884,-0.5089986324310303,-0.8465776443481445,-0.1556491851806641,-16.91808891296387,-26.57884407043457,-30.35062789916992,2,192.168.1.8,10.83.46.32,1,0
2015-02-28 16:00:08.278,113,1425167987.341164,37.77919114577834,-122.4388061442798,56.94049,-1,-1,10,65,-9999,1425168008.239467,-36.40068817138672,-22.23635864257812,-38.50865173339844,8.613471984863281,354.8353271484375,10,161469.3319544584,-0.491943359375,-0.845794677734375,-0.1181640625,161469.3207318333,-0.4294776026688275,-0.1213908772274468,-0.6077698460630162,161469.3207318333,-0.05335791557443317,-1.229471372020347,1.028039895809639,-0.4448278844356537,-0.10557721555233,-0.5736497640609741,-0.1396403163671494,0.01037149596959352,0.08950121700763702,XTrueNorthZVertical,-0.3881276398516204,0.5127491459530737,0.3024489385293092,-0.7035409469204029,-0.4867024421691895,-0.8562882542610168,-0.1728904992341995,-16.29864692687988,-26.59883880615234,-30.67039680480957,2,192.168.1.8,10.83.46.32,1,0
2015-02-28 16:00:08.294,114,1425167987.341164,37.77919114577834,-122.4388061442798,56.94049,-1,-1,10,65,-9999,1425168008.239467,-36.40068817138672,-22.23635864257812,-38.50865173339844,8.613471984863281,354.8353271484375,10,161469.3809914167,-0.6114044189453125,-0.86431884765625,-0.08233642578125,161469.3725058333,-0.7132235683791018,-0.5183092050411835,-0.6424993308904126,161469.3207318333,-0.05335791557443317,-1.229471372020347,1.028039895809639,-0.4448278844356537,-0.10557721555233,-0.5736497640609741,-0.1396403163671494,0.01037149596959352,0.08950121700763702,XTrueNorthZVertical,-0.3881276398516204,0.5127491459530737,0.3024489385293092,-0.7035409469204029,-0.4867024421691895,-0.8562882542610168,-0.1728904992341995,-16.29864692687988,-26.59883880615234,-30.67039680480957,2,192.168.1.8,10.83.46.32,1,0
2015-02-28 16:00:08.377,115,1425167987.341164,37.77919114577834,-122.4388061442798,56.94049,-1,-1,10,65,-9999,1425168008.34343,-35.78691864013672,-21.99851989746094,-39.27381896972656,13.95200347900391,0.173858642578125,10,161469.4300547084,-0.4380645751953125,-0.870635986328125,-0.1135406494140625,161469.424281375,-0.7691986871187143,0.002459429266688176,-0.5919386849630403,161469.3725058333,-0.1252259902758489,-1.180883867070177,1.043609236575688,-0.7285736799240112,-0.5024957060813904,-0.608379602432251,-0.09743218123912811,0.006529141683131456,0.1767531037330627,XTrueNorthZVertical,-0.383044852048998,0.5076020039907263,0.3220159435972281,-0.7013719090725724,-0.4653424620628357,-0.8642256855964661,-0.1912336945533752,-15.71216583251953,-26.18160057067871,-31.32840538024902,2,192.168.1.8,10.83.46.32,1,0
2015-02-28 16:00:08.391,116,1425167987.341164,37.77919114577834,-122.4388061442798,56.94049,-1,-1,10,65,-9999,1425168008.34343,-35.78691864013672,-21.99851989746094,-39.27381896972656,13.95200347900391,0.173858642578125,10,161469.4792036667,-0.500732421875,-0.8852691650390625,-0.211334228515625,161469.4760569167,-0.9074870551466049,-0.659722259976064,-0.4025013787229788,161469.424281375,-0.2235891660587673,-1.108958605629422,1.054072580650298,-0.7845486402511597,0.0182727612555027,-0.5578193068504333,-0.02438273653388023,0.001430950127542019,0.1399385184049606,XTrueNorthZVertical,-0.3741795685707145,0.4999202844362151,0.3451395330826786,-0.7006768429743323,-0.442276805639267,-0.8694424033164978,-0.2201387137174606,-15.69342422485352,-25.7524356842041,-31.6914176940918,2,192.168.1.8,10.83.46.32,1,0
2015-02-28 16:00:08.478,117,1425167987.341164,37.77919114577834,-122.4388061442798,56.94049,-1,-1,10,65,-9999,1425168008.398691,-36.11083984375,-21.2340087890625,-39.32372283935547,17.15138816833496,3.373242616653442,10,161469.5281726667,-0.3006134033203125,-0.794677734375,-0.4190521240234375,161469.5278307917,-0.7867273470975068,-0.5333888220815391,-0.489085539451417,161469.4760569167,-0.3226345729875918,-1.044417106434964,1.054223285651915,-0.9228308200836182,-0.6439079642295837,-0.3683818280696869,-0.06648583710193634,0.04410793259739876,0.05442960932850838,XTrueNorthZVertical,-0.3610920428690752,0.4955225210366819,0.3679711893319927,-0.6990473141692531,-0.4270444512367249,-0.8695168495178223,-0.2481399327516556,-15.23124599456787,-24.94812393188477,-32.5486946105957,2,192.168.1.8,10.83.46.32,1,0
2015-02-28 16:00:08.489,118,1425167987.341164,37.77919114577834,-122.4388061442798,56.94049,-1,-1,10,65,-9999,1425168008.473086,-36.86100006103516,-19.56906127929688,-39.78948211669922,21.69596290588379,7.917818069458008,10,161469.5773084167,-0.5635223388671875,-0.7065887451171875,-0.0883636474609375,161469.5278307917,-0.7867273470975068,-0.5333888220815391,-0.489085539451417,161469.5278307917,-0.4162628020917388,-0.9853563420993374,1.046615586706976,-0.8020709753036499,-0.5175747871398926,-0.4549657106399536,0.1226903796195984,0.0580407939851284,-0.1146128177642822,XTrueNorthZVertical,-0.3461554933815279,0.4918288569159482,0.3889657254722276,-0.6978441016573577,-0.4171544909477234,-0.8657342791557312,-0.2765614986419678,-15.74297714233398,-23.22647094726562,-33.5634765625,2,192.168.1.8,10.83.46.32,1,0
2015-02-28 16:00:08.577,119,1425167987.341164,37.77919114577834,-122.4388061442798,56.94049,-1,-1,10,65,-9999,1425168008.524942,-37.47476959228516,-18.07405090332031,-39.12409210205078,24.6298713684082,10.85172557830811,10,161469.6262802917,-0.4489898681640625,-0.9646759033203125,-0.3359527587890625,161469.6313820833,-1.000464400387887,-0.1194843202030591,-0.4147495228923622,161469.5796065,-0.4840876019832343,-0.9691810581430317,1.033048647257748,-0.8151253461837769,-1.13795804977417,0.09526107460260391,-0.1412508189678192,0.1522757560014725,0.2015302777290344,XTrueNorthZVertical,-0.3271713930996979,0.4980079474868378,0.4077787769455513,-0.6918550489470309,-0.4222715198993683,-0.8588644862174988,-0.2898939251899719,-16.09445571899414,-22.642822265625,-33.79479598999023,2,192.168.1.8,10.83.46.32,1,0
2015-02-28 16:00:08.587,120,1425167987.341164,37.77919114577834,-122.4388061442798,56.94049,-1,-1,10,65,-9999,1425168008.577815,-38.37837219238281,-16.25619506835938,-38.64168548583984,26.47072982788086,12.69258594512939,10,161469.6753114167,-0.3124542236328125,-0.7873077392578125,-0.4166717529296875,161469.6313820833,-1.000464400387887,-0.1194843202030591,-0.4147495228923622,161469.6313820833,-0.5609920781040358,-0.9338278803024745,1.010998391615436,-1.015807747840881,-0.1036706566810608,-0.3806304335594177,-0.02210561744868755,-0.1173134744167328,-0.02012571692466736,XTrueNorthZVertical,-0.3064856517689773,0.4981496004922109,0.4257393597610102,-0.6904053115692542,-0.426884263753891,-0.8473623991012573,-0.3158270418643951,-17.61098098754883,-21.48530578613281,-33.79426574707031,2,192.168.1.8,10.83.46.32,1,0
2015-02-28 16:00:08.648,121,1425167987.341164,37.77919114577834,-122.4388061442798,56.94049,-1,-1,10,65,-9999,1425168008.628899,-38.75344848632812,-15.37274169921875,-38.475341796875,31.26103019714355,17.48288536071777,10,161469.7243779167,-0.2427520751953125,-0.7737884521484375,-0.630828857421875,161469.6831560833,-1.296765572741231,-0.1040158816435518,-0.7791248211336577,161469.6831560833,-0.6890161515650201,-0.8311924955374773,1.001211658729821,-1.312108635902405,-0.08820235729217529,-0.7450060248374939,0.08593282848596573,0.05481728911399841,-0.05319801345467567,XTrueNorthZVertical,-0.2936770780708203,0.4816813304030461,0.453459308718006,-0.6900083340058168,-0.3983870446681976,-0.8421250581741333,-0.3634737432003021,-17.56513786315918,-19.3940315246582,-35.05930328369141,2,192.168.1.8,10.83.46.32,1,0
2015-02-28 16:00:08.686,122,1425167987.341164,37.77919114577834,-122.4388061442798,56.94049,-1,-1,10,65,-9999,1425168008.680727,-38.05442810058594,-14.26846313476562,-39.45676422119141,33.79734802246094,20.01920509338379,10,161469.773525875,-0.038604736328125,-1.071731567382812,-0.6653289794921875,161469.7349314583,-0.8756577527463049,-0.02738528548928481,-0.249719022778441,161469.7349314583,-0.7903126252509922,-0.7421585248383114,0.9774624120007926,-0.8910006880760193,-0.01157194003462791,-0.2156006246805191,0.05392913892865181,0.1912943422794342,-0.3218181431293488,XTrueNorthZVertical,-0.2805807565695007,0.4639315932883245,0.473884643889328,-0.6938841661122452,-0.3779037594795227,-0.8290811777114868,-0.4120838344097137,-17.16763305664062,-18.39967346191406,-35.7846565246582,2,192.168.1.8,10.83.46.32,1,0
2015-02-28 16:00:08.747,123,1425167987.341164,37.77919114577834,-122.4388061442798,56.94049,-1,-1,10,65,-9999,1425168008.732663,-37.76459503173828,-13.43597412109375,-39.77281188964844,33.61992263793945,19.84177780151367,10,161469.8224804167,-0.5008087158203125,-0.8040313720703125,-0.2274322509765625,161469.786707125,0.3821718722257499,0.2049198595533461,0.4051389734665933,161469.786707125,-0.7880285421215253,-0.717080949751208,0.9647691561706779,0.3668290674686432,0.2207330465316772,0.439257025718689,0.3193760812282562,-0.2717562615871429,-0.1684807986021042,XTrueNorthZVertical,-0.2817677702226625,0.4538093217320493,0.4687760628442791,-0.7035005344565283,-0.3743382394313812,-0.8219174742698669,-0.429328054189682,-16.7608699798584,-17.1168041229248,-36.60472106933594,2,192.168.1.8,10.83.46.32,1,0
2015-02-28 16:00:08.784,124,1425167987.341164,37.77919114577834,-122.4388061442798,56.94049,-1,-1,10,65,-9999,1425168008.732663,-37.76459503173828,-13.43597412109375,-39.77281188964844,33.61992263793945,19.84177780151367,10,161469.8716347083,-0.790252685546875,-0.2022552490234375,-0.1826324462890625,161469.8384810833,0.9976110895959763,-2.010736424122209,0.4868788441721773,161469.8384810833,-0.7055155753421254,-0.8467261274397107,0.9790674252778016,0.9822684526443481,-1.99492347240448,0.5209965705871582,-0.2624435424804688,0.186224490404129,0.353576272726059,XTrueNorthZVertical,-0.2770364639387538,0.4883621317204576,0.4592730918891843,-0.6883468812451098,-0.4178543090820312,-0.8299775719642639,-0.369506448507309,-17.88621711730957,-17.85181045532227,-35.71012878417969,2,192.168.1.8,10.83.46.32,1,0
2015-02-28 16:00:08.847,125,1425167987.341164,37.77919114577834,-122.4388061442798,56.94049,-1,-1,10,65,-9999,1425168008.836514,-40.08325958251953,-11.80502319335938,-38.27570343017578,26.27185249328613,12.49370765686035,10,161469.9205875417,-0.21270751953125,-0.4193572998046875,-0.2087860107421875,161469.8902565417,1.558440058285256,1.29184271946622,2.803660414444113,161469.8902565417,-0.5408828323020461,-0.9940544006114632,0.9486837936400442,1.543097615242004,1.307655572891235,2.837777853012085,-0.1305141150951385,0.5846218466758728,0.08097170293331146,XTrueNorthZVertical,-0.2735746982548828,0.5160140122290621,0.4187755993037545,-0.6953512759673015,-0.488489180803299,-0.8126491904258728,-0.3177728354930878,-19.93739318847656,-18.45308303833008,-34.28995895385742,2,192.168.1.8,10.83.46.32,1,0
2015-02-28 16:00:08.883,126,1425167987.341164,37.77919114577834,-122.4388061442798,56.94049,-1,-1,10,65,-9999,1425168008.836514,-40.08325958251953,-11.80502319335938,-38.27570343017578,26.27185249328613,12.49370765686035,10,161469.9696266667,-0.2059326171875,-0.4510345458984375,-0.1523590087890625,161469.9420320833,1.510474130207948,0.2907117298574857,4.716432724183866,161469.9420320833,-0.2771853197663706,-1.139898836495749,0.8135077269827847,1.495131731033325,0.3065244555473328,4.750549793243408,0.4941398501396179,0.3086409866809845,0.06540407985448837,XTrueNorthZVertical,-0.2614363888162385,0.536829046516185,0.3182529024020543,-0.7363291760045054,-0.6241599917411804,-0.7267012596130371,-0.286931186914444,-21.04229545593262,-17.89924621582031,-33.92132186889648,2,192.168.1.8,10.83.46.32,1,0
2015-02-28 16:00:08.948,127,1425167987.341164,37.77919114577834,-122.4388061442798,56.94049,-1,-1,10,65,-9999,1425168008.939901,-45.07862854003906,0.30816650390625,-36.69544219970703,356.1503295898438,342.3721923828125,10,161470.01869275,-0.6241912841796875,-0.478851318359375,0.0185089111328125,161469.9938062917,1.51979386244268,-2.317742705109345,5.847681769912237,161469.9938062917,-0.06935705448231411,-1.330495615412074,0.5779597147043142,1.504451632499695,-2.301929950714111,5.881798267364502,0.462651789188385,0.07782557606697083,0.0174393467605114,XTrueNorthZVertical,-0.2035590805434969,0.59907763663205,0.2019431986126676,-0.7475885275024531,-0.81351238489151,-0.5463161468505859,-0.1993393748998642,-24.62026786804199,-15.13870811462402,-32.8402099609375,2,192.168.1.8,10.83.46.32,1,0
2015-02-28 16:00:08.983,128,1425167987.341164,37.77919114577834,-122.4388061442798,56.94049,-1,-1,10,65,-9999,1425168008.939901,-45.07862854003906,0.30816650390625,-36.69544219970703,356.1503295898438,342.3721923828125,10,161470.0677362084,-1.62432861328125,-0.4817657470703125,0.6005706787109375,161470.04558175,2.193826085904067,-4.741569769080906,5.255690354359613,161470.04558175,0.0756278748059831,-1.57722825790008,0.3028633073647433,2.178483963012695,-4.725757122039795,5.289806365966797,-0.02272146940231323,-0.1630340367555618,0.2206064611673355,XTrueNorthZVertical,-0.1327610180477396,0.6967381762556675,0.08059449175156495,-0.7003105951202789,-0.9544666409492493,-0.2982544004917145,0.006139148492366076,-31.14296722412109,-9.99366569519043,-29.05270385742188,2,192.168.1.8,10.83.46.32,1,0
2015-02-28 16:00:09.049,129,1425167987.341164,37.77919114577834,-122.4388061442798,56.94049,-1,-1,10,65,-9999,1425168008.998562,-50.96056365966797,10.7904052734375,-31.15619659423828,333.2802429199219,319.5021057128906,10,161470.116799625,-2.030487060546875,-0.0896453857421875,0.565093994140625,161470.0973574167,1.398522294832069,-5.540269889491082,2.111613237788885,161470.0973574167,0.1492907063161201,-1.860251049261612,0.1087172323282398,1.38318145275116,-5.524482727050781,2.145781517028809,-1.188616037368774,-0.2335225641727448,0.3627398610115051,XTrueNorthZVertical,-0.09208446227188186,0.7958597301986403,-0.001074472953554269,-0.598436766139645,-0.9527413249015808,-0.1085031926631927,0.2837445139884949,-37.94634628295898,-4.056854724884033,-21.3877010345459,2,192.168.1.8,10.83.46.32,1,0
2015-02-28 16:00:09.087,130,1425167987.341164,37.77919114577834,-122.4388061442798,56.94049,-1,-1,10,65,-9999,1425168009.06923,-57.89955902099609,24.1268310546875,-16.20189666748047,320.6668701171875,306.8887329101562,10,161470.165833875,-1.315170288085938,0.006195068359375,0.388702392578125,161470.1491313333,0.6942956835635817,-3.317033184088725,1.512423564125886,161470.0973574167,0.1492907063161201,-1.860251049261612,0.1087172323282398,1.38318145275116,-5.524482727050781,2.145781517028809,-1.188616037368774,-0.2335225641727448,0.3627398610115051,XTrueNorthZVertical,-0.09208446227188186,0.7958597301986403,-0.001074472953554269,-0.598436766139645,-0.9527413249015808,-0.1085031926631927,0.2837445139884949,-37.94634628295898,-4.056854724884033,-21.3877010345459,2,192.168.1.8,10.83.46.32,1,0
2015-02-28 16:00:09.148,131,1425167987.341164,37.77919114577834,-122.4388061442798,56.94049,-1,-1,10,65,-9999,1425168009.121072,-58.07005310058594,29.69921875,-8.283935546875,310.97216796875,297.1940307617188,10,161470.2149100417,-0.8441162109375,-0.06195068359375,0.5068511962890625,161470.200907,1.287500701624955,0.5743351901576165,2.41493104066626,161470.200907,0.1450030117909228,-2.143730345979907,-0.0910164908003782,1.272160172462463,0.590121865272522,2.449098587036133,-0.157930389046669,-0.1741580963134766,-0.1110077574849129,XTrueNorthZVertical,-0.04183114564483068,0.8764577394043372,-0.07446658326911464,-0.4738424740059315,-0.8368358612060547,0.09089087694883347,0.5398560166358948,-43.56475830078125,3.585102081298828,-1.75390625,2,192.168.1.8,10.83.46.32,1,0
2015-02-28 16:00:09.181,132,1425167987.341164,37.77919114577834,-122.4388061442798,56.94049,-1,-1,10,65,-9999,1425168009.172616,-54.86481475830078,35.06777954101562,-7.086265563964844,300.8646545410156,287.0865173339844,10,161470.2639503333,-0.74755859375,0.13104248046875,0.5159759521484375,161470.2526824167,0.6339295448186466,0.2609865910344573,2.978128624829056,161470.2526824167,0.1158963114897692,-2.109615472793757,-0.236220443102745,0.6185891628265381,0.2767731547355652,3.012295961380005,0.07544607669115067,-0.2100276350975037,0.07319418340921402,XTrueNorthZVertical,0.008017551724396754,0.8656629016431751,-0.1306984291926522,-0.4831990853604723,-0.8344792723655701,0.2340297102928162,0.4988730847835541,-42.92025375366211,8.111496925354004,-2.423341751098633,2,192.168.1.8,10.83.46.32,1,0
2015-02-28 16:00:09.248,133,1425167987.341164,37.77919114577834,-122.4388061442798,56.94049,-1,-1,10,65,-9999,1425168009.224599,-49.95467376708984,41.013916015625,-7.552024841308594,286.12109375,272.3429565429688,10,161470.3131442917,-0.5216522216796875,0.42047119140625,0.48822021484375,161470.3044566667,-0.08639827208435065,-2.462869005552123,2.735042737377676,161470.2526824167,0.1158963114897692,-2.109615472793757,-0.236220443102745,0.6185891628265381,0.2767731547355652,3.012295961380005,0.07544607669115067,-0.2100276350975037,0.07319418340921402,XTrueNorthZVertical,0.008017551724396754,0.8656629016431751,-0.1306984291926522,-0.4831990853604723,-0.8344792723655701,0.2340297102928162,0.4988730847835541,-42.92025375366211,8.111496925354004,-2.423341751098633,2,192.168.1.8,10.83.46.32,1,0
2015-02-28 16:00:09.284,134,1425167987.341164,37.77919114577834,-122.4388061442798,56.94049,-1,-1,10,65,-9999,1425168009.224599,-49.95467376708984,41.013916015625,-7.552024841308594,286.12109375,272.3429565429688,10,161470.36206725,-0.57110595703125,0.3718109130859375,0.6852264404296875,161470.3562320417,0.3990888041021513,-1.911298250076395,2.843791588910517,161470.3044566667,0.0376931159058182,-2.197542010575276,-0.3620360211966352,-0.1017384901642799,-2.44708251953125,2.769209623336792,0.2092662155628204,0.03157844021916389,-0.06881766021251678,XTrueNorthZVertical,0.06533353684865775,0.8774839052521868,-0.1687448829601179,-0.4441606301379609,-0.7574381828308105,0.3541789948940277,0.548492968082428,-40.83090209960938,15.33934211730957,-3.370378494262695,2,192.168.1.8,10.83.46.32,1,0
2015-02-28 16:00:09.333,135,1425167987.341164,37.77919114577834,-122.4388061442798,56.94049,-1,-1,10,65,-9999,1425168009.329239,-38.00326538085938,51.869873046875,-1.646812438964844,324.8649291992188,311.0867919921875,10,161470.4111336667,-0.330322265625,0.6240386962890625,0.668243408203125,161470.40800775,0.1594184207487973,-0.464852105112241,3.004643056641886,161470.40800775,-0.1749771636308455,-2.463568496036406,-0.5820618061623152,0.1440784931182861,-0.4490660130977631,3.038809061050415,0.1084690243005753,0.0182305108755827,0.04509638622403145,XTrueNorthZVertical,0.1739971417152683,0.8916325073187497,-0.2417375792944298,-0.3409976322906419,-0.5239658355712891,0.5497474074363708,0.6505670547485352,-35.56875610351562,25.17294692993164,3.873468399047852,2,192.168.1.8,10.83.46.32,1,0
2015-02-28 16:00:09.379,136,1425167987.341164,37.77919114577834,-122.4388061442798,56.94049,-1,-1,10,65,-9999,1425168009.329239,-38.00326538085938,51.869873046875,-1.646812438964844,324.8649291992188,311.0867919921875,10,161470.460180625,-0.1379241943359375,0.661651611328125,0.646087646484375,161470.40800775,0.1594184207487973,-0.464852105112241,3.004643056641886,161470.40800775,-0.1749771636308455,-2.463568496036406,-0.5820618061623152,0.1440784931182861,-0.4490660130977631,3.038809061050415,0.1084690243005753,0.0182305108755827,0.04509638622403145,XTrueNorthZVertical,0.1739971417152683,0.8916325073187497,-0.2417375792944298,-0.3409976322906419,-0.5239658355712891,0.5497474074363708,0.6505670547485352,-35.56875610351562,25.17294692993164,3.873468399047852,2,192.168.1.8,10.83.46.32,1,0
2015-02-28 16:00:09.432,137,1425167987.341164,37.77919114577834,-122.4388061442798,56.94049,-1,-1,10,65,-9999,1425168009.380034,-30.79151153564453,56.03216552734375,-0.1996231079101562,332.8658142089844,319.0876770019531,10,161470.5093545417,-0.2093048095703125,0.61529541015625,0.6865081787109375,161470.5115573333,0.417867551896627,-1.001126462234881,2.513755089764703,161470.4597816667,-0.3106901311503588,-2.576676117438294,-0.6727852294226361,0.2740086913108826,-0.8516882061958313,2.596152067184448,0.2614916265010834,0.04266582056879997,-0.02506508678197861,XTrueNorthZVertical,0.2311539847966619,0.8813949348095946,-0.2724801480449893,-0.3089746737672099,-0.4186876714229584,0.6231666803359985,0.6605783700942993,-30.3118724822998,31.17608261108398,4.802030563354492,2,192.168.1.8,10.83.46.32,1,0
2015-02-28 16:00:09.475,138,1425167987.341164,37.77919114577834,-122.4388061442798,56.94049,-1,-1,10,65,-9999,1425168009.432038,-22.9830322265625,59.02224731445312,0.0332489013671875,341.1367492675781,327.3586120605469,10,161470.5582855,-0.1309356689453125,0.62371826171875,0.6105499267578125,161470.5115573333,0.417867551896627,-1.001126462234881,2.513755089764703,161470.5115573333,-0.448602244191004,-2.714733771712301,-0.7477903013901753,0.402527928352356,-0.9853406548500061,2.54792046546936,0.09424714744091034,-0.0647248774766922,0.01910384930670261,XTrueNorthZVertical,0.2777854157143743,0.8697915999480836,-0.3041575552944324,-0.27163577256506,-0.303551971912384,0.680020272731781,0.6674043536186218,-26.21062850952148,34.59370422363281,5.485969543457031,2,192.168.1.8,10.83.46.32,1,0
2015-02-28 16:00:09.530,139,1425167987.341164,37.77919114577834,-122.4388061442798,56.94049,-1,-1,10,65,-9999,1425168009.484253,-14.93585968017578,61.02694702148438,-0.26617431640625,234.2918395996094,220.5137023925781,10,161470.6073439583,-0.064788818359375,0.633392333984375,0.61004638671875,161470.56333275,0.1441294792467613,-1.062942425877255,2.119486340919486,161470.56333275,-0.5953175948256078,-2.868305073203749,-0.8036529248643336,0.1287900358438492,-1.047156810760498,2.153651475906372,0.05639587715268135,-0.09617805480957031,-0.05777342617511749,XTrueNorthZVertical,0.3183387479187136,0.8560503012652559,-0.3336478909812634,-0.2334895801198048,-0.1873315423727036,0.7198963165283203,0.6683233380317688,-20.40834045410156,38.21966552734375,6.047657012939453,2,192.168.1.8,10.83.46.32,1,0
2015-02-28 16:00:09.582,140,1425167987.341164,37.77919114577834,-122.4388061442798,56.94049,-1,-1,10,65,-9999,1425168009.535565,-7.655906677246094,61.5535888671875,0.08315277099609375,202.9050903320312,189.126953125,10,161470.656372875,0.0715789794921875,0.606964111328125,0.6427764892578125,161470.6151067917,-0.2603863145247534,-0.6132977695376938,1.870335636717668,161470.6151067917,-0.7383537422332671,-3.016011823083061,-0.8189979453053903,-0.2757256329059601,-0.5975123047828674,1.904500365257263,0.02075179293751717,-0.09706950932741165,-0.0675288662314415,XTrueNorthZVertical,0.3536611089388111,0.8448144450739067,-0.349821759444652,-0.1970712712224776,-0.08554060757160187,0.7304618358612061,0.6775752305984497,-16.38011741638184,40.00355529785156,6.724908828735352,2,192.168.1.8,10.83.46.32,1,0
2015-02-28 16:00:09.628,141,1425167987.341164,37.77919114577834,-122.4388061442798,56.94049,-1,-1,10,65,-9999,1425168009.588475,-1.126113891601562,61.570556640625,0.96478271484375,194.9483947753906,181.1702575683594,10,161470.7054238333,0.28887939453125,0.7299346923828125,0.8709564208984375,161470.7186580417,-0.6928240207452039,0.7119484468491719,0.8896686432412118,161470.666882375,-0.8695955865491334,-3.120767989478594,-0.7955092021451404,-0.7462780475616455,0.2012645900249481,1.605064392089844,0.1039300337433815,-0.07956128567457199,-0.01774726063013077,XTrueNorthZVertical,0.3919799443848305,0.8344078144225819,-0.3472458726937463,-0.1718592512241101,-0.0145745687186718,0.7142201066017151,0.6997693777084351,-12.69684982299805,41.15426635742188,7.67681884765625,2,192.168.1.8,10.83.46.32,1,0
2015-02-28 16:00:09.683,142,1425167987.341164,37.77919114577834,-122.4388061442798,56.94049,-1,-1,10,65,-9999,1425168009.638657,4.0738525390625,61.14584350585938,3.609626770019531,245.2440795898438,231.4659271240234,10,161470.754449125,0.5728912353515625,0.851165771484375,0.9553680419921875,161470.7186580417,-0.6928240207452039,0.7119484468491719,0.8896686432412118,161470.7186580417,-0.9587342945724839,3.128942020818219,-0.7564512603207258,-0.7081630229949951,0.7277335524559021,0.9238327145576477,0.337693065404892,0.06009984388947487,0.1662909239530563,XTrueNorthZVertical,0.4265384376505484,0.825635486826924,-0.3303549046888626,-0.1650957811401257,0.009200258180499077,0.6863448619842529,0.727217972278595,-8.915343284606934,41.78298950195312,9.408266067504883,2,192.168.1.8,10.83.46.32,1,0
2015-02-28 16:00:09.726,143,1425167987.341164,37.77919114577834,-122.4388061442798,56.94049,-1,-1,10,65,-9999,1425168009.691116,7.551864624023438,60.8060302734375,6.470741271972656,250.9686889648438,237.1905517578125,10,161470.803639875,0.292572021484375,0.8314666748046875,1.118545532226562,161470.7704320833,-0.1953268869907716,-0.7795463995342172,0.1313415123244189,161470.7704320833,-0.9866254012715822,3.11091405630718,-0.7350458666096182,-0.2106657326221466,-0.7637614011764526,0.1655053049325943,0.5377472639083862,0.1707789599895477,0.2206157594919205,XTrueNorthZVertical,0.4370167579763335,0.8244645505100378,-0.3232058924695906,-0.1575197929678375,0.02275381237268448,0.6706211566925049,0.7414509057998657,-7.65999174118042,41.7986946105957,10.39282989501953,2,192.168.1.8,10.83.46.32,1,0
2015-02-28 16:00:09.779,144,1425167987.341164,37.77919114577834,-122.4388061442798,56.94049,-1,-1,10,65,-9999,1425168009.742588,9.137428283691406,60.992919921875,7.186019897460938,22.61348342895508,8.835338592529297,10,161470.8525490834,0.527862548828125,1.245010375976562,1.452789306640625,161470.8222077083,0.6908298457209525,-0.5567545985375674,-0.5816650084258416,161470.8222077083,-0.9816023203720781,3.072120507096026,-0.7475527059049795,0.6754910945892334,-0.5409697890281677,-0.5475015640258789,0.2362026125192642,0.1633088439702988,0.4378020465373993,XTrueNorthZVertical,0.4273409645318606,0.8265425510205597,-0.3370761357491558,-0.1434808907045817,0.05090675875544548,0.6798460483551025,0.7315858006477356,-6.989084243774414,41.76874542236328,10.97003173828125,2,192.168.1.8,10.83.46.32,1,0
2015-02-28 16:00:09.823,145,1425167987.341164,37.77919114577834,-122.4388061442798,56.94049,-1,-1,10,65,-9999,1425168009.79781,7.398422241210938,61.36663818359375,5.189903259277344,16.88655853271484,3.108413457870483,10,161470.901602375,0.8610382080078125,1.249237060546875,1.421234130859375,161470.8739830834,1.913841302601311,0.9448517378726345,-1.973414351973621,161470.8739830834,-0.8961672567479443,-3.135938585595769,-0.8117934877565781,1.898502707481384,0.9606363773345947,-1.939251184463501,0.7312470674514771,0.647508978843689,0.8752282857894897,XTrueNorthZVertical,0.3990423494193674,0.8275619831409817,-0.3547368433771304,-0.173401601157616,-0.003891099011525512,0.7255226373672485,0.6881872415542603,-8.280606269836426,41.92819213867188,9.342124938964844,2,192.168.1.8,10.83.46.32,1,0
2015-02-28 16:00:09.882,146,1425167987.341164,37.77919114577834,-122.4388061442798,56.94049,-1,-1,10,65,-9999,1425168009.872733,-4.689369201660156,60.09249877929688,-4.47467041015625,200.5960388183594,186.8179016113281,10,161470.9506368334,0.722991943359375,1.054580688476562,0.9618377685546875,161470.925757125,3.566428632794722,1.433834745622083,-3.943413998797542,161470.925757125,-0.6202173012257195,-2.861253721232102,-0.9357354291089905,3.551090240478516,1.449619293212891,-3.90925121307373,0.8705556392669678,0.4051695168018341,0.7100071310997009,XTrueNorthZVertical,0.3296976349011038,0.82239493938006,-0.3872076749735703,-0.2550220099673879,-0.1641347110271454,0.8050355911254883,0.5700679421424866,-12.76807022094727,41.55918121337891,4.860885620117188,2,192.168.1.8,10.83.46.32,1,0
2015-02-28 16:00:09.922,147,1425167987.341164,37.77919114577834,-122.4388061442798,56.94049,-1,-1,10,65,-9999,1425168009.872733,-4.689369201660156,60.09249877929688,-4.47467041015625,200.5960388183594,186.8179016113281,10,161470.9997334167,0.2160186767578125,0.7162322998046875,0.5940093994140625,161470.9775328333,4.132906166156059,1.284802386808486,-4.960825158466039,161470.9775328333,-0.0931399542274834,-2.34749108591713,-0.9882376631189302,4.117567539215088,1.300586700439453,-4.926662445068359,0.9958033561706543,0.2418618500232697,0.3610506057739258,XTrueNorthZVertical,0.2209924910194658,0.8024797864858301,-0.4210385428078215,-0.3604372796597112,-0.3923945426940918,0.8350576758384705,0.3856229782104492,-19.99581909179688,38.81822967529297,-2.670156478881836,2,192.168.1.8,10.83.46.32,1,0
