loggingTime,loggingSample,locationTimestamp_since1970,locationLatitude,locationLongitude,locationAltitude,locationSpeed,locationCourse,locationVerticalAccuracy,locationHorizontalAccuracy,locationFloor,locationHeadingTimestamp_since1970,locationHeadingX,locationHeadingY,locationHeadingZ,locationTrueHeading,locationMagneticHeading,locationHeadingAccuracy,accelerometerTimestamp_sinceReboot,accelerometerAccelerationX,accelerometerAccelerationY,accelerometerAccelerationZ,gyroTimestamp_sinceReboot,gyroRotationX,gyroRotationY,gyroRotationZ,motionTimestamp_sinceReboot,motionYaw,motionRoll,motionPitch,motionRotationRateX,motionRotationRateY,motionRotationRateZ,motionUserAccelerationX,motionUserAccelerationY,motionUserAccelerationZ,motionAttitudeReferenceFrame,motionQuaternionX,motionQuaternionY,motionQuaternionZ,motionQuaternionW,motionGravityX,motionGravityY,motionGravityZ,motionMagneticFieldX,motionMagneticFieldY,motionMagneticFieldZ,motionMagneticFieldCalibrationAccuracy,IP_en0,IP_pdp_ip0,deviceOrientation,state
2015-02-26 19:53:19.276,1,1425009196.587187,37.75997080053501,-122.4613721094944,63.77776,-1,-1,43.10008621384214,65,-9999,1425009199.20629,-29.22391510009766,-23.49949645996094,9.718887329101562,114.3846206665039,100.6066436767578,10,120190.4793214583,-0.1550750732421875,-1.009490966796875,-0.029876708984375,120190.4361409167,-0.2909546101489009,0.783740345618874,0.02354873562291666,120190.4361409167,-1.721023442293752,-1.560848131705201,1.38014835267225,-0.3079899251461029,0.7939614057540894,0.05374368280172348,-0.05834738910198212,-0.00844427477568388,-0.02967007085680962,XTrueNorthZVertical,0.1164169124895122,0.696781565650858,0.707550200769683,-0.01775609727818433,-0.1894858628511429,-0.9818816781044006,-0.001885104458779097,-29.77458763122559,-24.62826347351074,8.21650505065918,2,0.0.0.0,10.83.46.32,1,0
2015-02-26 19:53:19.349,2,1425009196.587187,37.75997080053501,-122.4613721094944,63.77776,-1,-1,43.10008621384214,65,-9999,1425009199.310407,-30.09355926513672,-24.70600891113281,6.7733154296875,109.9156341552734,96.13765716552734,10,120190.5283921667,-0.155426025390625,-0.984954833984375,-0.020294189453125,120190.4879159167,-0.1358334661350555,0.5156969103279248,-0.04702476694807415,120190.4879159167,-1.776450648356073,-1.477190318930405,1.382117358891283,-0.1528697311878204,0.5259180068969727,-0.01683822460472584,0.03166535124182701,-0.02723810076713562,-0.0123454499989748,XTrueNorthZVertical,0.1052831643974732,0.6929284419763365,0.7127876364337935,-0.0264467065255804,-0.1867404282093048,-0.9822528958320618,-0.0175312589854002,-30.0136833190918,-24.73319625854492,6.930826663970947,2,0.0.0.0,10.83.46.32,1,0
2015-02-26 19:53:19.352,3,1425009196.587187,37.75997080053501,-122.4613721094944,63.77776,-1,-1,43.10008621384214,65,-9999,1425009199.310407,-30.09355926513672,-24.70600891113281,6.7733154296875,109.9156341552734,96.13765716552734,10,120190.5774437917,-0.1791229248046875,-0.990203857421875,-0.0363616943359375,120190.5396891667,0.01058127164310283,0.07319591729639183,-0.03734044796011,120190.5396891667,-1.793299051308879,-1.449071655683221,1.383383326954916,-0.00645595183596015,0.08341716974973679,-0.007160947658121586,0.01329314988106489,-0.02718454599380493,0.009165266528725624,XTrueNorthZVertical,0.1006450724855356,0.6917794518167413,0.7144424953427555,-0.02972698473020083,-0.1849392652511597,-0.9824895262718201,-0.02262351848185062,-30.12892150878906,-24.83284378051758,6.01384449005127,2,0.0.0.0,10.83.46.32,1,0
2015-02-26 19:53:19.390,4,1425009196.587187,37.75997080053501,-122.4613721094944,63.77776,-1,-1,43.10008621384214,65,-9999,1425009199.362856,-30.53691101074219,-24.70600891113281,6.174217224121094,108.6880111694336,94.9100341796875,10,120190.6265167917,-0.1740570068359375,-0.987701416015625,-0.020355224609375,120190.5914641667,-0.04832438956003281,0.0652900572843826,-0.0419280092538805,120190.5914641667,-1.808608833188544,-1.429491293505486,1.383798378596817,-0.0653635710477829,0.07551158964633942,-0.01174998376518488,0.01112927682697773,-0.003227293957024813,-0.005448773503303528,XTrueNorthZVertical,0.09879323702152834,0.6907593997279038,0.7156381712492018,-0.03087667730950054,-0.1840571314096451,-0.982566773891449,-0.02618269622325897,-30.13092422485352,-24.86598587036133,5.865026473999023,2,0.0.0.0,10.83.46.32,1,0
2015-02-26 19:53:19.429,5,1425009196.587187,37.75997080053501,-122.4613721094944,63.77776,-1,-1,43.10008621384214,65,-9999,1425009199.414883,-30.62216949462891,-24.51910400390625,5.7581787109375,108.0385894775391,94.26061248779297,10,120190.6757198333,-0.15802001953125,-0.9939422607421875,-0.0267181396484375,120190.6432390833,-0.02867265756022911,0.0651220118195986,-0.04195890192252542,120190.6432390833,-1.82085097133913,-1.41413002530086,1.384714778067478,-0.04570808261632919,0.07534284144639969,-0.0117869209498167,0.009144517593085766,0.005502841901034117,0.009991222992539406,XTrueNorthZVertical,0.09720412571346289,0.6900131777717392,0.7165488879012593,-0.03147819939766571,-0.1827437579631805,-0.9827367067337036,-0.02886634506285191,-30.12528038024902,-24.91332626342773,5.690529823303223,2,0.0.0.0,10.83.46.32,1,0
2015-02-26 19:53:19.492,6,1425009196.587187,37.75997080053501,-122.4613721094944,63.77776,-1,-1,43.10008621384214,65,-9999,1425009199.467052,-30.24703216552734,-24.824951171875,5.8580322265625,108.4124374389648,94.63446044921875,10,120190.7246622083,-0.1592864990234375,-0.988922119140625,-0.0381927490234375,120190.6950125417,-0.005311941110272048,0.06018664168746376,-0.04921521694466433,120190.6950125417,-1.826679655035176,-1.403190012298163,1.387412354483502,-0.02233824506402016,0.0704057589173317,-0.01905540749430656,0.03580532222986221,-0.01052692532539368,0.00797575805336237,XTrueNorthZVertical,0.09436858717318423,0.6898433527131362,0.717057857576909,-0.03222981079488092,-0.1798025220632553,-0.9832322001457214,-0.03042143769562244,-30.10153770446777,-24.9852294921875,5.497660636901855,2,0.0.0.0,10.83.46.32,1,0
2015-02-26 19:53:19.526,7,1425009196.587187,37.75997080053501,-122.4613721094944,63.77776,-1,-1,43.10008621384214,65,-9999,1425009199.517664,-30.19586944580078,-24.94390869140625,5.841384887695312,108.5248336791992,94.74685668945312,10,120190.7738249167,-0.17266845703125,-0.9774932861328125,-0.020751953125,120190.7467874167,0.04581755602594123,-0.06626983424942276,-0.04978433446961426,120190.7467874167,-1.831210779868138,-1.399099479662275,1.391562676273617,0.02878476493060589,-0.05604995414614677,-0.01964687928557396,0.01629151590168476,-0.00159984128549695,-0.008191321045160294,XTrueNorthZVertical,0.09304283797024168,0.6900097351851379,0.7171431718443502,-0.03058234905019682,-0.1756543070077896,-0.9839805960655212,-0.03045919165015221,-30.00244140625,-25.11667251586914,5.440083503723145,2,0.0.0.0,10.83.46.32,1,0
2015-02-26 19:53:19.590,8,1425009196.587187,37.75997080053501,-122.4613721094944,63.77776,-1,-1,43.10008621384214,65,-9999,1425009199.56941,-29.99124908447266,-25.11384582519531,5.974517822265625,108.5716857910156,94.79370880126953,10,120190.8228034167,-0.1510009765625,-0.98431396484375,-0.0195770263671875,120190.7985625417,0.04734354733055663,-0.1126719541346364,-0.02782124495973078,120190.7985625417,-1.819777434845864,-1.415544906749144,1.392745458990822,0.03031599521636963,-0.1024528369307518,0.002311299555003643,0.009438886307179928,0.002287699840962887,0.007321203593164682,XTrueNorthZVertical,0.09458274585234766,0.6909130542284642,0.7161534286808363,-0.02859257974776331,-0.174981489777565,-0.9841907620429993,-0.0273865107446909,-29.94101905822754,-25.1653003692627,5.552601337432861,2,0.0.0.0,10.83.46.32,1,0
2015-02-26 19:53:19.623,9,1425009196.587187,37.75997080053501,-122.4613721094944,63.77776,-1,-1,43.10008621384214,65,-9999,1425009199.56941,-29.99124908447266,-25.11384582519531,5.974517822265625,108.5716857910156,94.79370880126953,10,120190.871846125,-0.20452880859375,-1.023101806640625,-0.0145416259765625,120190.8503357083,0.09852124768250034,-0.2454185502501811,-0.01355309310352225,120190.7985625417,-1.819777434845864,-1.415544906749144,1.392745458990822,0.03031599521636963,-0.1024528369307518,0.002311299555003643,0.009438886307179928,0.002287699840962887,0.007321203593164682,XTrueNorthZVertical,0.09458274585234766,0.6909130542284642,0.7161534286808363,-0.02859257974776331,-0.174981489777565,-0.9841907620429993,-0.0273865107446909,-29.94101905822754,-25.1653003692627,5.552601337432861,2,0.0.0.0,10.83.46.32,1,0
2015-02-26 19:53:19.690,10,1425009196.587187,37.75997080053501,-122.4613721094944,63.77776,-1,-1,43.10008621384214,65,-9999,1425009199.673346,-29.47967529296875,-24.94390869140625,6.274055480957031,109.3922500610352,95.61427307128906,10,120190.9209325,-0.15362548828125,-0.991424560546875,-0.0273895263671875,120190.902110875,0.06327377802308361,-0.1119917827922301,-0.08046501549176312,120190.902110875,-1.791107975296534,-1.459176601817281,1.393512910901912,0.04624716192483902,-0.1017729416489601,-0.05033373087644577,-0.008792685344815254,0.003949213307350874,-0.008203298784792423,XTrueNorthZVertical,0.09999563263389101,0.6929494049459003,0.7136321007733059,-0.02347836726379492,-0.1752588301897049,-0.9843264222145081,-0.01964399218559265,-29.83847808837891,-25.13748931884766,6.193559169769287,2,0.0.0.0,10.83.46.32,1,0
2015-02-26 19:53:19.722,11,1425009196.587187,37.75997080053501,-122.4613721094944,63.77776,-1,-1,43.10008621384214,65,-9999,1425009199.673346,-29.47967529296875,-24.94390869140625,6.274055480957031,109.3922500610352,95.61427307128906,10,120190.970090375,-0.174346923828125,-0.9953155517578125,-0.022979736328125,120190.9538857083,0.09117837992493387,-0.2522306500024947,-0.03905525738601203,120190.9538857083,-1.778397744587099,-1.480475313508778,1.397741512999449,0.07414678484201431,-0.2420111149549484,-0.008939089253544807,0.01760563626885414,-0.006132330279797316,-0.001283730030991137,XTrueNorthZVertical,0.1017171360859276,0.6941814579031598,0.7123195963720507,-0.01914506982239779,-0.1714905202388763,-0.985063374042511,-0.0155314551666379,-29.75478172302246,-25.18813705444336,6.38742733001709,2,0.0.0.0,10.83.46.32,1,0
2015-02-26 19:53:19.821,12,1425009196.587187,37.75997080053501,-122.4613721094944,63.77776,-1,-1,43.10008621384214,65,-9999,1425009199.777498,-29.20684814453125,-25.1478271484375,7.205986022949219,111.0996551513672,97.32167816162109,10,120191.0190701667,-0.184906005859375,-0.983673095703125,-0.020111083984375,120191.00565925,0.09730791148986025,-0.2509760348129584,-0.04521355109071126,120191.00565925,-1.760780835451087,-1.509726297131241,1.399675734289657,0.08027249574661255,-0.2407561093568802,-0.0150977736338973,0.003373852465301752,-0.01199618354439735,-0.00459117628633976,XTrueNorthZVertical,0.1053309867122289,0.6954918446798655,0.7106223841640029,-0.01457112525916945,-0.16996930539608,-0.9853945374488831,-0.01039295457303524,-29.58647155761719,-25.25693893432617,6.878674983978271,2,0.0.0.0,10.83.46.32,1,0
2015-02-26 19:53:19.823,13,1425009196.587187,37.75997080053501,-122.4613721094944,63.77776,-1,-1,43.10008621384214,65,-9999,1425009199.777498,-29.20684814453125,-25.1478271484375,7.205986022949219,111.0996551513672,97.32167816162109,10,120191.068127375,-0.151458740234375,-0.9940948486328125,-0.01165771484375,120191.057434125,0.1315519020505351,-0.2260389933137834,-0.03122636272950609,120191.00565925,-1.760780835451087,-1.509726297131241,1.399675734289657,0.08027249574661255,-0.2407561093568802,-0.0150977736338973,0.003373852465301752,-0.01199618354439735,-0.00459117628633976,XTrueNorthZVertical,0.1053309867122289,0.6954918446798655,0.7106223841640029,-0.01457112525916945,-0.16996930539608,-0.9853945374488831,-0.01039295457303524,-29.58647155761719,-25.25693893432617,6.878674983978271,2,0.0.0.0,10.83.46.32,1,0
2015-02-26 19:53:19.892,14,1425009196.587187,37.75997080053501,-122.4613721094944,63.77776,-1,-1,43.10008621384214,65,-9999,1425009199.882703,-28.61003875732422,-24.8929443359375,8.187850952148438,112.7344970703125,98.95652008056641,10,120191.117224625,-0.1771240234375,-0.996490478515625,0.00213623046875,120191.10920925,0.0967382613326923,-0.1640070473070038,-0.1048992521771311,120191.10920925,-1.700233197374424,-1.588823917330131,1.402042083529009,0.07970298826694489,-0.1537871360778809,-0.07479491084814072,-0.0113940816372633,-0.01710440777242184,0.007760312873870134,XTrueNorthZVertical,0.1114044206305704,0.6993589068076504,0.7059946750147571,-0.007596494441897125,-0.1679272055625916,-0.9857947826385498,0.003027650993317366,-29.40765762329102,-25.24430847167969,7.648734569549561,2,0.0.0.0,10.83.46.32,1,0
2015-02-26 19:53:19.923,15,1425009196.587187,37.75997080053501,-122.4613721094944,63.77776,-1,-1,43.10008621384214,65,-9999,1425009199.882703,-28.61003875732422,-24.8929443359375,8.187850952148438,112.7344970703125,98.95652008056641,10,120191.1662842083,-0.1568145751953125,-0.99591064453125,-0.0001983642578125,120191.10920925,0.0967382613326923,-0.1640070473070038,-0.1048992521771311,120191.10920925,-1.700233197374424,-1.588823917330131,1.402042083529009,0.07970298826694489,-0.1537871360778809,-0.07479491084814072,-0.0113940816372633,-0.01710440777242184,0.007760312873870134,XTrueNorthZVertical,0.1114044206305704,0.6993589068076504,0.7059946750147571,-0.007596494441897125,-0.1679272055625916,-0.9857947826385498,0.003027650993317366,-29.40765762329102,-25.24430847167969,7.648734569549561,2,0.0.0.0,10.83.46.32,1,0
2015-02-26 19:53:19.990,16,1425009196.587187,37.75997080053501,-122.4613721094944,63.77776,-1,-1,43.10008621384214,65,-9999,1425009199.958903,-28.30310821533203,-25.16485595703125,8.587249755859375,113.4406509399414,99.66267395019531,10,120191.2153705,-0.1574249267578125,-1.009735107421875,0.0039520263671875,120191.2127574583,0.0263533105668791,-0.09957213104864561,-0.07948870063614007,120191.1609825,-1.685496554211673,-1.609863768567216,1.405482959560157,0.0276588462293148,-0.07825705409049988,-0.07171565294265747,0.002540197456255555,-0.01209202688187361,-0.0007510926225222647,XTrueNorthZVertical,0.1124649145144786,0.7004036865167482,0.70481812159298,-0.004212806115524478,-0.1644359529018402,-0.9863668084144592,0.006427362095564604,-29.24709320068359,-25.30633163452148,8.048935890197754,2,0.0.0.0,10.83.46.32,1,0
2015-02-26 19:53:20.025,17,1425009196.587187,37.75997080053501,-122.4613721094944,63.77776,-1,-1,43.10008621384214,65,-9999,1425009200.014649,-28.23489379882812,-25.09687805175781,8.520683288574219,113.7162170410156,99.93824005126953,10,120191.2644335417,-0.154937744140625,-1.006210327148438,0.0112457275390625,120191.2645325417,0.005282646338281177,-0.06688822025453915,-0.06559791870639577,120191.2127574583,-1.679312700147508,-1.620466371105399,1.410359706043545,0.009316728450357914,-0.089352086186409,-0.04939472302794456,0.009833062067627907,-0.02224178612232208,-0.003033422166481614,XTrueNorthZVertical,0.1123269315417866,0.7009624863093041,0.704296363307644,-0.0009482685992003848,-0.1595523059368134,-0.9871576428413391,0.00793149322271347,-29.10483551025391,-25.42478561401367,8.190068244934082,2,0.0.0.0,10.83.46.32,1,0
2015-02-26 19:53:20.076,18,1425009196.587187,37.75997080053501,-122.4613721094944,63.77776,-1,-1,43.10008621384214,65,-9999,1425009200.014649,-28.23489379882812,-25.09687805175781,8.520683288574219,113.7162170410156,99.93824005126953,10,120191.3135474167,-0.1603851318359375,-1.003982543945312,0.02020263671875,120191.3163060417,0.01141324316764358,-0.06356992153630042,-0.04856753616755705,120191.2645325417,-1.679354704453237,-1.624314588348934,1.412343693805985,-0.01175315771251917,-0.05666834861040115,-0.03550465777516365,0.002626836532726884,-0.01873770169913769,0.002805084921419621,XTrueNorthZVertical,0.1130021558929091,0.7010355440634706,0.7041153602430019,0.001118721269868999,-0.1575645804405212,-0.9874726533889771,0.008440642617642879,-28.99446678161621,-25.50943183898926,8.317342758178711,2,0.0.0.0,10.83.46.32,1,0
2015-02-26 19:53:20.119,19,1425009196.587187,37.75997080053501,-122.4613721094944,63.77776,-1,-1,43.10008621384214,65,-9999,1425009200.087804,-28.28604888916016,-25.31777954101562,8.637161254882812,114.0620498657227,100.2840728759766,10,120191.362548125,-0.1486968994140625,-1.013473510742188,0.017578125,120191.3163060417,0.01141324316764358,-0.06356992153630042,-0.04856753616755705,120191.3163060417,-1.677837177610333,-1.628694900339543,1.413764586937712,-0.005619249306619167,-0.05335049703717232,-0.01847528293728828,-0.004259935114532709,-0.01628671213984489,0.0111530963331461,XTrueNorthZVertical,0.1135146677429447,0.7011698727688596,0.7038951328438309,0.002623934354995278,-0.1561252027750015,-0.9876958131790161,0.009049540385603905,-28.9131965637207,-25.56835174560547,8.418717384338379,2,0.0.0.0,10.83.46.32,1,0
2015-02-26 19:53:20.173,20,1425009196.587187,37.75997080053501,-122.4613721094944,63.77776,-1,-1,43.10008621384214,65,-9999,1425009200.140387,-28.42246246337891,-25.52171325683594,8.903434753417969,114.0826721191406,100.3046951293945,10,120191.4117414583,-0.17474365234375,-1.009201049804688,0.0260162353515625,120191.4198561667,0.01578588736144469,0.02271037251175971,-0.06665519365915722,120191.3680809583,-1.672386359517879,-1.635670378875289,1.415003900807729,0.001590457977727056,-0.02568252012133598,-0.00940402876585722,0.006139765959233046,-0.02558462508022785,0.007519127801060677,XTrueNorthZVertical,0.1136237034989972,0.7015120474456846,0.7035322412489978,0.00359167915062603,-0.1548366695642471,-0.9878888726234436,0.01005899719893932,-28.87191772460938,-25.58965301513672,8.495312690734863,2,0.0.0.0,10.83.46.32,1,0
2015-02-26 19:53:20.216,21,1425009196.587187,37.75997080053501,-122.4613721094944,63.77776,-1,-1,43.10008621384214,65,-9999,1425009200.19177,-28.59297943115234,-25.6236572265625,9.269561767578125,114.1606674194336,100.3826904296875,10,120191.4606750417,-0.1783905029296875,-1.014389038085938,0.041961669921875,120191.4198561667,0.01578588736144469,0.02271037251175971,-0.06665519365915722,120191.4198561667,-1.663771611068256,-1.644506963239194,1.415927101350262,-0.001230074907653034,0.03292780742049217,-0.03656181320548058,-0.02091152593493462,-0.02116933837532997,0.01465659029781818,XTrueNorthZVertical,0.1133850510757594,0.7020139973768691,0.7030677547735821,0.003990391128260292,-0.1538321226835251,-0.9880316853523254,0.01135964505374432,-28.83221626281738,-25.61469841003418,8.554471015930176,2,0.0.0.0,10.83.46.32,1,0
2015-02-26 19:53:20.271,22,1425009196.587187,37.75997080053501,-122.4613721094944,63.77776,-1,-1,43.10008621384214,65,-9999,1425009200.245046,-28.49066925048828,-26.031494140625,9.202995300292969,114.2190399169922,100.4410629272461,10,120191.5097706667,-0.16943359375,-1.017181396484375,0.0393829345703125,120191.4716295417,-0.002957440390532994,0.07603990702448744,-0.05695889044628772,120191.4716295417,-1.65323057755418,-1.652647444908085,1.415486134845975,-0.01986872218549252,0.08588857203722,-0.02685742452740669,-0.02930290810763836,-0.0287142600864172,0.03328181430697441,XTrueNorthZVertical,0.1126987471295773,0.7025827806719041,0.7026147685903283,0.002988143527976712,-0.1541687697172165,-0.9879636168479919,0.01264714263379574,-28.83368682861328,-25.61677360534668,8.543292999267578,2,0.0.0.0,10.83.46.32,1,0
2015-02-26 19:53:20.315,23,1425009196.587187,37.75997080053501,-122.4613721094944,63.77776,-1,-1,43.10008621384214,65,-9999,1425009200.295536,-28.47360992431641,-25.84455871582031,8.587249755859375,113.9812393188477,100.2032623291016,10,120191.5588237917,-0.168914794921875,-1.00909423828125,0.0422515869140625,120191.5234044583,0.002679140056619714,0.159410697581636,-0.04439516168772991,120191.5234044583,-1.645816327815725,-1.653362844465461,1.41515971602714,-0.01421797648072243,0.1692575961351395,-0.01428541541099548,-0.01484571490436792,-0.02330216020345688,0.02475259266793728,XTrueNorthZVertical,0.1104590886804061,0.7029870578520984,0.7025722240813973,0.0005191472707858054,-0.1544810682535172,-0.9879130721092224,0.01278402749449015,-28.88393402099609,-25.59079742431641,8.450907707214355,2,0.0.0.0,10.83.46.32,1,0
2015-02-26 19:53:20.370,24,1425009196.587187,37.75997080053501,-122.4613721094944,63.77776,-1,-1,43.10008621384214,65,-9999,1425009200.347636,-28.54181671142578,-25.77659606933594,8.32098388671875,113.3889465332031,99.61096954345703,10,120191.6079645417,-0.1568450927734375,-0.9954986572265625,0.02569580078125,120191.5751797083,-0.01129233565415399,0.2357131922896053,-0.03406422718709453,120191.5751797083,-1.641262143556248,-1.64741893361959,1.414784259341369,-0.0281745046377182,0.24555803835392,-0.003947997000068426,-0.00927568506449461,-0.02227705344557762,0.0235369298607111,XTrueNorthZVertical,0.1069011298339408,0.7032205466318301,0.7028812913897406,-0.003303754466177687,-0.154924139380455,-0.9878547787666321,0.01189397741109133,-28.95895767211914,-25.56938934326172,8.256715774536133,2,0.0.0.0,10.83.46.32,1,0
2015-02-26 19:53:20.420,25,1425009196.587187,37.75997080053501,-122.4613721094944,63.77776,-1,-1,43.10008621384214,65,-9999,1425009200.399758,-28.25193786621094,-25.35176086425781,8.204498291015625,113.2789001464844,99.50092315673828,10,120191.65697125,-0.19329833984375,-0.9960174560546875,0.0469970703125,120191.6269529583,-0.006383330816810926,0.2378490474838488,-0.01822534291995727,120191.6269529583,-1.640053417391405,-1.636597850201594,1.414255562847096,-0.02325544320046902,0.2476920783519745,0.01189069170504808,-0.01066434755921364,-0.006337612401694059,0.02318079955875874,XTrueNorthZVertical,0.1028569801469013,0.7032396783201756,0.7034307332714358,-0.00772096526550331,-0.1555649042129517,-0.987772524356842,0.01025120727717876,-29.07686424255371,-25.56385803222656,7.849430084228516,2,0.0.0.0,10.83.46.32,1,0
2015-02-26 19:53:20.468,26,1425009196.587187,37.75997080053501,-122.4613721094944,63.77776,-1,-1,43.10008621384214,65,-9999,1425009200.451641,-28.25193786621094,-25.35176086425781,7.738525390625,112.4116058349609,98.63362884521484,10,120191.7061692083,-0.2147064208984375,-0.9994049072265625,0.0349578857421875,120191.6787280417,-0.002185656306628031,0.3520893371844329,-0.04191149765512201,120191.6787280417,-1.631623552155552,-1.630592922954104,1.411029415384913,-0.01903657615184784,0.3619309365749359,-0.01177423819899559,-0.04587755724787712,-0.002329114126041532,0.02741900645196438,XTrueNorthZVertical,0.09891123196520533,0.7035411855952945,0.7035993399850747,-0.01394096406584438,-0.1588038355112076,-0.9872643947601318,0.009507263079285622,-29.2249698638916,-25.48601722717285,7.546685218811035,2,0.0.0.0,10.83.46.32,1,0
2015-02-26 19:53:20.518,27,1425009196.587187,37.75997080053501,-122.4613721094944,63.77776,-1,-1,43.10008621384214,65,-9999,1425009200.502951,-28.64412689208984,-25.4027099609375,7.022933959960938,110.8137741088867,97.03579711914062,10,120191.7551184583,-0.1933746337890625,-0.993133544921875,0.043731689453125,120191.7305032917,0.03774578107802007,0.4508880862525195,-0.02735226229176782,120191.7305032917,-1.617180101516004,-1.624297289993312,1.40794811000836,0.02091110125184059,0.4607293307781219,0.00280946190468967,-0.04368416965007782,-0.01377980969846249,0.04182138666510582,XTrueNorthZVertical,0.0926945040581327,0.704089981308362,0.7036806586445695,-0.0223287064644835,-0.1618974953889847,-0.9867694973945618,0.008669945411384106,-29.40188980102539,-25.41263198852539,7.093341827392578,2,0.0.0.0,10.83.46.32,1,0
2015-02-26 19:53:20.566,28,1425009196.587187,37.75997080053501,-122.4613721094944,63.77776,-1,-1,43.10008621384214,65,-9999,1425009200.55606,-29.22388458251953,-25.164794921875,6.756668090820312,109.5813064575195,95.80332946777344,10,120191.8043080833,-0.22998046875,-0.99822998046875,0.0836029052734375,120191.7822767083,0.05565101203494981,0.5417847037341229,0.04004355646654043,120191.7822767083,-1.596440156462624,-1.619015749649611,1.403562908991289,0.03883453458547592,0.551623523235321,0.07021975517272949,-0.04244810715317726,-0.01134169567376375,0.03987408056855202,XTrueNorthZVertical,0.08507072433477242,0.7048223896228852,0.7034891689751213,-0.03303594143293538,-0.166261613368988,-0.9860490560531616,0.008023258298635483,-29.70822334289551,-25.24745559692383,6.369915962219238,2,0.0.0.0,10.83.46.32,1,0
2015-02-26 19:53:20.621,29,1425009196.587187,37.75997080053501,-122.4613721094944,63.77776,-1,-1,43.10008621384214,65,-9999,1425009200.606721,-29.10452270507812,-25.11380004882812,6.107635498046875,108.0524215698242,94.27444458007812,10,120191.8532497083,-0.2513885498046875,-0.9936370849609375,0.142822265625,120191.834051625,0.02168239233098913,0.6782645190657407,0.08803398562587732,120191.834051625,-1.575077409116414,-1.609753997771662,1.39663888165438,0.004884433932602406,0.6881003975868225,0.1182226985692978,-0.06238767504692078,-0.006887368857860565,0.1201432719826698,XTrueNorthZVertical,0.07671499728926742,0.7053291559555437,0.7031967845123046,-0.04625890774464755,-0.1731469929218292,-0.9848728775978088,0.006748818326741457,-30.00148582458496,-25.05770874023438,5.710548877716064,2,0.0.0.0,10.83.46.32,1,0
2015-02-26 19:53:20.664,30,1425009196.587187,37.75997080053501,-122.4613721094944,63.77776,-1,-1,43.10008621384214,65,-9999,1425009200.606721,-29.10452270507812,-25.11380004882812,6.107635498046875,108.0524215698242,94.27444458007812,10,120191.90233575,-0.2520599365234375,-1.00482177734375,0.160125732421875,120191.88582675,0.04446333861163593,0.9720250357391491,0.1209429335320955,120191.88582675,-1.572887158224124,-1.570042573840536,1.389879310295941,0.02766554616391659,0.9818608164787292,0.151131346821785,-0.08445731550455093,-0.01377267576754093,0.1600782573223114,XTrueNorthZVertical,0.06434733212345808,0.7041247111146184,0.7043064135834016,-0.0634058449660566,-0.179931715130806,-0.9836791157722473,-0.0001356240973109379,-30.31583976745605,-24.87605285644531,4.76657247543335,2,0.0.0.0,10.83.46.32,1,0
2015-02-26 19:53:20.717,31,1425009196.587187,37.75997080053501,-122.4613721094944,63.77776,-1,-1,43.10008621384214,65,-9999,1425009200.711022,-29.44556427001953,-24.8419189453125,3.511543273925781,102.1621704101562,88.38419342041016,10,120191.95138175,-0.2038116455078125,-0.990478515625,0.15069580078125,120191.93760025,0.08148820198257155,1.350955840918272,0.2018281958438731,120191.88582675,-1.572887158224124,-1.570042573840536,1.389879310295941,0.02766554616391659,0.9818608164787292,0.151131346821785,-0.08445731550455093,-0.01377267576754093,0.1600782573223114,XTrueNorthZVertical,0.06434733212345808,0.7041247111146184,0.7043064135834016,-0.0634058449660566,-0.179931715130806,-0.9836791157722473,-0.0001356240973109379,-30.31583976745605,-24.87605285644531,4.76657247543335,2,0.0.0.0,10.83.46.32,1,0
2015-02-26 19:53:20.762,32,1425009196.587187,37.75997080053501,-122.4613721094944,63.77776,-1,-1,43.10008621384214,65,-9999,1425009200.711022,-29.44556427001953,-24.8419189453125,3.511543273925781,102.1621704101562,88.38419342041016,10,120192.000469875,-0.1555023193359375,-0.99639892578125,0.1481475830078125,120191.9893753333,0.09493956233245278,1.56783435903051,0.2746142526485017,120191.9893753333,-1.53635221333232,-1.47083496825039,1.367319352937765,0.07814209163188934,1.577669978141785,0.3048020899295807,0.03476155176758766,-0.01538108941167593,0.16996169090271,XTrueNorthZVertical,0.02453916278174851,0.6995103664714895,0.7042147085665186,-0.1190156891829456,-0.2010670900344849,-0.9793698787689209,-0.02016615308821201,-31.18778038024902,-24.22673606872559,0.9879575371742249,2,0.0.0.0,10.83.46.32,1,0
2015-02-26 19:53:20.816,33,1425009196.587187,37.75997080053501,-122.4613721094944,63.77776,-1,-1,43.10008621384214,65,-9999,1425009200.761771,-29.70133972167969,-24.45111083984375,1.997161865234375,98.60790252685547,84.82992553710938,10,120192.049521125,-0.206634521484375,-0.989471435546875,0.150238037109375,120192.0411504167,0.1576372986117522,1.551332081335834,0.2100882562808629,120191.9893753333,-1.53635221333232,-1.47083496825039,1.367319352937765,0.07814209163188934,1.577669978141785,0.3048020899295807,0.03476155176758766,-0.01538108941167593,0.16996169090271,XTrueNorthZVertical,0.02453916278174851,0.6995103664714895,0.7042147085665186,-0.1190156891829456,-0.2010670900344849,-0.9793698787689209,-0.02016615308821201,-31.18778038024902,-24.22673606872559,0.9879575371742249,2,0.0.0.0,10.83.46.32,1,0
2015-02-26 19:53:20.860,34,1425009196.587187,37.75997080053501,-122.4613721094944,63.77776,-1,-1,43.10008621384214,65,-9999,1425009200.814784,-29.85480499267578,-23.92431640625,0.2830734252929688,94.60265350341797,80.82467651367188,10,120192.0987172083,-0.2369842529296875,-0.9905853271484375,0.1539306640625,120192.092924125,0.2525731325186789,1.689060120270372,0.1844233728557692,120192.0411504167,-1.503289077346415,-1.424130024885202,1.353945844172392,0.1408413350582123,1.561167120933533,0.240275040268898,0.02009602077305317,-0.0172097459435463,0.1800177991390228,XTrueNorthZVertical,0.001324809312108606,0.6958999617287308,0.7019554817993536,-0.1515915665935923,-0.212845042347908,-0.9765799045562744,-0.03144297748804092,-31.50277137756348,-23.80838012695312,-1.151033401489258,2,0.0.0.0,10.83.46.32,1,0
2015-02-26 19:53:20.919,35,1425009196.587187,37.75997080053501,-122.4613721094944,63.77776,-1,-1,43.10008621384214,65,-9999,1425009200.865721,-29.75248718261719,-23.5164794921875,-1.647361755371094,89.87539672851562,76.09741973876953,10,120192.1476645,-0.2312774658203125,-1.003768920898438,0.1350250244140625,120192.1446990833,0.3286830806798354,1.900781160615563,0.2425487278595116,120192.092924125,-1.45046158083164,-1.394894803452822,1.345031629796768,0.2357780486345291,1.698894739151001,0.2146096378564835,-0.01760903373360634,-0.01164387632161379,0.1978187561035156,XTrueNorthZVertical,-0.02406893928991695,0.6927006016420155,0.6971259530726747,-0.1833084328201714,-0.220397561788559,-0.9746232032775879,-0.03917312622070312,-31.59397888183594,-23.38847732543945,-3.922743797302246,2,0.0.0.0,10.83.46.32,1,0
2015-02-26 19:53:20.958,36,1425009196.587187,37.75997080053501,-122.4613721094944,63.77776,-1,-1,43.10008621384214,65,-9999,1425009200.917991,-29.667236328125,-23.6014404296875,-3.428009033203125,85.19246673583984,71.41448974609375,10,120192.196744875,-0.154571533203125,-0.994384765625,0.06494140625,120192.1964742917,0.4448757337755566,1.996458152253858,0.4160669886836244,120192.1446990833,-1.380449349121561,-1.372249878351878,1.336020000732715,0.3118887543678284,1.910615563392639,0.272734522819519,-0.01127868518233299,-0.02583142928779125,0.1889352649450302,XTrueNorthZVertical,-0.05287474870134729,0.6886669766883798,0.6893460178926395,-0.2185043183290462,-0.2280554175376892,-0.9725664258003235,-0.04588411375880241,-31.43253707885742,-23.13056564331055,-6.128695011138916,2,0.0.0.0,10.83.46.32,1,0
2015-02-26 19:53:21.018,37,1425009196.587187,37.75997080053501,-122.4613721094944,63.77776,-1,-1,43.10008621384214,65,-9999,1425009200.969936,-29.56491851806641,-22.81976318359375,-5.225311279296875,80.30792999267578,66.52995300292969,10,120192.2457895833,-0.152801513671875,-0.9781494140625,0.0241851806640625,120192.1964742917,0.4448757337755566,1.996458152253858,0.4160669886836244,120192.1964742917,-1.289087557539757,-1.361404268079077,1.322010008173754,0.4280820190906525,2.006292343139648,0.446252167224884,0.07140078395605087,-0.02801092341542244,0.1318401843309402,XTrueNorthZVertical,-0.08288738237685643,0.6837679203916346,0.6774247699163912,-0.2582378890363692,-0.240849643945694,-0.9692119956016541,-0.05118222534656525,-31.09524536132812,-22.83223152160645,-8.506660461425781,2,0.0.0.0,10.83.46.32,1,0
2015-02-26 19:53:21.057,38,1425009196.587187,37.75997080053501,-122.4613721094944,63.77776,-1,-1,43.10008621384214,65,-9999,1425009201.021133,-29.1727294921875,-22.59883117675781,-7.638351440429688,73.86327362060547,60.08529663085938,10,120192.2949805833,-0.1266937255859375,-0.97479248046875,-0.026275634765625,120192.3000229583,0.6463372123373258,1.817049245414599,0.6991266577809854,120192.2482476667,-1.173776761108318,-1.375993690799985,1.30095564198277,0.5210695862770081,1.879413485527039,0.6058573722839355,0.1087343394756317,-0.01433603558689356,0.07578744739294052,XTrueNorthZVertical,-0.1096983749575105,0.6798272819572995,0.6606263903010052,-0.2989547106508253,-0.2615358531475067,-0.9638133645057678,-0.05160226672887802,-30.52804565429688,-22.24607276916504,-11.56455516815186,2,0.0.0.0,10.83.46.32,1,0
2015-02-26 19:53:21.119,39,1425009196.587187,37.75997080053501,-122.4613721094944,63.77776,-1,-1,43.10008621384214,65,-9999,1425009201.073654,-28.91695404052734,-22.1400146484375,-9.485572814941406,66.43470001220703,52.65672302246094,10,120192.3439239583,-0.1335601806640625,-1.0584716796875,-0.0386505126953125,120192.3000229583,0.6463372123373258,1.817049245414599,0.6991266577809854,120192.3000229583,-1.051424304455592,-1.400743080016218,1.272887861805966,0.6295445561408997,1.826882839202881,0.7293094992637634,0.1625939309597015,-0.01883999072015285,0.02339842356741428,XTrueNorthZVertical,-0.1329630535262805,0.6763754854793522,0.6399049337132515,-0.3396449884706095,-0.289287656545639,-0.9559524655342102,-0.04967405647039413,-30.09365463256836,-21.6881160736084,-13.58623695373535,2,0.0.0.0,10.83.46.32,1,0
2015-02-26 19:53:21.155,40,1425009196.587187,37.75997080053501,-122.4613721094944,63.77776,-1,-1,43.10008621384214,65,-9999,1425009201.125023,-28.23487854003906,-21.49429321289062,-10.58392333984375,62.84186172485352,49.06388854980469,10,120192.393000625,-0.1768798828125,-1.131149291992188,-0.10064697265625,120192.3517979167,0.7055294296737539,1.573597705945551,0.6586844260992601,120192.3517979167,-0.9247798210500169,-1.435571367761813,1.241873153432349,0.6887369751930237,1.583431124687195,0.6888670325279236,0.1865150928497314,-0.1120809465646744,0.004897413775324821,XTrueNorthZVertical,-0.1535935424852892,0.6742663126624656,0.6157735557174481,-0.3776200534117535,-0.3200752735137939,-0.9463907480239868,-0.04354792833328247,-29.61712265014648,-21.12507629394531,-15.39953136444092,2,0.0.0.0,10.83.46.32,1,0
2015-02-26 19:53:21.221,41,1425009196.587187,37.75997080053501,-122.4613721094944,63.77776,-1,-1,43.10008621384214,65,-9999,1425009201.181427,-27.84268951416016,-21.17141723632812,-11.19965362548828,54.58750152587891,40.80952835083008,10,120192.44213275,-0.1444244384765625,-1.002914428710938,-0.1031646728515625,120192.4035715833,0.8103120353951395,1.282543227255772,0.3808357643068572,120192.4035715833,-0.8075795253953451,-1.476120616679842,1.219883581384221,0.7935197353363037,1.292376518249512,0.4110180139541626,0.1647406667470932,-0.1668213903903961,-0.07761076092720032,XTrueNorthZVertical,-0.1729805974889531,0.6736685997905182,0.5926781896083458,-0.4061784182541505,-0.3422156274318695,-0.939059317111969,-0.03249666094779968,-28.91454315185547,-20.69988250732422,-17.20617294311523,2,0.0.0.0,10.83.46.32,1,0
2015-02-26 19:53:21.253,42,1425009196.587187,37.75997080053501,-122.4613721094944,63.77776,-1,-1,43.10008621384214,65,-9999,1425009201.231686,-27.3140869140625,-20.98448181152344,-11.81539154052734,48.69961547851562,34.9216423034668,10,120192.4912255833,-0.1899261474609375,-0.977081298828125,-0.076263427734375,120192.4553465833,0.7365416742516177,1.103755635898829,0.4637671332841427,120192.4553465833,-0.6915416470571361,-1.524028611530197,1.201058578696601,0.7198231220245361,1.113296151161194,0.4939615428447723,0.2218461930751801,-0.05724765360355377,-0.07981587201356888,XTrueNorthZVertical,-0.1915632871214925,0.6744303820546174,0.5693224330134846,-0.4293240587256908,-0.3609758317470551,-0.9324221611022949,-0.01689433306455612,-27.50166320800781,-21.03547668457031,-11.83204364776611,2,0.0.0.0,10.83.46.32,1,0
2015-02-26 19:53:21.319,43,1425009196.587187,37.75997080053501,-122.4613721094944,63.77776,-1,-1,43.10008621384214,65,-9999,1425009201.305478,-26.63201141357422,-20.95050048828125,-12.41448974609375,45.18788909912109,31.40991592407227,10,120192.5401645833,-0.293975830078125,-1.02545166015625,-0.017791748046875,120192.507121875,0.4853517876031259,0.7995651151322338,0.3703706064872818,120192.507121875,-0.6134607068511866,-1.549064896156797,1.178299916219777,0.4686297178268433,0.8091065883636475,0.4005629420280457,0.1644341051578522,-0.06356123834848404,-0.05914757028222084,XTrueNorthZVertical,-0.2030436707694421,0.6742532906025817,0.5499065666615212,-0.4491754102339324,-0.3824059069156647,-0.9239570498466492,-0.00831153616309166,-27.36426544189453,-20.81057357788086,-12.52785205841064,2,0.0.0.0,10.83.46.32,1,0
2015-02-26 19:53:21.351,44,1425009196.587187,37.75997080053501,-122.4613721094944,63.77776,-1,-1,43.10008621384214,65,-9999,1425009201.305478,-26.63201141357422,-20.95050048828125,-12.41448974609375,45.18788909912109,31.40991592407227,10,120192.5893472083,-0.284759521484375,-1.0093994140625,-0.0486907958984375,120192.5588952917,0.2967179570639414,0.6819937435401786,0.00793755162898117,120192.5588952917,-0.5669468047722989,-1.556542507897144,1.168742275750763,0.2799952328205109,0.6915352940559387,0.03812891244888306,0.07979204505681992,-0.1165450364351273,-0.01303825713694096,XTrueNorthZVertical,-0.2134101634035784,0.6720620280185494,0.5379708227406363,-0.4619265524687204,-0.391269713640213,-0.9202591776847839,-0.005577465519309044,-27.17578887939453,-20.59783172607422,-13.26785373687744,2,0.0.0.0,10.83.46.32,1,0
2015-02-26 19:53:21.419,45,1425009196.587187,37.75997080053501,-122.4613721094944,63.77776,-1,-1,43.10008621384214,65,-9999,1425009201.411202,-24.92683410644531,-20.74656677246094,-13.01358032226562,41.50002288818359,27.72204780578613,10,120192.6382745417,-0.181549072265625,-0.9553070068359375,-0.0805511474609375,120192.6106705417,0.1149359073773127,0.8763227440704976,-0.07615016189361673,120192.6106705417,-0.5459793288461617,-1.535818735739352,1.171953597599997,0.09821229428052902,0.8858644962310791,-0.04595974087715149,0.1611706912517548,-0.06179584562778473,-0.04821724072098732,XTrueNorthZVertical,-0.2270493147966672,0.6645736838431643,0.5315091671148423,-0.4735910113279164,-0.3881146609783173,-0.9215110540390015,-0.01358085498213768,-26.71348571777344,-20.75413703918457,-13.94581508636475,2,0.0.0.0,10.83.46.32,1,0
2015-02-26 19:53:21.450,46,1425009196.587187,37.75997080053501,-122.4613721094944,63.77776,-1,-1,43.10008621384214,65,-9999,1425009201.411202,-24.92683410644531,-20.74656677246094,-13.01358032226562,41.50002288818359,27.72204780578613,10,120192.6874636667,-0.1640625,-1.021835327148438,-0.1019134521484375,120192.6624455833,-0.03151717992054275,0.7385963030326138,0.05602625143254197,120192.6624455833,-0.5496979536131256,-1.489353951095996,1.17737693358613,-0.0482824370265007,0.7481496930122375,0.08619511872529984,0.2126140892505646,-0.05886400863528252,-0.05963397398591042,XTrueNorthZVertical,-0.2399937571207956,0.6533068401096481,0.5281719426492824,-0.4864438112992048,-0.3820782005786896,-0.9236036539077759,-0.03118633851408958,-26.0867805480957,-20.87542724609375,-14.91732406616211,2,0.0.0.0,10.83.46.32,1,0
2015-02-26 19:53:21.519,47,1425009196.587187,37.75997080053501,-122.4613721094944,63.77776,-1,-1,43.10008621384214,65,-9999,1425009201.513717,-23.68204498291016,-20.35574340820312,-14.82753753662109,38.90829849243164,25.13032531738281,10,120192.736401375,-0.1514892578125,-0.9798736572265625,-0.127685546875,120192.7142192917,-0.0753022114025355,0.4509125873345482,-0.1225602712621006,120192.7142192917,-0.5632295512505431,-1.446925316279297,1.181296650389031,-0.09208957105875015,0.4604722261428833,-0.09240326285362244,0.2197573930025101,-0.07708284258842468,-0.06262604147195816,XTrueNorthZVertical,-0.2481619606135739,0.644171747368852,0.5271431915185324,-0.495558745433944,-0.3768161237239838,-0.9250991344451904,-0.04691680148243904,-25.2565803527832,-20.97945022583008,-16.14924240112305,2,0.0.0.0,10.83.46.32,1,0
2015-02-26 19:53:21.547,48,1425009196.587187,37.75997080053501,-122.4613721094944,63.77776,-1,-1,43.10008621384214,65,-9999,1425009201.513717,-23.68204498291016,-20.35574340820312,-14.82753753662109,38.90829849243164,25.13032531738281,10,120192.7855845,-0.087982177734375,-0.995269775390625,-0.196563720703125,120192.7659942917,-0.1850753146906206,0.1155276617715283,-0.2362175950000663,120192.7659942917,-0.5939646100621221,-1.401997380718421,1.196494430878071,-0.2019096165895462,0.125100776553154,-0.2060825079679489,0.2562240958213806,-0.06113449111580849,-0.1130296438932419,XTrueNorthZVertical,-0.255587542605613,0.6355808072241383,0.5321409383997908,-0.4975319895005232,-0.3604263663291931,-0.9307630658149719,-0.06142409145832062,-24.6375846862793,-21.21240615844727,-16.78849029541016,2,0.0.0.0,10.83.46.32,1,0
2015-02-26 19:53:21.620,49,1425009196.587187,37.75997080053501,-122.4613721094944,63.77776,-1,-1,43.10008621384214,65,-9999,1425009201.567257,-23.13638305664062,-20.185791015625,-15.29350280761719,42.11294937133789,28.33497619628906,10,120192.834517625,-0.1675567626953125,-0.9909515380859375,-0.1719818115234375,120192.8177695833,-0.344933157019281,-0.4558056132053508,-0.2667661832321472,120192.8177695833,-0.6564532453367736,-1.351226627627514,1.21353027883,-0.3618265390396118,-0.4462156295776367,-0.2366522997617722,0.2145327776670456,-0.05868800729513168,-0.0875556617975235,XTrueNorthZVertical,-0.2555840476411204,0.629754889155026,0.5442073627924071,-0.4918576357072006,-0.3413180708885193,-0.9368564486503601,-0.0761711448431015,-24.13849258422852,-21.44413948059082,-17.21371841430664,2,0.0.0.0,10.83.46.32,1,0
2015-02-26 19:53:21.646,50,1425009196.587187,37.75997080053501,-122.4613721094944,63.77776,-1,-1,43.10008621384214,65,-9999,1425009201.61793,-22.86355590820312,-20.21978759765625,-15.79274749755859,43.60979461669922,29.83182144165039,10,120192.883595125,-0.209808349609375,-1.01153564453125,-0.2089080810546875,120192.8695431667,-0.513185815736089,-0.6630054049679137,-0.3309568876185451,120192.8695431667,-0.7285758787249975,-1.313325851271669,1.221035395928719,-0.5300790071487427,-0.6534155607223511,-0.3008432686328888,0.0968349352478981,-0.06448210775852203,-0.1098868697881699,XTrueNorthZVertical,-0.2460579549524348,0.6291479489890391,0.5582268585833797,-0.4816753354572598,-0.331377774477005,-0.9394546747207642,-0.08725668489933014,-24.32236289978027,-21.40139198303223,-17.00685882568359,2,0.0.0.0,10.83.46.32,1,0
2015-02-26 19:53:21.690,51,1425009196.587187,37.75997080053501,-122.4613721094944,63.77776,-1,-1,43.10008621384214,65,-9999,1425009201.669453,-23.28984832763672,-20.440673828125,-16.00909423828125,46.40314865112305,32.62517547607422,10,120192.9326413333,-0.17388916015625,-1.008636474609375,-0.2055206298828125,120192.921318375,-0.6482775915075575,-0.8589586674470719,-0.2792857035166097,120192.8695431667,-0.7285758787249975,-1.313325851271669,1.221035395928719,-0.5300790071487427,-0.6534155607223511,-0.3008432686328888,0.0968349352478981,-0.06448210775852203,-0.1098868697881699,XTrueNorthZVertical,-0.2460579549524348,0.6291479489890391,0.5582268585833797,-0.4816753354572598,-0.331377774477005,-0.9394546747207642,-0.08725668489933014,-24.32236289978027,-21.40139198303223,-17.00685882568359,2,0.0.0.0,10.83.46.32,1,0
2015-02-26 19:53:21.744,52,1425009196.587187,37.75997080053501,-122.4613721094944,63.77776,-1,-1,43.10008621384214,65,-9999,1425009201.721298,-23.98896789550781,-19.91389465332031,-16.25871276855469,49.62065505981445,35.84268188476562,10,120192.9817228333,-0.2247772216796875,-1.002243041992188,-0.1773529052734375,120192.9730934167,-0.7105473577996813,-1.117889830752206,-0.2701907420778801,120192.9730934167,-0.938321704229728,-1.202989532220296,1.225587263474863,-0.727441132068634,-1.108299970626831,-0.2400782406330109,0.09934568405151367,-0.05971243605017662,-0.06295529007911682,XTrueNorthZVertical,-0.2136708465553449,0.6273011562303759,0.5952523775839768,-0.4544366281993567,-0.3157610893249512,-0.941004753112793,-0.1216760575771332,-24.96844482421875,-21.06996917724609,-16.47614479064941,2,0.0.0.0,10.83.46.32,1,0
2015-02-26 19:53:21.789,53,1425009196.587187,37.75997080053501,-122.4613721094944,63.77776,-1,-1,43.10008621384214,65,-9999,1425009201.772857,-24.63694000244141,-19.7099609375,-16.19214630126953,52.18551635742188,38.40754318237305,10,120193.0307657917,-0.230987548828125,-0.9675750732421875,-0.178985595703125,120192.9730934167,-0.7105473577996813,-1.117889830752206,-0.2701907420778801,120192.9730934167,-0.938321704229728,-1.202989532220296,1.225587263474863,-0.727441132068634,-1.108299970626831,-0.2400782406330109,0.09934568405151367,-0.05971243605017662,-0.06295529007911682,XTrueNorthZVertical,-0.2136708465553449,0.6273011562303759,0.5952523775839768,-0.4544366281993567,-0.3157610893249512,-0.941004753112793,-0.1216760575771332,-24.96844482421875,-21.06996917724609,-16.47614479064941,2,0.0.0.0,10.83.46.32,1,0
2015-02-26 19:53:21.842,54,1425009196.587187,37.75997080053501,-122.4613721094944,63.77776,-1,-1,43.10008621384214,65,-9999,1425009201.824045,-25.55773162841797,-19.4720458984375,-15.99243927001953,55.07175064086914,41.29377746582031,10,120193.079969125,-0.2047271728515625,-0.9013671875,-0.1953887939453125,120193.0766423333,-0.583697266653681,-1.174759238985867,-0.2677595423187468,120193.0248669583,-1.044645089105608,-1.157921068027562,1.222494583547774,-0.661183774471283,-1.094832181930542,-0.2075109779834747,0.07278510928153992,-0.03816521167755127,-0.04635821655392647,XTrueNorthZVertical,-0.1927675024864247,0.6279871664489772,0.6141158133776458,-0.4374180950352479,-0.3126227557659149,-0.9399536848068237,-0.1369456201791763,-25.73283195495605,-20.73484802246094,-15.70724487304688,2,0.0.0.0,10.83.46.32,1,0
2015-02-26 19:53:21.889,55,1425009196.587187,37.75997080053501,-122.4613721094944,63.77776,-1,-1,43.10008621384214,65,-9999,1425009201.880692,-26.32506561279297,-19.11521911621094,-15.24356079101562,59.04435348510742,45.26638031005859,10,120193.128939875,-0.207855224609375,-0.888946533203125,-0.183074951171875,120193.1284175417,-0.5309512307357896,-1.363226621956922,-0.2557572079179777,120193.0766423333,-1.142884463828161,-1.122453927596075,1.219416559250484,-0.6005915999412537,-1.165169239044189,-0.2376482039690018,0.1052656173706055,0.02585853822529316,-0.04344378784298897,XTrueNorthZVertical,-0.1717811223264867,0.6291995187080968,0.6317245541810302,-0.4189550246252602,-0.310175895690918,-0.9388986825942993,-0.1491984277963638,-26.30062866210938,-20.53503036499023,-15.01397705078125,2,0.0.0.0,10.83.46.32,1,0
2015-02-26 19:53:21.939,56,1425009196.587187,37.75997080053501,-122.4613721094944,63.77776,-1,-1,43.10008621384214,65,-9999,1425009201.931524,-27.27997589111328,-18.97927856445312,-14.51133728027344,62.178466796875,48.40049362182617,10,120193.1780065,-0.207244873046875,-0.8653717041015625,-0.1807861328125,120193.1801910833,-0.4365221963843051,-1.549300089424104,-0.3429698746636745,120193.1284175417,-1.231675154180286,-1.102495280527148,1.217318833964224,-0.5478456020355225,-1.353636622428894,-0.2256463170051575,0.09784902632236481,0.05646074190735817,-0.03265616670250893,XTrueNorthZVertical,-0.1493840459907351,0.6321080484912056,0.648156987206629,-0.3975127106339178,-0.3088933527469635,-0.9381746053695679,-0.1562476456165314,-26.86239242553711,-20.42762565612793,-14.14051532745361,2,0.0.0.0,10.83.46.32,1,0
2015-02-26 19:53:21.990,57,1425009196.587187,37.75997080053501,-122.4613721094944,63.77776,-1,-1,43.10008621384214,65,-9999,1425009201.931524,-27.27997589111328,-18.97927856445312,-14.51133728027344,62.178466796875,48.40049362182617,10,120193.227058,-0.238067626953125,-0.896240234375,-0.1707305908203125,120193.1801910833,-0.4365221963843051,-1.549300089424104,-0.3429698746636745,120193.1801910833,-1.314143640280896,-1.097625422627417,1.218075297427187,-0.4534166157245636,-1.53971004486084,-0.3128595948219299,0.1002520993351936,0.07306449860334396,-0.02335954271256924,XTrueNorthZVertical,-0.1250948792756143,0.6368971469488928,0.6637060186937989,-0.3717628672705598,-0.307496964931488,-0.9384362101554871,-0.1574265956878662,-27.66701889038086,-20.40043258666992,-12.53748416900635,2,0.0.0.0,10.83.46.32,1,0
2015-02-26 19:53:22.037,58,1425009196.587187,37.75997080053501,-122.4613721094944,63.77776,-1,-1,43.10008621384214,65,-9999,1425009202.006374,-28.76347351074219,-19.50608825683594,-12.36457061767578,68.89809417724609,55.1201171875,10,120193.2761385,-0.2877197265625,-0.960601806640625,-0.1529541015625,120193.2837415417,-0.1769042038340395,-1.827749826674538,-0.3474152231552348,120193.231966125,-1.384413998126979,-1.11303917907092,1.223762177410532,-0.317387580871582,-1.692256808280945,-0.3190388381481171,0.06702693551778793,0.04414533078670502,-0.0204231720417738,XTrueNorthZVertical,-0.09950169198934598,0.6441627927809505,0.6771907610896118,-0.3414182129397861,-0.3050945699214935,-0.9403855800628662,-0.1503074169158936,-28.20986938476562,-20.56912994384766,-10.95190525054932,2,0.0.0.0,10.83.46.32,1,0
2015-02-26 19:53:22.090,59,1425009196.587187,37.75997080053501,-122.4613721094944,63.77776,-1,-1,43.10008621384214,65,-9999,1425009202.058398,-29.83773803710938,-19.72700500488281,-10.61719512939453,73.23618316650391,59.45820999145508,10,120193.3252974167,-0.243408203125,-1.017257690429688,-0.0848846435546875,120193.2837415417,-0.1769042038340395,-1.827749826674538,-0.3474152231552348,120193.2837415417,-1.436255312014306,-1.15280398267275,1.233012590243256,-0.1937987208366394,-1.818159818649292,-0.3173060417175293,0.01514581870287657,-0.01711036264896393,-0.01843132264912128,XTrueNorthZVertical,-0.07246433200909118,0.6538253063461078,0.6874029944573974,-0.3077962409177847,-0.3028655350208282,-0.9434914588928223,-0.1345227807760239,-28.68362808227539,-20.84094619750977,-9.04072380065918,2,0.0.0.0,10.83.46.32,1,0
2015-02-26 19:53:22.136,60,1425009196.587187,37.75997080053501,-122.4613721094944,63.77776,-1,-1,43.10008621384214,65,-9999,1425009202.111549,-31.15073394775391,-19.81199645996094,-8.503707885742188,78.11910247802734,64.34112548828125,10,120193.374275625,-0.1844940185546875,-1.010330200195312,-0.045928955078125,120193.3355149583,-0.1399344678976685,-1.839169461428798,-0.256675465861837,120193.3355149583,-1.479241865284324,-1.203304391431055,1.241950298274148,-0.1568286716938019,-1.829579591751099,-0.2265668511390686,0.07090412825345993,-0.06418921053409576,0.03311232104897499,XTrueNorthZVertical,-0.04406480998032102,0.6633581246121002,0.695194309675854,-0.2733480860936273,-0.301388144493103,-0.9464156627655029,-0.1160285845398903,-29.13237762451172,-21.26789093017578,-6.149106979370117,2,0.0.0.0,10.83.46.32,1,0
2015-02-26 19:53:22.176,61,1425009196.587187,37.75997080053501,-122.4613721094944,63.77776,-1,-1,43.10008621384214,65,-9999,1425009202.162446,-32.071533203125,-20.3897705078125,-6.207160949707031,82.58615875244141,68.80818176269531,10,120193.4234354583,-0.187103271484375,-0.95330810546875,0.08306884765625,120193.387290125,-0.0902886178047384,-1.905500015751074,-0.0703854833980312,120193.387290125,-1.503046948122472,-1.273421251383669,1.246162515820585,-0.1071823462843895,-1.895910263061523,-0.04027782008051872,0.1293182820081711,-0.06134190782904625,0.07247863709926605,XTrueNorthZVertical,-0.01316797813784136,0.6731247048430922,0.699306897307242,-0.2402074370297498,-0.3049622178077698,-0.9477676153182983,-0.09345947206020355,-29.3598575592041,-21.49051475524902,-3.871263980865479,2,0.0.0.0,10.83.46.32,1,0
2015-02-26 19:53:22.234,62,1425009196.587187,37.75997080053501,-122.4613721094944,63.77776,-1,-1,43.10008621384214,65,-9999,1425009202.21951,-33.04347991943359,-20.27082824707031,-3.727554321289062,86.60495758056641,72.82698059082031,10,120193.4724157917,-0.1745147705078125,-1.023208618164062,0.170257568359375,120193.4390653333,-0.08603075585391971,-1.78003609995246,0.1197064278379717,120193.4390653333,-1.518387371258146,-1.352577175264034,1.242514889076018,-0.1028409600257874,-1.770681858062744,0.1498486399650574,0.1234557926654816,-0.01643011905252934,0.1729956269264221,XTrueNorthZVertical,0.02104002831925008,0.6816576100748936,0.7007941363861712,-0.2092553740917815,-0.3147704899311066,-0.9465978145599365,-0.06980043649673462,-29.55455780029297,-21.52275085449219,-1.459247350692749,2,0.0.0.0,10.83.46.32,1,0
2015-02-26 19:53:22.273,63,1425009196.587187,37.75997080053501,-122.4613721094944,63.77776,-1,-1,43.10008621384214,65,-9999,1425009202.21951,-33.04347991943359,-20.27082824707031,-3.727554321289062,86.60495758056641,72.82698059082031,10,120193.5215658333,-0.23883056640625,-1.060089111328125,0.15789794921875,120193.490839125,-0.1620469607447055,-1.586545196217189,0.2654130310822779,120193.490839125,-1.532762817456786,-1.421481627235082,1.228469420385443,-0.1788569986820221,-1.577191114425659,0.2955549359321594,0.1628164798021317,-0.09182209521532059,0.2220092713832855,XTrueNorthZVertical,0.05508006235626514,0.6870212741648469,0.7004171491258331,-0.1854286550951676,-0.3319449126720428,-0.9419761300086975,-0.04993591085076332,-29.78740692138672,-21.19750213623047,1.485398650169373,2,0.0.0.0,10.83.46.32,1,0
2015-02-26 19:53:22.332,64,1425009196.587187,37.75997080053501,-122.4613721094944,63.77776,-1,-1,43.10008621384214,65,-9999,1425009202.297326,-34.69749450683594,-19.94798278808594,0.1166610717773438,89.91036987304688,76.13239288330078,10,120193.5705472083,-0.254425048828125,-1.033615112304688,0.1697998046875,120193.54261425,-0.1286956617814251,-1.62558207779168,0.1856066153280914,120193.54261425,-1.553105267449352,-1.481764712019504,1.214717733883237,-0.1455055177211761,-1.616228103637695,0.2157481908798218,0.09902136772871017,-0.1217041835188866,0.1858112514019012,XTrueNorthZVertical,0.08803097888919673,0.6904728531575527,0.6994048486643345,-0.1622672388910339,-0.3472208380699158,-0.9372710585594177,-0.0309955719858408,-29.87762069702148,-20.84091377258301,3.43719482421875,2,0.0.0.0,10.83.46.32,1,0
2015-02-26 19:53:22.371,65,1425009196.587187,37.75997080053501,-122.4613721094944,63.77776,-1,-1,43.10008621384214,65,-9999,1425009202.297326,-34.69749450683594,-19.94798278808594,0.1166610717773438,89.91036987304688,76.13239288330078,10,120193.6195934167,-0.319976806640625,-0.921142578125,0.1592254638671875,120193.5943895833,-0.07463695376223371,-1.431683177777408,0.1549272658864876,120193.5943895833,-1.568507959822357,-1.544675893736707,1.205033953884051,-0.0914466381072998,-1.422329306602478,0.1850685477256775,0.06696625053882599,-0.03451716899871826,0.1652097404003143,XTrueNorthZVertical,0.1187115464113699,0.6937124511308563,0.6967771084519837,-0.138463996678396,-0.3575393855571747,-0.9338513612747192,-0.009341207332909107,-29.75294494628906,-20.5872802734375,5.454930782318115,2,0.0.0.0,10.83.46.32,1,0
2015-02-26 19:53:22.431,66,1425009196.587187,37.75997080053501,-122.4613721094944,63.77776,-1,-1,43.10008621384214,65,-9999,1425009202.421156,-35.99344635009766,-19.2342529296875,5.508552551269531,96.64002990722656,82.86205291748047,10,120193.668675375,-0.3218231201171875,-0.94134521484375,0.161895751953125,120193.6461630833,-0.06616756886356372,-0.9923145948200268,0.3395338642252543,120193.6461630833,-1.57307766137524,-1.599929755621063,1.191590134206339,-0.08296266198158264,-0.9829650521278381,0.3696770071983337,0.0520787350833416,-0.008190265856683254,0.1534929424524307,XTrueNorthZVertical,0.1441630724435707,0.6961383474934973,0.6925599353513787,-0.1223485144289394,-0.3700261116027832,-0.9289587736129761,0.01078318059444427,-35.89118194580078,-19.30224609375,5.109124183654785,2,0.0.0.0,10.83.46.32,1,0
2015-02-26 19:53:22.470,67,1425009196.587187,37.75997080053501,-122.4613721094944,63.77776,-1,-1,43.10008621384214,65,-9999,1425009202.421156,-35.99344635009766,-19.2342529296875,5.508552551269531,96.64002990722656,82.86205291748047,10,120193.7178182917,-0.367706298828125,-0.9473876953125,0.1530609130859375,120193.6979385,-0.03647705113470632,-0.8308242347431479,0.3023771743803598,120193.6979385,-1.58169888677457,-1.63574784558227,1.174020531437292,-0.05326587334275246,-0.8214766979217529,0.3325212001800537,0.04258370772004128,-0.01102258171886206,0.1398801207542419,XTrueNorthZVertical,0.1655982794944986,0.6965045129302324,0.6889730017117252,-0.1130260569640409,-0.385631799697876,-0.9223117828369141,0.025082653388381,-35.94690704345703,-18.73737716674805,6.602079391479492,2,0.0.0.0,10.83.46.32,1,0
2015-02-26 19:53:22.528,68,1425009196.587187,37.75997080053501,-122.4613721094944,63.77776,-1,-1,43.10008621384214,65,-9999,1425009202.524696,-37.18708038330078,-18.0787353515625,8.237785339355469,98.50681304931641,84.72883605957031,10,120193.7667777083,-0.343994140625,-0.9125518798828125,0.1366729736328125,120193.7497135417,0.01525165724677479,-0.6616980591887938,0.2295149511685549,120193.7497135417,-1.586842197891456,-1.667936923130055,1.159368498895305,-0.001534725073724985,-0.6523513197898865,0.2596592903137207,0.04210654273629189,-0.01531876437366009,0.1040655374526978,XTrueNorthZVertical,0.1834719960264862,0.6969445104128066,0.6852345648795775,-0.1051664419766525,-0.3980330526828766,-0.9165507555007935,0.03878724947571754,-35.94160461425781,-18.23411560058594,7.910436153411865,2,0.0.0.0,10.83.46.32,1,0
2015-02-26 19:53:22.567,69,1425009196.587187,37.75997080053501,-122.4613721094944,63.77776,-1,-1,43.10008621384214,65,-9999,1425009202.524696,-37.18708038330078,-18.0787353515625,8.237785339355469,98.50681304931641,84.72883605957031,10,120193.8158217917,-0.333160400390625,-0.97418212890625,0.128936767578125,120193.8014871667,0.06494650950376238,-0.5500658031437243,0.2706434794631936,120193.7497135417,-1.586842197891456,-1.667936923130055,1.159368498895305,-0.001534725073724985,-0.6523513197898865,0.2596592903137207,0.04210654273629189,-0.01531876437366009,0.1040655374526978,XTrueNorthZVertical,0.1834719960264862,0.6969445104128066,0.6852345648795775,-0.1051664419766525,-0.3980330526828766,-0.9165507555007935,0.03878724947571754,-35.94160461425781,-18.23411560058594,7.910436153411865,2,0.0.0.0,10.83.46.32,1,0
2015-02-26 19:53:22.642,70,1425009202.598396,37.75994697631097,-122.4613878382574,64.15193,-1,-1,39.6999396105098,65,-9999,1425009202.581538,-37.45990753173828,-17.26309204101562,9.036590576171875,98.59871673583984,84.82073974609375,10,120193.8649092917,-0.3011322021484375,-0.9452362060546875,0.1066436767578125,120193.8532624167,0.05805158544154723,-0.6254527030689244,0.2909069395653885,120193.8532624167,-1.567642293608351,-1.747114727057752,1.137404519988395,0.04133252799510956,-0.6161258816719055,0.3210359215736389,0.1111182123422623,-0.06648296117782593,0.03325622156262398,XTrueNorthZVertical,0.2111354157473525,0.7016073633548049,0.6743586337284491,-0.09170272822350146,-0.4134405851364136,-0.9075465798377991,0.07366210967302322,-35.75392150878906,-17.29001426696777,10.46754550933838,2,0.0.0.0,10.83.46.32,1,0
2015-02-26 19:53:22.667,71,1425009202.598396,37.75994697631097,-122.4613878382574,64.15193,-1,-1,39.6999396105098,65,-9999,1425009202.638895,-37.51107025146484,-16.70233154296875,9.951873779296875,98.99301910400391,85.21504211425781,10,120193.9140636667,-0.348388671875,-0.88458251953125,0.1119537353515625,120193.9050376667,0.1837384078234008,-0.6931654379969521,0.2899444731474338,120193.8532624167,-1.567642293608351,-1.747114727057752,1.137404519988395,0.04133252799510956,-0.6161258816719055,0.3210359215736389,0.1111182123422623,-0.06648296117782593,0.03325622156262398,XTrueNorthZVertical,0.2111354157473525,0.7016073633548049,0.6743586337284491,-0.09170272822350146,-0.4134405851364136,-0.9075465798377991,0.07366210967302322,-35.75392150878906,-17.29001426696777,10.46754550933838,2,0.0.0.0,10.83.46.32,1,0
2015-02-26 19:53:22.724,72,1425009202.598396,37.75994697631097,-122.4613878382574,64.15193,-1,-1,39.6999396105098,65,-9999,1425009202.706532,-37.40875244140625,-15.88665771484375,11.74917602539062,99.95830535888672,86.18032836914062,10,120193.96303175,-0.3126373291015625,-0.9030914306640625,0.1015472412109375,120193.9568113333,0.08850137039718622,-0.5792130360102056,0.3398366656411963,120193.9050376667,-1.559817661311973,-1.787996671808802,1.120570127500233,0.1670218110084534,-0.6838393807411194,0.3200710713863373,0.07724273204803467,0.01648333482444286,0.01489560678601265,XTrueNorthZVertical,0.2277567337878252,0.7035734607560377,0.6676362254079423,-0.08586698667900071,-0.4249447584152222,-0.9003486633300781,0.09377749264240265,-35.64710998535156,-16.81503486633301,11.54968070983887,2,0.0.0.0,10.83.46.32,1,0
2015-02-26 19:53:22.763,73,1425009202.598396,37.75994697631097,-122.4613878382574,64.15193,-1,-1,39.6999396105098,65,-9999,1425009202.75763,-37.30644226074219,-15.47882080078125,13.31349182128906,101.0750274658203,87.29705047607422,10,120194.0120950417,-0.25897216796875,-0.8495025634765625,0.0597076416015625,120194.0085867083,-0.008343151063000237,-0.8128050204915628,0.2969792131668781,120193.9568113333,-1.552954164545973,-1.824139816004963,1.102484193257247,0.07178709656000137,-0.5698876976966858,0.3699608147144318,0.1120672672986984,-0.02627819031476974,-0.002096838317811489,XTrueNorthZVertical,0.2433616283325462,0.7052252413770014,0.6608695231062635,-0.08175551084546979,-0.4369726777076721,-0.8923314213752747,0.1131350472569466,-35.47846603393555,-16.0177116394043,13.09840869903564,2,0.0.0.0,10.83.46.32,1,0
2015-02-26 19:53:22.824,74,1425009202.598396,37.75994697631097,-122.4613878382574,64.15193,-1,-1,39.6999396105098,65,-9999,1425009202.809438,-37.57926940917969,-14.8670654296875,14.91109466552734,102.220085144043,88.44210815429688,10,120194.061191625,-0.369720458984375,-0.8622894287109375,0.1398162841796875,120194.0603618333,0.08871389065217454,-1.221544587751943,0.2667573948005499,120194.0085867083,-1.564858233952444,-1.846672574312002,1.087316682044801,-0.02505381405353546,-0.8034806847572327,0.3270963728427887,0.191578134894371,0.02629764564335346,-0.07216544449329376,XTrueNorthZVertical,0.2599795904298111,0.7040757361491091,0.6565290712151393,-0.07521676887267827,-0.4472849071025848,-0.8853827118873596,0.1266240626573563,-35.34964752197266,-15.47814750671387,14.06009864807129,2,0.0.0.0,10.83.46.32,1,0
2015-02-26 19:53:22.863,75,1425009202.598396,37.75994697631097,-122.4613878382574,64.15193,-1,-1,39.6999396105098,65,-9999,1425009202.809438,-37.57926940917969,-14.8670654296875,14.91109466552734,102.220085144043,88.44210815429688,10,120194.1102416667,-0.3241729736328125,-0.7918548583984375,0.072723388671875,120194.0603618333,0.08871389065217454,-1.221544587751943,0.2667573948005499,120194.0603618333,-1.568636013830853,-1.896011525151198,1.070675006570919,0.07200352847576141,-1.212220430374146,0.2968737483024597,0.09511247277259827,-0.001870139851234853,-0.02102969214320183,XTrueNorthZVertical,0.2828276849344274,0.7047104306606933,0.6476808870157292,-0.06245951882132865,-0.4543959200382233,-0.8775243759155273,0.1532165855169296,-35.16220092773438,-15.1367015838623,14.8780632019043,2,0.0.0.0,10.83.46.32,1,0
2015-02-26 19:53:22.922,76,1425009202.598396,37.75994697631097,-122.4613878382574,64.15193,-1,-1,39.6999396105098,65,-9999,1425009202.8632,-37.59632110595703,-14.06838989257812,16.55861663818359,103.4941177368164,89.71614074707031,10,120194.1593145417,-0.2126617431640625,-0.6082305908203125,0.1201171875,120194.16391075,0.1843251022115453,-1.18361158644929,0.3463598124152364,120194.112135625,-1.577786652004232,-1.946127521366082,1.056615156504916,-0.04682160913944244,-1.057909727096558,0.3360030055046082,0.1334115415811539,0.07884087413549423,-0.1075690910220146,XTrueNorthZVertical,0.3066876907947368,0.7043357872604717,0.6384838639240146,-0.04682016608305507,-0.4575845301151276,-0.8706957101821899,0.1802924871444702,-34.087646484375,-14.27169418334961,17.92227363586426,2,0.0.0.0,10.83.46.32,1,0
2015-02-26 19:53:22.965,77,1425009202.598396,37.75994697631097,-122.4613878382574,64.15193,-1,-1,39.6999396105098,65,-9999,1425009202.939464,-36.67552185058594,-13.25271606445312,19.15470886230469,106.2677230834961,92.48974609375,10,120194.2084727917,-0.2913665771484375,-0.602294921875,0.1641998291015625,120194.16391075,0.1843251022115453,-1.18361158644929,0.3463598124152364,120194.16391075,-1.587506953292589,-1.993929041685913,1.039840234361466,0.167615219950676,-1.174287676811218,0.3764753043651581,0.2490391135215759,0.2540927529335022,-0.08780299872159958,XTrueNorthZVertical,0.3305601184923727,0.703342095014056,0.6284589018922556,-0.03285311888006559,-0.4617008566856384,-0.8623233437538147,0.2079201936721802,-33.38627243041992,-13.78296661376953,19.55105209350586,2,0.0.0.0,10.83.46.32,1,0
2015-02-26 19:53:23.023,78,1425009202.598396,37.75994697631097,-122.4613878382574,64.15193,-1,-1,39.6999396105098,65,-9999,1425009202.990306,-36.43679046630859,-12.70892333984375,21.05185699462891,107.8312530517578,94.05327606201172,10,120194.257451625,-0.3307342529296875,-0.606292724609375,0.1479034423828125,120194.215686125,0.06355980152415812,-0.7046452601918476,0.4714847078070833,120194.215686125,-1.596385264308618,-2.03334261028663,1.017221112976108,0.04685007035732269,-0.6953214406967163,0.501599907875061,0.1791209578514099,0.248355433344841,-0.07039659470319748,XTrueNorthZVertical,0.3530053132125864,0.7019155648318728,0.6181528732571288,-0.02426576433193539,-0.4704875349998474,-0.8506503701210022,0.2345964163541794,-32.59134674072266,-13.07207202911377,21.30216026306152,2,0.0.0.0,10.83.46.32,1,0
2015-02-26 19:53:23.058,79,1425009202.598396,37.75994697631097,-122.4613878382574,64.15193,-1,-1,39.6999396105098,65,-9999,1425009203.042613,-36.30037689208984,-11.961181640625,22.18350219726562,107.8960952758789,94.11811828613281,10,120194.3064997083,-0.349578857421875,-0.708587646484375,0.1435699462890625,120194.2674596667,0.07351789347218241,-0.1182030734026219,0.5484031916751879,120194.2674596667,-1.613613304495138,-2.033889175290026,0.9914948857087785,0.05680834874510765,-0.1088793128728867,0.5785180926322937,0.159549817442894,0.2386549711227417,-0.1048259884119034,XTrueNorthZVertical,0.3671123793570709,0.6982147672558332,0.6139582827038622,-0.02792633438560008,-0.4897805154323578,-0.8368452787399292,0.2445507198572159,-32.24514389038086,-11.99415969848633,22.43318557739258,2,0.0.0.0,10.83.46.32,1,0
2015-02-26 19:53:23.120,80,1425009202.598396,37.75994697631097,-122.4613878382574,64.15193,-1,-1,39.6999396105098,65,-9999,1425009203.097215,-36.79486846923828,-10.95857238769531,23.39834594726562,107.0715789794922,93.29360198974609,10,120194.355595875,-0.4015350341796875,-0.7468109130859375,0.2386322021484375,120194.3192350417,0.03185753190785487,-0.3263030136136316,0.6283472928577315,120194.3192350417,-1.632992249639411,-2.026590014850878,0.9632262644629638,0.01514815166592598,-0.3169793486595154,0.65846186876297,0.1442627757787704,0.07540164142847061,-0.09462258964776993,XTrueNorthZVertical,0.3802410730627272,0.6935841793905325,0.6108668460363722,-0.03463267551117138,-0.5125946998596191,-0.8210376501083374,0.2512845695018768,-32.42179107666016,-11.08226490020752,22.64658737182617,2,0.0.0.0,10.83.46.32,1,0
2015-02-26 19:53:23.157,81,1425009202.598396,37.75994697631097,-122.4613878382574,64.15193,-1,-1,39.6999396105098,65,-9999,1425009203.097215,-36.79486846923828,-10.95857238769531,23.39834594726562,107.0715789794922,93.29360198974609,10,120194.4047557917,-0.49932861328125,-0.6469268798828125,0.3104248046875,120194.3710102083,-0.08738204379102592,-0.6988736574774279,0.7297074702622564,120194.3710102083,-1.663111447371201,-2.028851648480029,0.9323124814920266,-0.1040912717580795,-0.6895500421524048,0.7598217725753784,0.1374469846487045,0.09444314986467361,-0.005106484983116388,XTrueNorthZVertical,0.4006535091347266,0.686475828574836,0.6057612003112647,-0.03579223298702029,-0.5345417261123657,-0.803000271320343,0.2635445892810822,-32.36765289306641,-10.10974884033203,23.17294120788574,2,0.0.0.0,10.83.46.32,1,0
2015-02-26 19:53:23.218,82,1425009202.598396,37.75994697631097,-122.4613878382574,64.15193,-1,-1,39.6999396105098,65,-9999,1425009203.172061,-37.27232360839844,-9.497146606445312,24.82951354980469,104.0218658447266,90.24388885498047,10,120194.4537418333,-0.5941925048828125,-0.6407470703125,0.4022216796875,120194.422784,-0.5513023088378481,-1.16639371736971,0.5808788432720502,120194.422784,-1.715643854293428,-2.036579308070716,0.9065867312884837,-0.5680114030838013,-1.157070279121399,0.6109928488731384,-0.007413695566356182,0.1470386683940887,0.05467198416590691,XTrueNorthZVertical,0.4285164259126019,0.6743897504902733,0.6007182443604749,-0.02664097208145239,-0.5507680773735046,-0.7874042391777039,0.2768557369709015,-31.65448379516602,-8.912311553955078,24.60531234741211,2,0.0.0.0,10.83.46.32,1,0
2015-02-26 19:53:23.255,83,1425009202.598396,37.75994697631097,-122.4613878382574,64.15193,-1,-1,39.6999396105098,65,-9999,1425009203.224332,-36.77781677246094,-8.698471069335938,25.61166763305664,104.3999633789062,90.62198638916016,10,120194.502796,-0.6441497802734375,-0.8421478271484375,0.496307373046875,120194.47455925,-0.8011302549048733,-0.9259891005038213,0.1422415643500042,120194.47455925,-1.779080401485317,-2.03820995353058,0.90885319512527,-0.8177685141563416,-0.9168485403060913,0.1724077314138412,-0.03285221382975578,0.07770928740501404,0.1755354851484299,XTrueNorthZVertical,0.4495129795120081,0.6606151682299108,0.6012380932810883,-0.006200748885814692,-0.5487212538719177,-0.7887993454933167,0.2769486308097839,-30.58870124816895,-8.943575859069824,25.90754508972168,2,0.0.0.0,10.83.46.32,1,0
2015-02-26 19:53:23.320,84,1425009202.598396,37.75994697631097,-122.4613878382574,64.15193,-1,-1,39.6999396105098,65,-9999,1425009203.275969,-35.34546661376953,-8.73248291015625,26.74329376220703,108.3356704711914,94.55769348144531,10,120194.5518957083,-0.5532684326171875,-0.78497314453125,0.2987213134765625,120194.5263345417,-1.11237761992796,-1.081680427307053,-0.2728299347181486,120194.5263345417,-1.856280505075308,-2.028262654067997,0.9335961379343207,-1.129015803337097,-1.072539925575256,-0.2426640540361404,-0.141933336853981,-0.05458801612257957,0.1567204147577286,XTrueNorthZVertical,0.4644297958124779,0.6447418671809239,0.6066960725807063,0.02308199135696874,-0.5337716341018677,-0.8037646412849426,0.2627742290496826,-29.89062690734863,-9.432811737060547,26.54108810424805,2,0.0.0.0,10.83.46.32,1,0
2015-02-26 19:53:23.353,85,1425009202.598396,37.75994697631097,-122.4613878382574,64.15193,-1,-1,39.6999396105098,65,-9999,1425009203.331611,-33.35041046142578,-10.48277282714844,27.55873870849609,113.4878768920898,99.70989990234375,10,120194.6009584583,-0.3995819091796875,-0.8498077392578125,0.2926483154296875,120194.5781080417,-0.6180421910196698,-0.7870288169329038,-0.3239679539698502,120194.5781080417,-1.906721116830525,-2.033549035333901,0.9713407469830908,-0.6346801519393921,-0.7778884172439575,-0.2938023805618286,0.1343870908021927,0.0880025178194046,-0.006028775591403246,XTrueNorthZVertical,0.4710332078536402,0.6356565740445944,0.6091951262932249,0.05431158640475423,-0.504855215549469,-0.8256428837776184,0.2518631219863892,-27.60134696960449,-12.0365743637085,27.93104934692383,2,0.0.0.0,10.83.46.32,1,0
2015-02-26 19:53:23.424,86,1425009202.598396,37.75994697631097,-122.4613878382574,64.15193,-1,-1,39.6999396105098,65,-9999,1425009203.383107,-31.54291534423828,-12.65791320800781,28.09127044677734,118.6425704956055,104.8645935058594,10,120194.650059125,-0.5245208740234375,-0.9555206298828125,0.4075469970703125,120194.6298833333,-0.6027335421255674,-1.293978308344354,-0.4616523170625108,120194.6298833333,-1.938036487457134,-2.062016658196206,0.9966109177181106,-0.6193713545799255,-1.284838080406189,-0.4314870238304138,0.04464731737971306,-0.1068676561117172,0.1525163352489471,XTrueNorthZVertical,0.4820762911046813,0.6290510639733181,0.6042426597122182,0.08238950173970493,-0.4789277017116547,-0.8396350145339966,0.2562055885791779,-26.30377388000488,-13.08218860626221,28.70234680175781,2,0.0.0.0,10.83.46.32,1,0
2015-02-26 19:53:23.451,87,1425009202.598396,37.75994697631097,-122.4613878382574,64.15193,-1,-1,39.6999396105098,65,-9999,1425009203.383107,-31.54291534423828,-12.65791320800781,28.09127044677734,118.6425704956055,104.8645935058594,10,120194.69925475,-0.41253662109375,-0.8983001708984375,0.4072418212890625,120194.68165875,-0.708017887396324,-0.9541128805633852,-0.5177483433156128,120194.68165875,-1.972103487432605,-2.088771262494405,1.032845428773341,-0.7246555089950562,-0.9449726939201355,-0.4875833988189697,-0.03307536989450455,-0.02754636481404305,0.1299930661916733,XTrueNorthZVertical,0.4900017387822105,0.6218865586709498,0.5999760300485142,0.1148223882623029,-0.445165604352951,-0.8587604165077209,0.2536891996860504,-24.42477989196777,-14.35286521911621,29.73688507080078,2,0.0.0.0,10.83.46.32,1,0
2015-02-26 19:53:23.518,88,1425009202.598396,37.75994697631097,-122.4613878382574,64.15193,-1,-1,39.6999396105098,65,-9999,1425009203.508824,-25.98401641845703,-16.19253540039062,28.62379455566406,132.4771575927734,118.6991806030273,10,120194.748242125,-0.4798736572265625,-1.004425048828125,0.3807220458984375,120194.7334322917,-0.6623587894552424,-0.7927969575379065,-0.5524828881490803,120194.7334322917,-2.017437793767964,-2.097177432274498,1.073706747888554,-0.678996205329895,-0.783656895160675,-0.5223182439804077,-0.1188424229621887,-0.1301963627338409,0.1513473391532898,XTrueNorthZVertical,0.4942507156670859,0.6127867863230586,0.5989202414948188,0.1466394975524705,-0.4123160243034363,-0.8789741992950439,0.2395828366279602,-26.52976226806641,-15.8187255859375,28.45736503601074,2,0.0.0.0,10.83.46.32,1,0
2015-02-26 19:53:23.549,89,1425009202.598396,37.75994697631097,-122.4613878382574,64.15193,-1,-1,39.6999396105098,65,-9999,1425009203.508824,-25.98401641845703,-16.19253540039062,28.62379455566406,132.4771575927734,118.6991806030273,10,120194.79726875,-0.41015625,-1.056488037109375,0.3856201171875,120194.7852075833,-0.5131607820218423,-0.6803132888923387,-0.4650731474827176,120194.7334322917,-2.017437793767964,-2.097177432274498,1.073706747888554,-0.678996205329895,-0.783656895160675,-0.5223182439804077,-0.1188424229621887,-0.1301963627338409,0.1513473391532898,XTrueNorthZVertical,0.4942507156670859,0.6127867863230586,0.5989202414948188,0.1466394975524705,-0.4123160243034363,-0.8789741992950439,0.2395828366279602,-26.52976226806641,-15.8187255859375,28.45736503601074,2,0.0.0.0,10.83.46.32,1,0
2015-02-26 19:53:23.620,90,1425009202.598396,37.75994697631097,-122.4613878382574,64.15193,-1,-1,39.6999396105098,65,-9999,1425009203.612233,-21.94274139404297,-19.3702392578125,28.20775604248047,141.6758270263672,127.8978500366211,10,120194.8463545,-0.1650238037109375,-0.9266815185546875,0.33013916015625,120194.8369828333,-0.3302061425072518,-0.4378670927347951,-0.1033354439850366,120194.8369828333,-2.076793048405317,-2.101683061765853,1.132005344716033,-0.3468432724475861,-0.4287271499633789,-0.07317138463258743,0.1254937201738358,-0.05525954067707062,0.1278275847434998,XTrueNorthZVertical,0.4958740692472268,0.6013801839850161,0.5975498471535879,0.1881089452133793,-0.3663689792156219,-0.9052659869194031,0.2150984406471252,-24.14099502563477,-18.37682342529297,29.04112243652344,2,0.0.0.0,10.83.46.32,1,0
2015-02-26 19:53:23.647,91,1425009202.598396,37.75994697631097,-122.4613878382574,64.15193,-1,-1,39.6999396105098,65,-9999,1425009203.612233,-21.94274139404297,-19.3702392578125,28.20775604248047,141.6758270263672,127.8978500366211,10,120194.895401125,-0.3701019287109375,-1.027572631835938,0.2977447509765625,120194.8887567083,-0.508815568387269,-1.323182000225945,0.1970028142647585,120194.8369828333,-2.076793048405317,-2.101683061765853,1.132005344716033,-0.3468432724475861,-0.4287271499633789,-0.07317138463258743,0.1254937201738358,-0.05525954067707062,0.1278275847434998,XTrueNorthZVertical,0.4958740692472268,0.6013801839850161,0.5975498471535879,0.1881089452133793,-0.3663689792156219,-0.9052659869194031,0.2150984406471252,-24.14099502563477,-18.37682342529297,29.04112243652344,2,0.0.0.0,10.83.46.32,1,0
2015-02-26 19:53:23.718,92,1425009202.598396,37.75994697631097,-122.4613878382574,64.15193,-1,-1,39.6999396105098,65,-9999,1425009203.664275,-20.64680480957031,-20.52578735351562,28.20774841308594,145.2032318115234,131.4252624511719,10,120194.9444828333,-0.4851531982421875,-1.12255859375,0.2958984375,120194.9405317917,-0.4056526972408696,-0.5627443141452646,-0.2138062954787225,120194.8887567083,-2.134172551266516,-2.09317650390577,1.137455852409089,-0.5254525542259216,-1.314042210578918,0.2271665632724762,0.09583746641874313,-0.08593162149190903,0.06942151486873627,XTrueNorthZVertical,0.5087332190261186,0.588170965683278,0.5944024638945943,0.2047709726664917,-0.3639038801193237,-0.9075681567192078,0.2095091491937637,-23.08750152587891,-19.12177658081055,29.41440200805664,2,0.0.0.0,10.83.46.32,1,0
2015-02-26 19:53:23.745,93,1425009202.598396,37.75994697631097,-122.4613878382574,64.15193,-1,-1,39.6999396105098,65,-9999,1425009203.716083,-19.53843688964844,-20.98460388183594,28.42408752441406,148.4543609619141,134.6763916015625,10,120194.9935325833,-0.542938232421875,-1.10272216796875,0.3342437744140625,120194.9923072917,-0.09273659547873923,-0.9288163123170495,-0.3017601199557884,120194.9405317917,-2.182674371166711,-2.096576712865825,1.147400948651708,-0.4222895205020905,-0.5536046028137207,-0.1836428046226501,-0.1776857227087021,-0.2021313905715942,0.1124748438596725,XTrueNorthZVertical,0.520816931080942,0.5760661486855982,0.5888543542366095,0.2239376687356981,-0.3553648293018341,-0.9116991758346558,0.20620496571064,-21.64128303527832,-19.62040328979492,30.17576217651367,2,0.0.0.0,10.83.46.32,1,0
2015-02-26 19:53:23.816,94,1425009202.598396,37.75994697631097,-122.4613878382574,64.15193,-1,-1,39.6999396105098,65,-9999,1425009203.767604,-18.80520629882812,-21.85125732421875,28.84012603759766,151.0016937255859,137.2237243652344,10,120195.042618125,-0.6349334716796875,-1.1392822265625,0.4774627685546875,120195.0440808333,0.4326992286394963,0.3012141719323221,-0.3618887047314884,120194.9923072917,-2.203748132773421,-2.11050679718407,1.163746370284501,-0.1093732416629791,-0.919676661491394,-0.2715969383716583,-0.1107660979032516,-0.1725275665521622,0.08428579568862915,XTrueNorthZVertical,0.5259401354693828,0.5701855568962251,0.5835070072193556,0.2404058869485556,-0.339627593755722,-0.918292760848999,0.2034491896629333,-20.72932052612305,-20.32175064086914,30.35133743286133,2,0.0.0.0,10.83.46.32,1,0
2015-02-26 19:53:23.845,95,1425009202.598396,37.75994697631097,-122.4613878382574,64.15193,-1,-1,39.6999396105098,65,-9999,1425009203.81929,-18.07197570800781,-21.86827087402344,28.82348251342773,152.7605895996094,138.9826202392578,10,120195.0917679583,-0.272735595703125,-1.292068481445312,0.0907440185546875,120195.0440808333,0.4326992286394963,0.3012141719323221,-0.3618887047314884,120195.0440808333,-2.154458906807964,-2.167536363687639,1.172557684366765,0.4160627722740173,0.3103537261486053,-0.3317258656024933,-0.3141599595546722,-0.2175367623567581,0.2595415413379669,XTrueNorthZVertical,0.5256163929067609,0.5767911469959504,0.5749620152143612,0.2458822373813206,-0.3207735121250153,-0.9217454791069031,0.2179212421178818,-19.27962112426758,-20.66742134094238,31.06502914428711,2,0.0.0.0,10.83.46.32,1,0
2015-02-26 19:53:23.918,96,1425009202.598396,37.75994697631097,-122.4613878382574,64.15193,-1,-1,39.6999396105098,65,-9999,1425009203.871565,-17.40695953369141,-21.61335754394531,29.30609512329102,153.3477935791016,139.56982421875,10,120195.140746875,-0.170196533203125,-1.186294555664062,0.23370361328125,120195.1476314167,-0.4275982098875585,-0.5452039362576757,0.2298153557395158,120195.09585625,-2.106932057903559,-2.177331857593427,1.161556802910062,0.2579755485057831,0.7059398889541626,0.1894440799951553,0.05419979616999626,-0.3746447861194611,-0.1360754072666168,XTrueNorthZVertical,0.5179867944668247,0.5874516119315234,0.5773386233316591,0.2308038382496381,-0.3269353806972504,-0.9174236655235291,0.2268194258213043,-19.76588439941406,-20.21802520751953,31.05516624450684,2,0.0.0.0,10.83.46.32,1,0
2015-02-26 19:53:23.942,97,1425009202.598396,37.75994697631097,-122.4613878382574,64.15193,-1,-1,39.6999396105098,65,-9999,1425009203.923589,-17.69683837890625,-20.9166259765625,29.62229156494141,152.2369995117188,138.4590301513672,10,120195.1897990417,-0.3898773193359375,-0.990692138671875,0.25567626953125,120195.1476314167,-0.4275982098875585,-0.5452039362576757,0.2298153557395158,120195.1476314167,-2.135917309507515,-2.14946618933465,1.152044993389721,-0.4442343711853027,-0.5360645651817322,0.2599776387214661,0.1702220439910889,-0.2726971805095673,0.01131870970129967,XTrueNorthZVertical,0.5213154520196254,0.5825999068890498,0.5806086212697625,0.2273789573155178,-0.3404185771942139,-0.9135974049568176,0.22238489985466,-20.69313049316406,-19.73855590820312,30.75818252563477,2,0.0.0.0,10.83.46.32,1,0
2015-02-26 19:53:24.017,98,1425009202.598396,37.75994697631097,-122.4613878382574,64.15193,-1,-1,39.6999396105098,65,-9999,1425009203.975138,-17.50926208496094,-21.44343566894531,29.73878479003906,153.2967987060547,139.5188293457031,10,120195.238886875,-0.3347320556640625,-0.8516082763671875,0.192138671875,120195.1994052917,-0.4267678362596718,-0.6850747546052913,0.184416448636935,120195.1994052917,-2.195121860582907,-2.132480024200562,1.155979059798575,-0.4434038102626801,-0.6759354472160339,0.2145784199237823,-0.04877516999840736,-0.07550215721130371,0.04102153331041336,XTrueNorthZVertical,0.5322402983545566,0.5692518178961508,0.5783716553399514,0.2411615107618283,-0.3411021530628204,-0.9151899814605713,0.214654728770256,-19.92212677001953,-20.14661407470703,31.0016918182373,2,0.0.0.0,10.83.46.32,1,0
2015-02-26 19:53:24.040,99,1425009202.598396,37.75994697631097,-122.4613878382574,64.15193,-1,-1,39.6999396105098,65,-9999,1425009204.031154,-17.18527221679688,-22.3780517578125,29.52243804931641,154.6625671386719,140.8845977783203,10,120195.288055125,-0.564697265625,-0.9591827392578125,0.1878662109375,120195.2511804167,-0.2670679193836532,-0.6745720462143459,0.3563370791231092,120195.2511804167,-2.247561974935328,-2.108786903047273,1.152962386927975,-0.2837037146091461,-0.665432870388031,0.3864987194538116,-0.001743436208926141,0.06333831697702408,0.01781131699681282,XTrueNorthZVertical,0.5410839998981014,0.5578455959198787,0.5781812356469991,0.2484811225365009,-0.3484610319137573,-0.9139700531959534,0.2079272121191025,-19.36875343322754,-20.49135971069336,31.12615966796875,2,0.0.0.0,10.83.46.32,1,0
2015-02-26 19:53:24.117,100,1425009202.598396,37.75994697631097,-122.4613878382574,64.15193,-1,-1,39.6999396105098,65,-9999,1425009204.104405,-16.86128997802734,-22.25910949707031,29.33937835693359,154.6552886962891,140.8773193359375,10,120195.3370089167,-0.3955078125,-0.8000640869140625,0.108489990234375,120195.302955875,0.08524938439009046,-0.07155780690988409,0.1129649018545451,120195.302955875,-2.269370792055967,-2.110761663217002,1.144381844763664,0.06861375272274017,-0.06241871044039726,0.1431262344121933,-0.1839480996131897,-0.03157725930213928,-0.04080978035926819,XTrueNorthZVertical,0.5502907297657832,0.5509079915580821,0.5746143331258754,0.2519898392431938,-0.3547634482383728,-0.9104546308517456,0.2126390039920807,-19.03409576416016,-20.53704261779785,31.30199813842773,2,0.0.0.0,10.83.46.32,1,0
2015-02-26 19:53:24.138,101,1425009202.598396,37.75994697631097,-122.4613878382574,64.15193,-1,-1,39.6999396105098,65,-9999,1425009204.104405,-16.86128997802734,-22.25910949707031,29.33937835693359,154.6552886962891,140.8773193359375,10,120195.3861671667,-0.52252197265625,-0.7827911376953125,0.3453369140625,120195.3547294167,0.09765971506985971,-0.1017205031000125,0.0195169760486457,120195.3547294167,-2.268281964472142,-2.112560430774264,1.138664462870294,0.08102422952651978,-0.09258148819208145,0.04967804998159409,-0.05643337219953537,0.1118561029434204,-0.04965192079544067,XTrueNorthZVertical,0.5522264292935608,0.5504767944934852,0.5740596672036142,0.2499535583826733,-0.3588345646858215,-0.9080749750137329,0.2159574627876282,-18.82603454589844,-20.26582908630371,31.6031436920166,2,0.0.0.0,10.83.46.32,1,0
2015-02-26 19:53:24.219,102,1425009202.598396,37.75994697631097,-122.4613878382574,64.15193,-1,-1,39.6999396105098,65,-9999,1425009204.209109,-16.60551452636719,-20.984619140625,29.28945541381836,153.1129913330078,139.3350219726562,10,120195.4351485,-0.6517181396484375,-1.180709838867188,0.18890380859375,120195.4065049167,0.2008263146417853,0.2900986701745494,-0.06395181883661778,120195.4065049167,-2.253984410951873,-2.118618559147428,1.134028353632512,0.1841910183429718,0.2992375791072845,-0.03379108011722565,-0.3251543343067169,-0.05646186694502831,0.1172830536961555,XTrueNorthZVertical,0.5514117933019134,0.5532665382589917,0.5739882574039399,0.245720706406873,-0.3611097037792206,-0.9061235785484314,0.2203176617622375,-18.87965393066406,-20.07048606872559,31.69568252563477,2,0.0.0.0,10.83.46.32,1,0
2015-02-26 19:53:24.236,103,1425009202.598396,37.75994697631097,-122.4613878382574,64.15193,-1,-1,39.6999396105098,65,-9999,1425009204.209109,-16.60551452636719,-20.984619140625,29.28945541381836,153.1129913330078,139.3350219726562,10,120195.4841990833,-0.214599609375,-0.85894775390625,0.0860595703125,120195.4582800417,0.1538747846236883,0.9447824956842925,0.01990792809666933,120195.4582800417,-2.232679879694913,-2.100691423880526,1.130325224092555,0.137306809425354,0.9537793397903442,0.05013205111026764,0.09296108037233353,-0.07974780350923538,-0.1177861914038658,XTrueNorthZVertical,0.5414123314488998,0.5609139207412744,0.5812879355285626,0.2331364626712944,-0.3678939342498779,-0.9045509099960327,0.2155034840106964,-19.15421295166016,-19.91555213928223,31.62861061096191,2,0.0.0.0,10.83.46.32,1,0
2015-02-26 19:53:24.318,104,1425009202.598396,37.75994697631097,-122.4613878382574,64.15193,-1,-1,39.6999396105098,65,-9999,1425009204.311988,-18.20838165283203,-20.03302001953125,29.55572128295898,149.5739593505859,135.7959899902344,10,120195.5332715833,-0.49957275390625,-0.9253387451171875,0.136993408203125,120195.5100539167,0.2528503675881562,0.2034932041573906,-0.2123135936877331,120195.5100539167,-2.214078278670668,-2.101772286629671,1.123130481979388,0.2362825274467468,0.2124899625778198,-0.1820897459983826,-0.1320621371269226,0.01497005764394999,0.1298844367265701,XTrueNorthZVertical,0.5386543195516504,0.5651963912908179,0.5828141701933383,0.2252381399014382,-0.3732631802558899,-0.9014599323272705,0.2191908806562424,-20.67995262145996,-19.4130916595459,30.97343063354492,2,0.0.0.0,10.83.46.32,1,0
2015-02-26 19:53:24.334,105,1425009202.598396,37.75994697631097,-122.4613878382574,64.15193,-1,-1,39.6999396105098,65,-9999,1425009204.311988,-18.20838165283203,-20.03302001953125,29.55572128295898,149.5739593505859,135.7959899902344,10,120195.5823211667,-0.3789825439453125,-1.041152954101562,0.0980377197265625,120195.5618290833,0.5445487986295162,1.510869609629825,-0.1296365565945501,120195.5618290833,-2.150943209835655,-2.097457601596436,1.124564269054753,0.527981162071228,1.519866347312927,-0.09941300749778748,0.121760182082653,-0.05388350412249565,-0.1027316451072693,XTrueNorthZVertical,0.518838718643291,0.5824693957754926,0.5908368189201635,0.2060282839176364,-0.3730877041816711,-0.9020796418190002,0.2169284224510193,-21.43301200866699,-19.19697189331055,30.59386253356934,2,0.0.0.0,10.83.46.32,1,0
2015-02-26 19:53:24.420,106,1425009202.598396,37.75994697631097,-122.4613878382574,64.15193,-1,-1,39.6999396105098,65,-9999,1425009204.364052,-19.00982666015625,-19.438232421875,29.67220687866211,146.9355316162109,133.1575622558594,10,120195.6313930417,-0.455810546875,-0.7513580322265625,0.478759765625,120195.6136045833,0.1821181406161966,0.3185649327502974,-0.2481181966471944,120195.6136045833,-2.119440445899407,-2.097735168036267,1.122975932001893,0.1655506640672684,0.3275614976882935,-0.217894971370697,0.002362979808822274,0.003977854736149311,0.1865141093730927,XTrueNorthZVertical,0.5101662713900627,0.5904290791170261,0.5938369309433144,0.1961672522645678,-0.3742654323577881,-0.9013929963111877,0.2177522480487823,-22.66860580444336,-18.8208179473877,29.9298038482666,2,0.0.0.0,10.83.46.32,1,0
2015-02-26 19:53:24.432,107,1425009202.598396,37.75994697631097,-122.4613878382574,64.15193,-1,-1,39.6999396105098,65,-9999,1425009204.415401,-20.20344543457031,-19.0303955078125,29.33937072753906,144.5794982910156,130.8015289306641,10,120195.6804886667,-0.3764801025390625,-1.005050659179688,0.2955474853515625,120195.6653782083,0.3204262160361538,0.7960382909006419,-0.2481882377838635,120195.6136045833,-2.119440445899407,-2.097735168036267,1.122975932001893,0.1655506640672684,0.3275614976882935,-0.217894971370697,0.002362979808822274,0.003977854736149311,0.1865141093730927,XTrueNorthZVertical,0.5101662713900627,0.5904290791170261,0.5938369309433144,0.1961672522645678,-0.3742654323577881,-0.9013929963111877,0.2177522480487823,-22.66860580444336,-18.8208179473877,29.9298038482666,2,0.0.0.0,10.83.46.32,1,0
2015-02-26 19:53:24.522,108,1425009202.598396,37.75994697631097,-122.4613878382574,64.15193,-1,-1,39.6999396105098,65,-9999,1425009204.467756,-20.76615142822266,-18.9454345703125,29.62228012084961,142.3883819580078,128.6104125976562,10,120195.7295089167,-0.3092498779296875,-0.9096221923828125,0.128509521484375,120195.717153625,0.3651912907992957,0.699717613226874,-0.3131137083150142,120195.717153625,-2.02701385045731,-2.103454452248027,1.127425899173617,0.3486241102218628,0.7087140083312988,-0.2828910648822784,0.1008933037519455,0.01643959060311317,-0.05357393622398376,XTrueNorthZVertical,0.4826975922790471,0.6131297284420316,0.6012480692437886,0.1719759956605942,-0.3695547878742218,-0.9033109545707703,0.2178500592708588,-24.49382019042969,-18.4025764465332,28.72768592834473,2,0.0.0.0,10.83.46.32,1,0
2015-02-26 19:53:24.532,109,1425009202.598396,37.75994697631097,-122.4613878382574,64.15193,-1,-1,39.6999396105098,65,-9999,1425009204.519119,-21.66989898681641,-18.58860778808594,29.07310485839844,139.9926910400391,126.2147216796875,10,120195.7785637083,-0.3894805908203125,-0.901214599609375,0.29864501953125,120195.7689288333,0.1918237648928814,0.1651380918219604,0.02851313421093336,120195.717153625,-2.02701385045731,-2.103454452248027,1.127425899173617,0.3486241102218628,0.7087140083312988,-0.2828910648822784,0.1008933037519455,0.01643959060311317,-0.05357393622398376,XTrueNorthZVertical,0.4826975922790471,0.6131297284420316,0.6012480692437886,0.1719759956605942,-0.3695547878742218,-0.9033109545707703,0.2178500592708588,-24.49382019042969,-18.4025764465332,28.72768592834473,2,0.0.0.0,10.83.46.32,1,0
2015-02-26 19:53:24.619,110,1425009202.598396,37.75994697631097,-122.4613878382574,64.15193,-1,-1,39.6999396105098,65,-9999,1425009204.571242,-22.33491516113281,-18.36767578125,29.18960189819336,138.5751495361328,124.7971801757812,10,120195.8276427083,-0.320343017578125,-0.9604644775390625,0.3458251953125,120195.82070275,0.184114712485429,0.3936516944206455,-0.2463477271545097,120195.7689288333,-2.001296232068386,-2.110894755286624,1.123979417096842,0.1752567887306213,0.1741344034671783,0.0587354451417923,-0.04209758341312408,-0.005353713408112526,0.05708843097090721,XTrueNorthZVertical,0.4780764959592665,0.6184977413856871,0.6013363210271964,0.1652212161612857,-0.3705916106700897,-0.9018270969390869,0.22219318151474,-24.9718017578125,-18.30415344238281,28.37691307067871,2,0.0.0.0,10.83.46.32,1,0
2015-02-26 19:53:24.628,111,1425009202.598396,37.75994697631097,-122.4613878382574,64.15193,-1,-1,39.6999396105098,65,-9999,1425009204.623344,-22.72711181640625,-17.94285583496094,28.97325897216797,137.2911376953125,123.5131683349609,10,120195.8766912917,-0.4095458984375,-0.922760009765625,0.3148956298828125,120195.8724780833,0.1080242054002301,0.3992789538039829,-0.0983452127344461,120195.82070275,-1.979467007571835,-2.114799380387567,1.121589891273386,0.1675478965044022,0.4026479125022888,-0.2161257117986679,0.04394256323575974,-0.07714379578828812,0.1176387742161751,XTrueNorthZVertical,0.4732098209513828,0.6232568174203107,0.6019600527465427,0.1589575828196623,-0.3715640306472778,-0.9007920026779175,0.2247531861066818,-25.52422523498535,-17.89104843139648,28.1479377746582,2,0.0.0.0,10.83.46.32,1,0
2015-02-26 19:53:24.722,112,1425009202.598396,37.75994697631097,-122.4613878382574,64.15193,-1,-1,39.6999396105098,65,-9999,1425009204.674847,-22.69300842285156,-17.8748779296875,28.90669250488281,136.9251098632812,123.1471328735352,10,120195.9257747917,-0.28289794921875,-0.9398345947265625,0.2529449462890625,120195.9242534583,0.09562053262318604,0.601008080055305,-0.2844501055024914,120195.9242534583,-1.938098274777997,-2.108247965659869,1.130707333272524,0.07905404269695282,0.6100041270256042,-0.2542286813259125,0.08939250558614731,-0.01818358525633812,0.09424707293510437,XTrueNorthZVertical,0.4554110740229719,0.63375935809269,0.6075297196912064,0.1478427635135836,-0.3659580647945404,-0.9047137498855591,0.2181003391742706,-26.08927726745605,-17.91750717163086,27.60787200927734,2,0.0.0.0,10.83.46.32,1,0
2015-02-26 19:53:24.732,113,1425009202.598396,37.75994697631097,-122.4613878382574,64.15193,-1,-1,39.6999396105098,65,-9999,1425009204.674847,-22.69300842285156,-17.8748779296875,28.90669250488281,136.9251098632812,123.1471328735352,10,120195.9749377917,-0.3462371826171875,-0.9002838134765625,0.2547760009765625,120195.9242534583,0.09562053262318604,0.601008080055305,-0.2844501055024914,120195.9242534583,-1.938098274777997,-2.108247965659869,1.130707333272524,0.07905404269695282,0.6100041270256042,-0.2542286813259125,0.08939250558614731,-0.01818358525633812,0.09424707293510437,XTrueNorthZVertical,0.4554110740229719,0.63375935809269,0.6075297196912064,0.1478427635135836,-0.3659580647945404,-0.9047137498855591,0.2181003391742706,-26.08927726745605,-17.91750717163086,27.60787200927734,2,0.0.0.0,10.83.46.32,1,0
2015-02-26 19:53:24.820,114,1425009202.598396,37.75994697631097,-122.4613878382574,64.15193,-1,-1,39.6999396105098,65,-9999,1425009204.803805,-23.75022125244141,-17.97686767578125,28.20774078369141,135.2994995117188,121.5215301513672,10,120196.02392475,-0.3020172119140625,-0.9996490478515625,0.1946563720703125,120196.0278025833,0.08550957522859121,0.4597846421900382,-0.1585459691756873,120195.9760270417,-1.921381920268371,-2.107606731421884,1.13861369593653,-0.03425769135355949,0.08086374402046204,-0.06207926571369171,0.01370238699018955,0.007769896648824215,0.04057516530156136,XTrueNorthZVertical,0.4474452700486193,0.6378817663913785,0.6096883985452197,0.1455323072040129,-0.3599395751953125,-0.9080536961555481,0.2142008394002914,-23.24767303466797,-17.94740295410156,28.45586585998535,2,0.0.0.0,10.83.46.32,1,0
2015-02-26 19:53:24.824,115,1425009202.598396,37.75994697631097,-122.4613878382574,64.15193,-1,-1,39.6999396105098,65,-9999,1425009204.803805,-23.75022125244141,-17.97686767578125,28.20774078369141,135.2994995117188,121.5215301513672,10,120196.0729875417,-0.3351593017578125,-0.892059326171875,0.1791534423828125,120196.0278025833,0.08550957522859121,0.4597846421900382,-0.1585459691756873,120196.0278025833,-1.914281322189439,-2.098038654055411,1.14017720675785,0.06894342601299286,0.4687804877758026,-0.1283251643180847,0.05872795358300209,-0.09094156324863434,-0.01537617295980453,XTrueNorthZVertical,0.4417656745253685,0.6402025939266675,0.6124808142052738,0.1408935524265836,-0.3607451617717743,-0.9087074995040894,0.2100325375795364,-23.44344139099121,-17.99678421020508,28.26341247558594,2,0.0.0.0,10.83.46.32,1,0
2015-02-26 19:53:24.890,116,1425009202.598396,37.75994697631097,-122.4613878382574,64.15193,-1,-1,39.6999396105098,65,-9999,1425009204.856534,-24.17652130126953,-18.2657470703125,28.02468490600586,134.8909454345703,121.1129684448242,10,120196.1220857083,-0.2891693115234375,-0.9426727294921875,0.311920166015625,120196.07957775,0.1254564589475618,0.1562039853130716,-0.1399448542259198,120196.07957775,-1.90213284923873,-2.093675925345113,1.144703679376216,0.1088904514908791,0.1651997566223145,-0.1097243204712868,0.02293140068650246,0.01852834224700928,-0.02724708989262581,XTrueNorthZVertical,0.4351141641393814,0.6433318973737775,0.6147381482008391,0.1374654737654915,-0.3580906987190247,-0.9105876684188843,0.206400528550148,-23.76013946533203,-18.03026580810547,27.97615051269531,2,0.0.0.0,10.83.46.32,1,0
2015-02-26 19:53:24.925,117,1425009202.598396,37.75994697631097,-122.4613878382574,64.15193,-1,-1,39.6999396105098,65,-9999,1425009204.907389,-24.68807220458984,-18.4356689453125,27.79170227050781,134.1998748779297,120.4219055175781,10,120196.1711407083,-0.350067138671875,-0.925689697265625,0.237396240234375,120196.1313515417,-0.01316373895215267,0.1410964050812701,-0.02677941634129178,120196.1313515417,-1.898100198536674,-2.092714021887674,1.146351442980002,-0.02972957119345665,0.1500920802354813,0.003440809436142445,0.06781860440969467,-0.0314052514731884,0.1066124886274338,XTrueNorthZVertical,0.4330041623413339,0.6443300661245893,0.6153899972788053,0.1365332409209546,-0.3569879233837128,-0.9112674593925476,0.2053076773881912,-24.02025985717773,-18.12229347229004,27.69313049316406,2,0.0.0.0,10.83.46.32,1,0
2015-02-26 19:53:24.990,118,1425009202.598396,37.75994697631097,-122.4613878382574,64.15193,-1,-1,39.6999396105098,65,-9999,1425009204.962143,-24.58576202392578,-18.53762817382812,27.55871963500977,133.9932556152344,120.2152862548828,10,120196.2202207083,-0.323883056640625,-0.9354705810546875,0.22705078125,120196.1831269167,-0.01056742320543442,0.1107512823564712,-0.103080313152607,120196.1831269167,-1.864153643300736,-2.119366547785109,1.148884907755353,-0.02707727067172527,0.1197193637490273,-0.0728631317615509,0.02370465733110905,-0.03477464616298676,0.02304384112358093,XTrueNorthZVertical,0.4294070085807635,0.6499088107376656,0.6122233607106407,0.1356861402342444,-0.3494187593460083,-0.9123078584671021,0.2135436832904816,-23.97810745239258,-18.06875419616699,27.76455307006836,2,0.0.0.0,10.83.46.32,1,0
2015-02-26 19:53:25.021,119,1425009202.598396,37.75994697631097,-122.4613878382574,64.15193,-1,-1,39.6999396105098,65,-9999,1425009204.962143,-24.58576202392578,-18.53762817382812,27.55871963500977,133.9932556152344,120.2152862548828,10,120196.2692753333,-0.3223419189453125,-0.9719696044921875,0.260162353515625,120196.2349022083,-0.03772207894431836,0.1369892780481499,-0.06088172673197444,120196.2349022083,-1.862665547984668,-2.115900146179463,1.154153679805201,-0.05422321334481239,0.145951434969902,-0.03067575395107269,0.01236273720860481,-0.01224398985505104,0.02546987496316433,XTrueNorthZVertical,0.4262115156727336,0.6505856591598492,0.6136509260479006,0.1360683589534105,-0.3460419476032257,-0.9144527912139893,0.2098359167575836,-24.0312557220459,-18.09203910827637,27.70337104797363,2,0.0.0.0,10.83.46.32,1,0
2015-02-26 19:53:25.088,120,1425009202.598396,37.75994697631097,-122.4613878382574,64.15193,-1,-1,39.6999396105098,65,-9999,1425009205.038377,-24.72217559814453,-18.63958740234375,26.85976791381836,133.3957366943359,119.6177597045898,10,120196.3183629167,-0.3925628662109375,-0.93402099609375,0.124908447265625,120196.2866761667,0.02717729260814962,0.1638059786447028,-0.1069339072499517,120196.2866761667,-1.853337610019885,-2.121251481618996,1.159731127684897,0.01069722510874271,0.1727561801671982,-0.07674002647399902,0.04199308902025223,-0.05263413116335869,0.05191173404455185,XTrueNorthZVertical,0.4230660036952327,0.652320424551585,0.6137726506822452,0.1370268836721507,-0.3405618071556091,-0.9166957139968872,0.2090135663747787,-24.13456344604492,-18.33363914489746,27.45360565185547,2,0.0.0.0,10.83.46.32,1,0
2015-02-26 19:53:25.121,121,1425009202.598396,37.75994697631097,-122.4613878382574,64.15193,-1,-1,39.6999396105098,65,-9999,1425009205.09081,-24.85858917236328,-18.6055908203125,26.82648468017578,133.3421478271484,119.5641708374023,10,120196.3674010833,-0.3096771240234375,-0.8967437744140625,0.2856597900390625,120196.338451375,-0.1164837366028668,-0.03688451478148844,-0.05757408065809603,120196.338451375,-1.844873354764701,-2.122933930070054,1.165015544579246,-0.1329636126756668,-0.02793441154062748,-0.02738052979111671,-0.03275487944483757,-0.05099312216043472,-0.015834616497159,XTrueNorthZVertical,0.4191584331468692,0.6540852077330132,0.6145938339763821,0.136942256185442,-0.3360805809497833,-0.9187944531440735,0.2070425003767014,-24.08891868591309,-18.46296310424805,27.406982421875,2,0.0.0.0,10.83.46.32,1,0
2015-02-26 19:53:25.190,122,1425009202.598396,37.75994697631097,-122.4613878382574,64.15193,-1,-1,39.6999396105098,65,-9999,1425009205.141306,-24.48345184326172,-18.74153137207031,27.12603378295898,134.4716186523438,120.6936492919922,10,120196.4166027083,-0.3323974609375,-0.96881103515625,0.18963623046875,120196.3902269167,0.1305249871342006,0.1244356693017344,-0.2039821605335292,120196.3902269167,-1.844429752557498,-2.120891188592391,1.168355197626085,0.1140452697873116,0.1333856880664825,-0.1737889051437378,0.004951433278620243,-0.01859781332314014,0.02719854563474655,XTrueNorthZVertical,0.4173345351590845,0.6543753045830166,0.6154283671992963,0.1373782541236719,-0.3338851630687714,-0.9201076030731201,0.2047503143548965,-24.06551551818848,-18.5831298828125,27.34626197814941,2,0.0.0.0,10.83.46.32,1,0
2015-02-26 19:53:25.226,123,1425009202.598396,37.75994697631097,-122.4613878382574,64.15193,-1,-1,39.6999396105098,65,-9999,1425009205.193846,-23.98895263671875,-18.92845153808594,27.17596054077148,135.4039306640625,121.6259536743164,10,120196.4655358333,-0.4235382080078125,-0.928192138671875,0.1232452392578125,120196.442000625,-0.04116794307877189,-0.1122312009742283,-0.1634496476908502,120196.442000625,-1.830471209704351,-2.137769664693634,1.17543950007552,-0.05758857727050781,-0.1033862978219986,-0.1331820338964462,-0.08651697635650635,0.02123260870575905,0.001951039768755436,XTrueNorthZVertical,0.4157175162639835,0.6562042833924301,0.6136970980301154,0.141247195874366,-0.3248752355575562,-0.9228591918945312,0.2068502306938171,-23.90757751464844,-18.77833557128906,27.35144805908203,2,0.0.0.0,10.83.46.32,1,0
2015-02-26 19:53:25.277,124,1425009202.598396,37.75994697631097,-122.4613878382574,64.15193,-1,-1,39.6999396105098,65,-9999,1425009205.245269,-23.93778991699219,-18.9454345703125,26.79320526123047,135.3125610351562,121.5345916748047,10,120196.5147227083,-0.266326904296875,-0.8463592529296875,0.1121368408203125,120196.4937760833,-0.0126841036398294,0.0456519074061383,-0.2017365831023744,120196.4937760833,-1.821273872485488,-2.142152400338937,1.183984016152202,-0.0291045755147934,0.05449672043323517,-0.1714692860841751,0.02775482833385468,-0.03241033107042313,-0.124929279088974,XTrueNorthZVertical,0.4113498703902081,0.6578688673864268,0.6144458198510375,0.143025121099301,-0.317320853471756,-0.9261162877082825,0.204000324010849,-23.77366256713867,-19.00349044799805,27.31263732910156,2,0.0.0.0,10.83.46.32,1,0
2015-02-26 19:53:25.324,125,1425009202.598396,37.75994697631097,-122.4613878382574,64.15193,-1,-1,39.6999396105098,65,-9999,1425009205.296382,-24.36408996582031,-19.06439208984375,26.14418029785156,134.4892883300781,120.711311340332,10,120196.5636660833,-0.28009033203125,-0.9486236572265625,0.19598388671875,120196.5455512917,-0.03568822281982485,0.01859978336922241,0.07054047937347382,120196.5455512917,-1.829846769953658,-2.135424997762972,1.183482388794656,-0.0521085150539875,0.0274445004761219,0.1008074507117271,-0.03001208789646626,-0.06902240961790085,-0.005881516728550196,XTrueNorthZVertical,0.4122572935175696,0.6565810658089621,0.6151590170386664,0.1432641792737523,-0.3190784752368927,-0.9259269237518311,0.2021095454692841,-23.73345184326172,-19.14799499511719,27.24660301208496,2,0.0.0.0,10.83.46.32,1,0
2015-02-26 19:53:25.375,126,1425009202.598396,37.75994697631097,-122.4613878382574,64.15193,-1,-1,39.6999396105098,65,-9999,1425009205.348733,-24.41524505615234,-19.21731567382812,26.09425354003906,134.3398742675781,120.561897277832,10,120196.612852,-0.31793212890625,-0.90850830078125,0.12969970703125,120196.5973252917,0.1001654833395153,0.2918851186337746,0.03281706884861042,120196.5973252917,-1.831889096479716,-2.122123001595253,1.178914543987142,0.08374535292387009,0.3007297217845917,0.06308373808860779,0.02507562749087811,0.01084665395319462,-0.08423134684562683,XTrueNorthZVertical,0.4102722621397308,0.6570441993941987,0.6172288645466216,0.1378337153090534,-0.3253380656242371,-0.9241920113563538,0.2000608146190643,-24.01100730895996,-19.03215789794922,27.08409881591797,2,0.0.0.0,10.83.46.32,1,0
2015-02-26 19:53:25.423,127,1425009202.598396,37.75994697631097,-122.4613878382574,64.15193,-1,-1,39.6999396105098,65,-9999,1425009205.400175,-24.82449340820312,-19.28530883789062,26.22738265991211,133.9530639648438,120.1750946044922,10,120196.6617979167,-0.2691802978515625,-0.9467620849609375,0.2494049072265625,120196.6491005833,0.03981186145170354,0.319223532487874,0.02244964904104095,120196.5973252917,-1.831889096479716,-2.122123001595253,1.178914543987142,0.08374535292387009,0.3007297217845917,0.06308373808860779,0.02507562749087811,0.01084665395319462,-0.08423134684562683,XTrueNorthZVertical,0.4102722621397308,0.6570441993941987,0.6172288645466216,0.1378337153090534,-0.3253380656242371,-0.9241920113563538,0.2000608146190643,-24.01100730895996,-19.03215789794922,27.08409881591797,2,0.0.0.0,10.83.46.32,1,0
2015-02-26 19:53:25.472,128,1425009202.598396,37.75994697631097,-122.4613878382574,64.15193,-1,-1,39.6999396105098,65,-9999,1425009205.453421,-25.37014770507812,-19.04739379882812,26.49365615844727,133.2624816894531,119.4845123291016,10,120196.7109774583,-0.394256591796875,-0.844451904296875,0.1594085693359375,120196.7008760417,0.3424742603848108,0.4380654982360059,0.08373644257481645,120196.7008760417,-1.807995708691018,-2.107657093648015,1.166986067683862,0.3260544240474701,0.4469099640846252,0.1140025332570076,-0.04952878877520561,0.07333334535360336,-0.07305876910686493,XTrueNorthZVertical,0.401680502179468,0.6626701610525327,0.6203368446316866,0.1212569352906807,-0.3376477360725403,-0.9195705056190491,0.2009579390287399,-24.7496223449707,-18.77059936523438,26.59737777709961,2,0.0.0.0,10.83.46.32,1,0
2015-02-26 19:53:25.523,129,1425009202.598396,37.75994697631097,-122.4613878382574,64.15193,-1,-1,39.6999396105098,65,-9999,1425009205.503936,-26.41031646728516,-18.38467407226562,25.97776031494141,130.6739349365234,116.8959655761719,10,120196.7599192917,-0.420135498046875,-0.6430511474609375,0.225006103515625,120196.75264975,0.4534284756163461,0.492850716600571,1.333498021024476,120196.7008760417,-1.807995708691018,-2.107657093648015,1.166986067683862,0.3260544240474701,0.4469099640846252,0.1140025332570076,-0.04952878877520561,0.07333334535360336,-0.07305876910686493,XTrueNorthZVertical,0.401680502179468,0.6626701610525327,0.6203368446316866,0.1212569352906807,-0.3376477360725403,-0.9195705056190491,0.2009579390287399,-24.7496223449707,-18.77059936523438,26.59737777709961,2,0.0.0.0,10.83.46.32,1,0
2015-02-26 19:53:25.571,130,1425009202.598396,37.75994697631097,-122.4613878382574,64.15193,-1,-1,39.6999396105098,65,-9999,1425009205.55719,-27.72330474853516,-16.83831787109375,26.12753677368164,127.1002960205078,113.3223190307617,10,120196.8089953333,-0.10211181640625,-0.85247802734375,0.0684661865234375,120196.8044253333,0.4801825919272821,0.91838178085001,1.150234721139545,120196.75264975,-1.813277675223849,-2.081478922980998,1.125543924276956,0.4370088279247284,0.5016950964927673,1.363763809204102,-0.1244481056928635,0.3448390364646912,-0.02871428243815899,XTrueNorthZVertical,0.4083386288954007,0.6622033767087706,0.6204562797326961,0.0988952491872751,-0.3757349848747253,-0.9025020003318787,0.2105074971914291,-25.93743133544922,-17.68405151367188,26.20732498168945,2,0.0.0.0,10.83.46.32,1,0
2015-02-26 19:53:25.637,131,1425009202.598396,37.75994697631097,-122.4613878382574,64.15193,-1,-1,39.6999396105098,65,-9999,1425009205.607659,-30.05939483642578,-13.89849853515625,25.87791442871094,120.0792846679688,106.3013076782227,10,120196.8580323333,-0.349365234375,-0.6217803955078125,0.21942138671875,120196.8562005417,0.7533387638789654,-0.1146325733291527,1.660214090923179,120196.8044253333,-1.827930398859286,-2.02744350860694,1.064702155672544,0.4637622535228729,0.9272257685661316,1.18049693107605,0.4220170378684998,-0.1148421093821526,-0.1191025525331497,XTrueNorthZVertical,0.415317193616937,0.6590812071033954,0.6238203812338977,0.06302171396195071,-0.4350938200950623,-0.8746445775032043,0.2137528210878372,-27.64302062988281,-15.70993137359619,25.71694183349609,2,0.0.0.0,10.83.46.32,1,0
2015-02-26 19:53:25.669,132,1425009202.598396,37.75994697631097,-122.4613878382574,64.15193,-1,-1,39.6999396105098,65,-9999,1425009205.660415,-32.51485443115234,-10.39788818359375,26.17746734619141,113.2286224365234,99.45064544677734,10,120196.9072052917,-0.5720977783203125,-0.6802215576171875,0.2289276123046875,120196.9079743333,0.7401718291335047,0.07052423409082434,2.0739010125406,120196.8562005417,-1.850713496691977,-1.985130182165652,0.9765296267361432,0.736918568611145,-0.1057886555790901,1.690476059913635,0.1324134320020676,0.2133859544992447,-0.05111933127045631,XTrueNorthZVertical,0.4365734327342276,0.6496970435882737,0.6218901049663057,0.02345421225562978,-0.5125251412391663,-0.8285592794418335,0.225405216217041,-28.84062576293945,-14.36591529846191,25.18210983276367,2,0.0.0.0,10.83.46.32,1,0
2015-02-26 19:53:25.718,133,1425009202.598396,37.75994697631097,-122.4613878382574,64.15193,-1,-1,39.6999396105098,65,-9999,1425009205.711831,-35.15788269042969,-5.996612548828125,26.46037292480469,103.012809753418,89.23483276367188,10,120196.956147875,-0.715789794921875,-0.60516357421875,0.289398193359375,120196.9079743333,0.7401718291335047,0.07052423409082434,2.0739010125406,120196.9079743333,-1.854277115239128,-1.989156433952886,0.8731190057863085,0.7237518429756165,0.07936804741621017,2.104162693023682,0.01493541896343231,0.08611487597227097,-0.03207148611545563,XTrueNorthZVertical,0.4695805995806758,0.6403074340282874,0.6077326435558094,-0.01270817557541686,-0.587033212184906,-0.7663364410400391,0.2609991133213043,-30.59997940063477,-9.052492141723633,25.57329559326172,2,0.0.0.0,10.83.46.32,1,0
2015-02-26 19:53:25.766,134,1425009202.598396,37.75994697631097,-122.4613878382574,64.15193,-1,-1,39.6999396105098,65,-9999,1425009205.711831,-35.15788269042969,-5.996612548828125,26.46037292480469,103.012809753418,89.23483276367188,10,120197.005228375,-0.432098388671875,-0.6832122802734375,0.3184967041015625,120197.0115253333,0.6772285494016999,0.7426522973728045,2.291902585684524,120196.9597497917,-1.863316452250461,-1.957386565878846,0.7590871770676567,0.8614169359207153,0.8726387023925781,2.213549852371216,-0.04386446252465248,0.08309593796730042,0.01587446965277195,XTrueNorthZVertical,0.4952423767929174,0.6256970916375421,0.5994453484096012,-0.06247739878660507,-0.6719253063201904,-0.688259482383728,0.2735237181186676,-31.53461837768555,-5.237676620483398,25.50361633300781,2,0.0.0.0,10.83.46.32,1,0
2015-02-26 19:53:25.823,135,1425009202.598396,37.75994697631097,-122.4613878382574,64.15193,-1,-1,39.6999396105098,65,-9999,1425009205.764325,-37.39167022705078,-1.357452392578125,26.41045379638672,92.52739715576172,78.74942016601562,10,120197.054284375,-0.9478302001953125,-0.5404052734375,0.36444091796875,120197.0115253333,0.6772285494016999,0.7426522973728045,2.291902585684524,120197.0115253333,-1.87222883724349,-1.918764147193694,0.6423135921771168,0.6608088612556458,0.7514959573745728,2.322163581848145,0.320624977350235,-0.08416271954774857,0.0454634316265583,XTrueNorthZVertical,0.5182264920526408,0.6065953673879044,0.5918634666995373,-0.1148085943167068,-0.7527233958244324,-0.5990495681762695,0.2730332612991333,-32.39593887329102,-2.490325927734375,24.83145904541016,2,0.0.0.0,10.83.46.32,1,0
2015-02-26 19:53:25.864,136,1425009202.598396,37.75994697631097,-122.4613878382574,64.15193,-1,-1,39.6999396105098,65,-9999,1425009205.8194,-39.50608825683594,4.01239013671875,25.478515625,82.89796447753906,69.11998748779297,10,120197.1033669583,-0.8109130859375,-0.22882080078125,0.1746826171875,120197.0632990417,1.023152668662599,0.6048092098791752,2.237271031714856,120197.0632990417,-1.869084435035492,-1.884295493748437,0.5147622745212849,1.006733179092407,0.613652765750885,2.267531871795654,-0.119843915104866,-0.04807732999324799,0.09601598978042603,XTrueNorthZVertical,0.5401861971540703,0.5851592402032469,0.5797402683260611,-0.1723042966220945,-0.8279862999916077,-0.4923279583454132,0.268424928188324,-33.42499160766602,4.605064392089844,23.10547637939453,2,0.0.0.0,10.83.46.32,1,0
2015-02-26 19:53:25.921,137,1425009202.598396,37.75994697631097,-122.4613878382574,64.15193,-1,-1,39.6999396105098,65,-9999,1425009205.897158,-41.72282409667969,13.32467651367188,24.18047332763672,65.52326965332031,51.74529266357422,10,120197.1524099583,-0.93560791015625,-0.4771575927734375,0.4469757080078125,120197.1150744167,1.038866650674612,1.096097982500415,2.742258306035136,120197.1150744167,-1.854073128258787,-1.847600112182945,0.3814225744513364,1.022447347640991,1.104941368103027,2.772518634796143,-0.003953575156629086,0.07113950699567795,-0.1856807023286819,XTrueNorthZVertical,0.5580419958225501,0.5616144607407039,0.5641787814921566,-0.2342661824582548,-0.8928054571151733,-0.372241199016571,0.2536433339118958,-33.39004898071289,9.107975959777832,21.78185272216797,2,0.0.0.0,10.83.46.32,1,0
2015-02-26 19:53:25.965,138,1425009202.598396,37.75994697631097,-122.4613878382574,64.15193,-1,-1,39.6999396105098,65,-9999,1425009205.897158,-41.72282409667969,13.32467651367188,24.18047332763672,65.52326965332031,51.74529266357422,10,120197.2015017083,-1.196517944335938,-0.0531768798828125,0.193115234375,120197.1668498333,0.8259067077903166,0.7609157234963498,2.594530896155678,120197.1668498333,-1.845875599714313,-1.813522154554418,0.2456894471431762,0.809487521648407,0.7697590589523315,2.624790906906128,-0.1378090977668762,-0.09220883250236511,0.09613768756389618,XTrueNorthZVertical,0.5776381935767267,0.5318834235930974,0.5459553953163737,-0.2921760782430166,-0.9415366053581238,-0.2432251274585724,0.2331317216157913,-33.19452667236328,12.46298408508301,20.37393188476562,2,0.0.0.0,10.83.46.32,1,0
2015-02-26 19:53:26.021,139,1425009202.598396,37.75994697631097,-122.4613878382574,64.15193,-1,-1,39.6999396105098,65,-9999,1425009205.971079,-41.8592529296875,22.63693237304688,21.21825408935547,49.71474075317383,35.936767578125,10,120197.2505453333,-1.157135009765625,-0.0011138916015625,0.2363739013671875,120197.218623875,0.7052601840875469,0.7901596291104009,2.41664371956329,120197.218623875,-1.836140168104351,-1.763552002619427,0.1065277644074752,0.6888411045074463,0.7990029454231262,2.446903467178345,-0.1236167252063751,-0.1732909083366394,0.009640679694712162,XTrueNorthZVertical,0.5917693554601016,0.4950234332286565,0.5293262626817643,-0.3529512026788291,-0.97591632604599,-0.1063263937830925,0.1904783397912979,-31.19987678527832,20.0219898223877,17.26231384277344,2,0.0.0.0,10.83.46.32,1,0
2015-02-26 19:53:26.062,140,1425009202.598396,37.75994697631097,-122.4613878382574,64.15193,-1,-1,39.6999396105098,65,-9999,1425009206.022734,-40.95550537109375,28.53359985351562,18.70536041259766,38.35342407226562,24.5754508972168,10,120197.2997475417,-1.174392700195312,-0.01898193359375,0.13629150390625,120197.270399125,0.3035500305244306,0.8059108953776746,2.404735128432892,120197.270399125,-1.83453827492882,-1.720469144297703,-0.01769435007714835,0.2871311902999878,0.8147540688514709,2.434994697570801,-0.2060217410326004,0.135565847158432,0.04179617390036583,XTrueNorthZVertical,0.605291135954361,0.4562546203092291,0.513760353286383,-0.4018764423511753,-0.9886651635169983,0.01769342646002769,0.1490912735462189,-29.41802978515625,23.82275390625,15.47112560272217,2,0.0.0.0,10.83.46.32,1,0
2015-02-26 19:53:26.122,141,1425009202.598396,37.75994697631097,-122.4613878382574,64.15193,-1,-1,39.6999396105098,65,-9999,1425009206.074563,-39.91534423828125,34.02243041992188,16.99127197265625,29.50827026367188,15.73029518127441,10,120197.3487024167,-1.30963134765625,0.51910400390625,0.05279541015625,120197.3221746667,0.165022244314542,0.3134007970805248,1.890213471094019,120197.3221746667,-1.836039085627929,-1.692897150432271,-0.1268335530613843,0.148603543639183,0.3222438991069794,1.920472741127014,-0.1615207344293594,0.03849951550364494,0.06787087768316269,XTrueNorthZVertical,0.6192630580376721,0.420622061666505,0.4965200830413958,-0.4393838488952936,-0.9845821857452393,0.1264937669038773,0.1208193078637123,-27.96339988708496,26.06804656982422,14.51912879943848,2,0.0.0.0,10.83.46.32,1,0
2015-02-26 19:53:26.159,142,1425009202.598396,37.75994697631097,-122.4613878382574,64.15193,-1,-1,39.6999396105098,65,-9999,1425009206.127098,-38.44889068603516,37.8629150390625,15.82635498046875,23.54610061645508,9.76812744140625,10,120197.3978972083,-1.013595581054688,0.242523193359375,0.1794281005859375,120197.3739485,-0.09281435978256955,0.2235816945759673,1.105196406048561,120197.3739485,-1.839735247562256,-1.68273412831181,-0.2064407632085622,-0.1092329025268555,0.2324247062206268,1.135455369949341,-0.1761473715305328,0.1726164519786835,-0.002047787886112928,XTrueNorthZVertical,0.6315560973408245,0.3947189668583251,0.4808017096934457,-0.4627780919771483,-0.9726411104202271,0.2049775421619415,0.1093323305249214,-24.27166366577148,30.09557723999023,13.32075119018555,2,0.0.0.0,10.83.46.32,1,0
2015-02-26 19:53:26.219,143,1425009202.598396,37.75994697631097,-122.4613878382574,64.15193,-1,-1,39.6999396105098,65,-9999,1425009206.180412,-36.81191253662109,40.37786865234375,15.3936767578125,19.79089736938477,6.012923240661621,10,120197.4468418333,-1.175155639648438,0.501434326171875,0.1358795166015625,120197.4257239583,0.1932163318268839,0.009681123194656046,0.7529057338857186,120197.4257239583,-1.846196008031807,-1.676882289505999,-0.2529223525865982,0.176797941327095,0.01852406188845634,0.783164381980896,-0.06891967356204987,0.2047674357891083,-0.02712464518845081,XTrueNorthZVertical,0.6391485463449066,0.3778204560384496,0.4723655516135233,-0.4749859342098138,-0.9627423286437988,0.2502343952655792,0.1025183200836182,-22.92493057250977,31.17288970947266,13.22869491577148,2,0.0.0.0,10.83.46.32,1,0
2015-02-26 19:53:26.257,144,1425009202.598396,37.75994697631097,-122.4613878382574,64.15193,-1,-1,39.6999396105098,65,-9999,1425009206.230559,-35.19197845458984,41.72036743164062,15.27718353271484,17.08981704711914,3.311842203140259,10,120197.495935,-1.17681884765625,0.45782470703125,0.0114288330078125,120197.4774993333,0.3537546118140594,-0.4224681626797389,-0.1465409716138281,120197.4774993333,-1.833742304996466,-1.683769978672394,-0.2710446493981801,0.3373932540416718,-0.4137021005153656,-0.1162005066871643,-0.2874164879322052,0.3705370426177979,0.02509498037397861,XTrueNorthZVertical,0.6413354304509279,0.3781504454704367,0.4625011722614716,-0.4814392851023118,-0.9573497176170349,0.2677381038665771,0.108617790043354,-22.16972732543945,31.76734733581543,13.10109329223633,2,0.0.0.0,10.83.46.32,1,0
2015-02-26 19:53:26.318,145,1425009202.598396,37.75994697631097,-122.4613878382574,64.15193,-1,-1,39.6999396105098,65,-9999,1425009206.281592,-34.74863433837891,42.06021118164062,15.31046295166016,15.73768997192383,1.959715604782104,10,120197.5449755833,-1.1800537109375,0.4226531982421875,0.1707916259765625,120197.5292730417,-0.3129304828320167,-0.7476369359851057,-1.079007146204831,120197.4774993333,-1.833742304996466,-1.683769978672394,-0.2710446493981801,0.3373932540416718,-0.4137021005153656,-0.1162005066871643,-0.2874164879322052,0.3705370426177979,0.02509498037397861,XTrueNorthZVertical,0.6413354304509279,0.3781504454704367,0.4625011722614716,-0.4814392851023118,-0.9573497176170349,0.2677381038665771,0.108617790043354,-22.16972732543945,31.76734733581543,13.10109329223633,2,0.0.0.0,10.83.46.32,1,0
