loggingTime,loggingSample,locationTimestamp_since1970,locationLatitude,locationLongitude,locationAltitude,locationSpeed,locationCourse,locationVerticalAccuracy,locationHorizontalAccuracy,locationFloor,locationHeadingTimestamp_since1970,locationHeadingX,locationHeadingY,locationHeadingZ,locationTrueHeading,locationMagneticHeading,locationHeadingAccuracy,accelerometerTimestamp_sinceReboot,accelerometerAccelerationX,accelerometerAccelerationY,accelerometerAccelerationZ,gyroTimestamp_sinceReboot,gyroRotationX,gyroRotationY,gyroRotationZ,motionTimestamp_sinceReboot,motionYaw,motionRoll,motionPitch,motionRotationRateX,motionRotationRateY,motionRotationRateZ,motionUserAccelerationX,motionUserAccelerationY,motionUserAccelerationZ,motionAttitudeReferenceFrame,motionQuaternionX,motionQuaternionY,motionQuaternionZ,motionQuaternionW,motionGravityX,motionGravityY,motionGravityZ,motionMagneticFieldX,motionMagneticFieldY,motionMagneticFieldZ,motionMagneticFieldCalibrationAccuracy,IP_en0,IP_pdp_ip0,deviceOrientation,state
2015-03-01 20:10:35.935,1,1425269434.52238,37.76573447496244,-122.460304217296,81.92931,-1,-1,10,65,-9999,1425269435.919863,10.14798355102539,-28.15092468261719,-32.13026428222656,37.43101501464844,23.65394973754883,10,196557.1955445417,0.3966064453125,-0.8794403076171875,-0.3248138427734375,196557.1757734167,-0.004160656571030794,0.07654111394164036,-0.01048752837273204,196557.1757734167,-2.535468017588833,0.8417087515920377,1.080681681108095,-0.01637411117553711,0.0909552201628685,0.02426150813698769,-0.006898106075823307,-0.001571200089529157,-0.05884307250380516,XTrueNorthZVertical,-0.4745025373540586,0.3435849471402195,0.6843126061415992,-0.4341808988673422,0.3510600924491882,-0.8822789192199707,-0.3135934472084045,11.59689807891846,-26.60227012634277,-31.78093910217285,2,0.0.0.0,10.83.46.32,1,0
2015-03-01 20:10:36.005,2,1425269434.52238,37.76573447496244,-122.460304217296,81.92931,-1,-1,10,65,-9999,1425269435.972573,10.45491790771484,-27.77706909179688,-32.19683074951172,36.47430801391602,22.69724273681641,10,196557.244575,0.32757568359375,-0.88671875,-0.30853271484375,196557.227551875,0.02772670274103296,-0.1153654752611425,0.0004157194461613691,196557.227551875,-2.533777150475364,0.8378921140651766,1.081279770540994,0.01551338192075491,-0.1009515300393105,0.03516437485814095,0.008289155550301075,-0.004494166933000088,0.003283386817201972,XTrueNorthZVertical,-0.4734971664028469,0.34425493778758,0.6846847593243193,-0.4341610545508321,0.3494684100151062,-0.8825602531433105,-0.3145779371261597,11.85450553894043,-26.54352569580078,-31.7349796295166,2,0.0.0.0,10.83.46.32,1,0
2015-03-01 20:10:36.022,3,1425269434.52238,37.76573447496244,-122.460304217296,81.92931,-1,-1,10,65,-9999,1425269435.972573,10.45491790771484,-27.77706909179688,-32.19683074951172,36.47430801391602,22.69724273681641,10,196557.2936207917,0.3515625,-0.8912200927734375,-0.321929931640625,196557.2793295,-0.0115112474957585,0.0720017558636003,-0.02626143150927137,196557.227551875,-2.533777150475364,0.8378921140651766,1.081279770540994,0.01551338192075491,-0.1009515300393105,0.03516437485814095,0.008289155550301075,-0.004494166933000088,0.003283386817201972,XTrueNorthZVertical,-0.4734971664028469,0.34425493778758,0.6846847593243193,-0.4341610545508321,0.3494684100151062,-0.8825602531433105,-0.3145779371261597,11.85450553894043,-26.54352569580078,-31.7349796295166,2,0.0.0.0,10.83.46.32,1,0
2015-03-01 20:10:36.108,4,1425269434.52238,37.76573447496244,-122.460304217296,81.92931,-1,-1,10,65,-9999,1425269436.026901,10.40376281738281,-27.76008605957031,-32.47974395751953,36.37049102783203,22.59342575073242,10,196557.34262575,0.3696136474609375,-0.8843841552734375,-0.336181640625,196557.3311078333,-0.03195740044873284,0.002887665569972918,-0.01224787785327442,196557.3311078333,-2.528766034955287,0.8367303227033728,1.081496277789994,-0.04409581795334816,0.0171892587095499,0.02253254503011703,0.01830296777188778,-0.01026701927185059,-0.01880821213126183,XTrueNorthZVertical,-0.4739650505662578,0.3434083090521934,0.6838103149193756,-0.4356964391039353,0.348960816860199,-0.8826620578765869,-0.3148557245731354,11.7763557434082,-26.55265998840332,-31.75642585754395,2,0.0.0.0,10.83.46.32,1,0
2015-03-01 20:10:36.122,5,1425269434.52238,37.76573447496244,-122.460304217296,81.92931,-1,-1,10,65,-9999,1425269436.102507,10.11387634277344,-28.04899597167969,-32.72936248779297,37.08069610595703,23.30363082885742,10,196557.3917490834,0.3351898193359375,-0.8721160888671875,-0.3140716552734375,196557.3828862083,0.01200952493571232,-0.1553118263478951,0.006345247613222793,196557.3311078333,-2.528766034955287,0.8367303227033728,1.081496277789994,-0.04409581795334816,0.0171892587095499,0.02253254503011703,0.01830296777188778,-0.01026701927185059,-0.01880821213126183,XTrueNorthZVertical,-0.4739650505662578,0.3434083090521934,0.6838103149193756,-0.4356964391039353,0.348960816860199,-0.8826620578765869,-0.3148557245731354,11.7763557434082,-26.55265998840332,-31.75642585754395,2,0.0.0.0,10.83.46.32,1,0
2015-03-01 20:10:36.209,6,1425269434.52238,37.76573447496244,-122.460304217296,81.92931,-1,-1,10,65,-9999,1425269436.154174,10.23323822021484,-27.82807922363281,-32.54631042480469,37.05755233764648,23.28048896789551,10,196557.4406712917,0.3164520263671875,-0.87054443359375,-0.30609130859375,196557.4346639584,0.01211045874102633,0.02881966405240148,0.01025929546731225,196557.3828862083,-2.524335857368008,0.8276673848706794,1.081513109208059,-0.0001327882055193186,-0.1410111635923386,0.04112226516008377,-0.007443770300596952,0.002634567907080054,0.004808667115867138,XTrueNorthZVertical,-0.4716257665549691,0.344342097437681,0.6849830525189541,-0.4356557628883381,0.3460820615291595,-0.882669985294342,-0.3179953098297119,11.79272842407227,-26.49702835083008,-31.79679107666016,2,0.0.0.0,10.83.46.32,1,0
2015-03-01 20:10:36.215,7,1425269434.52238,37.76573447496244,-122.460304217296,81.92931,-1,-1,10,65,-9999,1425269436.20564,10.06271743774414,-27.79409790039062,-32.11363220214844,37.02776336669922,23.25069999694824,10,196557.4896834583,0.325286865234375,-0.86834716796875,-0.3015899658203125,196557.4864422917,0.0384595082501613,0.1419014786788011,0.04894650399067533,196557.4346639584,-2.519941753817845,0.8207834610309519,1.084444039076257,3.955103602493182e-05,0.04300132766366005,0.04505894333124161,-0.02706432715058327,0.01873302273452282,0.01489439699798822,XTrueNorthZVertical,-0.4700892706779172,0.3459962574372173,0.684833454181587,-0.4362406184538602,0.3419904708862305,-0.8840436935424805,-0.3186053335666656,11.43638515472412,-26.53640747070312,-31.89396667480469,2,0.0.0.0,10.83.46.32,1,0
2015-03-01 20:10:36.305,8,1425269434.52238,37.76573447496244,-122.460304217296,81.92931,-1,-1,10,65,-9999,1425269436.257755,9.875144958496094,-27.64115905761719,-32.23011779785156,36.20654678344727,22.42948341369629,10,196557.5387251667,0.279937744140625,-0.859466552734375,-0.25506591796875,196557.538220625,0.1731185203444919,0.2197142520409543,0.1140165841690174,196557.4864422917,-2.515472452675195,0.8229426777478264,1.088072767459929,0.02639098279178143,0.1560822129249573,0.08375076204538345,-0.01500607002526522,0.0164407379925251,0.01125435065478086,XTrueNorthZVertical,-0.4716809250158604,0.3459420175869694,0.6823391742002882,-0.4384684099431275,0.3403234481811523,-0.885733962059021,-0.31568244099617,11.43104839324951,-26.57961463928223,-31.85988235473633,2,0.0.0.0,10.83.46.32,1,0
2015-03-01 20:10:36.313,9,1425269434.52238,37.76573447496244,-122.460304217296,81.92931,-1,-1,10,65,-9999,1425269436.309362,9.943359375,-28.01498413085938,-31.76415252685547,35.55803680419922,21.78097152709961,10,196557.5877298334,0.24371337890625,-0.8512420654296875,-0.2040557861328125,196557.538220625,0.1731185203444919,0.2197142520409543,0.1140165841690174,196557.538220625,-2.51332086304514,0.8300825896853671,1.095660646333675,0.1610511988401413,0.2338947951793671,0.1488219350576401,-0.04598828032612801,0.03003876656293869,0.03814665973186493,XTrueNorthZVertical,-0.4746454415631031,0.3469316647864581,0.6780591177226186,-0.441119062575439,0.3375990092754364,-0.8892306685447693,-0.3087002635002136,11.53740692138672,-26.67165756225586,-31.74441528320312,2,0.0.0.0,10.83.46.32,1,0
2015-03-01 20:10:36.405,10,1425269434.52238,37.76573447496244,-122.460304217296,81.92931,-1,-1,10,65,-9999,1425269436.360748,10.57427978515625,-28.81367492675781,-31.61437225341797,33.93381500244141,20.15675163269043,10,196557.636764125,0.16473388671875,-0.8045654296875,-0.1479034423828125,196557.6417767917,0.6214552982727154,0.8422097810354546,0.4363267203602932,196557.5899985833,-2.518911836231477,0.8554657735461119,1.112127925132183,0.2931076288223267,0.5499477386474609,0.2421434223651886,-0.09051168709993362,0.04540079832077026,0.08633236587047577,XTrueNorthZVertical,-0.4825061010918342,0.3492760900790161,0.6685930464146955,-0.4451712966000114,0.334225058555603,-0.8966428637504578,-0.2903881371021271,11.87596130371094,-27.24866676330566,-31.12343978881836,2,0.0.0.0,10.83.46.32,1,0
2015-03-01 20:10:36.411,11,1425269434.52238,37.76573447496244,-122.460304217296,81.92931,-1,-1,10,65,-9999,1425269436.360748,10.57427978515625,-28.81367492675781,-31.61437225341797,33.93381500244141,20.15675163269043,10,196557.6857972083,0.151702880859375,-0.888031005859375,-0.069793701171875,196557.6417767917,0.6214552982727154,0.8422097810354546,0.4363267203602932,196557.6417767917,-2.532580462691366,0.9022893850065364,1.140107672507504,0.6094588041305542,0.8563215732574463,0.4711437523365021,-0.1628958731889725,0.1041130274534225,0.1108673289418221,XTrueNorthZVertical,-0.4957846946015351,0.3532876295342518,0.6522390895801559,-0.4516299670780577,0.3276297450065613,-0.9086784720420837,-0.258770763874054,12.1981725692749,-27.65139770507812,-30.63986968994141,2,0.0.0.0,10.83.46.32,1,0
2015-03-01 20:10:36.493,12,1425269434.52238,37.76573447496244,-122.460304217296,81.92931,-1,-1,10,65,-9999,1425269436.464346,13.33667373657227,-31.05679321289062,-28.88512420654297,25.7394905090332,11.96242713928223,10,196557.7348060417,0.21368408203125,-0.8969573974609375,-0.1452178955078125,196557.693555125,0.736149390623049,1.572091155716893,0.5045430590504549,196557.693555125,-2.570709993025296,1.000890403791033,1.182735053512849,0.7241529822349548,1.58620285987854,0.5393598079681396,-0.1668871939182281,0.037613395601511,0.1343702375888824,XTrueNorthZVertical,-0.5199455968167456,0.3571758777312643,0.6235798845167697,-0.4617685200034509,0.3185900747776031,-0.9256443977355957,-0.2041639387607574,12.75939083099365,-28.66697311401367,-29.45504379272461,2,0.0.0.0,10.83.46.32,1,0
2015-03-01 20:10:36.509,13,1425269434.52238,37.76573447496244,-122.460304217296,81.92931,-1,-1,10,65,-9999,1425269436.464346,13.33667373657227,-31.05679321289062,-28.88512420654297,25.7394905090332,11.96242713928223,10,196557.7838173333,0.339141845703125,-0.84490966796875,-0.22052001953125,196557.7453329167,0.387382879530708,1.798084608976036,0.8150519295032626,196557.7453329167,-2.58781895156077,1.103997291394083,1.225669411599226,0.3753865957260132,1.812196135520935,0.8498682379722595,-0.07732849568128586,0.0584183856844902,-0.0139767387881875,XTrueNorthZVertical,-0.5465054294186477,0.3538439783765269,0.587544580847148,-0.4805389576528696,0.3021209836006165,-0.9410325288772583,-0.1522525101900101,14.72055530548096,-30.66420936584473,-26.3668041229248,2,0.0.0.0,10.83.46.32,1,0
2015-03-01 20:10:36.595,14,1425269434.52238,37.76573447496244,-122.460304217296,81.92931,-1,-1,10,65,-9999,1425269436.569712,15.07595825195312,-33.57177734375,-26.22246551513672,13.51192760467529,359.73486328125,10,196557.8328562917,0.4188079833984375,-0.8828887939453125,-0.204193115234375,196557.79711125,0.147377736828331,1.105613190759159,1.060480866081695,196557.79711125,-2.550769181867511,1.145524806279858,1.276340779452107,0.1353815943002701,1.119724631309509,1.095296859741211,0.1132256686687469,0.1068016067147255,-0.1078039184212685,XTrueNorthZVertical,-0.5621929796847888,0.3522378183265067,0.5517698695452794,-0.5053886165299462,0.2643683254718781,-0.9569603204727173,-0.1197351440787315,15.24763679504395,-31.32683944702148,-25.26530647277832,2,0.0.0.0,10.83.46.32,1,0
2015-03-01 20:10:36.607,15,1425269434.52238,37.76573447496244,-122.460304217296,81.92931,-1,-1,10,65,-9999,1425269436.569712,15.07595825195312,-33.57177734375,-26.22246551513672,13.51192760467529,359.73486328125,10,196557.881877625,0.2890777587890625,-0.84503173828125,-0.134796142578125,196557.848889625,0.07884181880735981,-0.1284048445903885,1.124782890601658,196557.848889625,-2.474342007213516,1.092637258486147,1.330724138378147,0.06684578955173492,-0.1142935454845428,1.159598588943481,0.1935883760452271,0.09201783686876297,-0.08140097558498383,XTrueNorthZVertical,-0.5589222520710345,0.3645556570272462,0.5300890405204411,-0.5231737454342867,0.2111052274703979,-0.9713208079338074,-0.1094101816415787,15.04875087738037,-32.24528884887695,-24.20688819885254,2,0.0.0.0,10.83.46.32,1,0
2015-03-01 20:10:36.693,16,1425269434.52238,37.76573447496244,-122.460304217296,81.92931,-1,-1,10,65,-9999,1425269436.670767,11.32454681396484,-35.30508422851562,-25.88964080810547,6.598475456237793,352.8214111328125,10,196557.930901375,0.138702392578125,-0.912139892578125,-0.0345001220703125,196557.900667625,-0.0567900460331767,-0.6495013140284489,1.045217490926124,196557.900667625,-2.329484545246576,0.9242449323568924,1.377597307301919,-0.06878595799207687,-0.6353901624679565,1.080032825469971,0.0925561860203743,0.1276047676801682,0.002798540750518441,XTrueNorthZVertical,-0.5409358825184929,0.3867227291478122,0.522908614935427,-0.5332921824976119,0.1532476544380188,-0.9813950657844543,-0.1156678050756454,11.91850852966309,-33.48769378662109,-24.26356506347656,2,0.0.0.0,10.83.46.32,1,0
2015-03-01 20:10:36.705,17,1425269434.52238,37.76573447496244,-122.460304217296,81.92931,-1,-1,10,65,-9999,1425269436.670767,11.32454681396484,-35.30508422851562,-25.88964080810547,6.598475456237793,352.8214111328125,10,196557.979922125,0.1127166748046875,-0.9014434814453125,-0.0010986328125,196557.9524457917,0.1186139991588212,-0.221856232505705,0.9558212984026709,196557.9524457917,-2.126176627375477,0.7030861733767843,1.415382903171695,0.1066182106733322,-0.2077452391386032,0.9906362295150757,0.02871676534414291,0.08831993490457535,0.1271292716264725,XTrueNorthZVertical,-0.5253765594095606,0.4061269085736545,0.514574588460017,-0.54245135043516,0.1000826731324196,-0.9879476428031921,-0.11808080971241,10.4221248626709,-33.79862976074219,-24.51996994018555,2,0.0.0.0,10.83.46.32,1,0
2015-03-01 20:10:36.795,18,1425269434.52238,37.76573447496244,-122.460304217296,81.92931,-1,-1,10,65,-9999,1425269436.725122,8.817924499511719,-35.69589233398438,-25.50688934326172,5.646510124206543,351.8694458007812,10,196558.0289599583,0.079254150390625,-0.98651123046875,-0.037017822265625,196558.0042242917,0.1749931194357986,0.1802549931175772,0.7816588189108681,196558.0042242917,-1.886649457226177,0.4687181279804148,1.446223280240992,0.1629974544048309,0.1943658441305161,0.8164734244346619,0.02663387730717659,0.07327497750520706,0.09545470774173737,XTrueNorthZVertical,-0.5188179403922508,0.4188108534742492,0.5001259243687902,-0.5525391780099602,0.05612979456782341,-0.9922508001327515,-0.1108508259057999,8.61945915222168,-34.30432510375977,-24.51764297485352,2,0.0.0.0,10.83.46.32,1,0
2015-03-01 20:10:36.804,19,1425269434.52238,37.76573447496244,-122.460304217296,81.92931,-1,-1,10,65,-9999,1425269436.725122,8.817924499511719,-35.69589233398438,-25.50688934326172,5.646510124206543,351.8694458007812,10,196558.0779854583,0.089996337890625,-1.014251708984375,-0.100921630859375,196558.0560019583,0.1705594888530347,0.0859127778176292,0.61646906176376,196558.0560019583,-1.620323825591361,0.2116762426099035,1.466078930858906,0.1585639268159866,0.1000235080718994,0.6512833833694458,0.08726145327091217,-0.03373713418841362,0.0604456439614296,XTrueNorthZVertical,-0.5155752234200087,0.4278847314191137,0.4865897718331663,-0.5606490072081586,0.02196096070110798,-0.9945221543312073,-0.1021936908364296,6.830851078033447,-35.05303192138672,-24.01710510253906,2,0.0.0.0,10.83.46.32,1,0
2015-03-01 20:10:36.898,20,1425269434.52238,37.76573447496244,-122.460304217296,81.92931,-1,-1,10,65,-9999,1425269436.880436,5.083580017089844,-36.66452026367188,-24.75801086425781,358.269287109375,344.4922180175781,10,196558.1270052083,0.072723388671875,-1.112014770507812,-0.12823486328125,196558.1077804583,0.2554205843561916,0.05961779047862283,0.5460337772533443,196558.1077804583,-1.316436434420512,-0.08794417904184247,1.477310928550728,0.2434236854314804,0.07372884452342987,0.5808438658714294,0.07388809323310852,-0.05649060010910034,-0.02871489524841309,XTrueNorthZVertical,-0.5122358013354669,0.4371725987028048,0.4752576569491591,-0.5662374343040115,-0.00819900818169117,-0.9956334233283997,-0.09298920631408691,6.192775249481201,-35.29077911376953,-23.8412971496582,2,0.0.0.0,10.83.46.32,1,0
2015-03-01 20:10:36.902,21,1425269434.52238,37.76573447496244,-122.460304217296,81.92931,-1,-1,10,65,-9999,1425269436.880436,5.083580017089844,-36.66452026367188,-24.75801086425781,358.269287109375,344.4922180175781,10,196558.1760283333,0.062225341796875,-1.102035522460938,-0.142059326171875,196558.1595587083,0.1359008441106345,-0.07431977127640527,0.5753173639676377,196558.1595587083,-0.9817122797317827,-0.4184161656876446,1.479626771328779,0.1239040493965149,-0.06020886451005936,0.6101270914077759,0.1224721744656563,-0.0913417860865593,-0.07446383684873581,XTrueNorthZVertical,-0.5092814740496616,0.4461360701431796,0.4640478004421543,-0.5711870934590071,-0.03699243441224098,-0.9958469271659851,-0.08318997174501419,5.346316814422607,-35.67543411254883,-23.47077369689941,2,0.0.0.0,10.83.46.32,1,0
2015-03-01 20:10:36.991,22,1425269434.52238,37.76573447496244,-122.460304217296,81.92931,-1,-1,10,65,-9999,1425269436.983503,2.576972961425781,-37.08935546875,-24.07569885253906,355.5022888183594,341.7252197265625,10,196558.225066375,0.023406982421875,-1.14111328125,-0.11468505859375,196558.2113366667,-0.08075769689556282,-0.38926679968583,0.6093443068994711,196558.2113366667,-0.7214956089092318,-0.6903247512085179,1.463343405235934,-0.09275722503662109,-0.3751561045646667,0.6441503167152405,0.09765138477087021,-0.1414791792631149,-0.04532970115542412,XTrueNorthZVertical,-0.4993794444260714,0.4574651909414479,0.4586487716034544,-0.5753148212853567,-0.06829347461462021,-0.9942324757575989,-0.08269154280424118,3.557893514633179,-36.03889846801758,-23.25374221801758,2,0.0.0.0,10.83.46.32,1,0
2015-03-01 20:10:37.000,23,1425269434.52238,37.76573447496244,-122.460304217296,81.92931,-1,-1,10,65,-9999,1425269436.983503,2.576972961425781,-37.08935546875,-24.07569885253906,355.5022888183594,341.7252197265625,10,196558.2741942084,0.006622314453125,-1.073135375976562,-0.12408447265625,196558.2631149167,-0.0898989973372598,-0.506965470377991,0.5462785217575227,196558.2113366667,-0.7214956089092318,-0.6903247512085179,1.463343405235934,-0.09275722503662109,-0.3751561045646667,0.6441503167152405,0.09765138477087021,-0.1414791792631149,-0.04532970115542412,XTrueNorthZVertical,-0.4993794444260714,0.4574651909414479,0.4586487716034544,-0.5753148212853567,-0.06829347461462021,-0.9942324757575989,-0.08269154280424118,3.557893514633179,-36.03889846801758,-23.25374221801758,2,0.0.0.0,10.83.46.32,1,0
2015-03-01 20:10:37.101,24,1425269434.52238,37.76573447496244,-122.460304217296,81.92931,-1,-1,10,65,-9999,1425269437.087943,-1.396102905273438,-37.07235717773438,-24.19219207763672,355.3586120605469,341.58154296875,10,196558.3231184167,-0.0413818359375,-1.154739379882812,-0.2157440185546875,196558.3148934167,-0.01776648026413661,-1.244627536500205,0.6418332743017837,196558.3148934167,-0.469130202775143,-1.001463770492634,1.412184260216208,-0.02969956398010254,-1.230655074119568,0.6766414642333984,0.1345900446176529,-0.1256964653730392,-0.1412647515535355,XTrueNorthZVertical,-0.4687180050882275,0.4875765059195803,0.4581064654575189,-0.5768111637353519,-0.1330336481332779,-0.9874474406242371,-0.08514516800642014,1.099711894989014,-35.97736358642578,-23.59273529052734,2,0.0.0.0,10.83.46.32,1,0
2015-03-01 20:10:37.104,25,1425269434.52238,37.76573447496244,-122.460304217296,81.92931,-1,-1,10,65,-9999,1425269437.087943,-1.396102905273438,-37.07235717773438,-24.19219207763672,355.3586120605469,341.58154296875,10,196558.3721455,-0.1876373291015625,-1.145721435546875,0.073638916015625,196558.3148934167,-0.01776648026413661,-1.244627536500205,0.6418332743017837,196558.3148934167,-0.469130202775143,-1.001463770492634,1.412184260216208,-0.02969956398010254,-1.230655074119568,0.6766414642333984,0.1345900446176529,-0.1256964653730392,-0.1412647515535355,XTrueNorthZVertical,-0.4687180050882275,0.4875765059195803,0.4581064654575189,-0.5768111637353519,-0.1330336481332779,-0.9874474406242371,-0.08514516800642014,1.099711894989014,-35.97736358642578,-23.59273529052734,2,0.0.0.0,10.83.46.32,1,0
2015-03-01 20:10:37.162,26,1425269434.52238,37.76573447496244,-122.460304217296,81.92931,-1,-1,10,65,-9999,1425269437.138791,-4.465423583984375,-36.90243530273438,-23.36011505126953,358.2334289550781,344.4563598632812,10,196558.4211919167,-0.3596343994140625,-1.034103393554688,-0.0847625732421875,196558.418449625,-0.03110199310659939,-0.6840616881266252,0.5249564551220213,196558.366671125,-0.3234175845077686,-1.241594353669331,1.38695535304514,0.3959461152553558,-2.142518043518066,0.7135757207870483,0.03875930607318878,-0.1961725056171417,0.1072104349732399,XTrueNorthZVertical,-0.4411415323203459,0.5252089236705568,0.4676849939064766,-0.5575128260012657,-0.1729908734560013,-0.9831488132476807,-0.0590994693338871,-3.066357374191284,-36.05536270141602,-23.29817771911621,2,0.0.0.0,10.83.46.32,1,0
2015-03-01 20:10:37.196,27,1425269434.52238,37.76573447496244,-122.460304217296,81.92931,-1,-1,10,65,-9999,1425269437.138791,-4.465423583984375,-36.90243530273438,-23.36011505126953,358.2334289550781,344.4563598632812,10,196558.4702185,-0.2209014892578125,-1.200546264648438,0.0355682373046875,196558.470227875,0.3999415482831946,0.1229344453952567,0.5246049178581308,196558.418449625,-0.2406466523186116,-1.400207643070325,1.356059712417701,-0.04303484782576561,-0.6700896024703979,0.55976402759552,-0.1569001823663712,-0.06799613684415817,0.007045737002044916,XTrueNorthZVertical,-0.4160136220112457,0.5557385029660118,0.47271311203084,-0.5427980895864,-0.2099974006414413,-0.9770325422286987,-0.03617476671934128,-5.255560874938965,-36.2109375,-22.6570987701416,2,0.0.0.0,10.83.46.32,1,0
2015-03-01 20:10:37.313,28,1425269434.52238,37.76573447496244,-122.460304217296,81.92931,-1,-1,10,65,-9999,1425269437.24283,-8.574920654296875,-36.95339965820312,-21.74586486816406,358.2172546386719,344.440185546875,10,196558.5192704583,-0.3641815185546875,-1.053543090820312,0.0718841552734375,196558.5220056667,0.1911270819517167,-0.4905356306649651,0.3471995071069384,196558.470227875,-0.1588010080058774,-1.471379568722289,1.334806141919137,0.3880088031291962,0.1369064003229141,0.5594120621681213,0.01175015978515148,-0.2282629609107971,0.05877421423792839,XTrueNorthZVertical,-0.4156146181312426,0.5618376107441962,0.4602525130268328,-0.5475131800456555,-0.2326516509056091,-0.9722833037376404,-0.02320597693324089,-7.114231109619141,-36.10877227783203,-22.31011581420898,2,0.0.0.0,10.83.46.32,1,0
2015-03-01 20:10:37.317,29,1425269434.52238,37.76573447496244,-122.460304217296,81.92931,-1,-1,10,65,-9999,1425269437.298058,-9.444572448730469,-36.528564453125,-21.29655456542969,357.943115234375,344.1660461425781,10,196558.5683090833,-0.4573211669921875,-0.9407806396484375,0.059844970703125,196558.5220056667,0.1911270819517167,-0.4905356306649651,0.3471995071069384,196558.5220056667,-0.1031176739267496,-1.540714260543154,1.312044311399586,0.1791944652795792,-0.4765638113021851,0.3820063173770905,-0.1084227040410042,-0.08683302998542786,0.07958023250102997,XTrueNorthZVertical,-0.408730743149889,0.5736646598498352,0.4535212389202662,-0.5460463288165998,-0.2557588219642639,-0.9667100310325623,-0.007696075364947319,-8.406993865966797,-36.3643913269043,-21.42779731750488,2,0.0.0.0,10.83.46.32,1,0
2015-03-01 20:10:37.398,30,1425269434.52238,37.76573447496244,-122.460304217296,81.92931,-1,-1,10,65,-9999,1425269437.349941,-9.819717407226562,-36.22268676757812,-21.32982635498047,357.3966979980469,343.61962890625,10,196558.6173536667,-0.2068634033203125,-0.923919677734375,-0.0556793212890625,196558.625562625,0.1286607743711451,0.8651720885863359,0.1663018932183251,196558.573784125,-0.08577155294935133,-1.547332793140746,1.30049464648889,0.008395942859351635,0.9180501699447632,0.1746333837509155,-0.1903722286224365,0.0229097455739975,0.06610968708992004,XTrueNorthZVertical,-0.4088204641267613,0.5742242337286332,0.4470407682544385,-0.5507149705163024,-0.266948938369751,-0.9636904001235962,-0.006264714989811182,-8.967462539672852,-36.3818473815918,-21.16938209533691,2,0.0.0.0,10.83.46.32,1,0
2015-03-01 20:10:37.401,31,1425269434.52238,37.76573447496244,-122.460304217296,81.92931,-1,-1,10,65,-9999,1425269437.349941,-9.819717407226562,-36.22268676757812,-21.32982635498047,357.3966979980469,343.61962890625,10,196558.666372625,-0.2495269775390625,-0.9984283447265625,-0.0170440673828125,196558.625562625,0.1286607743711451,0.8651720885863359,0.1663018932183251,196558.625562625,-0.07617095052560957,-1.49943664506971,1.292317505811099,0.116728276014328,0.8791436553001404,0.2011078894138336,0.06733062863349915,0.0375550352036953,-0.03607964143157005,XTrueNorthZVertical,-0.4196477672350971,0.5604426038186977,0.4322586086018159,-0.5682890147552431,-0.2741940319538116,-0.9614747166633606,-0.0195996779948473,-8.593533515930176,-36.33582305908203,-21.40224266052246,2,0.0.0.0,10.83.46.32,1,0
2015-03-01 20:10:37.461,32,1425269434.52238,37.76573447496244,-122.460304217296,81.92931,-1,-1,10,65,-9999,1425269437.424682,-9.85382080078125,-36.01876831054688,-22.02877807617188,354.058349609375,340.2812805175781,10,196558.715422,-0.4025421142578125,-0.9464111328125,0.1064453125,196558.6773403334,0.1117539625068861,-0.1692281746241041,0.3013111109960011,196558.6773403334,-0.0483019955054012,-1.516984020091369,1.278115542432719,0.09982159733772278,-0.1552567631006241,0.3361167311668396,-0.02618264406919479,-0.03999318554997444,0.01643397659063339,XTrueNorthZVertical,-0.4194814181226225,0.5623843126324817,0.4241974618667821,-0.5725520132030369,-0.2881026268005371,-0.9574738740921021,-0.01551844924688339,-7.94476318359375,-36.36623382568359,-21.60034561157227,2,0.0.0.0,10.83.46.32,1,0
2015-03-01 20:10:37.496,33,1425269434.52238,37.76573447496244,-122.460304217296,81.92931,-1,-1,10,65,-9999,1425269437.475564,-9.836776733398438,-36.00178527832031,-22.11199188232422,351.6858215332031,337.9087524414062,10,196558.7644292917,-0.2775421142578125,-1.01788330078125,-0.0320587158203125,196558.7291187083,0.1293382825524613,0.5559423344050932,0.1802230351844963,196558.7291187083,-0.0257241095851085,-1.527816369380694,1.264668724357115,0.1174060329794884,0.5699136257171631,0.2150283008813858,-0.07775475829839706,-0.005705521907657385,0.09443075954914093,XTrueNorthZVertical,-0.4195926801289139,0.5634426040383615,0.4163021538023376,-0.577206203361144,-0.3010904490947723,-0.9535077214241028,-0.01294882968068123,-8.526126861572266,-36.36264038085938,-21.38365173339844,2,0.0.0.0,10.83.46.32,1,0
2015-03-01 20:10:37.561,34,1425269434.52238,37.76573447496244,-122.460304217296,81.92931,-1,-1,10,65,-9999,1425269437.527448,-9.393424987792969,-36.30766296386719,-22.01215362548828,349.1408081054688,335.3637390136719,10,196558.813468,-0.264556884765625,-0.9850616455078125,-0.0089874267578125,196558.7808972917,0.04725646196291104,0.3174887493537964,0.1301223171773806,196558.7808972917,-0.01165309775506345,-1.514661806384414,1.256042808572226,0.035324327647686,0.3314598798751831,0.1649272739887238,0.06466415524482727,-0.06380624324083328,-0.04256739467382431,XTrueNorthZVertical,-0.4237062996038471,0.5583801630902124,0.4070532517947374,-0.5856554320323842,-0.3090946972370148,-0.9508727192878723,-0.01736913062632084,-8.459735870361328,-36.38727188110352,-21.36810874938965,2,0.0.0.0,10.83.46.32,1,0
2015-03-01 20:10:37.597,35,1425269434.52238,37.76573447496244,-122.460304217296,81.92931,-1,-1,10,65,-9999,1425269437.579323,-9.035331726074219,-36.46060180664062,-21.99551391601562,347.7061462402344,333.9290771484375,10,196558.8624875417,-0.363189697265625,-0.966583251953125,0.03021240234375,196558.8326749167,0.03012700983152138,-0.08900683837208326,0.1746650179895009,196558.8326749167,-0.006392812593664204,-1.517266587372822,1.245145667004344,0.01819499395787716,-0.07503584772348404,0.2094696164131165,0.01555797550827265,-0.03522324934601784,0.02593693323433399,XTrueNorthZVertical,-0.4214317414689109,0.5602112198893412,0.403033278557875,-0.588322124766538,-0.3194672763347626,-0.9474427700042725,-0.01711735315620899,-8.554150581359863,-36.3304443359375,-21.42714691162109,2,0.0.0.0,10.83.46.32,1,0
2015-03-01 20:10:37.661,36,1425269434.52238,37.76573447496244,-122.460304217296,81.92931,-1,-1,10,65,-9999,1425269437.631039,-9.291107177734375,-36.13772583007812,-21.47962188720703,346.8727416992188,333.0956726074219,10,196558.9116214583,-0.3459930419921875,-0.96136474609375,-0.00897216796875,196558.8844535417,0.08449517716938003,0.05300862360137319,0.1293931436709169,196558.8844535417,0.0001017286451727044,-1.524183826225906,1.236413610926421,0.0725632980465889,0.06697946041822433,0.1641973704099655,-0.05484528839588165,-0.01899471506476402,0.05560576915740967,XTrueNorthZVertical,-0.419289110284486,0.5626283127794266,0.400129357327473,-0.5895274300512821,-0.3278298676013947,-0.9446130990982056,-0.01529204752296209,-8.810647964477539,-36.28858947753906,-21.39410781860352,2,0.0.0.0,10.83.46.32,1,0
2015-03-01 20:10:37.695,37,1425269434.52238,37.76573447496244,-122.460304217296,81.92931,-1,-1,10,65,-9999,1425269437.682546,-9.785614013671875,-35.54293823242188,-21.52954864501953,346.5059509277344,332.7288818359375,10,196558.9605312083,-0.278350830078125,-0.945709228515625,-0.028228759765625,196558.9362317917,0.0769424523179153,0.2749221140705149,0.04551928198385236,196558.9362317917,0.01118544465724508,-1.522084878935751,1.230483647091835,0.06501068919897079,0.2888928055763245,0.08032315224409103,0.0828978568315506,-0.00476786820217967,-0.01592820696532726,XTrueNorthZVertical,-0.4210720910512379,0.560867190132152,0.3947375541016174,-0.5935559133520792,-0.3333861529827118,-0.942650318145752,-0.01625257916748524,-9.018363952636719,-36.27885055541992,-21.32395935058594,2,0.0.0.0,10.83.46.32,1,0
2015-03-01 20:10:37.745,38,1425269434.52238,37.76573447496244,-122.460304217296,81.92931,-1,-1,10,65,-9999,1425269437.736286,-10.00728607177734,-35.69589233398438,-21.24662780761719,346.911865234375,333.1347961425781,10,196559.00968325,-0.3652496337890625,-0.8788299560546875,-0.008392333984375,196558.9880098334,0.0284976878766109,-0.03193742674055725,0.09004866699052226,196558.9880098334,0.01842126044109439,-1.524503652645702,1.229673839854946,0.0165641363710165,-0.01796313002705574,0.1248271986842155,-0.007472632452845573,0.005459570791572332,0.002709859982132912,XTrueNorthZVertical,-0.4223856993690684,0.5602228018719715,0.3928690321053903,-0.5944701225176421,-0.3341869115829468,-0.9423797130584717,-0.01548146642744541,-8.829570770263672,-36.34117126464844,-21.29683113098145,2,0.0.0.0,10.83.46.32,1,0
2015-03-01 20:10:37.790,39,1425269434.52238,37.76573447496244,-122.460304217296,81.92931,-1,-1,10,65,-9999,1425269437.736286,-10.00728607177734,-35.69589233398438,-21.24662780761719,346.911865234375,333.1347961425781,10,196559.0586069583,-0.3494110107421875,-0.9453277587890625,-0.0286102294921875,196559.0397880417,0.09935481710369515,0.2313320259803159,0.108962969684483,196559.0397880417,0.02545443013758211,-1.522161327421331,1.220740236711067,0.08741925656795502,0.2453043758869171,0.1437511891126633,0.01567139476537704,0.02934981696307659,-0.03113295324146748,XTrueNorthZVertical,-0.4221870739470239,0.5598407438644796,0.3877348429233716,-0.5983294889998743,-0.3425451815128326,-0.9393534660339355,-0.01667283289134502,-9.01788330078125,-36.3043212890625,-21.28076553344727,2,0.0.0.0,10.83.46.32,1,0
2015-03-01 20:10:37.844,40,1425269434.52238,37.76573447496244,-122.460304217296,81.92931,-1,-1,10,65,-9999,1425269437.813605,-10.21190643310547,-35.89981079101562,-21.18006134033203,345.3003845214844,331.5233154296875,10,196559.1077642917,-0.368621826171875,-0.9042816162109375,0.011138916015625,196559.0915665833,0.1868263431073477,-0.2109106404254793,0.1346488920821883,196559.0915665833,0.04575090076994041,-1.540706239659464,1.213774246853894,0.1748921126127243,-0.1969381272792816,0.1694356650114059,0.03078516386449337,-0.0007108710124157369,0.04150507226586342,XTrueNorthZVertical,-0.4222710065801447,0.562521075713197,0.3835715794114812,-0.5984397626916068,-0.3493276536464691,-0.9369417428970337,-0.01051447261124849,-9.046232223510742,-36.30367660522461,-21.26983451843262,2,0.0.0.0,10.83.46.32,1,0
2015-03-01 20:10:37.885,41,1425269434.52238,37.76573447496244,-122.460304217296,81.92931,-1,-1,10,65,-9999,1425269437.813605,-10.21190643310547,-35.89981079101562,-21.18006134033203,345.3003845214844,331.5233154296875,10,196559.1567005833,-0.4618682861328125,-0.9149017333984375,0.004547119140625,196559.1433443333,0.1675309420613966,-0.2835518212668077,-0.01516057713749408,196559.0915665833,0.04575090076994041,-1.540706239659464,1.213774246853894,0.1748921126127243,-0.1969381272792816,0.1694356650114059,0.03078516386449337,-0.0007108710124157369,0.04150507226586342,XTrueNorthZVertical,-0.4222710065801447,0.562521075713197,0.3835715794114812,-0.5984397626916068,-0.3493276536464691,-0.9369417428970337,-0.01051447261124849,-9.046232223510742,-36.30367660522461,-21.26983451843262,2,0.0.0.0,10.83.46.32,1,0
2015-03-01 20:10:37.942,42,1425269434.52238,37.76573447496244,-122.460304217296,81.92931,-1,-1,10,65,-9999,1425269437.890497,-10.39947509765625,-36.25663757324219,-20.83058166503906,344.1749572753906,330.3978881835938,10,196559.2059020417,-0.3555450439453125,-0.9943695068359375,0.03778076171875,196559.1951229167,0.1732673910494273,-0.02650138232348751,-0.1060614556768417,196559.1951229167,0.09780192783265469,-1.608042076590346,1.204005475977455,0.1613485962152481,-0.01253227610141039,-0.07124563306570053,0.00282803107984364,0.01769627816975117,0.03417707979679108,XTrueNorthZVertical,-0.4214483265684945,0.5736360630383851,0.3793775653294938,-0.5910970376016528,-0.3583730757236481,-0.9334830045700073,0.01335404999554157,-10.01935577392578,-36.53032684326172,-20.42901611328125,2,0.0.0.0,10.83.46.32,1,0
2015-03-01 20:10:37.992,43,1425269434.52238,37.76573447496244,-122.460304217296,81.92931,-1,-1,10,65,-9999,1425269437.941696,-10.45063018798828,-36.64749145507812,-20.18156433105469,343.2374877929688,329.4604187011719,10,196559.2548180417,-0.4701385498046875,-0.9612579345703125,0.0481414794921875,196559.2469011667,0.1665881830355086,-0.1569078587891795,-0.2886853305840444,196559.1951229167,0.09780192783265469,-1.608042076590346,1.204005475977455,0.1613485962152481,-0.01253227610141039,-0.07124563306570053,0.00282803107984364,0.01769627816975117,0.03417707979679108,XTrueNorthZVertical,-0.4214483265684945,0.5736360630383851,0.3793775653294938,-0.5910970376016528,-0.3583730757236481,-0.9334830045700073,0.01335404999554157,-10.01935577392578,-36.53032684326172,-20.42901611328125,2,0.0.0.0,10.83.46.32,1,0
2015-03-01 20:10:38.039,44,1425269434.52238,37.76573447496244,-122.460304217296,81.92931,-1,-1,10,65,-9999,1425269437.992785,-10.2630615234375,-36.83442687988281,-20.03178405761719,343.5799865722656,329.8029174804688,10,196559.3038901667,-0.3821258544921875,-0.8695526123046875,0.03912353515625,196559.2986791667,0.0978005962915249,0.02602121437894622,-0.4815541198886729,196559.2469011667,0.1264185346826313,-1.642411310466144,1.212053296613234,0.154676541686058,-0.1429390907287598,-0.2538664937019348,-0.1043767705559731,-0.0504317469894886,0.01580169796943665,XTrueNorthZVertical,-0.4253224593993243,0.5759010265174158,0.3807267691085626,-0.5852230431153566,-0.350197821855545,-0.9363389015197754,0.02512237429618835,-9.968189239501953,-36.7293701171875,-20.09441947937012,2,0.0.0.0,10.83.46.32,1,0
2015-03-01 20:10:38.090,45,1425269434.52238,37.76573447496244,-122.460304217296,81.92931,-1,-1,10,65,-9999,1425269438.044772,-9.819709777832031,-37.54814147949219,-19.93193054199219,343.393798828125,329.6167297363281,10,196559.3529279583,-0.1759033203125,-0.9896087646484375,0.00665283203125,196559.3504574583,0.113063705130987,0.1556167582927091,-0.3295057311405609,196559.2986791667,0.1499921111096628,-1.665286794344947,1.225567922976566,0.08595709502696991,0.03986137732863426,-0.4467063844203949,-0.0610927902162075,0.06105433404445648,0.001212960574775934,XTrueNorthZVertical,-0.431280912042598,0.5744226140367407,0.3830022188621923,-0.5808139163793223,-0.3369022011756897,-0.9409981966018677,0.0319291278719902,-9.505179405212402,-37.15296173095703,-19.53217887878418,2,0.0.0.0,10.83.46.32,1,0
2015-03-01 20:10:38.138,46,1425269434.52238,37.76573447496244,-122.460304217296,81.92931,-1,-1,10,65,-9999,1425269438.096762,-9.13763427734375,-37.78605651855469,-19.79879760742188,344.6822814941406,330.9052124023438,10,196559.4019915833,-0.313720703125,-0.983734130859375,0.0367584228515625,196559.402235875,0.1350731336438379,-0.4151013264723617,-0.1879235654764604,196559.3504574583,0.1716699600353131,-1.678370063969319,1.244457782379959,0.1012204959988594,0.1694576740264893,-0.2946694791316986,0.1018814593553543,-0.02187848277390003,-0.002314721466973424,XTrueNorthZVertical,-0.439784885570654,0.5690332689889217,0.3855603677894153,-0.5780429618288122,-0.3187240958213806,-0.9472224712371826,0.03441921249032021,-9.092097282409668,-37.30222320556641,-19.44414901733398,2,0.0.0.0,10.83.46.32,1,0
2015-03-01 20:10:38.192,47,1425269434.52238,37.76573447496244,-122.460304217296,81.92931,-1,-1,10,65,-9999,1425269438.148487,-8.711349487304688,-37.73507690429688,-19.28290557861328,346.2481384277344,332.4710693359375,10,196559.4510127917,-0.2086181640625,-0.9611968994140625,0.0589752197265625,196559.402235875,0.1350731336438379,-0.4151013264723617,-0.1879235654764604,196559.402235875,0.1915524379315763,-1.707739528351919,1.25586589661329,0.1232300475239754,-0.4012605547904968,-0.1530876904726028,-0.00687005277723074,-0.03291619941592216,-0.005527353379875422,XTrueNorthZVertical,-0.442579681811705,0.5703210615964729,0.3899752233797666,-0.5716436886900529,-0.3068506419658661,-0.9508179426193237,0.04228577762842178,-8.286581993103027,-37.54996490478516,-19.32691764831543,2,0.0.0.0,10.83.46.32,1,0
2015-03-01 20:10:38.236,48,1425269434.52238,37.76573447496244,-122.460304217296,81.92931,-1,-1,10,65,-9999,1425269438.202088,-8.404411315917969,-37.93901062011719,-18.88349914550781,346.9565734863281,333.1795043945312,10,196559.5001694583,-0.288848876953125,-1.008529663085938,0.0725860595703125,196559.505792375,0.0943486068865642,-0.1549973070231567,0.09670683603182936,196559.4540138333,0.2173867447438236,-1.747906330875121,1.260754169072798,0.1695491969585419,-0.1394112557172775,-0.1071834042668343,0.09170819073915482,-0.008876190520823002,0.005221187602728605,XTrueNorthZVertical,-0.4432773341283492,0.5747888491337827,0.3931234857648186,-0.5644262384244647,-0.3003263473510742,-0.9523206949234009,0.05375403165817261,-8.285459518432617,-37.82358551025391,-18.78628921508789,2,0.0.0.0,10.83.46.32,1,0
2015-03-01 20:10:38.293,49,1425269434.52238,37.76573447496244,-122.460304217296,81.92931,-1,-1,10,65,-9999,1425269438.278361,-8.267997741699219,-38.17691040039062,-18.55066680908203,348.0016174316406,334.2245483398438,10,196559.549092375,-0.2269744873046875,-1.0084228515625,0.1632232666015625,196559.505792375,0.0943486068865642,-0.1549973070231567,0.09670683603182936,196559.505792375,0.2373853147824075,-1.771410479271103,1.259728922494092,0.08250746876001358,-0.1411564946174622,0.1315363496541977,0.01108782365918159,-0.05652225762605667,0.01159408036619425,XTrueNorthZVertical,-0.4441856667415429,0.5772305285671669,0.3923688051196201,-0.5617390860913896,-0.2999367117881775,-0.9520074129104614,0.06099198013544083,-8.24748706817627,-37.92926788330078,-18.58888053894043,2,0.0.0.0,10.83.46.32,1,0
2015-03-01 20:10:38.334,50,1425269434.52238,37.76573447496244,-122.460304217296,81.92931,-1,-1,10,65,-9999,1425269438.329847,-8.609031677246094,-38.414794921875,-18.18455505371094,347.4362487792969,333.6591796875,10,196559.5981369583,-0.171417236328125,-0.982574462890625,0.020111083984375,196559.5575707083,0.2088711916626966,0.1986286741102519,0.1254937432028229,196559.5575707083,0.2541229208093518,-1.787050683179763,1.249893451533092,0.1970301568508148,0.2124693542718887,0.160322904586792,0.08110237866640091,-0.05947183445096016,0.09554193913936615,XTrueNorthZVertical,-0.4437659197165033,0.5804416187531025,0.3878466732306147,-0.5619024501670529,-0.3080768585205078,-0.9489510059356689,0.06768132746219635,-8.478686332702637,-37.98993301391602,-18.35956573486328,2,0.0.0.0,10.83.46.32,1,0
2015-03-01 20:10:38.388,51,1425269434.52238,37.76573447496244,-122.460304217296,81.92931,-1,-1,10,65,-9999,1425269438.381611,-9.376365661621094,-38.53373718261719,-17.83507537841797,348.6431579589844,334.8660888671875,10,196559.6471787083,-0.4348602294921875,-0.9161834716796875,0.2135772705078125,196559.6093487917,0.1311468352487341,-0.1395746748343988,0.1757603761458505,196559.6093487917,0.2750683844831004,-1.800750196533529,1.239777768611545,0.1193059384822845,-0.1257341504096985,0.2105891555547714,0.1120600327849388,-0.006741817109286785,-0.02630435302853584,XTrueNorthZVertical,-0.4449812260395297,0.5822641321980988,0.3815723425527933,-0.5633496302910603,-0.3164515197277069,-0.9457117915153503,0.07407962530851364,-8.787139892578125,-38.11699676513672,-17.94653129577637,2,0.0.0.0,10.83.46.32,1,0
2015-03-01 20:10:38.432,52,1425269434.52238,37.76573447496244,-122.460304217296,81.92931,-1,-1,10,65,-9999,1425269438.381611,-9.376365661621094,-38.53373718261719,-17.83507537841797,348.6431579589844,334.8660888671875,10,196559.6963411667,-0.3475189208984375,-0.9710845947265625,0.1355438232421875,196559.6611270417,0.1700697335285692,-0.2717827797775295,0.2401883681853744,196559.6611270417,0.2857350610578254,-1.826093538846023,1.225155847143323,0.1582289636135101,-0.257942408323288,0.2750167846679688,-0.1450055986642838,0.02922229841351509,0.1108378022909164,XTrueNorthZVertical,-0.4401133545184284,0.5908293078144806,0.3791686314184697,-0.5598680048659607,-0.3278184831142426,-0.9408586621284485,0.08555807173252106,-9.156585693359375,-38.12122344970703,-17.75179672241211,2,0.0.0.0,10.83.46.32,1,0
2015-03-01 20:10:38.488,53,1425269434.52238,37.76573447496244,-122.460304217296,81.92931,-1,-1,10,65,-9999,1425269438.485105,-10.29717254638672,-38.46577453613281,-17.53551483154297,347.0534057617188,333.2763366699219,10,196559.7452535,-0.349884033203125,-0.9293060302734375,0.1064453125,196559.7129056667,0.1096447389235433,0.1497594017911889,0.04984319032970501,196559.7129056667,0.2985552213066129,-1.83497087092939,1.214773820381311,0.09780406951904297,0.1635996550321579,0.08467131108045578,0.02462879940867424,-0.03943976014852524,0.0250325370579958,XTrueNorthZVertical,-0.440013911681175,0.5932057267256754,0.3739287394537064,-0.5609564072544362,-0.3364574015140533,-0.9372906088829041,0.09101055562496185,-9.839256286621094,-38.12595748901367,-17.37231826782227,2,0.0.0.0,10.83.46.32,1,0
2015-03-01 20:10:38.530,54,1425269434.52238,37.76573447496244,-122.460304217296,81.92931,-1,-1,10,65,-9999,1425269438.485105,-10.29717254638672,-38.46577453613281,-17.53551483154297,347.0534057617188,333.2763366699219,10,196559.794297125,-0.4572906494140625,-0.8771209716796875,0.1752777099609375,196559.7646835833,0.02330931744091853,-0.1933116729939087,0.02807850632103243,196559.7646835833,0.3028729162081834,-1.83946036254055,1.211204605514023,0.01146876532584429,-0.1794715523719788,0.06290628015995026,-0.02793409675359726,0.006536177359521389,0.05556398257613182,XTrueNorthZVertical,-0.4396993501003971,0.5944478690983734,0.3724604823240665,-0.5608649314005679,-0.3392686545848846,-0.9360405802726746,0.09340757876634598,-9.967479705810547,-38.16656494140625,-17.20929527282715,2,0.0.0.0,10.83.46.32,1,0
2015-03-01 20:10:38.587,55,1425269434.52238,37.76573447496244,-122.460304217296,81.92931,-1,-1,10,65,-9999,1425269438.537602,-10.65526580810547,-38.17691040039062,-17.88499450683594,347.4346008300781,333.6575317382812,10,196559.8433182084,-0.30999755859375,-1.015884399414062,0.1517333984375,196559.816462,-0.004690092995738546,-0.03422668001358936,0.02166641336444865,196559.816462,0.2997991434518853,-1.844356816352125,1.209326226041461,-0.01653051376342773,-0.0203867070376873,0.05649380013346672,-0.1039585173130035,0.05093274265527725,0.02608530595898628,XTrueNorthZVertical,-0.4374721542629133,0.5969835552671332,0.3737383055591222,-0.559060370322673,-0.3404994904994965,-0.9353779554367065,0.09554250538349152,-10.17379665374756,-38.15593338012695,-17.11185264587402,2,0.0.0.0,10.83.46.32,1,0
2015-03-01 20:10:38.628,56,1425269434.52238,37.76573447496244,-122.460304217296,81.92931,-1,-1,10,65,-9999,1425269438.589189,-10.56999969482422,-38.329833984375,-17.83506774902344,346.1772155761719,332.400146484375,10,196559.8924617083,-0.227783203125,-0.9420166015625,0.0541534423828125,196559.8682403333,-0.02223899299881569,0.2124922917968774,-0.09339599416464285,196559.8682403333,0.308043107591878,-1.846201607254808,1.212748537921627,-0.03406707569956779,0.2263319194316864,-0.05859485641121864,0.1096247956156731,-0.1230028197169304,0.06047756224870682,XTrueNorthZVertical,-0.4403060530590894,0.594794323860425,0.3730351897533379,-0.5596383733009967,-0.3372401595115662,-0.9365827441215515,0.09529941529035568,-10.29280853271484,-38.11257171630859,-17.13730239868164,2,0.0.0.0,10.83.46.32,1,0
2015-03-01 20:10:38.684,57,1425269434.52238,37.76573447496244,-122.460304217296,81.92931,-1,-1,10,65,-9999,1425269438.641135,-10.14371490478516,-38.34683227539062,-17.31918334960938,345.1639709472656,331.3869018554688,10,196559.9413738333,-0.3603057861328125,-0.9033660888671875,0.0882720947265625,196559.9200184167,-0.00908936880044044,-0.1188579447146724,0.01157889178744651,196559.8682403333,0.308043107591878,-1.846201607254808,1.212748537921627,-0.03406707569956779,0.2263319194316864,-0.05859485641121864,0.1096247956156731,-0.1230028197169304,0.06047756224870682,XTrueNorthZVertical,-0.4403060530590894,0.594794323860425,0.3730351897533379,-0.5596383733009967,-0.3372401595115662,-0.9365827441215515,0.09529941529035568,-10.29280853271484,-38.11257171630859,-17.13730239868164,2,0.0.0.0,10.83.46.32,1,0
2015-03-01 20:10:38.726,58,1425269434.52238,37.76573447496244,-122.460304217296,81.92931,-1,-1,10,65,-9999,1425269438.693765,-10.09255218505859,-37.98995971679688,-17.63536834716797,346.5105895996094,332.7335205078125,10,196559.99041775,-0.35687255859375,-0.9413909912109375,0.145843505859375,196559.9717969167,-0.03780463693811082,-0.0308031864322925,0.1317282033146984,196559.9717969167,0.2896085775232835,-1.831986909447961,1.215274755215711,-0.04964244365692139,-0.01696271263062954,0.1665026545524597,-0.05462581291794777,0.001963969320058823,0.0596969909965992,XTrueNorthZVertical,-0.4380246320235713,0.5942027267578081,0.375955355692454,-0.5601028311861217,-0.3362738490104675,-0.9374650716781616,0.089884914457798,-9.81441593170166,-38.17617797851562,-17.27581405639648,2,0.0.0.0,10.83.46.32,1,0
2015-03-01 20:10:38.787,59,1425269434.52238,37.76573447496244,-122.460304217296,81.92931,-1,-1,10,65,-9999,1425269438.745878,-10.46768951416016,-37.65010070800781,-17.33580780029297,345.9761047363281,332.1990356445312,10,196560.0394437083,-0.33782958984375,-0.8861846923828125,0.106781005859375,196560.0235753334,-0.1229618759544845,0.04080442158997607,0.1716628364926546,196560.0235753334,0.28173978965308,-1.824020394133325,1.207576042619675,-0.134783148765564,0.05464382097125053,0.2064394056797028,-0.01424378249794245,0.02985032275319099,0.05569041892886162,XTrueNorthZVertical,-0.4355115661804494,0.5956794563588301,0.3737517746418736,-0.5619656054150455,-0.3439562916755676,-0.9347575306892395,0.08900868147611618,-10.18858528137207,-38.0239143371582,-17.39459419250488,2,0.0.0.0,10.83.46.32,1,0
2015-03-01 20:10:38.823,60,1425269434.52238,37.76573447496244,-122.460304217296,81.92931,-1,-1,10,65,-9999,1425269438.796396,-10.72347259521484,-37.36123657226562,-17.65200805664062,345.259033203125,331.4819641113281,10,196560.0884686667,-0.2904815673828125,-0.83001708984375,0.007843017578125,196560.0753532917,-0.1937316534978142,0.1828787394235233,0.3480147007166116,196560.0753532917,0.2546336985362949,-1.78835406491714,1.193286456752866,-0.2055497020483017,0.1967178136110306,0.3827917873859406,0.04248945787549019,-0.006709160283207893,-0.00531292986124754,XTrueNorthZVertical,-0.4308681847758645,0.595091342582278,0.3687707730786262,-0.5694094203443716,-0.3599180579185486,-0.9295853972434998,0.07956219464540482,-10.53945732116699,-37.88774871826172,-17.48243713378906,2,0.0.0.0,10.83.46.32,1,0
2015-03-01 20:10:38.885,61,1425269434.52238,37.76573447496244,-122.460304217296,81.92931,-1,-1,10,65,-9999,1425269438.848281,-11.04744720458984,-37.34423828125,-17.80178833007812,343.6487121582031,329.8716430664062,10,196560.1374922917,-0.3458099365234375,-0.87286376953125,0.0579681396484375,196560.1271315833,-0.3365135732329954,0.08624673821832514,0.8754673367283642,196560.0753532917,0.2546336985362949,-1.78835406491714,1.193286456752866,-0.2055497020483017,0.1967178136110306,0.3827917873859406,0.04248945787549019,-0.006709160283207893,-0.00531292986124754,XTrueNorthZVertical,-0.4308681847758645,0.595091342582278,0.3687707730786262,-0.5694094203443716,-0.3599180579185486,-0.9295853972434998,0.07956219464540482,-10.53945732116699,-37.88774871826172,-17.48243713378906,2,0.0.0.0,10.83.46.32,1,0
2015-03-01 20:10:38.922,62,1425269434.52238,37.76573447496244,-122.460304217296,81.92931,-1,-1,10,65,-9999,1425269438.902503,-12.34339141845703,-36.83444213867188,-18.40088653564453,340.339111328125,326.5620422363281,10,196560.18665075,-0.3478240966796875,-0.764007568359375,-0.095916748046875,196560.1789102917,-0.5100339645859803,0.172788022053213,1.173280918264764,196560.1789102917,0.1365186381298457,-1.664447869134131,1.11406179495225,-0.5218517780303955,0.1866268068552017,1.208057165145874,0.08384741842746735,0.1466124057769775,-0.0418674536049366,XTrueNorthZVertical,-0.3978977423423624,0.6019122101123878,0.351025859992098,-0.5967914152328495,-0.4390872716903687,-0.8974974155426025,0.0412418432533741,-12.88971710205078,-36.51959991455078,-18.77154922485352,2,0.0.0.0,10.83.46.32,1,0
2015-03-01 20:10:38.986,63,1425269434.52238,37.76573447496244,-122.460304217296,81.92931,-1,-1,10,65,-9999,1425269438.977943,-15.63439178466797,-34.09854125976562,-19.74885559082031,335.2513732910156,321.4743041992188,10,196560.235555,-0.381072998046875,-0.764678955078125,-0.0127716064453125,196560.1789102917,-0.5100339645859803,0.172788022053213,1.173280918264764,196560.1789102917,0.1365186381298457,-1.664447869134131,1.11406179495225,-0.5218517780303955,0.1866268068552017,1.208057165145874,0.08384741842746735,0.1466124057769775,-0.0418674536049366,XTrueNorthZVertical,-0.3978977423423624,0.6019122101123878,0.351025859992098,-0.5967914152328495,-0.4390872716903687,-0.8974974155426025,0.0412418432533741,-12.88971710205078,-36.51959991455078,-18.77154922485352,2,0.0.0.0,10.83.46.32,1,0
2015-03-01 20:10:39.020,64,1425269434.52238,37.76573447496244,-122.460304217296,81.92931,-1,-1,10,65,-9999,1425269438.977943,-15.63439178466797,-34.09854125976562,-19.74885559082031,335.2513732910156,321.4743041992188,10,196560.2846015417,-0.3783111572265625,-0.8301544189453125,-0.0675201416015625,196560.2824665,-0.6067980585812464,0.5886446210107212,1.759882628403286,196560.2306880417,0.07361350541093521,-1.593189770155131,1.046407487053228,-0.6007160544395447,0.458971381187439,1.505901694297791,0.1198823973536491,0.07171531021595001,0.08087568730115891,XTrueNorthZVertical,-0.371887299039484,0.6060572497107051,0.3347174350001819,-0.6183516437395958,-0.5005586743354797,-0.8656300902366638,0.01121110655367374,-14.71121311187744,-35.33175277709961,-19.6836051940918,2,0.0.0.0,10.83.46.32,1,0
2015-03-01 20:10:39.093,65,1425269434.52238,37.76573447496244,-122.460304217296,81.92931,-1,-1,10,65,-9999,1425269439.081477,-19.60746765136719,-29.15351867675781,-22.46143341064453,329.0075378417969,315.23046875,10,196560.33361675,-0.6224517822265625,-0.8437042236328125,-0.0377655029296875,196560.3342449584,-0.5169464655113899,0.5710685567645253,1.905726917075949,196560.2824665,0.02201106895599722,-1.517393344132427,0.9618099076448565,-0.6185562610626221,0.602366030216217,1.794674634933472,0.1808859258890152,-0.006935452111065388,0.0201121848076582,XTrueNorthZVertical,-0.3424032066457462,0.6062120712383913,0.3111448345192671,-0.6468816974052494,-0.5712209939956665,-0.8202282190322876,-0.0305339377373457,-16.62814140319824,-33.74893951416016,-20.89763450622559,2,0.0.0.0,10.83.46.32,1,0
2015-03-01 20:10:39.120,66,1425269434.52238,37.76573447496244,-122.460304217296,81.92931,-1,-1,10,65,-9999,1425269439.081477,-19.60746765136719,-29.15351867675781,-22.46143341064453,329.0075378417969,315.23046875,10,196560.3827679167,-0.6385040283203125,-0.757354736328125,-0.0794830322265625,196560.3860230834,-0.6017572272699443,0.9930541546547418,2.012654432739284,196560.3342449584,-0.009503913981707008,-1.464381123189319,0.8646778943315619,-0.5287045240402222,0.5847897529602051,1.940518140792847,0.02276296727359295,-0.0828179270029068,0.03115551173686981,XTrueNorthZVertical,-0.3087241307323336,0.6084643820229542,0.2833044777306898,-0.6739429868565134,-0.6452147364616394,-0.7608863115310669,-0.06892101466655731,-19.33476066589355,-31.05802345275879,-22.66634368896484,2,0.0.0.0,10.83.46.32,1,0
2015-03-01 20:10:39.161,67,1425269434.52238,37.76573447496244,-122.460304217296,81.92931,-1,-1,10,65,-9999,1425269439.133649,-21.63663482666016,-25.73788452148438,-23.74284362792969,321.4169921875,307.6399230957031,10,196560.43168375,-0.724822998046875,-0.6093597412109375,0.0020904541015625,196560.3860230834,-0.6017572272699443,0.9930541546547418,2.012654432739284,196560.3860230834,-0.03146773725333049,-1.402390781600165,0.7611458429051375,-0.6135151982307434,1.006775259971619,2.047445297241211,0.07529930770397186,-0.06760319322347641,0.04187483713030815,XTrueNorthZVertical,-0.2743573427285906,0.6033648267826255,0.2507672062081954,-0.7055457549339827,-0.7138033509254456,-0.6897515654563904,-0.1213578656315804,-21.24838638305664,-28.69148063659668,-24.03127288818359,2,0.0.0.0,10.83.46.32,1,0
2015-03-01 20:10:39.216,68,1425269434.52238,37.76573447496244,-122.460304217296,81.92931,-1,-1,10,65,-9999,1425269439.186965,-23.68285369873047,-21.96540832519531,-25.77312469482422,319.6329040527344,305.8558349609375,10,196560.4808375417,-0.862457275390625,-0.59332275390625,-0.233612060546875,196560.48958,-0.6326775927902003,0.8399809815191673,2.132779243184507,196560.437801375,-0.04447741064342595,-1.349431333609102,0.6512787930252423,-0.6855480074882507,0.9496524333953857,2.176230192184448,0.05107969790697098,-0.003155804239213467,0.176709771156311,XTrueNorthZVertical,-0.2365938342715623,0.5972551379132376,0.2162452127959913,-0.7352195151695068,-0.7759026885032654,-0.6062039136886597,-0.1746193170547485,-22.69883155822754,-25.96388053894043,-25.7456226348877,2,0.0.0.0,10.83.46.32,1,0
2015-03-01 20:10:39.260,69,1425269434.52238,37.76573447496244,-122.460304217296,81.92931,-1,-1,10,65,-9999,1425269439.23703,-24.82532501220703,-17.80207824707031,-27.22095489501953,311.87255859375,298.0954895019531,10,196560.529751875,-0.783203125,-0.4456024169921875,-0.306182861328125,196560.48958,-0.6326775927902003,0.8399809815191673,2.132779243184507,196560.48958,-0.05125436865901359,-1.297145708063733,0.5368296474355051,-0.6444353461265564,0.8537017703056335,2.167569398880005,-0.03509804978966713,-0.08190858364105225,-0.001378641463816166,XTrueNorthZVertical,-0.1963593774357017,0.5876446931285825,0.1798334101395692,-0.7640528279188549,-0.8273591995239258,-0.5114141702651978,-0.2322334200143814,-24.27674102783203,-21.87120056152344,-28.00870323181152,2,0.0.0.0,10.83.46.32,1,0
2015-03-01 20:10:39.315,70,1425269434.52238,37.76573447496244,-122.460304217296,81.92931,-1,-1,10,65,-9999,1425269439.288225,-25.47328948974609,-13.519775390625,-28.81855010986328,305.2450256347656,291.4679565429688,10,196560.5789132084,-1.015899658203125,-0.3502655029296875,-0.29510498046875,196560.541357875,-0.8018876579188919,0.5890904341772004,2.073363320316512,196560.541357875,-0.05573844722126323,-1.26054524195888,0.4242633523938524,-0.8136451840400696,0.6028110980987549,2.108153104782104,0.0696294978260994,0.01432594656944275,0.04454238712787628,XTrueNorthZVertical,-0.1539708020330237,0.5806699768128594,0.146046323843874,-0.7859935821388743,-0.8678320050239563,-0.4116495549678802,-0.2782307267189026,-25.15954208374023,-18.58994102478027,-29.55686950683594,2,0.0.0.0,10.83.46.32,1,0
2015-03-01 20:10:39.362,71,1425269434.52238,37.76573447496244,-122.460304217296,81.92931,-1,-1,10,65,-9999,1425269439.340575,-25.84842681884766,-9.237457275390625,-29.65064239501953,303.1845092773438,289.4074401855469,10,196560.627827625,-0.9855804443359375,-0.21905517578125,-0.3415679931640625,196560.5931362917,-0.5689052710110539,0.4457724201145863,2.043536448739843,196560.5931362917,-0.05591326729658497,-1.231866141779995,0.3118563014584849,-0.580662727355957,0.459492951631546,2.078325986862183,-0.2048421651124954,-0.009336180984973907,-0.01877886801958084,XTrueNorthZVertical,-0.1107562306219934,0.5740316394599833,0.1122226009072048,-0.8035091112397308,-0.8976206183433533,-0.3068259358406067,-0.3164414763450623,-25.91265106201172,-15.06756591796875,-30.88203430175781,2,0.0.0.0,10.83.46.32,1,0
2015-03-01 20:10:39.413,72,1425269434.52238,37.76573447496244,-122.460304217296,81.92931,-1,-1,10,65,-9999,1425269439.393342,-25.88253021240234,-4.92120361328125,-30.71570587158203,301.1283569335938,287.3512878417969,10,196560.6769747917,-1.030502319335938,-0.1774444580078125,-0.366241455078125,196560.6449147917,-0.5860443105223678,0.4080282369332203,1.752172777047506,196560.6449147917,-0.05062071437926288,-1.208951260213395,0.2103979555651515,-0.5978016257286072,0.4217486679553986,1.786961913108826,-0.07831401377916336,0.06111349910497665,0.03287000581622124,XTrueNorthZVertical,-0.07206690249820938,0.567194297404747,0.08036650107438349,-0.8164792010720533,-0.9146211743354797,-0.2088491022586823,-0.3461939692497253,-26.5509033203125,-10.61762046813965,-32.16384124755859,2,0.0.0.0,10.83.46.32,3,0
2015-03-01 20:10:39.457,73,1425269434.52238,37.76573447496244,-122.460304217296,81.92931,-1,-1,10,65,-9999,1425269439.444307,-26.20651245117188,-1.40362548828125,-31.23159790039062,295.809326171875,282.0322570800781,10,196560.7259139583,-0.9347991943359375,-0.0423583984375,-0.4882659912109375,196560.696692875,-0.5519720938520031,0.4357232480572812,1.510440308062104,196560.696692875,-0.04498528925961144,-1.187742327686651,0.122071992079912,-0.5637292861938477,0.4494434893131256,1.545229196548462,-0.02689969912171364,-0.05482092499732971,-0.02285576425492764,XTrueNorthZVertical,-0.03797947267293152,0.5595272726379878,0.0527294780397207,-0.8262605295533533,-0.9206253290176392,-0.1217690408229828,-0.3709735870361328,-26.65262031555176,-7.608075618743896,-32.92342758178711,2,0.0.0.0,10.83.46.32,3,0
2015-03-01 20:10:39.510,74,1425269434.52238,37.76573447496244,-122.460304217296,81.92931,-1,-1,10,65,-9999,1425269439.495456,-25.865478515625,1.55322265625,-31.86398315429688,294.3350830078125,280.5580139160156,10,196560.774955,-1.113922119140625,0.2588043212890625,-0.54095458984375,196560.7484712084,-0.5943357962602205,-0.1085855997580188,1.079008744101485,196560.7484712084,-0.04973746620870892,-1.179141758530476,0.04915597919106562,-0.6060928702354431,-0.09486547857522964,1.113797187805176,-0.1077519655227661,0.08735945075750351,-0.06712236255407333,XTrueNorthZVertical,-0.006598821327676238,0.5561725260210473,0.03432187255305728,-0.8303316540053456,-0.9231623411178589,-0.04913618415594101,-0.3812571465969086,-26.47073554992676,-4.892545223236084,-33.57916259765625,2,0.0.0.0,10.83.46.32,3,0
2015-03-01 20:10:39.561,75,1425269434.52238,37.76573447496244,-122.460304217296,81.92931,-1,-1,10,65,-9999,1425269439.547787,-25.30277252197266,3.507415771484375,-31.61436462402344,291.3492126464844,277.5721435546875,10,196560.8239755833,-1.175445556640625,0.277679443359375,-0.45770263671875,196560.8002497917,-0.1637915975748164,-0.1145263132016586,0.1303984869824218,196560.8002497917,-0.05942017661769496,-1.182314222931467,0.01272673761883864,-0.1755485683679581,-0.1008063107728958,0.1651866436004639,-0.2257891744375229,0.2853551805019379,-0.1727297455072403,XTrueNorthZVertical,0.01127420310922778,0.5572218507336602,0.02820890635830171,-0.8298078263873051,-0.9254101514816284,-0.01272639445960522,-0.3787533938884735,-26.69092178344727,-2.069921016693115,-33.69728851318359,2,0.0.0.0,10.83.46.32,3,0
2015-03-01 20:10:39.608,76,1425269434.52238,37.76573447496244,-122.460304217296,81.92931,-1,-1,10,65,-9999,1425269439.599599,-25.16636657714844,3.57537841796875,-31.18167114257812,291.5703430175781,277.7932739257812,10,196560.87299825,-1.173904418945312,0.1733245849609375,-0.4281158447265625,196560.852027625,0.3252119165150262,-0.04194239032376693,-0.8349777007792355,196560.852027625,-0.06622423100498236,-1.185480380747698,0.03179291047514645,0.3134550452232361,-0.02822253108024597,-0.8001898527145386,-0.2356384992599487,0.3551365435123444,-0.04404623806476593,XTrueNorthZVertical,0.005314952556887258,0.5586955733765315,0.03633021969978565,-0.8285597096333497,-0.9262114763259888,-0.03178755566477776,-0.3756620287895203,-26.84073829650879,-1.991311192512512,-33.58282852172852,2,0.0.0.0,10.83.46.32,3,0
2015-03-01 20:10:39.661,77,1425269434.52238,37.76573447496244,-122.460304217296,81.92931,-1,-1,10,65,-9999,1425269439.65146,-25.43919372558594,2.18194580078125,-31.04853820800781,299.7261657714844,285.9490966796875,10,196560.9220112083,-1.061691284179688,-0.0243377685546875,-0.4199676513671875,196560.9038062083,0.8291235400710233,-0.1616823739914736,-1.440794118182679,196560.9038062083,-0.05823124607304098,-1.18952144897494,0.09672272400147054,0.8173668384552002,-0.1479626595973969,-1.406006693840027,-0.154775857925415,0.1051474213600159,-0.02987313270568848,XTrueNorthZVertical,-0.02373187611583147,0.5605839328673659,0.05115970333211518,-0.8261750460672961,-0.9238526821136475,-0.09657198190689087,-0.3703649044036865,-26.7976188659668,-3.118080615997314,-33.53151321411133,2,0.0.0.0,10.83.46.32,3,0
2015-03-01 20:10:39.706,78,1425269434.52238,37.76573447496244,-122.460304217296,81.92931,-1,-1,10,65,-9999,1425269439.703028,-25.71202087402344,-0.60491943359375,-30.88212585449219,301.7648620605469,287.98779296875,10,196560.9710446667,-0.900238037109375,-0.269927978515625,-0.3655242919921875,196560.9555845833,0.9722463444257347,-0.3092356131356408,-1.850771256401619,196560.9555845833,-0.04536197859127116,-1.20313609278064,0.1894830695705921,0.9604897499084473,-0.2955160439014435,-1.815984129905701,-0.0512588731944561,0.01548442058265209,-0.04365241900086403,XTrueNorthZVertical,-0.06519539821075523,0.5650218208888416,0.07213755792213021,-0.8193266408649114,-0.9164687991142273,-0.1883512437343597,-0.3529998064041138,-25.79727935791016,0.7375187873840332,-31.09844207763672,2,0.0.0.0,10.83.46.32,3,0
2015-03-01 20:10:39.746,79,1425269434.52238,37.76573447496244,-122.460304217296,81.92931,-1,-1,10,65,-9999,1425269439.703028,-25.71202087402344,-0.60491943359375,-30.88212585449219,301.7648620605469,287.98779296875,10,196561.0201643333,-0.98046875,-0.3087921142578125,-0.2883758544921875,196561.0073626667,0.8334261431281553,-0.7240559761129991,-2.061451000760588,196560.9555845833,-0.04536197859127116,-1.20313609278064,0.1894830695705921,0.9604897499084473,-0.2955160439014435,-1.815984129905701,-0.0512588731944561,0.01548442058265209,-0.04365241900086403,XTrueNorthZVertical,-0.06519539821075523,0.5650218208888416,0.07213755792213021,-0.8193266408649114,-0.9164687991142273,-0.1883512437343597,-0.3529998064041138,-25.79727935791016,0.7375187873840332,-31.09844207763672,2,0.0.0.0,10.83.46.32,3,0
2015-03-01 20:10:39.805,80,1425269434.52238,37.76573447496244,-122.460304217296,81.92931,-1,-1,10,65,-9999,1425269439.754217,-25.64381408691406,-4.88720703125,-30.54928588867188,306.4153442382812,292.6382751464844,10,196561.0690949583,-0.9129791259765625,-0.416656494140625,-0.194793701171875,196561.0591410417,0.9078814693040456,-0.6609686193662211,-2.18549811485928,196561.0591410417,-0.03217142941485489,-1.266712203924764,0.4099357368097411,0.8961250185966492,-0.6472492814064026,-2.150711536407471,-0.0506662093102932,0.007879613898694515,0.07012845575809479,XTrueNorthZVertical,-0.1547171617556393,0.5820282244646174,0.1331415399126073,-0.7871334993867899,-0.875069260597229,-0.3985503911972046,-0.2746115028858185,-26.66901016235352,-6.234928607940674,-29.71609497070312,2,0.0.0.0,10.83.46.32,3,0
2015-03-01 20:10:39.844,81,1425269434.52238,37.76573447496244,-122.460304217296,81.92931,-1,-1,10,65,-9999,1425269439.807173,-25.38803863525391,-9.288482666015625,-29.80040740966797,307.9255065917969,294.1484375,10,196561.11820825,-0.7433624267578125,-0.56158447265625,-0.1795501708984375,196561.1109196667,1.001495043729748,-0.698103204974068,-2.108889622942061,196561.0591410417,-0.03217142941485489,-1.266712203924764,0.4099357368097411,0.8961250185966492,-0.6472492814064026,-2.150711536407471,-0.0506662093102932,0.007879613898694515,0.07012845575809479,XTrueNorthZVertical,-0.1547171617556393,0.5820282244646174,0.1331415399126073,-0.7871334993867899,-0.875069260597229,-0.3985503911972046,-0.2746115028858185,-26.66901016235352,-6.234928607940674,-29.71609497070312,2,0.0.0.0,10.83.46.32,3,0
2015-03-01 20:10:39.903,82,1425269434.52238,37.76573447496244,-122.460304217296,81.92931,-1,-1,10,65,-9999,1425269439.857583,-25.16636657714844,-14.02957153320312,-28.68541717529297,313.9931640625,300.2160949707031,10,196561.167158625,-0.7460479736328125,-0.7147369384765625,-0.13836669921875,196561.1626975417,0.9600053907912944,-0.9392939869937482,-2.083154964696407,196561.1109196667,-0.014443491892692,-1.307161484325457,0.5252280484593422,0.9897387623786926,-0.6843840479850769,-2.074103593826294,0.05354715138673782,-0.02678791433572769,0.02728515490889549,XTrueNorthZVertical,-0.2018582564538851,0.5886595712923602,0.1633816169497316,-0.7655322791316724,-0.8353159427642822,-0.5014103055000305,-0.2254663109779358,-26.69356727600098,-11.24533557891846,-28.18071556091309,2,0.0.0.0,10.83.46.32,3,0
2015-03-01 20:10:39.942,83,1425269434.52238,37.76573447496244,-122.460304217296,81.92931,-1,-1,10,65,-9999,1425269439.912305,-24.45018768310547,-19.02555847167969,-26.75498962402344,319.2392578125,305.4621887207031,10,196561.2162416667,-0.70123291015625,-0.6969757080078125,0.0122833251953125,196561.214476125,0.9337293118960277,-0.6634653328881703,-2.116981904230375,196561.1626975417,0.01359480192269759,-1.364057541240261,0.6368480765259688,0.9482504725456238,-0.925575315952301,-2.048374176025391,0.04599398002028465,-0.1216137409210205,0.04123659804463387,XTrueNorthZVertical,-0.2470988020765756,0.597014743997403,0.1923337668374065,-0.7385955383824903,-0.7868539690971375,-0.5946643352508545,-0.1650311499834061,-26.34821510314941,-14.92650032043457,-26.76056671142578,2,0.0.0.0,10.83.46.32,3,0
2015-03-01 20:10:40.003,84,1425269434.52238,37.76573447496244,-122.460304217296,81.92931,-1,-1,10,65,-9999,1425269439.987708,-21.67073822021484,-25.09211730957031,-24.34194946289062,321.7681579589844,307.9910888671875,10,196561.26525675,-0.4687347412109375,-0.8332977294921875,-0.0028533935546875,196561.2662545,0.9344270601016285,-0.3459827088048812,-1.804516941956904,196561.214476125,0.04923076610967127,-1.427593417331537,0.7480910614229708,0.921977162361145,-0.649747908115387,-2.082204818725586,0.01398385874927044,-0.04653535410761833,0.1051417961716652,XTrueNorthZVertical,-0.2911036119944347,0.6024573146477898,0.2218295389164152,-0.7092923209070067,-0.7254859209060669,-0.6802407503128052,-0.1046077385544777,-25.84380531311035,-18.4728946685791,-24.98012733459473,2,0.0.0.0,10.83.46.32,3,0
2015-03-01 20:10:40.040,85,1425269434.52238,37.76573447496244,-122.460304217296,81.92931,-1,-1,10,65,-9999,1425269439.987708,-21.67073822021484,-25.09211730957031,-24.34194946289062,321.7681579589844,307.9910888671875,10,196561.31427025,-0.4239044189453125,-0.65283203125,-0.0576171875,196561.2662545,0.9344270601016285,-0.3459827088048812,-1.804516941956904,196561.2662545,0.101432554262748,-1.487008466670345,0.8493371436269873,0.9226756691932678,-0.3322656452655792,-1.769741415977478,0.1894292831420898,-0.08245496451854706,0.0524221733212471,XTrueNorthZVertical,-0.3341633485715187,0.6005806127359035,0.2445234887642022,-0.6839927757236687,-0.6581640243530273,-0.7508427500724792,-0.0552755668759346,-24.19160079956055,-22.91093063354492,-22.86947059631348,2,0.0.0.0,10.83.46.32,3,0
2015-03-01 20:10:40.099,86,1425269434.52238,37.76573447496244,-122.460304217296,81.92931,-1,-1,10,65,-9999,1425269440.040364,-19.45400238037109,-28.28683471679688,-22.81092071533203,328.4403381347656,314.6632690429688,10,196561.363189625,-0.316253662109375,-0.4443359375,-0.0453033447265625,196561.3698110417,-0.2362567434680904,0.6671628657456364,-0.06901688491383949,196561.3180326667,0.1494981678304956,-1.542693135155124,0.9188154669021215,0.4943293035030365,-0.2911941409111023,-0.9846900105476379,0.1826182454824448,0.1420514136552811,-0.04056747630238533,XTrueNorthZVertical,-0.3636917544522708,0.5993358423616338,0.2602520698908586,-0.6639230268969242,-0.6065226793289185,-0.7948834300041199,-0.01704971119761467,-22.71037864685059,-25.55271148681641,-21.55120658874512,2,0.0.0.0,10.83.46.32,3,0
2015-03-01 20:10:40.138,87,1425269434.52238,37.76573447496244,-122.460304217296,81.92931,-1,-1,10,65,-9999,1425269440.116875,-17.16905975341797,-31.549560546875,-21.27987670898438,329.3752136230469,315.59814453125,10,196561.412311625,-0.144622802734375,-0.7687835693359375,-0.0981597900390625,196561.3698110417,-0.2362567434680904,0.6671628657456364,-0.06901688491383949,196561.3698110417,0.1629317863435731,-1.532349530760222,0.9415275708168246,-0.247950866818428,0.6807716488838196,-0.03422040119767189,0.2718652486801147,0.3641221523284912,-0.02268090844154358,XTrueNorthZVertical,-0.3760290826650438,0.5893139326055326,0.2611946652732932,-0.6656490324354194,-0.5881189107894897,-0.8084580898284912,-0.02262243628501892,-21.7357292175293,-27.00044822692871,-20.77717018127441,2,0.0.0.0,10.83.46.32,3,0
2015-03-01 20:10:40.197,88,1425269434.52238,37.76573447496244,-122.460304217296,81.92931,-1,-1,10,65,-9999,1425269440.167983,-16.96443939208984,-31.65151977539062,-21.37973022460938,327.2991943359375,313.5221252441406,10,196561.4612413333,-0.5756988525390625,-0.6097412109375,-0.019256591796875,196561.4215897083,-0.4296685513189861,-0.3401495870692806,0.9169790939038652,196561.4215897083,0.1374585991671768,-1.502179155921451,0.9151923388446628,-0.4413625597953796,-0.3265409171581268,0.9517751932144165,0.4635808169841766,0.02389628998935223,-0.05636095628142357,XTrueNorthZVertical,-0.3642088505198486,0.588602155096687,0.2557499856901145,-0.674901052570229,-0.6082035899162292,-0.7926798462867737,-0.04179883375763893,-21.07287216186523,-26.79452705383301,-21.70585823059082,2,0.0.0.0,10.83.46.32,3,0
2015-03-01 20:10:40.237,89,1425269434.52238,37.76573447496244,-122.460304217296,81.92931,-1,-1,10,65,-9999,1425269440.221548,-18.73783111572266,-29.88423156738281,-21.97883605957031,323.4838562011719,309.706787109375,10,196561.5103030833,-0.65185546875,-0.7193145751953125,-0.0230255126953125,196561.47336775,-0.7517216924650693,-0.01227157998697612,1.753294766814756,196561.47336775,0.09536643451864907,-1.484942060430912,0.8416237180337195,-0.7634155750274658,0.00133692764211446,1.788090467453003,0.03173418343067169,0.1567671746015549,0.05647428706288338,XTrueNorthZVertical,-0.3300572904716327,0.602077219325172,0.2438225658562154,-0.6849203114799821,-0.663798987865448,-0.7457259297370911,-0.05713041499257088,-22.57835388183594,-25.30725288391113,-21.97538757324219,2,0.0.0.0,10.83.46.32,3,0
2015-03-01 20:10:40.295,90,1425269434.52238,37.76573447496244,-122.460304217296,81.92931,-1,-1,10,65,-9999,1425269440.271867,-20.8863525390625,-26.79145812988281,-23.54315948486328,321.2138671875,307.4367980957031,10,196561.5593878333,-0.6744384765625,-0.6017608642578125,-0.1411590576171875,196561.5251460417,-1.054623509580175,0.9442333518675182,2.051395969748885,196561.5251460417,0.04676015868293738,-1.420207008239197,0.7402849585647256,-1.066316843032837,0.9578415751457214,2.086190700531006,0.08056824654340744,0.008528468199074268,0.05167480185627937,XTrueNorthZVertical,-0.2884449424934294,0.6011830828547378,0.2192368571819029,-0.7122595637929959,-0.729921281337738,-0.6744983196258545,-0.1107568293809891,-24.44130516052246,-22.68883514404297,-22.82534027099609,2,0.0.0.0,10.83.46.32,3,0
2015-03-01 20:10:40.334,91,1425269434.52238,37.76573447496244,-122.460304217296,81.92931,-1,-1,10,65,-9999,1425269440.323967,-22.81320953369141,-22.662109375,-25.45695495605469,318.29150390625,304.5144348144531,10,196561.6083927917,-0.6917572021484375,-0.5654754638671875,-0.306884765625,196561.5769247084,-1.037471686895628,0.9848359058468662,2.392839054159617,196561.5769247084,0.005615975185659918,-1.340164389319329,0.6187763631168979,-1.049164891242981,0.9984440207481384,2.42763352394104,0.1418362408876419,-0.04523582383990288,0.02893679589033127,XTrueNorthZVertical,-0.2402994402573062,0.5908905241751456,0.1869978136466773,-0.7470853062842028,-0.7930203080177307,-0.580038845539093,-0.1862091422080994,-25.6180534362793,-18.01528358459473,-25.54059028625488,2,0.0.0.0,10.83.46.32,3,0
2015-03-01 20:10:40.394,92,1425269434.52238,37.76573447496244,-122.460304217296,81.92931,-1,-1,10,65,-9999,1425269440.376864,-24.05799865722656,-17.61514282226562,-27.43730163574219,310.3573303222656,296.5802612304688,10,196561.6572999167,-1.001480102539062,-0.4878692626953125,-0.1945343017578125,196561.6287025417,-1.15672990472214,0.6189508615836049,2.531950072648233,196561.6287025417,-0.0203791273040845,-1.285652284689772,0.481931216965437,-1.168423295021057,0.6325588822364807,2.566743850708008,0.07403087615966797,-0.1189214289188385,0.07677118480205536,XTrueNorthZVertical,-0.1850673888357118,0.584056328607493,0.1509679390316455,-0.7757815528291173,-0.8503217697143555,-0.463491290807724,-0.2492565363645554,-26.19965744018555,-13.84798240661621,-27.4766845703125,2,0.0.0.0,10.83.46.32,3,0
2015-03-01 20:10:40.432,93,1425269434.52238,37.76573447496244,-122.460304217296,81.92931,-1,-1,10,65,-9999,1425269440.427239,-25.40509033203125,-12.56817626953125,-29.28453063964844,308.0213928222656,294.2443237304688,10,196561.7064152083,-0.9170074462890625,-0.3891448974609375,-0.3859405517578125,196561.6804810417,-1.002715037825113,0.7219882978426616,2.366385076103533,196561.6804810417,-0.03539882672674301,-1.252332914068183,0.3464151675815245,-1.014408111572266,0.735596239566803,2.401177883148193,-0.1781410574913025,-0.09203621000051498,-0.02597259730100632,XTrueNorthZVertical,-0.1294072034426105,0.5796549845089431,0.1151105978690331,-0.7962433639357284,-0.8933005928993225,-0.3395281136035919,-0.2945077419281006,-26.77765274047852,-9.378425598144531,-28.77775573730469,2,0.0.0.0,10.83.46.32,3,0
2015-03-01 20:10:40.497,94,1425269434.52238,37.76573447496244,-122.460304217296,81.92931,-1,-1,10,65,-9999,1425269440.482231,-26.56460571289062,-7.09637451171875,-30.64913940429688,302.4346923828125,288.6576232910156,10,196561.7553307083,-1.12738037109375,-0.0931854248046875,-0.3841552734375,196561.7322595417,-1.085708991088016,0.196987101614327,1.962673290665113,196561.7322595417,-0.05207593305486251,-1.218748014917115,0.2261943548575579,-1.097402334213257,0.2105950862169266,1.99746572971344,-0.001471574883908033,0.000240911787841469,-0.09407716244459152,XTrueNorthZVertical,-0.07770540995030015,0.5709142480730112,0.08578433856923634,-0.8128098840382502,-0.9147576689720154,-0.2242704480886459,-0.3360375761985779,-26.54543685913086,-3.716090679168701,-30.24379539489746,2,0.0.0.0,10.83.46.32,3,0
2015-03-01 20:10:40.531,95,1425269440.519029,37.76571994664987,-122.4603906278077,81.61734,-1,-1,10,65,-9999,1425269440.482231,-26.56460571289062,-7.09637451171875,-30.64913940429688,302.4346923828125,288.6576232910156,10,196561.804439625,-1.146270751953125,0.11383056640625,-0.505401611328125,196561.7840375833,-0.8048871762546481,0.01586871167134615,1.452993526504114,196561.7322595417,-0.05207593305486251,-1.218748014917115,0.2261943548575579,-1.097402334213257,0.2105950862169266,1.99746572971344,-0.001471574883908033,0.000240911787841469,-0.09407716244459152,XTrueNorthZVertical,-0.07770540995030015,0.5709142480730112,0.08578433856923634,-0.8128098840382502,-0.9147576689720154,-0.2242704480886459,-0.3360375761985779,-26.54543685913086,-3.716090679168701,-30.24379539489746,2,0.0.0.0,10.83.46.32,3,0
2015-03-01 20:10:40.599,96,1425269440.519029,37.76571994664987,-122.4603906278077,81.61734,-1,-1,10,65,-9999,1425269440.556661,-26.99089813232422,-0.553955078125,-31.16503143310547,300.7426452636719,286.965576171875,10,196561.853356875,-1.309768676757812,0.19561767578125,-0.411529541015625,196561.8358160417,-0.3232073551625235,-0.3155883175999158,0.5247410053898338,196561.8358160417,-0.07711646341069738,-1.22057164988851,0.06774884821453393,-0.3349004685878754,-0.3019806444644928,0.559532642364502,-0.2746205925941467,0.2507872581481934,-0.09145510196685791,XTrueNorthZVertical,-0.005653981206804734,0.5734170875997737,0.05096726079550519,-0.8176571923455821,-0.9371408820152283,-0.06769703328609467,-0.3423217535018921,-26.31781005859375,3.00994348526001,-30.51998901367188,2,0.0.0.0,10.83.46.32,3,0
2015-03-01 20:10:40.628,97,1425269440.519029,37.76571994664987,-122.4603906278077,81.61734,-1,-1,10,65,-9999,1425269440.610963,-26.93975067138672,1.46826171875,-31.18168640136719,298.0928039550781,284.3157348632812,10,196561.9023682917,-1.096054077148438,0.0144195556640625,-0.4211578369140625,196561.8875947084,0.1341056072198121,-0.09945122353515602,-0.6154512015951318,196561.8875947084,-0.08132921436054526,-1.229502613836405,0.06957657085201135,0.1224125921726227,-0.08584366738796234,-0.5806598663330078,-0.2494410872459412,0.1717238128185272,-0.1258353888988495,XTrueNorthZVertical,-0.004957038166153136,0.5770849966353288,0.05323405471794545,-0.8149322300484003,-0.9400425553321838,-0.06952045112848282,-0.333896666765213,-26.6580696105957,4.415422439575195,-30.05009460449219,2,0.0.0.0,10.83.46.32,3,0
2015-03-01 20:10:40.693,98,1425269440.519029,37.76571994664987,-122.4603906278077,81.61734,-1,-1,10,65,-9999,1425269440.686635,-27.97991180419922,1.55322265625,-30.63251495361328,302.0515747070312,288.2745056152344,10,196561.9514009167,-1.132659912109375,-0.0498046875,-0.3311920166015625,196561.9393725834,0.4128307153269601,-0.3597192937075099,-1.33352119052596,196561.9393725834,-0.08374189127112344,-1.243871594469113,0.1207497484533088,0.4011377990245819,-0.3461118340492249,-1.298730134963989,-0.2456828355789185,0.1152990609407425,-0.0558856725692749,XTrueNorthZVertical,-0.02465417150337059,0.5830910957551713,0.06908157303949453,-0.8090888405281924,-0.9401386976242065,-0.1204565316438675,-0.3187938928604126,-26.98731994628906,3.437133312225342,-29.88356590270996,2,0.0.0.0,10.83.46.32,3,0
2015-03-01 20:10:40.727,99,1425269440.519029,37.76571994664987,-122.4603906278077,81.61734,-1,-1,10,65,-9999,1425269440.686635,-27.97991180419922,1.55322265625,-30.63251495361328,302.0515747070312,288.2745056152344,10,196562.0003981667,-1.040496826171875,-0.203155517578125,-0.2449493408203125,196561.9911512083,0.6361013526876061,-0.3630908556475502,-1.786424490775342,196561.9393725834,-0.08374189127112344,-1.243871594469113,0.1207497484533088,0.4011377990245819,-0.3461118340492249,-1.298730134963989,-0.2456828355789185,0.1152990609407425,-0.0558856725692749,XTrueNorthZVertical,-0.02465417150337059,0.5830910957551713,0.06908157303949453,-0.8090888405281924,-0.9401386976242065,-0.1204565316438675,-0.3187938928604126,-26.98731994628906,3.437133312225342,-29.88356590270996,2,0.0.0.0,10.83.46.32,3,0
2015-03-01 20:10:40.791,100,1425269440.519029,37.76571994664987,-122.4603906278077,81.61734,-1,-1,10,65,-9999,1425269440.740219,-28.37210083007812,-0.84283447265625,-30.28305053710938,304.3337707519531,290.5567016601562,10,196562.0494222083,-0.910919189453125,-0.383514404296875,-0.2469482421875,196562.0429295417,0.6128170689609345,-0.6017156819569391,-2.092277356694364,196562.0429295417,-0.08093159511604468,-1.281991897177472,0.3053481056734834,0.6011244058609009,-0.5881085395812988,-2.057487010955811,-0.03361748158931732,-0.04285014420747757,0.002329549519345164,XTrueNorthZVertical,-0.09788342249365764,0.5954854126704299,0.1229167841225589,-0.7878499176879907,-0.914243221282959,-0.300625205039978,-0.2716319262981415,-28.10195159912109,-2.707009315490723,-28.91555404663086,2,0.0.0.0,10.83.46.32,3,0
2015-03-01 20:10:40.825,101,1425269440.519029,37.76571994664987,-122.4603906278077,81.61734,-1,-1,10,65,-9999,1425269440.740219,-28.37210083007812,-0.84283447265625,-30.28305053710938,304.3337707519531,290.5567016601562,10,196562.0984315,-0.9871978759765625,-0.5216217041015625,-0.090850830078125,196562.0429295417,0.6128170689609345,-0.6017156819569391,-2.092277356694364,196562.0429295417,-0.08093159511604468,-1.281991897177472,0.3053481056734834,0.6011244058609009,-0.5881085395812988,-2.057487010955811,-0.03361748158931732,-0.04285014420747757,0.002329549519345164,XTrueNorthZVertical,-0.09788342249365764,0.5954854126704299,0.1229167841225589,-0.7878499176879907,-0.914243221282959,-0.300625205039978,-0.2716319262981415,-28.10195159912109,-2.707009315490723,-28.91555404663086,2,0.0.0.0,10.83.46.32,3,0
2015-03-01 20:10:40.894,102,1425269440.519029,37.76571994664987,-122.4603906278077,81.61734,-1,-1,10,65,-9999,1425269440.869001,-28.4403076171875,-11.24267578125,-28.08634948730469,313.5498657226562,299.7727966308594,10,196562.1474674167,-0.794586181640625,-0.5198822021484375,-0.1896820068359375,196562.146486125,0.6657359440335719,-0.6317321706032222,-2.217605184961275,196562.0947075833,-0.08199148486122018,-1.318174839100537,0.4141878989582536,0.5997090339660645,-0.767167866230011,-2.153267621994019,-0.09333325922489166,-0.06876003742218018,0.09933796525001526,XTrueNorthZVertical,-0.1378517993218275,0.6054688167459292,0.1575208951236438,-0.7678487029967653,-0.886387825012207,-0.4024466276168823,-0.2288087904453278,-28.47831153869629,-6.062509059906006,-28.02478790283203,2,0.0.0.0,10.83.46.32,3,0
2015-03-01 20:10:40.928,103,1425269440.519029,37.76571994664987,-122.4603906278077,81.61734,-1,-1,10,65,-9999,1425269440.869001,-28.4403076171875,-11.24267578125,-28.08634948730469,313.5498657226562,299.7727966308594,10,196562.1964835,-0.8127593994140625,-0.753936767578125,0.0015716552734375,196562.1982647917,0.8898838266572902,-0.9320027845613292,-2.201864571338362,196562.146486125,-0.07604013423427712,-1.350327628496693,0.5277613373549651,0.6540434956550598,-0.6181252598762512,-2.182815551757812,0.006263679824769497,-0.01362663041800261,0.03139998391270638,XTrueNorthZVertical,-0.1805216492797866,0.6106931080808166,0.1915511845148499,-0.7468427380092849,-0.8430251479148865,-0.503600537776947,-0.1889317184686661,-28.62387657165527,-9.570367813110352,-26.87449836730957,2,0.0.0.0,10.83.46.32,3,0
2015-03-01 20:10:40.994,104,1425269440.519029,37.76571994664987,-122.4603906278077,81.61734,-1,-1,10,65,-9999,1425269440.92539,-27.62181854248047,-15.76287841796875,-26.62187957763672,320.0099182128906,306.2328491210938,10,196562.2455154583,-0.6866302490234375,-0.7505950927734375,-0.004302978515625,196562.1982647917,0.8898838266572902,-0.9320027845613292,-2.201864571338362,196562.1982647917,-0.05475981686888626,-1.407424055297799,0.6431739070081303,0.8781934976577759,-0.9183972477912903,-2.167077302932739,-0.02321813441812992,-0.154198557138443,0.1317207813262939,XTrueNorthZVertical,-0.2240918843059339,0.6202485486539084,0.2242418433028235,-0.7174888366486536,-0.7895412445068359,-0.5997381806373596,-0.1301491260528564,-28.15524482727051,-14.41449737548828,-25.15275955200195,2,0.0.0.0,10.83.46.32,3,0
2015-03-01 20:10:41.027,105,1425269440.519029,37.76571994664987,-122.4603906278077,81.61734,-1,-1,10,65,-9999,1425269440.997427,-25.01289367675781,-22.78105163574219,-24.00914001464844,327.8174743652344,314.0404052734375,10,196562.29453675,-0.46978759765625,-0.5914764404296875,-0.0454864501953125,196562.2500426667,0.9539810540894262,-0.7805964839520354,-2.31099798333261,196562.2500426667,-0.01241897745478338,-1.475095260378638,0.7598963284238335,0.9422913193702698,-0.7669914364814758,-2.276211500167847,0.03496019914746284,-0.06174879521131516,0.06496559828519821,XTrueNorthZVertical,-0.2706068107475228,0.626208964112822,0.2536654824322033,-0.6857756046890179,-0.7215904593467712,-0.6888462901115417,-0.06926857680082321,-27.52549362182617,-18.12789916992188,-23.38553428649902,2,0.0.0.0,10.83.46.32,3,0
2015-03-01 20:10:41.094,106,1425269440.519029,37.76571994664987,-122.4603906278077,81.61734,-1,-1,10,65,-9999,1425269441.049017,-22.45511627197266,-26.92739868164062,-22.51139831542969,330.5065002441406,316.7294311523438,10,196562.3435632917,-0.303497314453125,-0.6428375244140625,-0.1372528076171875,196562.3535997917,0.2292265308224993,-0.03807920884649799,-1.108901662073189,196562.3018211667,0.03586729101328567,-1.544205891497837,0.8688757695889276,0.5604079365730286,-0.5300968289375305,-1.875378847122192,0.1756696701049805,0.1721270829439163,-0.02831941470503807,XTrueNorthZVertical,-0.3128521462166752,0.6273276787835508,0.2819369522393705,-0.6550535418757669,-0.6454572677612305,-0.7636035084724426,-0.01716703549027443,-26.2513427734375,-21.82383918762207,-21.62738609313965,2,0.0.0.0,10.83.46.32,3,0
2015-03-01 20:10:41.127,107,1425269440.519029,37.76571994664987,-122.4603906278077,81.61734,-1,-1,10,65,-9999,1425269441.10643,-20.17017364501953,-30.46199035644531,-21.11349487304688,335.9457702636719,322.168701171875,10,196562.3925664584,-0.4391326904296875,-0.36895751953125,0.0053253173828125,196562.3535997917,0.2292265308224993,-0.03807920884649799,-1.108901662073189,196562.3535997917,0.05825566918053924,-1.571266955896116,0.9413080327882758,0.2175926864147186,-0.02457465417683125,-1.07409131526947,0.2812971770763397,0.1924231052398682,-0.0987725555896759,XTrueNorthZVertical,-0.3387985558407745,0.6207689389802621,0.3022404116709172,-0.6391496430671534,-0.5887312889099121,-0.8083288669586182,0.000277074082987383,-24.24409866333008,-25.26312637329102,-20.17808151245117,2,0.0.0.0,10.83.46.32,3,0
2015-03-01 20:10:41.195,108,1425269440.519029,37.76571994664987,-122.4603906278077,81.61734,-1,-1,10,65,-9999,1425269441.178681,-19.21527099609375,-32.02534484863281,-20.74738311767578,337.6183776855469,323.84130859375,10,196562.4415915417,-0.3393402099609375,-0.6315765380859375,-0.0577850341796875,196562.405378,0.06552255124754652,-0.06657449987812782,0.03703578233140494,196562.405378,0.07035878026289163,-1.584253133115075,0.9642734955406925,0.05388882011175156,-0.0530700795352459,0.07184573262929916,0.1214151009917259,0.4659831523895264,-0.01845830120146275,XTrueNorthZVertical,-0.3476348307213747,0.6188579749809324,0.307974311198461,-0.6334956390031456,-0.5699624419212341,-0.8216350078582764,0.007670337334275246,-23.17617797851562,-26.46146011352539,-19.89504814147949,2,0.0.0.0,10.83.46.32,3,0
2015-03-01 20:10:41.216,109,1425269440.519029,37.76571994664987,-122.4603906278077,81.61734,-1,-1,10,65,-9999,1425269441.178681,-19.21527099609375,-32.02534484863281,-20.74738311767578,337.6183776855469,323.84130859375,10,196562.4906070417,-0.4440155029296875,-0.81890869140625,-0.0673370361328125,196562.4571563333,-0.1698918343677519,0.3683527293293288,1.033180535431184,196562.4571563333,0.06582152906028835,-1.572564157114572,0.927536530913846,-0.1815254688262939,0.3818570375442505,1.067990064620972,0.2683394253253937,0.04332408681511879,-0.01718889735639095,XTrueNorthZVertical,-0.3366811992510319,0.6222346409015964,0.2956208857698389,-0.6419331611250143,-0.5998061299324036,-0.8001447916030884,0.0010603565024212,-23.33969116210938,-26.39992523193359,-19.78534126281738,2,0.0.0.0,10.83.46.32,3,0
2015-03-01 20:10:41.280,110,1425269440.519029,37.76571994664987,-122.4603906278077,81.61734,-1,-1,10,65,-9999,1425269441.230787,-19.69272613525391,-30.90377807617188,-21.14677429199219,334.2052612304688,320.4281921386719,10,196562.5396308333,-0.56298828125,-0.69293212890625,0.0130462646484375,196562.5089350417,-0.5542565534350731,0.4130863787916078,1.564837237539735,196562.5089350417,0.03299474745638817,-1.53471949111582,0.8599175970517587,-0.5658900737762451,0.4265907108783722,1.599644899368286,0.1447359621524811,0.02600779198110104,-0.02094434015452862,XTrueNorthZVertical,-0.3103835619119586,0.6260147997841429,0.2785491683000175,-0.6589218053060493,-0.6520754098892212,-0.7577887773513794,-0.02353502996265888,-24.69232940673828,-24.57846832275391,-20.4779052734375,2,0.0.0.0,10.83.46.32,3,0
2015-03-01 20:10:41.315,111,1425269440.519029,37.76571994664987,-122.4603906278077,81.61734,-1,-1,10,65,-9999,1425269441.282459,-21.03982543945312,-28.50773620605469,-22.06206512451172,328.7428894042969,314.9658203125,10,196562.5886483334,-0.55889892578125,-0.6837615966796875,-0.11968994140625,196562.5607129167,-0.816814942144895,1.205890260548348,1.925712076844231,196562.5607129167,-0.01116238864679712,-1.452730397291133,0.7663992729003967,-0.8284483551979065,1.219394445419312,1.960519313812256,0.1833692044019699,0.01524678058922291,0.1159408763051033,XTrueNorthZVertical,-0.2760753851122135,0.6175378690431336,0.2521874441574609,-0.6919761012957647,-0.7153974175453186,-0.6935457587242126,-0.0848587229847908,-25.88031578063965,-22.10926246643066,-21.78409004211426,2,0.0.0.0,10.83.46.32,3,0
2015-03-01 20:10:41.394,112,1425269440.519029,37.76571994664987,-122.4603906278077,81.61734,-1,-1,10,65,-9999,1425269441.387983,-24.33082580566406,-20.94575500488281,-26.17255401611328,317.5245056152344,303.7474365234375,10,196562.637688625,-0.828704833984375,-0.679901123046875,-0.098052978515625,196562.612491625,-0.7804683859036026,0.7308632821753507,2.374325024577495,196562.612491625,-0.04261512667795394,-1.381102724642382,0.6510805976603955,-0.7921016812324524,0.7443673014640808,2.40913200378418,0.2055995464324951,-0.1561302095651627,0.1115019246935844,XTrueNorthZVertical,-0.2336339243841624,0.6086237720035972,0.2192295029972854,-0.7258999850302256,-0.7811610698699951,-0.6060463190078735,-0.1499845832586288,-26.4724178314209,-18.90489196777344,-23.97859382629395,2,0.0.0.0,10.83.46.32,3,0
2015-03-01 20:10:41.413,113,1425269440.519029,37.76571994664987,-122.4603906278077,81.61734,-1,-1,10,65,-9999,1425269441.387983,-24.33082580566406,-20.94575500488281,-26.17255401611328,317.5245056152344,303.7474365234375,10,196562.6868347084,-0.880859375,-0.5159912109375,-0.2652587890625,196562.66427,-0.7742413826427793,0.9152650834262903,2.357426468512616,196562.66427,-0.05686726191873129,-1.336445419403431,0.5249430016407132,-0.785874605178833,0.9287689924240112,2.392232894897461,-0.04141927883028984,-0.1497762650251389,0.06398209184408188,XTrueNorthZVertical,-0.1865689249045646,0.6039201494235106,0.182250379228929,-0.7531648945440174,-0.8416984081268311,-0.50116366147995,-0.2009449750185013,-27.64667320251465,-13.93114852905273,-25.97578430175781,2,0.0.0.0,10.83.46.32,3,0
2015-03-01 20:10:41.493,114,1425269440.519029,37.76571994664987,-122.4603906278077,81.61734,-1,-1,10,65,-9999,1425269441.439203,-25.64381408691406,-16.170654296875,-27.65365600585938,313.9977111816406,300.2206420898438,10,196562.735757875,-0.9253387451171875,-0.493682861328125,-0.28729248046875,196562.7160481667,-0.8542986681716513,0.7355749467759188,2.189634004032173,196562.7160481667,-0.06997601001258341,-1.284936471985962,0.4046112396612537,-0.8659317493438721,0.7490787506103516,2.224440336227417,0.07383102178573608,-0.06655891984701157,0.001767708221450448,XTrueNorthZVertical,-0.1402365977319303,0.592221831753701,0.1477524869185192,-0.7796000711791951,-0.8819517493247986,-0.3936614096164703,-0.2592139840126038,-27.83522796630859,-10.00983333587646,-27.53470993041992,2,0.0.0.0,10.83.46.32,3,0
2015-03-01 20:10:41.513,115,1425269440.519029,37.76571994664987,-122.4603906278077,81.61734,-1,-1,10,65,-9999,1425269441.491354,-26.70102691650391,-11.17465209960938,-28.88513946533203,311.6722412109375,297.8951721191406,10,196562.784928375,-1.043716430664062,-0.2237548828125,-0.2885589599609375,196562.7678265417,-0.9078793387751736,0.4494121623763976,2.074633115524263,196562.7678265417,-0.08164684316471023,-1.248824874879707,0.2876731290024293,-0.9195123314857483,0.4629158079624176,2.109438896179199,-0.002752263098955154,-0.1444398760795593,-0.0002618106373120099,XTrueNorthZVertical,-0.0925835195143104,0.5828476283586261,0.1164995405632326,-0.7988396965611895,-0.9096317887306213,-0.2837217450141907,-0.3034338653087616,-27.64927291870117,-6.139039516448975,-28.82683944702148,2,0.0.0.0,10.83.46.32,3,0
2015-03-01 20:10:41.594,116,1425269440.519029,37.76571994664987,-122.4603906278077,81.61734,-1,-1,10,65,-9999,1425269441.541636,-27.14437103271484,-6.654449462890625,-30.48273468017578,306.0061950683594,292.2291259765625,10,196562.8338110417,-1.02276611328125,-0.0508270263671875,-0.3977508544921875,196562.8196050417,-0.7611085363592716,0.3194014316486913,1.781635061870944,196562.8196050417,-0.08861071014176883,-1.226912059280153,0.1812854935329311,-0.7727413773536682,0.3329049646854401,1.816440582275391,-0.1286478191614151,0.04568111151456833,-0.01391369104385376,XTrueNorthZVertical,-0.04854773774459767,0.5760488899881775,0.08812650561591791,-0.8111994712976254,-0.9260244369506836,-0.1802941560745239,-0.3316215872764587,-27.15149688720703,-1.143919467926025,-29.91061019897461,2,0.0.0.0,10.83.46.32,3,0
2015-03-01 20:10:41.608,117,1425269440.519029,37.76571994664987,-122.4603906278077,81.61734,-1,-1,10,65,-9999,1425269441.593453,-27.28078460693359,-2.644012451171875,-31.28152465820312,300.9451904296875,287.1681213378906,10,196562.88283375,-1.174179077148438,0.058319091796875,-0.4574127197265625,196562.8713832917,-0.4531853290088218,-0.2762603525182797,1.264023605035361,196562.8196050417,-0.08861071014176883,-1.226912059280153,0.1812854935329311,-0.7727413773536682,0.3329049646854401,1.816440582275391,-0.1286478191614151,0.04568111151456833,-0.01391369104385376,XTrueNorthZVertical,-0.04854773774459767,0.5760488899881775,0.08812650561591791,-0.8111994712976254,-0.9260244369506836,-0.1802941560745239,-0.3316215872764587,-27.15149688720703,-1.143919467926025,-29.91061019897461,2,0.0.0.0,10.83.46.32,3,0
2015-03-01 20:10:41.691,118,1425269440.519029,37.76571994664987,-122.4603906278077,81.61734,-1,-1,10,65,-9999,1425269441.645537,-27.46836090087891,0.431732177734375,-31.13175964355469,299.3102722167969,285.533203125,10,196562.9318757917,-1.2130126953125,0.1561737060546875,-0.4085693359375,196562.92316175,-0.1912168304804523,-0.2477173909031374,0.1387027558935069,196562.92316175,-0.09903741128682077,-1.23853645331357,0.05842520720032258,-0.2028494328260422,-0.2342141568660736,0.1735075712203979,-0.2923129498958588,0.2288479059934616,-0.1108693182468414,XTrueNorthZVertical,0.004963218939878412,0.5806578738004715,0.05722252867464665,-0.812119111944608,-0.9436947107315063,-0.05839197337627411,-0.3256236016750336,-26.86291122436523,4.236747741699219,-29.89299011230469,2,0.0.0.0,10.83.46.32,3,0
2015-03-01 20:10:41.706,119,1425269440.519029,37.76571994664987,-122.4603906278077,81.61734,-1,-1,10,65,-9999,1425269441.697242,-28.26979827880859,1.87615966796875,-30.58258819580078,299.0778198242188,285.3007507324219,10,196562.9810335833,-1.244232177734375,0.0338134765625,-0.3759307861328125,196562.9749401667,0.263329107529291,-0.3460974910478636,-0.6449294653851099,196562.92316175,-0.09903741128682077,-1.23853645331357,0.05842520720032258,-0.2028494328260422,-0.2342141568660736,0.1735075712203979,-0.2923129498958588,0.2288479059934616,-0.1108693182468414,XTrueNorthZVertical,0.004963218939878412,0.5806578738004715,0.05722252867464665,-0.812119111944608,-0.9436947107315063,-0.05839197337627411,-0.3256236016750336,-26.86291122436523,4.236747741699219,-29.89299011230469,2,0.0.0.0,10.83.46.32,3,0
2015-03-01 20:10:41.792,120,1425269440.519029,37.76571994664987,-122.4603906278077,81.61734,-1,-1,10,65,-9999,1425269441.749686,-28.08222961425781,1.55328369140625,-30.43281555175781,300.2023010253906,286.4252319335938,10,196563.0299477917,-1.078369140625,-0.0917816162109375,-0.3386993408203125,196563.0267181667,0.5296265744095842,-0.1821359837955002,-1.362678010772365,196562.9749401667,-0.09873785752670672,-1.251759037572062,0.07248581813140373,0.2516966462135315,-0.3325943946838379,-0.6101250052452087,-0.3025588393211365,0.1065715253353119,-0.07227236032485962,XTrueNorthZVertical,-0.0004406964197372859,0.586161520265332,0.0611694007691718,-0.8078817067360728,-0.9470444321632385,-0.07242235541343689,-0.3128289580345154,-27.25551223754883,4.766162872314453,-29.45466613769531,2,0.0.0.0,10.83.46.32,3,0
2015-03-01 20:10:41.808,121,1425269440.519029,37.76571994664987,-122.4603906278077,81.61734,-1,-1,10,65,-9999,1425269441.802157,-28.18453216552734,-0.825775146484375,-29.83372497558594,301.4034423828125,287.6263732910156,10,196563.07897325,-1.072280883789062,-0.231353759765625,-0.259063720703125,196563.0267181667,0.5296265744095842,-0.1821359837955002,-1.362678010772365,196563.0267181667,-0.09543331930360271,-1.263100864632691,0.1286149111900666,0.5179941654205322,-0.1686329990625381,-1.327873945236206,-0.1479923874139786,0.08820629864931107,-0.03774259239435196,XTrueNorthZVertical,-0.02370572211637237,0.5909798735666926,0.07631611940955269,-0.8027183487492066,-0.9451625347137451,-0.128260612487793,-0.3003616631031036,-27.76629447937012,3.525404930114746,-29.15066528320312,2,0.0.0.0,10.83.46.32,3,0
2015-03-01 20:10:41.890,122,1425269440.519029,37.76571994664987,-122.4603906278077,81.61734,-1,-1,10,65,-9999,1425269441.855127,-28.47441101074219,-4.003509521484375,-29.45097351074219,305.9236755371094,292.1466064453125,10,196563.1280055833,-0.967864990234375,-0.3876953125,-0.2233428955078125,196563.130275375,0.593040701022115,-0.5705052981939734,-1.984163935397617,196563.078496875,-0.08994212710414934,-1.278321896791742,0.2126488030732922,0.6392200589179993,-0.3520817756652832,-1.755253911018372,-0.1487362533807755,0.02019284293055534,0.02067392133176327,XTrueNorthZVertical,-0.05842303335937219,0.5963830150747599,0.09911912570798723,-0.794411428130702,-0.9359652996063232,-0.2110497802495956,-0.2818281054496765,-28.15822219848633,1.19016170501709,-28.96298980712891,2,0.0.0.0,10.83.46.32,3,0
2015-03-01 20:10:41.907,123,1425269440.519029,37.76571994664987,-122.4603906278077,81.61734,-1,-1,10,65,-9999,1425269441.855127,-28.47441101074219,-4.003509521484375,-29.45097351074219,305.9236755371094,292.1466064453125,10,196563.1770289167,-0.929595947265625,-0.4271240234375,-0.135894775390625,196563.130275375,0.593040701022115,-0.5705052981939734,-1.984163935397617,196563.130275375,-0.08726958715533031,-1.300363456399829,0.3117329440878306,0.5814085602760315,-0.5570026040077209,-1.949360489845276,-0.05065441504120827,-0.08098679780960083,0.03093008883297443,XTrueNorthZVertical,-0.09736126056287986,0.6028136468682836,0.1281800185822348,-0.7814770915705556,-0.917210578918457,-0.3067085146903992,-0.254272997379303,-28.67981719970703,-2.867326259613037,-28.32672691345215,2,0.0.0.0,10.83.46.32,3,0
2015-03-01 20:10:41.992,124,1425269440.519029,37.76571994664987,-122.4603906278077,81.61734,-1,-1,10,65,-9999,1425269441.956604,-28.11632537841797,-11.87139892578125,-28.03643035888672,314.4850769042969,300.7080078125,10,196563.2260555,-0.8536224365234375,-0.6346282958984375,-0.105072021484375,196563.2338318333,0.6491452493907053,-0.7255995442808091,-2.172393231767218,196563.1820534584,-0.08359699314024034,-1.331783044973041,0.4168974539747358,0.6479376554489136,-0.6019105315208435,-2.059658527374268,-0.04123933985829353,-0.02219842933118343,0.08057209849357605,XTrueNorthZVertical,-0.1373353014196581,0.6106599533034005,0.1598772504702131,-0.7633300537250548,-0.888356626033783,-0.4049255847930908,-0.216466873884201,-28.96673965454102,-6.151854991912842,-27.49980545043945,2,0.0.0.0,10.83.46.32,3,0
2015-03-01 20:10:42.005,125,1425269440.519029,37.76571994664987,-122.4603906278077,81.61734,-1,-1,10,65,-9999,1425269441.956604,-28.11632537841797,-11.87139892578125,-28.03643035888672,314.4850769042969,300.7080078125,10,196563.2750859583,-0.7564239501953125,-0.683685302734375,-0.055877685546875,196563.2338318333,0.6491452493907053,-0.7255995442808091,-2.172393231767218,196563.2338318333,-0.07480553992430992,-1.368955527713663,0.526223793432013,0.6375133395195007,-0.7120970487594604,-2.137590646743774,-0.006466755177825689,-0.1323566883802414,0.06827906519174576,XTrueNorthZVertical,-0.1785315892343282,0.6176171363218617,0.1923035272839463,-0.7414141674418898,-0.8471556901931763,-0.5022715926170349,-0.1733510941267014,-28.98221969604492,-9.59251594543457,-26.47964096069336,2,0.0.0.0,10.83.46.32,3,0
2015-03-01 20:10:42.070,126,1425269440.519029,37.76571994664987,-122.4603906278077,81.61734,-1,-1,10,65,-9999,1425269442.061088,-26.18947601318359,-20.72482299804688,-25.22400665283203,323.8551635742188,310.0780944824219,10,196563.3240954583,-0.628936767578125,-0.6674041748046875,-0.1340179443359375,196563.285610375,0.7745292703566169,-0.7447239703847771,-2.180697766994412,196563.285610375,-0.05649768310940401,-1.414373395506838,0.638536006210192,0.7628979086875916,-0.7312219738960266,-2.145895957946777,0.03785564005374908,-0.08629146963357925,0.08378568291664124,XTrueNorthZVertical,-0.2210843077806136,0.6233587395687159,0.2242269445417344,-0.715728969457222,-0.7931656837463379,-0.596020519733429,-0.1250912249088287,-28.52058029174805,-14.29262733459473,-24.80834579467773,2,0.0.0.0,10.83.46.32,3,0
2015-03-01 20:10:42.103,127,1425269440.519029,37.76571994664987,-122.4603906278077,81.61734,-1,-1,10,65,-9999,1425269442.061088,-26.18947601318359,-20.72482299804688,-25.22400665283203,323.8551635742188,310.0780944824219,10,196563.37311275,-0.456329345703125,-0.7747344970703125,0.015472412109375,196563.3373884583,0.7207094478872056,-0.973233578241827,-2.106333254611694,196563.3373884583,-0.0241099989027432,-1.475905443465535,0.7485809650111592,0.7091343998908997,-0.9598265886306763,-2.071506261825562,0.1448867917060852,0.0004087419365532696,-0.0490969754755497,XTrueNorthZVertical,-0.2629290062411817,0.6294118821885955,0.254257922050105,-0.6856106759918102,-0.7293594479560852,-0.6805998086929321,-0.0694180428981781,-27.75100517272949,-17.86778450012207,-23.3191089630127,2,0.0.0.0,10.83.46.32,3,0
2015-03-01 20:10:42.162,128,1425269440.519029,37.76571994664987,-122.4603906278077,81.61734,-1,-1,10,65,-9999,1425269442.112131,-24.27967834472656,-24.93916320800781,-23.49327850341797,326.8743896484375,313.0973205566406,10,196563.4221380417,-0.4888916015625,-0.3624267578125,0.085205078125,196563.3891671667,0.2774968582124035,-0.5660122791189008,-1.786774430142579,196563.3891671667,0.001971317553595831,-1.534454887953416,0.8481175378498308,0.2659219205379486,-0.5526053309440613,-1.751948356628418,0.1957954466342926,0.07073064893484116,0.04112064838409424,XTrueNorthZVertical,-0.2968102101309502,0.6323672169888744,0.2849670289304378,-0.6563606205316375,-0.6609596014022827,-0.7500366568565369,-0.02403080463409424,-26.84367370605469,-21.11953163146973,-21.59952545166016,2,0.0.0.0,10.83.46.32,3,0
2015-03-01 20:10:42.197,129,1425269440.519029,37.76571994664987,-122.4603906278077,81.61734,-1,-1,10,65,-9999,1425269442.164602,-21.87538146972656,-27.87898254394531,-22.41157531738281,333.7377014160156,319.9606323242188,10,196563.4711971667,-0.3716278076171875,-0.5083160400390625,-0.2003326416015625,196563.4409455417,0.1790842675023784,0.3753549787834741,-0.6262953272378254,196563.4409455417,0.01201680974432024,-1.541890165088219,0.9080817892705066,0.1675094664096832,0.3887617886066437,-0.5914696455001831,0.1345791667699814,0.4341379702091217,0.0605069138109684,XTrueNorthZVertical,-0.318344185043165,0.6243122837968393,0.3017443325508902,-0.6464066673893041,-0.6150021553039551,-0.7883250117301941,-0.0177823044359684,-25.15328788757324,-24.09556770324707,-20.49079322814941,2,0.0.0.0,10.83.46.32,3,0
2015-03-01 20:10:42.262,130,1425269440.519029,37.76571994664987,-122.4603906278077,81.61734,-1,-1,10,65,-9999,1425269442.215746,-20.13609313964844,-29.71426391601562,-21.64606475830078,335.6795349121094,321.9024658203125,10,196563.520167875,-0.410064697265625,-0.685760498046875,-0.0263214111328125,196563.492723625,-0.07064274475933287,-0.2523225290601024,0.4468515329882864,196563.492723625,0.02088116789181717,-1.549380300471815,0.9073080234500815,-0.08221742510795593,-0.2389158457517624,0.48167684674263,0.2666981816291809,0.2696449458599091,-0.07573976367712021,XTrueNorthZVertical,-0.3197393113265599,0.6254378817721675,0.2998323824310342,-0.645519047747502,-0.6157277226448059,-0.7878487110137939,-0.01318845804780722,-24.37796783447266,-24.78977203369141,-20.59948348999023,2,0.0.0.0,10.83.46.32,3,0
2015-03-01 20:10:42.294,131,1425269440.519029,37.76571994664987,-122.4603906278077,81.61734,-1,-1,10,65,-9999,1425269442.267027,-19.84621429443359,-29.62930297851562,-21.99553680419922,334.6046752929688,320.8276062011719,10,196563.5691798333,-0.5392608642578125,-0.7254638671875,-0.03155517578125,196563.54450225,-0.457492193123698,0.6107653696571373,1.110754689559666,196563.54450225,-0.001174533190847949,-1.518006831097674,0.8626838384706746,-0.4690667688846588,0.6241718530654907,1.145579695701599,0.2612201273441315,-0.01462483033537865,-0.05656293407082558,XTrueNorthZVertical,-0.3029665282820725,0.6253415680809924,0.2881161074947623,-0.6588993734214132,-0.6494952440261841,-0.7595908641815186,-0.03431841358542442,-25.00859642028809,-24.21778869628906,-20.52378273010254,2,0.0.0.0,10.83.46.32,3,0
2015-03-01 20:10:42.364,132,1425269440.519029,37.76571994664987,-122.4603906278077,81.61734,-1,-1,10,65,-9999,1425269442.323077,-21.05689239501953,-28.11689758300781,-22.34501647949219,330.6415710449219,316.864501953125,10,196563.618208875,-0.6262969970703125,-0.7236785888671875,0.0350341796875,196563.5962809167,-0.6460157687937532,0.7629836680827964,1.635677588851952,196563.5962809167,-0.040712483719249,-1.455166782012739,0.786411870488715,-0.6575902104377747,0.7763900756835938,1.670502185821533,0.1302768141031265,0.04563754796981812,0.03129621595144272,XTrueNorthZVertical,-0.2735679303018121,0.62000949373451,0.268809290151431,-0.6844636224373758,-0.7016726732254028,-0.7078232169151306,-0.08149763196706772,-25.92460060119629,-21.72480392456055,-22.11571311950684,2,0.0.0.0,10.83.46.32,3,0
2015-03-01 20:10:42.394,133,1425269440.519029,37.76571994664987,-122.4603906278077,81.61734,-1,-1,10,65,-9999,1425269442.323077,-21.05689239501953,-28.11689758300781,-22.34501647949219,330.6415710449219,316.864501953125,10,196563.6672188333,-0.5170745849609375,-0.68963623046875,-0.2320098876953125,196563.648058875,-0.778630804751448,1.191620777111595,1.965146834685579,196563.5962809167,-0.040712483719249,-1.455166782012739,0.786411870488715,-0.6575902104377747,0.7763900756835938,1.670502185821533,0.1302768141031265,0.04563754796981812,0.03129621595144272,XTrueNorthZVertical,-0.2735679303018121,0.62000949373451,0.268809290151431,-0.6844636224373758,-0.7016726732254028,-0.7078232169151306,-0.08149763196706772,-25.92460060119629,-21.72480392456055,-22.11571311950684,2,0.0.0.0,10.83.46.32,3,0
2015-03-01 20:10:42.466,134,1425269440.519029,37.76571994664987,-122.4603906278077,81.61734,-1,-1,10,65,-9999,1425269442.448853,-24.58660888671875,-19.8411865234375,-26.95474243164062,319.7462768554688,305.9692077636719,10,196563.71625175,-0.8935089111328125,-0.608154296875,-0.109405517578125,196563.699837375,-0.9411107954894002,0.4847483153001139,2.314773280493907,196563.699837375,-0.09513101154243969,-1.325524513168498,0.5745218975137124,-0.9526848196983337,0.4981549382209778,2.349592208862305,0.1884283423423767,-0.09302584081888199,0.02864965610206127,XTrueNorthZVertical,-0.1950353556317139,0.6000360850633554,0.2100783314469256,-0.7468500994538866,-0.8143286108970642,-0.5434334874153137,-0.2038358151912689,-26.83297920227051,-15.73873138427734,-25.79612922668457,2,0.0.0.0,10.83.46.32,3,0
2015-03-01 20:10:42.499,135,1425269440.519029,37.76571994664987,-122.4603906278077,81.61734,-1,-1,10,65,-9999,1425269442.448853,-24.58660888671875,-19.8411865234375,-26.95474243164062,319.7462768554688,305.9692077636719,10,196563.765258375,-0.886474609375,-0.4455413818359375,-0.320709228515625,196563.751616,-0.8975585242866805,0.9765066032215344,2.14937925889119,196563.751616,-0.1106949196597734,-1.281962550442127,0.453368294749082,-0.9091324210166931,0.9899131059646606,2.184197664260864,-0.01278860028833151,-0.1504133939743042,0.07911873608827591,XTrueNorthZVertical,-0.1476279601152954,0.5917568391192666,0.1773938865642442,-0.7723738133052899,-0.861738383769989,-0.4379960298538208,-0.2560596466064453,-27.74052429199219,-10.5618839263916,-27.42383575439453,2,0.0.0.0,10.83.46.32,3,0
2015-03-01 20:10:42.561,136,1425269440.519029,37.76571994664987,-122.4603906278077,81.61734,-1,-1,10,65,-9999,1425269442.55356,-26.76924896240234,-10.83480834960938,-29.55083465576172,309.9505920410156,296.1735229492188,10,196563.8142855834,-0.906158447265625,-0.425689697265625,-0.2867584228515625,196563.8033941667,-0.7342958305043539,0.3907943888870995,2.163872447859509,196563.751616,-0.1106949196597734,-1.281962550442127,0.453368294749082,-0.9091324210166931,0.9899131059646606,2.184197664260864,-0.01278860028833151,-0.1504133939743042,0.07911873608827591,XTrueNorthZVertical,-0.1476279601152954,0.5917568391192666,0.1773938865642442,-0.7723738133052899,-0.861738383769989,-0.4379960298538208,-0.2560596466064453,-27.74052429199219,-10.5618839263916,-27.42383575439453,2,0.0.0.0,10.83.46.32,3,0
2015-03-01 20:10:42.592,137,1425269440.519029,37.76571994664987,-122.4603906278077,81.61734,-1,-1,10,65,-9999,1425269442.55356,-26.76924896240234,-10.83480834960938,-29.55083465576172,309.9505920410156,296.1735229492188,10,196563.8633005834,-1.035400390625,-0.2381439208984375,-0.3248748779296875,196563.855172625,-0.759643797759728,0.2733063742371638,1.70573390553925,196563.8033941667,-0.1147768306732641,-1.251498850022516,0.3388033999745076,-0.7458696365356445,0.4042007625102997,2.19869065284729,-0.02019740454852581,-0.1646505296230316,0.03062876500189304,XTrueNorthZVertical,-0.1033101411783166,0.5842082800533025,0.1444066897010522,-0.7919434815306037,-0.8954825401306152,-0.3323587477207184,-0.296055406332016,-27.54023170471191,-6.80118465423584,-28.78256988525391,2,0.0.0.0,10.83.46.32,3,0
2015-03-01 20:10:42.660,138,1425269440.519029,37.76571994664987,-122.4603906278077,81.61734,-1,-1,10,65,-9999,1425269442.656526,-27.00798034667969,-2.74603271484375,-30.51604461669922,303.5348205566406,289.7577514648438,10,196563.91245125,-1.026382446289062,-0.0618133544921875,-0.499420166015625,196563.90695125,-0.7311860572994683,-0.02473251072745688,1.061235872250732,196563.90695125,-0.1344842924341915,-1.220126255045444,0.1540595042745126,-0.7427595853805542,-0.01132641453295946,1.0960533618927,-0.1159407272934914,0.07311328500509262,-0.1361426413059235,XTrueNorthZVertical,-0.02454840556950487,0.5741673079774079,0.0988961887887235,-0.8123723849315581,-0.9280198216438293,-0.1534508168697357,-0.339458554983139,-27.04396057128906,1.045592308044434,-30.01146125793457,2,0.0.0.0,10.83.46.32,3,0
2015-03-01 20:10:42.690,139,1425269440.519029,37.76571994664987,-122.4603906278077,81.61734,-1,-1,10,65,-9999,1425269442.656526,-27.00798034667969,-2.74603271484375,-30.51604461669922,303.5348205566406,289.7577514648438,10,196563.9614195,-1.2381591796875,0.034912109375,-0.403167724609375,196563.90695125,-0.7311860572994683,-0.02473251072745688,1.061235872250732,196563.90695125,-0.1344842924341915,-1.220126255045444,0.1540595042745126,-0.7427595853805542,-0.01132641453295946,1.0960533618927,-0.1159407272934914,0.07311328500509262,-0.1361426413059235,XTrueNorthZVertical,-0.02454840556950487,0.5741673079774079,0.0988961887887235,-0.8123723849315581,-0.9280198216438293,-0.1534508168697357,-0.339458554983139,-27.04396057128906,1.045592308044434,-30.01146125793457,2,0.0.0.0,10.83.46.32,3,0
2015-03-01 20:10:42.746,140,1425269440.519029,37.76571994664987,-122.4603906278077,81.61734,-1,-1,10,65,-9999,1425269442.707611,-27.65594482421875,-0.29901123046875,-30.54933166503906,302.2194213867188,288.4423522949219,10,196564.0105095833,-1.309341430664062,0.06658935546875,-0.29376220703125,196564.0105079167,-0.02682415744760511,-0.111988054366704,-0.8117828992651903,196563.95872925,-0.1516057370965755,-1.234795426429835,0.1099945465517528,-0.547643780708313,-0.46466925740242,0.2937125861644745,-0.2370395958423615,0.120438776910305,-0.09712874889373779,XTrueNorthZVertical,-0.0009176532709998287,0.5797743517766074,0.09338751364456596,-0.8094070057468773,-0.9383754730224609,-0.1097728833556175,-0.3277217149734497,-27.06058120727539,3.289374351501465,-29.83390426635742,2,0.0.0.0,10.83.46.32,3,0
2015-03-01 20:10:42.790,141,1425269440.519029,37.76571994664987,-122.4603906278077,81.61734,-1,-1,10,65,-9999,1425269442.759294,-28.20160675048828,0.584625244140625,-30.34963989257812,303.9268493652344,290.1497802734375,10,196564.059389875,-1.13275146484375,-0.097015380859375,-0.282867431640625,196564.0622863334,0.5651222506825964,-0.1483122400548398,-1.219256932375565,196564.0105079167,-0.1721153745191455,-1.244883838678575,0.1201972476083176,-0.03839747607707977,-0.09858221560716629,-0.7769661545753479,-0.4040959179401398,0.1864668726921082,0.007118099369108677,XTrueNorthZVertical,0.001403460031928049,0.5840088707230574,0.1045939137844516,-0.8049794110027406,-0.9405238032341003,-0.1199080348014832,-0.3178633451461792,-27.57335662841797,4.341907501220703,-29.22352981567383,2,0.0.0.0,10.83.46.32,3,0
2015-03-01 20:10:42.844,142,1425269440.519029,37.76571994664987,-122.4603906278077,81.61734,-1,-1,10,65,-9999,1425269442.812482,-28.23571014404297,-0.332977294921875,-29.98352813720703,306.1229553222656,292.3458862304688,10,196564.1085236667,-1.028854370117188,-0.3351593017578125,-0.353546142578125,196564.0622863334,0.5651222506825964,-0.1483122400548398,-1.219256932375565,196564.0622863334,-0.1715798466613147,-1.251756415980016,0.1747287121492723,0.55354905128479,-0.1349065452814102,-1.184440493583679,-0.1976723223924637,0.07682560384273529,0.02601185441017151,XTrueNorthZVertical,-0.02045078462623404,0.5874879765360732,0.1201040365542307,-0.800009208046665,-0.9350791573524475,-0.1738409847021103,-0.3088792860507965,-27.98670196533203,3.067852973937988,-28.9911994934082,2,0.0.0.0,10.83.46.32,3,0
2015-03-01 20:10:42.895,143,1425269440.519029,37.76571994664987,-122.4603906278077,81.61734,-1,-1,10,65,-9999,1425269442.863274,-28.21865081787109,-2.7969970703125,-29.63404846191406,310.1836853027344,296.4066162109375,10,196564.157434,-0.9804840087890625,-0.3867034912109375,-0.263092041015625,196564.1140645834,0.7671930605017756,-0.2983198484596241,-1.659858026285435,196564.1140645834,-0.1580533009248009,-1.265673830993548,0.2536105619869743,0.755620002746582,-0.2849142849445343,-1.625041961669922,-0.1055538356304169,-0.08425864577293396,-0.06274537742137909,XTrueNorthZVertical,-0.05534215259941007,0.5929054413229975,0.1377087306466931,-0.7914775796074527,-0.9233005046844482,-0.2509006559848785,-0.2908007800579071,-28.33427047729492,0.6903676986694336,-28.80710601806641,2,0.0.0.0,10.83.46.32,3,0
2015-03-01 20:10:42.943,144,1425269440.519029,37.76571994664987,-122.4603906278077,81.61734,-1,-1,10,65,-9999,1425269442.915343,-28.30391693115234,-6.31463623046875,-28.91846466064453,312.0635681152344,298.2864990234375,10,196564.2065674167,-0.8747711181640625,-0.568634033203125,-0.170196533203125,196564.2176217083,0.6761648828623222,-0.5216408195648726,-2.133555022010047,196564.165843,-0.1525119137109337,-1.290898587406055,0.3509552666737264,0.6539379358291626,-0.5599356889724731,-1.962863326072693,-0.07798337936401367,-0.04290848970413208,-0.00367400050163269,XTrueNorthZVertical,-0.09392903439294659,0.6012223517876925,0.1646356975145798,-0.7762758382399408,-0.9025006294250488,-0.3437950015068054,-0.2594180405139923,-28.64820861816406,-2.341720581054688,-28.40692329406738,2,0.0.0.0,10.83.46.32,3,0
2015-03-01 20:10:43.005,145,1425269440.519029,37.76571994664987,-122.4603906278077,81.61734,-1,-1,10,65,-9999,1425269442.966935,-27.62184143066406,-10.42697143554688,-28.21951293945312,317.8079833984375,304.0309143066406,10,196564.2554856667,-0.82745361328125,-0.6051025390625,-0.1163177490234375,196564.2176217083,0.6761648828623222,-0.5216408195648726,-2.133555022010047,196564.2176217083,-0.1472277957989004,-1.316477531215426,0.4587062853791569,0.6645920276641846,-0.5082353949546814,-2.098740816116333,0.01280561275780201,-0.1419283002614975,0.03717847540974617,XTrueNorthZVertical,-0.1355483992041236,0.6073197348628693,0.1953551486337895,-0.7580407685236421,-0.8677861094474792,-0.4427885115146637,-0.2255787402391434,-28.93962287902832,-6.838346004486084,-27.36589241027832,2,0.0.0.0,10.83.46.32,3,0
2015-03-01 20:10:43.039,146,1425269440.519029,37.76571994664987,-122.4603906278077,81.61734,-1,-1,10,65,-9999,1425269443.023487,-26.93977355957031,-15.08309936523438,-27.18773651123047,323.6344604492188,309.8573913574219,10,196564.3045122917,-0.78985595703125,-0.7028350830078125,-0.0513763427734375,196564.2693996667,0.7666505745877265,-0.6642669443762842,-2.207179175609724,196564.2693996667,-0.1364677671786437,-1.353299489954324,0.570974170519235,0.7550786733627319,-0.6508622765541077,-2.172366142272949,0.01483578886836767,-0.08247285336256027,0.100883811712265,XTrueNorthZVertical,-0.1780990951231333,0.6144120750594497,0.2269460613349578,-0.734352823446851,-0.8215526938438416,-0.5404519438743591,-0.1815570294857025,-28.78789138793945,-10.37673282623291,-26.39578437805176,2,0.0.0.0,10.83.46.32,3,0
2015-03-01 20:10:43.097,147,1425269440.519029,37.76571994664987,-122.4603906278077,81.61734,-1,-1,10,65,-9999,1425269443.076089,-25.26869201660156,-19.70527648925781,-25.88969421386719,325.53955078125,311.7624816894531,10,196564.3535217917,-0.5364227294921875,-0.7960357666015625,-0.022674560546875,196564.3211784167,0.9271960451098453,-0.6149316188664573,-2.273542753129518,196564.3211784167,-0.1099576256173144,-1.400222274889225,0.6871935462535166,0.9156767129898071,-0.601614236831665,-2.238698482513428,0.01957758702337742,-0.1050859615206718,0.07967609167098999,XTrueNorthZVertical,-0.2239077441092192,0.6198831997786692,0.2562906109568587,-0.7070539818272641,-0.761810839176178,-0.6343702077865601,-0.131220281124115,-28.34993743896484,-14.07205295562744,-25.12797927856445,2,0.0.0.0,10.83.46.32,3,0
2015-03-01 20:10:43.138,148,1425269440.519029,37.76571994664987,-122.4603906278077,81.61734,-1,-1,10,65,-9999,1425269443.076089,-25.26869201660156,-19.70527648925781,-25.88969421386719,325.53955078125,311.7624816894531,10,196564.4025587084,-0.4239501953125,-0.5825347900390625,-0.0693206787109375,196564.3729568333,0.8204706633732468,-0.8210568251291732,-2.128701943555596,196564.3729568333,-0.07033063900317399,-1.462127888445665,0.8033919251206249,0.8089523911476135,-0.8077401518821716,-2.093860149383545,0.1676371246576309,-0.02100751921534538,0.007669839076697826,XTrueNorthZVertical,-0.2692854826365353,0.6243692278827052,0.2849714881250229,-0.6756032243799037,-0.6901743412017822,-0.7197151184082031,-0.0752967894077301,-27.03778839111328,-19.12836837768555,-23.15643310546875,2,0.0.0.0,10.83.46.32,3,0
