loggingTime,loggingSample,locationTimestamp_since1970,locationLatitude,locationLongitude,locationAltitude,locationSpeed,locationCourse,locationVerticalAccuracy,locationHorizontalAccuracy,locationFloor,locationHeadingTimestamp_since1970,locationHeadingX,locationHeadingY,locationHeadingZ,locationTrueHeading,locationMagneticHeading,locationHeadingAccuracy,accelerometerTimestamp_sinceReboot,accelerometerAccelerationX,accelerometerAccelerationY,accelerometerAccelerationZ,gyroTimestamp_sinceReboot,gyroRotationX,gyroRotationY,gyroRotationZ,motionTimestamp_sinceReboot,motionYaw,motionRoll,motionPitch,motionRotationRateX,motionRotationRateY,motionRotationRateZ,motionUserAccelerationX,motionUserAccelerationY,motionUserAccelerationZ,motionAttitudeReferenceFrame,motionQuaternionX,motionQuaternionY,motionQuaternionZ,motionQuaternionW,motionGravityX,motionGravityY,motionGravityZ,motionMagneticFieldX,motionMagneticFieldY,motionMagneticFieldZ,motionMagneticFieldCalibrationAccuracy,IP_en0,IP_pdp_ip0,deviceOrientation,state
2015-03-03 19:56:55.535,1,1425441410.185617,37.77919199469306,-122.4387457125765,56.93193,-1,-1,10,65,-9999,1425441415.530306,-21.78656005859375,-35.09635925292969,-19.02715301513672,107.2950592041016,93.51813507080078,25,228781.5179635833,0.005645751953125,-0.8450927734375,-0.514068603515625,228781.4964268334,-0.002430933443024329,0.2004787721195299,0.04509450778998472,228781.4964268334,3.108657425241734,-0.02308102574559616,1.036800295746743,-0.01209755521267653,0.2035436481237411,0.07821598649024963,-0.01664993539452553,-0.006758391857147217,-0.01038453727960587,XTrueNorthZVertical,0.01818130237369343,0.495225879675427,0.8683432418478505,0.02001970441173153,-0.01174667105078697,-0.8607800602912903,-0.5088415145874023,-21.94515419006348,-35.50940704345703,-19.44427680969238,1,192.168.1.8,10.83.46.32,1,0
2015-03-03 19:56:55.567,2,1425441410.185617,37.77919199469306,-122.4387457125765,56.93193,-1,-1,10,65,-9999,1425441415.530306,-21.78656005859375,-35.09635925292969,-19.02715301513672,107.2950592041016,93.51813507080078,25,228781.5669755,0.0034332275390625,-0.8698272705078125,-0.515655517578125,228781.5482081667,0.01306786515290981,0.07040812026729688,-0.01525645093673693,228781.5482081667,3.109578187764721,-0.01340606097340627,1.036641243631264,0.003386488649994135,0.07348179817199707,0.01784865185618401,0.03366521745920181,0.008541502989828587,-0.0118210231885314,XTrueNorthZVertical,0.01375163321116724,0.4952542409410113,0.8684684579385498,0.01722419413726754,-0.006825008895248175,-0.8606991171836853,-0.5090682506561279,-21.95809364318848,-35.36563491821289,-19.69014739990234,1,192.168.1.8,10.83.46.32,1,0
2015-03-03 19:56:55.622,3,1425441410.185617,37.77919199469306,-122.4387457125765,56.93193,-1,-1,10,65,-9999,1425441415.582546,-21.70130157470703,-35.41926574707031,-19.11035919189453,107.3475189208984,93.57059478759766,25,228781.6160021667,-0.02850341796875,-0.853515625,-0.50994873046875,228781.5999896667,-0.02386565179263609,-0.1137113859080943,0.0004665858229818826,228781.5999896667,3.111006241645954,-0.01827820920805468,1.034436459280019,-0.03355147689580917,-0.1106346249580383,0.0335656926035881,-0.009504768997430801,0.002579888794571161,-0.006561507936567068,XTrueNorthZVertical,0.01550398365594421,0.4942641947567742,0.8689909883294544,0.0178101195477373,-0.009339835494756699,-0.8595744967460632,-0.5109250545501709,-21.79005432128906,-35.37360382080078,-19.86175918579102,1,192.168.1.8,10.83.46.32,1,0
2015-03-03 19:56:55.653,4,1425441410.185617,37.77919199469306,-122.4387457125765,56.93193,-1,-1,10,65,-9999,1425441415.633793,-21.53078460693359,-35.35127258300781,-18.54453277587891,108.5609970092773,94.78407287597656,25,228781.66500925,0.034149169921875,-0.85467529296875,-0.5236968994140625,228781.651771375,-0.02099449782142166,0.006908239867665544,-0.1212348159875681,228781.5999896667,3.111006241645954,-0.01827820920805468,1.034436459280019,-0.03355147689580917,-0.1106346249580383,0.0335656926035881,-0.009504768997430801,0.002579888794571161,-0.006561507936567068,XTrueNorthZVertical,0.01550398365594421,0.4942641947567742,0.8689909883294544,0.0178101195477373,-0.009339835494756699,-0.8595744967460632,-0.5109250545501709,-21.79005432128906,-35.37360382080078,-19.86175918579102,1,192.168.1.8,10.83.46.32,1,0
2015-03-03 19:56:55.709,5,1425441410.185617,37.77919199469306,-122.4387457125765,56.93193,-1,-1,10,65,-9999,1425441415.686354,-21.56488800048828,-35.01139831542969,-18.57781982421875,108.3722763061523,94.59535217285156,25,228781.7141404584,-0.020660400390625,-0.858673095703125,-0.5024566650390625,228781.703552875,-0.06724242067951969,-0.2533941850827504,-0.03262558756623372,228781.703552875,3.104852762832093,-0.02153698016369743,1.029553575785539,-0.0767805203795433,-0.2503580152988434,0.0005589372012764215,0.009141902439296246,-0.002641617087647319,0.007727300748229027,XTrueNorthZVertical,0.01841439614478985,0.4920567970845776,0.8701079457661403,0.02128819052878911,-0.01109502743929625,-0.8570690751075745,-0.515082061290741,-21.86153221130371,-35.31280136108398,-19.89139175415039,1,192.168.1.8,10.83.46.32,1,0
2015-03-03 19:56:55.752,6,1425441410.185617,37.77919199469306,-122.4387457125765,56.93193,-1,-1,10,65,-9999,1425441415.737892,-21.70130157470703,-35.14736938476562,-18.81080627441406,108.4266891479492,94.64976501464844,25,228781.7630418334,-0.0256500244140625,-0.845947265625,-0.509674072265625,228781.7553340833,-0.005030711299159681,0.01625753319049772,-0.02975869465276342,228781.703552875,3.104852762832093,-0.02153698016369743,1.029553575785539,-0.0767805203795433,-0.2503580152988434,0.0005589372012764215,0.009141902439296246,-0.002641617087647319,0.007727300748229027,XTrueNorthZVertical,0.01841439614478985,0.4920567970845776,0.8701079457661403,0.02128819052878911,-0.01109502743929625,-0.8570690751075745,-0.515082061290741,-21.86153221130371,-35.31280136108398,-19.89139175415039,1,192.168.1.8,10.83.46.32,1,0
2015-03-03 19:56:55.807,7,1425441410.185617,37.77919199469306,-122.4387457125765,56.93193,-1,-1,10,65,-9999,1425441415.790052,-21.66719055175781,-35.38525390625,-18.67767333984375,108.8772354125977,95.10031127929688,25,228781.8120705833,0.01385498046875,-0.8557281494140625,-0.5124664306640625,228781.8071160417,0.01929087367209797,0.05597858084902955,-0.02591202477425297,228781.7553340833,3.107628967528734,-0.03075863869718743,1.027720482322608,-0.01455854903906584,0.0192856453359127,0.003439775435253978,-0.01383143197745085,0.00477434741333127,0.01341450866311789,XTrueNorthZVertical,0.02173658654253757,0.4911861867913472,0.8704966298289216,0.02234444117038704,-0.01589268818497658,-0.8561232089996338,-0.5165272951126099,-22.05947494506836,-35.26065063476562,-19.76496505737305,1,192.168.1.8,10.83.46.32,1,0
2015-03-03 19:56:55.850,8,1425441410.185617,37.77919199469306,-122.4387457125765,56.93193,-1,-1,10,65,-9999,1425441415.841724,-21.47962951660156,-35.33427429199219,-19.02713775634766,108.3129730224609,94.53604888916016,25,228781.8610813333,-0.0061492919921875,-0.8501129150390625,-0.5106201171875,228781.8588972917,0.02250291226284254,-0.06654493879002794,-0.01915531877261294,228781.8071160417,3.107799928173326,-0.02615805762811464,1.027881970030695,0.009892217814922333,0.05892305821180344,0.007318332325667143,0.02222535572946072,0.009603272192180157,0.0009690668084658682,XTrueNorthZVertical,0.0196928134151703,0.4913082782100166,0.8705064390875957,0.02114034656790769,-0.01351258717477322,-0.8562066555023193,-0.5164567232131958,-22.11393547058105,-35.22402191162109,-19.76941871643066,1,192.168.1.8,10.83.46.32,1,0
2015-03-03 19:56:55.906,9,1425441410.185617,37.77919199469306,-122.4387457125765,56.93193,-1,-1,10,65,-9999,1425441415.894014,-21.75246429443359,-35.70809936523438,-18.99385070800781,108.7084503173828,94.93152618408203,25,228781.9101168333,-0.0106201171875,-0.848602294921875,-0.5077667236328125,228781.9106788333,0.0525351135595571,0.04340020470447631,-0.01464552178267275,228781.8588972917,3.105784140627541,-0.02505666308254371,1.028168700319761,0.01310671027749777,-0.06359114497900009,0.01405926607549191,0.01072508096694946,0.00735574122518301,0.00729947118088603,XTrueNorthZVertical,0.01970996522632108,0.491425056302192,0.8704251749147892,0.02174746117588162,-0.01293760538101196,-0.8563547730445862,-0.5162258744239807,-21.99744033813477,-35.24966430664062,-19.85350799560547,1,192.168.1.8,10.83.46.32,1,0
2015-03-03 19:56:55.950,10,1425441410.185617,37.77919199469306,-122.4387457125765,56.93193,-1,-1,10,65,-9999,1425441415.945306,-21.9229736328125,-35.70809936523438,-19.16027069091797,108.4850006103516,94.70807647705078,25,228781.9591262084,0.00054931640625,-0.8566741943359375,-0.5111083984375,228781.9106788333,0.0525351135595571,0.04340020470447631,-0.01464552178267275,228781.9106788333,3.106770746193425,-0.02593713262884947,1.02957145091414,0.0431402176618576,0.04635514691472054,0.01856681890785694,0.002740837400779128,0.008475990034639835,0.007246192079037428,XTrueNorthZVertical,0.01985689059527599,0.4920358178070547,0.8700819790664632,0.02153632927149401,-0.01336095482110977,-0.8570783138275146,-0.5150129199028015,-22.03332901000977,-35.26725006103516,-19.78234481811523,1,192.168.1.8,10.83.46.32,1,0
2015-03-03 19:56:56.003,11,1425441410.185617,37.77919199469306,-122.4387457125765,56.93193,-1,-1,10,65,-9999,1425441415.997982,-21.99118041992188,-35.13032531738281,-18.86072540283203,108.4632797241211,94.68635559082031,25,228782.0081476667,-0.0051116943359375,-0.8544158935546875,-0.5080413818359375,228782.0142420417,0.0295629523126426,-0.01682665071544765,-0.02531574300618423,228781.9624605417,3.106251374674548,-0.02289055193679947,1.03133829766129,0.03240014240145683,0.007801858242601156,0.003630369901657104,0.01230650395154953,0.00131300778593868,0.002428099978715181,XTrueNorthZVertical,0.01866786439503189,0.4928318796441939,0.8696704393964931,0.02101385183835153,-0.01175718754529953,-0.8579872250556946,-0.5135365128517151,-22.00251388549805,-35.29386138916016,-19.7691822052002,1,192.168.1.8,10.83.46.32,1,0
2015-03-03 19:56:56.052,12,1425441410.185617,37.77919199469306,-122.4387457125765,56.93193,-1,-1,10,65,-9999,1425441415.997982,-21.99118041992188,-35.13032531738281,-18.86072540283203,108.4632797241211,94.68635559082031,25,228782.0571688334,-0.0032501220703125,-0.8542327880859375,-0.51226806640625,228782.0142420417,0.0295629523126426,-0.01682665071544765,-0.02531574300618423,228782.0142420417,3.105488015039394,-0.02238130054113988,1.03275915825158,0.02025597169995308,-0.01396800950169563,0.007864994928240776,0.006356678437441587,0.004300297237932682,0.004281744826585054,XTrueNorthZVertical,0.0186417595695544,0.4934479927824088,0.8693165379263949,0.0212208857191336,-0.01146837323904037,-0.8587161898612976,-0.5123231410980225,-21.95840072631836,-35.33216857910156,-19.74978637695312,1,192.168.1.8,10.83.46.32,1,0
2015-03-03 19:56:56.102,13,1425441410.185617,37.77919199469306,-122.4387457125765,56.93193,-1,-1,10,65,-9999,1425441416.049358,-22.17875671386719,-35.04536437988281,-19.11035919189453,108.4281616210938,94.65123748779297,25,228782.10628675,-0.00323486328125,-0.85540771484375,-0.50732421875,228782.0660232917,0.03803659826905672,0.002611229448822693,-0.03316114926144866,228782.0660232917,3.104940113845927,-0.02173856093528193,1.034211918120634,0.02872900106012821,0.005472477991133928,1.473213160352316e-05,0.007861829362809658,0.005226965062320232,-0.001185428467579186,XTrueNorthZVertical,0.01850524058014751,0.4940812049611134,0.8689577683657594,0.02130074308373552,-0.01111195143312216,-0.8594597578048706,-0.511082649230957,-21.95281791687012,-35.37289810180664,-19.6829776763916,1,192.168.1.8,10.83.46.32,1,0
2015-03-03 19:56:56.158,14,1425441410.185617,37.77919199469306,-122.4387457125765,56.93193,-1,-1,10,65,-9999,1425441416.102621,-22.41748046875,-35.45317077636719,-19.14363861083984,108.3912887573242,94.61436462402344,25,228782.1551758334,-0.003173828125,-0.8580322265625,-0.511566162109375,228782.1178052917,0.02705452088189696,-0.01042068302937105,-0.04626789656627363,228782.1178052917,3.102840930824064,-0.0194677431420444,1.035138452590501,0.01774591952562332,-0.007555483840405941,-0.01309920661151409,0.005831228103488684,0.002144946018233895,-0.0003404688031878322,XTrueNorthZVertical,0.01804277621088312,0.4944890041642055,0.8687268331918239,0.02165128549709238,-0.009935842826962471,-0.8599330186843872,-0.510310173034668,-21.91606521606445,-35.41074752807617,-19.65585708618164,1,192.168.1.8,10.83.46.32,1,0
2015-03-03 19:56:56.199,15,1425441410.185617,37.77919199469306,-122.4387457125765,56.93193,-1,-1,10,65,-9999,1425441416.180722,-21.88887786865234,-35.43618774414062,-18.89402008056641,108.3683166503906,94.59139251708984,25,228782.2042994584,-0.0040740966796875,-0.8587493896484375,-0.5038299560546875,228782.1695865417,0.01481250198302072,-0.01643436708687898,-0.04242442248107127,228782.1695865417,3.100719878722503,-0.01786643931051453,1.035551013452314,0.005526552442461252,-0.01370780169963837,-0.009347011335194111,0.003634424181655049,0.001424660556949675,0.004965777508914471,XTrueNorthZVertical,0.01787440071485378,0.4946667317965474,0.8686158832967257,0.02217619041521785,-0.009112329222261906,-0.8601435422897339,-0.5099706649780273,-21.88471794128418,-35.44142150878906,-19.63549423217773,1,192.168.1.8,10.83.46.32,1,0
2015-03-03 19:56:56.249,16,1425441410.185617,37.77919199469306,-122.4387457125765,56.93193,-1,-1,10,65,-9999,1425441416.230811,-21.63310241699219,-35.52114868164062,-18.87737274169922,108.3638381958008,94.5869140625,25,228782.25318575,-0.0010528564453125,-0.85760498046875,-0.500762939453125,228782.221368125,0.009782589632188065,0.0008655273542757524,-0.06120024079834792,228782.221368125,3.097817279963758,-0.01546150444801649,1.035776335637236,0.0004980968660674989,0.003593852510675788,-0.02812598645687103,0.003320483490824699,0.002470350824296474,0.003403868526220322,XTrueNorthZVertical,0.01754954683139801,0.4947659677689729,0.868548744426873,0.02284151882039821,-0.007882861420512199,-0.8602584600448608,-0.5097972750663757,-21.83540534973145,-35.48267364501953,-19.61587715148926,1,192.168.1.8,10.83.46.32,1,0
2015-03-03 19:56:56.297,17,1425441410.185617,37.77919199469306,-122.4387457125765,56.93193,-1,-1,10,65,-9999,1425441416.283065,-21.56490325927734,-35.45317077636719,-18.97721099853516,108.3502426147461,94.57331848144531,25,228782.3022020833,0.0020599365234375,-0.8617095947265625,-0.4970245361328125,228782.2731499583,0.02093164721969579,-0.01391022300570188,-0.05228477641708965,228782.2731499583,3.094690296825068,-0.01282086987685835,1.036479631367485,0.01165247336030006,-0.0111787486821413,-0.01921574585139751,0.006391559727489948,0.003225447610020638,0.01221722830086946,XTrueNorthZVertical,0.01718240816786411,0.495074884566209,0.8683612754377167,0.02354410171075091,-0.006528888829052448,-0.8606168031692505,-0.5092112421989441,-21.78686714172363,-35.51865768432617,-19.6047248840332,1,192.168.1.8,10.83.46.32,1,0
2015-03-03 19:56:56.354,18,1425441410.185617,37.77919199469306,-122.4387457125765,56.93193,-1,-1,10,65,-9999,1425441416.344826,-21.39437866210938,-35.45315551757812,-18.74423217773438,108.3581924438477,94.58126831054688,25,228782.3511971667,-0.00323486328125,-0.86474609375,-0.492828369140625,228782.3249313333,0.01604155082609229,-0.01856569490726939,-0.06194406169080705,228782.3249313333,3.091527846788649,-0.0105672515370201,1.037669287652331,0.00676881056278944,-0.01599430292844772,-0.02901025116443634,0.003249511122703552,-0.001128431758843362,0.006461024284362793,XTrueNorthZVertical,0.01699813965459757,0.4955913639496369,0.8680478787424033,0.02435465708056232,-0.005370482802391052,-0.8612220287322998,-0.5082005262374878,-21.73929786682129,-35.56408309936523,-19.57515335083008,1,192.168.1.8,10.83.46.32,1,0
2015-03-03 19:56:56.395,19,1425441410.185617,37.77919199469306,-122.4387457125765,56.93193,-1,-1,10,65,-9999,1425441416.344826,-21.39437866210938,-35.45315551757812,-18.74423217773438,108.3581924438477,94.58126831054688,25,228782.4002252917,-0.004119873046875,-0.866607666015625,-0.496856689453125,228782.376712625,0.05042162891847022,-0.01863200761841237,-0.07668279411163258,228782.376712625,3.087523296677936,-0.007767795619077806,1.040048419155825,0.04115881398320198,-0.01605930179357529,-0.04375059902667999,0.0002392246824456379,-0.003721165237948298,0.01191579829901457,XTrueNorthZVertical,0.01680105937508938,0.4966247145981273,0.8674313347553746,0.02538705620172213,-0.003931851591914892,-0.8624287247657776,-0.5061632394790649,-21.68052101135254,-35.64100646972656,-19.50030136108398,1,192.168.1.8,10.83.46.32,1,0
2015-03-03 19:56:56.451,20,1425441410.185617,37.77919199469306,-122.4387457125765,56.93193,-1,-1,10,65,-9999,1425441416.412993,-21.20680999755859,-35.84402465820312,-18.32819366455078,108.3917236328125,94.61479949951172,25,228782.449214625,-0.032318115234375,-0.88037109375,-0.489471435546875,228782.4284944583,0.07626627571714419,-0.03152357150715893,-0.1192158735651791,228782.376712625,3.087523296677936,-0.007767795619077806,1.040048419155825,0.04115881398320198,-0.01605930179357529,-0.04375059902667999,0.0002392246824456379,-0.003721165237948298,0.01191579829901457,XTrueNorthZVertical,0.01680105937508938,0.4966247145981273,0.8674313347553746,0.02538705620172213,-0.003931851591914892,-0.8624287247657776,-0.5061632394790649,-21.68052101135254,-35.64100646972656,-19.50030136108398,1,192.168.1.8,10.83.46.32,1,0
2015-03-03 19:56:56.494,21,1425441410.185617,37.77919199469306,-122.4387457125765,56.93193,-1,-1,10,65,-9999,1425441416.466746,-21.13860321044922,-36.04794311523438,-18.39475250244141,108.4156875610352,94.63876342773438,25,228782.4982475833,-0.0533599853515625,-0.8887481689453125,-0.51873779296875,228782.4802760833,0.09159756148051235,0.06305752934256918,-0.2097020979228014,228782.4802760833,3.072555869793451,0.00283375689384482,1.048112287365057,0.08236017823219299,0.06554242223501205,-0.1769130825996399,-0.04336104169487953,-0.01155408937484026,-0.006012897938489914,XTrueNorthZVertical,0.01604342202453538,0.500139785216748,0.8653044788799549,0.02917136553634024,0.001414631144143641,-0.8664824366569519,-0.499205619096756,-21.53398704528809,-35.88518142700195,-19.21272659301758,1,192.168.1.8,10.83.46.32,1,0
2015-03-03 19:56:56.555,22,1425441410.185617,37.77919199469306,-122.4387457125765,56.93193,-1,-1,10,65,-9999,1425441416.542083,-20.54178619384766,-36.30282592773438,-18.14513397216797,110.0106658935547,96.23374176025391,25,228782.547248,-0.04132080078125,-0.8641815185546875,-0.531219482421875,228782.5320575,0.1466994296986878,0.2809299391736246,-0.302149207791049,228782.5320575,3.053487577000075,0.02618616790358965,1.053571799144365,0.1374585032463074,0.2834035158157349,-0.269340306520462,-0.06879395246505737,-0.003302646102383733,-0.03864362463355064,XTrueNorthZVertical,0.01083196973931475,0.502725190769954,0.8638046808653671,0.03148857246428354,0.01294678449630737,-0.8691949248313904,-0.4943000972270966,-21.24755477905273,-36.14397811889648,-19.04578590393066,1,192.168.1.8,10.83.46.32,1,0
2015-03-03 19:56:56.592,23,1425441410.185617,37.77919199469306,-122.4387457125765,56.93193,-1,-1,10,65,-9999,1425441416.542083,-20.54178619384766,-36.30282592773438,-18.14513397216797,110.0106658935547,96.23374176025391,25,228782.596381,0.0387420654296875,-0.832611083984375,-0.5092010498046875,228782.583839375,0.2053853801118919,0.7229821895614792,-0.3183066061245597,228782.583839375,3.025367415751223,0.07663245158885396,1.060836321180786,0.196139857172966,0.7254521250724792,-0.2854913473129272,-0.0379202589392662,0.02352086640894413,-0.03421006724238396,XTrueNorthZVertical,-0.003626821247331849,0.5065885703286159,0.8616329767969092,0.03071621330866007,0.0373709425330162,-0.8727640509605408,-0.4867097437381744,-20.63160705566406,-36.47023010253906,-19.1009693145752,1,192.168.1.8,10.83.46.32,1,0
2015-03-03 19:56:56.659,24,1425441410.185617,37.77919199469306,-122.4387457125765,56.93193,-1,-1,10,65,-9999,1425441416.645584,-18.46147155761719,-37.32241821289062,-18.71094512939453,109.8385467529297,96.06162261962891,25,228782.645302,0.1341094970703125,-0.8242340087890625,-0.4777069091796875,228782.635620625,0.2459615687964482,0.9184725946431818,-0.2878416411507073,228782.583839375,3.025367415751223,0.07663245158885396,1.060836321180786,0.196139857172966,0.7254521250724792,-0.2854913473129272,-0.0379202589392662,0.02352086640894413,-0.03421006724238396,XTrueNorthZVertical,-0.003626821247331849,0.5065885703286159,0.8616329767969092,0.03071621330866007,0.0373709425330162,-0.8727640509605408,-0.4867097437381744,-20.63160705566406,-36.47023010253906,-19.1009693145752,1,192.168.1.8,10.83.46.32,1,0
2015-03-03 19:56:56.690,25,1425441410.185617,37.77919199469306,-122.4387457125765,56.93193,-1,-1,10,65,-9999,1425441416.645584,-18.46147155761719,-37.32241821289062,-18.71094512939453,109.8385467529297,96.06162261962891,25,228782.6944569584,0.1841278076171875,-0.8342742919921875,-0.4445343017578125,228782.68740225,0.2480553460454685,0.7862000412016712,-0.1988814080977004,228782.68740225,2.968224160756135,0.2132965858610586,1.079910689362436,0.2388084083795547,0.788539707660675,-0.1662489622831345,0.0815923810005188,0.05365337803959846,0.010376394726336,XTrueNorthZVertical,-0.04670398727188346,0.5171620538760678,0.8543939064031161,0.01931854520132205,0.0997888445854187,-0.8819156885147095,-0.4607242941856384,-17.9389533996582,-37.45112228393555,-19.90464782714844,1,192.168.1.8,10.83.46.32,1,0
2015-03-03 19:56:56.751,26,1425441410.185617,37.77919199469306,-122.4387457125765,56.93193,-1,-1,10,65,-9999,1425441416.697796,-17.18258285522461,-37.81521606445312,-19.09369659423828,108.8965377807617,95.11961364746094,25,228782.74335875,0.201568603515625,-0.8222808837890625,-0.4159698486328125,228782.68740225,0.2480553460454685,0.7862000412016712,-0.1988814080977004,228782.68740225,2.968224160756135,0.2132965858610586,1.079910689362436,0.2388084083795547,0.788539707660675,-0.1662489622831345,0.0815923810005188,0.05365337803959846,0.010376394726336,XTrueNorthZVertical,-0.04670398727188346,0.5171620538760678,0.8543939064031161,0.01931854520132205,0.0997888445854187,-0.8819156885147095,-0.4607242941856384,-17.9389533996582,-37.45112228393555,-19.90464782714844,1,192.168.1.8,10.83.46.32,1,0
2015-03-03 19:56:56.788,27,1425441410.185617,37.77919199469306,-122.4387457125765,56.93193,-1,-1,10,65,-9999,1425441416.749486,-16.26178741455078,-38.39299011230469,-19.06041717529297,108.3138275146484,94.53690338134766,25,228782.7924018333,0.20526123046875,-0.820709228515625,-0.3870391845703125,228782.790965625,0.4166339756797023,0.5474873305763096,-0.05860445768384769,228782.7391840417,2.949147242414909,0.2649191877607062,1.091953677139542,0.3061830103397369,0.6243795156478882,-0.08883356302976608,0.076626256108284,0.05987679213285446,0.02443603985011578,XTrueNorthZVertical,-0.06289993708427474,0.5231676817093747,0.8498040306843239,0.01312593029794512,0.120639368891716,-0.8875287771224976,-0.4446783363819122,-16.94882011413574,-37.80491256713867,-20.10258483886719,1,192.168.1.8,10.83.46.32,1,0
2015-03-03 19:56:56.857,28,1425441410.185617,37.77919199469306,-122.4387457125765,56.93193,-1,-1,10,65,-9999,1425441416.800922,-15.22162628173828,-38.71589660644531,-18.97721099853516,107.5934829711914,93.81655883789062,25,228782.8414195417,0.21539306640625,-0.825958251953125,-0.35601806640625,228782.842746875,0.4838958374351796,0.6014991669603157,0.01574993468672862,228782.790965625,2.93234110653297,0.3083728943374009,1.108280028081241,0.4073871970176697,0.549826979637146,-0.025972630828619,0.06402161717414856,0.07243804633617401,0.03480318561196327,XTrueNorthZVertical,-0.0755769139402209,0.5307648879098619,0.8441103515995187,0.007381331026221424,0.1354260146617889,-0.8949325680732727,-0.425153523683548,-16.20605278015137,-38.14507675170898,-20.07248687744141,1,192.168.1.8,10.83.46.32,1,0
2015-03-03 19:56:56.887,29,1425441410.185617,37.77919199469306,-122.4387457125765,56.93193,-1,-1,10,65,-9999,1425441416.852639,-15.01700210571289,-39.15771484375,-18.51124572753906,107.3095626831055,93.53263854980469,25,228782.8905916667,0.238616943359375,-0.840484619140625,-0.3356475830078125,228782.842746875,0.4838958374351796,0.6014991669603157,0.01574993468672862,228782.842746875,2.917076866595164,0.3505039604799802,1.129550031003339,0.47464919090271,0.6038387417793274,0.04838139936327934,0.06875066459178925,0.07826185971498489,0.04508291557431221,XTrueNorthZVertical,-0.08731446491063966,0.5402089347424558,0.8369888288365361,0.0004442167390113114,0.1466424018144608,-0.9042201042175293,-0.4011009931564331,-15.48219394683838,-38.64186859130859,-19.68999099731445,1,192.168.1.8,10.83.46.32,1,0
2015-03-03 19:56:56.954,30,1425441410.185617,37.77919199469306,-122.4387457125765,56.93193,-1,-1,10,65,-9999,1425441416.908672,-14.26671981811523,-39.70149230957031,-18.04528045654297,105.6209335327148,91.84400939941406,25,228782.9394799584,0.2750244140625,-0.8576507568359375,-0.29644775390625,228782.894529,0.5559178333230644,0.6798099514463137,0.08336679581551344,228782.894529,2.904180887461359,0.3948092449792048,1.155211708426694,0.5466712117195129,0.68215012550354,0.1159968301653862,0.0833313912153244,0.07439583539962769,0.03701870888471603,XTrueNorthZVertical,-0.09974402348997255,0.5511061460745565,0.828402870722548,-0.009046280970696294,0.1552855521440506,-0.9148804545402527,-0.3726662993431091,-15.03118419647217,-39.02884674072266,-19.27175712585449,1,192.168.1.8,10.83.46.32,1,0
2015-03-03 19:56:56.983,31,1425441410.185617,37.77919199469306,-122.4387457125765,56.93193,-1,-1,10,65,-9999,1425441416.908672,-14.26671981811523,-39.70149230957031,-18.04528045654297,105.6209335327148,91.84400939941406,25,228782.9885960417,0.3104705810546875,-0.8855133056640625,-0.2702484130859375,228782.998091875,0.6697032551094629,0.571295191773291,0.2975171717070741,228782.9463102917,2.895925225614159,0.4375588135855391,1.184996850759801,0.5834655165672302,0.7018330097198486,0.2328609526157379,0.1155750006437302,0.06884712725877762,0.04440053924918175,XTrueNorthZVertical,-0.111895789981063,0.563076535886964,0.8185231612663939,-0.02107100549090784,0.1594494134187698,-0.9264978766441345,-0.340848296880722,-14.65885066986084,-39.41502380371094,-18.76597023010254,1,192.168.1.8,10.83.46.32,1,0
2015-03-03 19:56:57.027,32,1425441410.185617,37.77919199469306,-122.4387457125765,56.93193,-1,-1,10,65,-9999,1425441416.982651,-13.63580703735352,-40.36422729492188,-17.89550018310547,101.0828399658203,87.30591583251953,25,228783.037533125,0.28021240234375,-0.950469970703125,-0.245391845703125,228782.998091875,0.6697032551094629,0.571295191773291,0.2975171717070741,228782.998091875,2.893643406158306,0.4719385894415767,1.219416010690201,0.6604568362236023,0.5736360549926758,0.330145388841629,0.1539951711893082,0.05338520556688309,0.03632138669490814,XTrueNorthZVertical,-0.1213425633293698,0.5761866730690093,0.8075332400104037,-0.0342778684358093,0.1564754098653793,-0.938898503780365,-0.3065698146820068,-14.42501068115234,-39.86910629272461,-17.97112846374512,1,192.168.1.8,10.83.46.32,1,0
2015-03-03 19:56:57.082,33,1425441417.007428,37.77925815226449,-122.4388021438899,57.14687,-1,-1,10,65,-9999,1425441417.033044,-13.66990661621094,-40.56814575195312,-16.93028259277344,99.79035949707031,86.01343536376953,25,228783.086603875,0.2084197998046875,-1.007980346679688,-0.2212677001953125,228783.0498736667,0.5611368301112928,0.4583441383564143,0.3739560202628555,228783.0498736667,2.896171961641576,0.4945009502793861,1.255581174198326,0.5518904328346252,0.4606904983520508,0.406573474407196,0.1191627383232117,-0.01353421714156866,0.03182392939925194,XTrueNorthZVertical,-0.1268767074481469,0.5894583628112428,0.7964094228542182,-0.04661734325223651,0.1471336483955383,-0.9507297277450562,-0.2728822827339172,-14.51972579956055,-40.18923568725586,-17.16363525390625,1,192.168.1.8,10.83.46.32,1,0
2015-03-03 19:56:57.123,34,1425441417.007428,37.77925815226449,-122.4388021438899,57.14687,-1,-1,10,65,-9999,1425441417.085683,-13.65285491943359,-40.44917297363281,-15.78201293945312,98.64237213134766,84.86544799804688,25,228783.1355877917,0.1750335693359375,-1.009780883789062,-0.186767578125,228783.101655125,0.4638859102687602,0.490262124021014,0.3231732667005705,228783.101655125,2.91566838952855,0.4999578600419911,1.2859467420821,0.4546400308609009,0.4926090240478516,0.3557893931865692,0.06546558439731598,-0.06528996676206589,0.0374504067003727,XTrueNorthZVertical,-0.1312383852479987,0.5995561212414694,0.787218155342651,-0.05997103886190203,0.1347144693136215,-0.9597039222717285,-0.2466178834438324,-14.87956619262695,-40.36125564575195,-16.43641090393066,1,192.168.1.8,10.83.46.32,1,0
2015-03-03 19:56:57.181,35,1425441417.007428,37.77925815226449,-122.4388021438899,57.14687,-1,-1,10,65,-9999,1425441417.138872,-14.38608551025391,-40.738037109375,-15.23284149169922,96.24677276611328,82.4698486328125,25,228783.18463725,0.1443634033203125,-0.9895172119140625,-0.1314544677734375,228783.153436625,0.426806718411587,0.3135560593720764,0.1735763177358765,228783.153436625,2.919177386446381,0.5175363555532606,1.311616054359448,0.4175621867179871,0.3159036934375763,0.2061908096075058,0.04774904996156693,-0.03315547108650208,0.04355626180768013,XTrueNorthZVertical,-0.1361326431882595,0.6083629024541636,0.7787525627557147,-0.07004951292771271,0.1267962455749512,-0.9666004180908203,-0.2227249592542648,-15.26332759857178,-40.48823165893555,-15.75822448730469,1,192.168.1.8,10.83.46.32,1,0
2015-03-03 19:56:57.254,36,1425441417.007428,37.77925815226449,-122.4388021438899,57.14687,-1,-1,10,65,-9999,1425441417.242222,-14.60776138305664,-41.33279418945312,-14.38412475585938,93.07262420654297,79.29570007324219,25,228783.2336548333,0.11181640625,-1.01824951171875,-0.091278076171875,228783.20521875,0.3434582984075951,0.0801523603797878,0.1111182659546841,228783.20521875,2.910542979196606,0.5349786300468899,1.331402101118834,0.3342138528823853,0.08249999582767487,0.1437323987483978,0.003076215740293264,-0.03529310971498489,0.09308360517024994,XTrueNorthZVertical,-0.1378316034858242,0.6156380489832742,0.7722752615156921,-0.07472059996643086,0.1208861842751503,-0.9714818000793457,-0.2039844840764999,-15.42072296142578,-40.63162612915039,-15.22694969177246,1,192.168.1.8,10.83.46.32,1,0
2015-03-03 19:56:57.280,37,1425441417.007428,37.77925815226449,-122.4388021438899,57.14687,-1,-1,10,65,-9999,1425441417.242222,-14.60776138305664,-41.33279418945312,-14.38412475585938,93.07262420654297,79.29570007324219,25,228783.2826952917,0.1167449951171875,-1.000320434570312,-0.047637939453125,228783.2570000417,0.4152717687821267,-0.01282285433262252,0.1280149578068009,228783.2570000417,2.898989096604909,0.5474001116814354,1.35104182809539,0.4060274064540863,-0.01047524344176054,0.1606287658214569,-0.002785067772492766,-0.03372307494282722,0.1094925776124001,XTrueNorthZVertical,-0.136535526024415,0.6231286499937051,0.7662644788648317,-0.07686019778888405,0.1134570613503456,-0.9759510159492493,-0.186137467622757,-15.62072563171387,-40.75824737548828,-14.67467212677002,1,192.168.1.8,10.83.46.32,1,0
2015-03-03 19:56:57.324,38,1425441417.007428,37.77925815226449,-122.4388021438899,57.14687,-1,-1,10,65,-9999,1425441417.293463,-14.19851303100586,-41.26481628417969,-13.41891479492188,90.97811889648438,77.20119476318359,25,228783.3317030834,0.155517578125,-1.029190063476562,-0.008544921875,228783.3087817084,0.4787048038383971,-0.1387991623249678,0.167777817094447,228783.3087817084,2.877488115344478,0.5653499404763438,1.375240908607555,0.4694605469703674,-0.1364515721797943,0.2003913372755051,0.02854982204735279,-0.01968571357429028,0.1289205402135849,XTrueNorthZVertical,-0.1334118985804988,0.6325842772167268,0.7589389085462537,-0.0777826234697624,0.1040948331356049,-0.9809399247169495,-0.1640767902135849,-16.02894592285156,-40.94610214233398,-13.67761993408203,1,192.168.1.8,10.83.46.32,1,0
2015-03-03 19:56:57.377,39,1425441417.007428,37.77925815226449,-122.4388021438899,57.14687,-1,-1,10,65,-9999,1425441417.345108,-14.74417495727539,-41.16287231445312,-12.95294952392578,89.49869537353516,75.72177124023438,25,228783.3808502083,0.1833038330078125,-1.078353881835938,0.0242919921875,228783.3605635,0.4355288372977055,-0.5017531314924879,0.2320619984351066,228783.3605635,2.863226112488177,0.5633999618986349,1.4002338335799,0.4262951910495758,-0.4995501637458801,0.2644615173339844,0.08085855096578598,-0.06831303983926773,0.1444489806890488,XTrueNorthZVertical,-0.1246766618927032,0.6424206252895281,0.7523676920977296,-0.07546079746013454,0.09065023809671402,-0.9854894280433655,-0.1435029357671738,-16.48005294799805,-41.07988739013672,-12.70585632324219,1,192.168.1.8,10.83.46.32,1,0
2015-03-03 19:56:57.458,40,1425441417.007428,37.77925815226449,-122.4388021438899,57.14687,-1,-1,10,65,-9999,1425441417.396924,-15.39214324951172,-41.2308349609375,-11.42191314697266,90.46402740478516,76.68710327148438,25,228783.4297675417,0.1737823486328125,-1.081512451171875,0.015777587890625,228783.412345125,0.4143162265830063,-0.8428465428520926,0.281076945665797,228783.412345125,2.880540164685076,0.5118919230088675,1.425780491338855,0.4050835967063904,-0.8406431674957275,0.3134754300117493,0.1067061722278595,-0.1004011705517769,0.1487816125154495,XTrueNorthZVertical,-0.1075286301294147,0.6522615269605986,0.7471570227537173,-0.06891214249463441,0.0707840621471405,-0.9895036220550537,-0.1259849816560745,-17.19568824768066,-41.12408065795898,-11.56312942504883,1,192.168.1.8,10.83.46.32,1,0
2015-03-03 19:56:57.474,41,1425441417.007428,37.77925815226449,-122.4388021438899,57.14687,-1,-1,10,65,-9999,1425441417.448647,-16.51756286621094,-41.43476867675781,-10.15714263916016,90.87387847900391,77.09695434570312,25,228783.4787915417,0.1368408203125,-1.040771484375,0.0129852294921875,228783.4641265,0.3276843952710558,-1.154219076446413,0.09093283647242857,228783.4641265,2.88809287615839,0.4535277997224993,1.447028664447718,0.3184521198272705,-1.152015566825867,0.1233307495713234,0.09556903690099716,-0.06677725166082382,0.118891142308712,XTrueNorthZVertical,-0.08560695228361098,0.6612000701870949,0.7432527908472472,-0.05532821781831364,0.05408916994929314,-0.9923505783081055,-0.1109718307852745,-18.44885444641113,-41.0634651184082,-9.69636344909668,1,192.168.1.8,10.83.46.32,1,0
2015-03-03 19:56:57.523,42,1425441417.007428,37.77925815226449,-122.4388021438899,57.14687,-1,-1,10,65,-9999,1425441417.501086,-17.45541000366211,-41.72366333007812,-8.276641845703125,93.57998657226562,79.80306243896484,25,228783.5278070834,0.0782623291015625,-1.036651611328125,0.056854248046875,228783.5159084584,0.1789825347487373,-1.36459069306726,-0.1701485630968355,228783.4641265,2.88809287615839,0.4535277997224993,1.447028664447718,0.3184521198272705,-1.152015566825867,0.1233307495713234,0.09556903690099716,-0.06677725166082382,0.118891142308712,XTrueNorthZVertical,-0.08560695228361098,0.6612000701870949,0.7432527908472472,-0.05532821781831364,0.05408916994929314,-0.9923505783081055,-0.1109718307852745,-18.44885444641113,-41.0634651184082,-9.69636344909668,1,192.168.1.8,10.83.46.32,1,0
2015-03-03 19:56:57.572,43,1425441417.007428,37.77925815226449,-122.4388021438899,57.14687,-1,-1,10,65,-9999,1425441417.555654,-18.06927490234375,-41.82563781738281,-6.545906066894531,97.54347991943359,83.76655578613281,25,228783.5768470417,0.053802490234375,-1.030532836914062,0.101287841796875,228783.5676899583,0.1138240376222047,-1.368932977224634,-0.3228235936494431,228783.5676899583,2.704933158553224,0.5025898812887704,1.457952001576196,0.1045937538146973,-1.366729140281677,-0.2904268801212311,0.002795872977003455,-0.04554473608732224,0.1994338482618332,XTrueNorthZVertical,-0.04131424055572807,0.6700396258162921,0.741156366913841,-0.005222933105281072,0.05424148216843605,-0.9936398267745972,-0.09868006408214569,-19.34030532836914,-41.26779937744141,-6.596139907836914,1,192.168.1.8,10.83.46.32,1,0
2015-03-03 19:56:57.623,44,1425441417.007428,37.77925815226449,-122.4388021438899,57.14687,-1,-1,10,65,-9999,1425441417.555654,-18.06927490234375,-41.82563781738281,-6.545906066894531,97.54347991943359,83.76655578613281,25,228783.6259860417,0.0946502685546875,-1.000595092773438,0.11663818359375,228783.6194715833,0.08153294308888488,-1.3136105992682,-0.3559655681510432,228783.5676899583,2.704933158553224,0.5025898812887704,1.457952001576196,0.1045937538146973,-1.366729140281677,-0.2904268801212311,0.002795872977003455,-0.04554473608732224,0.1994338482618332,XTrueNorthZVertical,-0.04131424055572807,0.6700396258162921,0.741156366913841,-0.005222933105281072,0.05424148216843605,-0.9936398267745972,-0.09868006408214569,-19.34030532836914,-41.26779937744141,-6.596139907836914,1,192.168.1.8,10.83.46.32,1,0
2015-03-03 19:56:57.671,45,1425441417.007428,37.77925815226449,-122.4388021438899,57.14687,-1,-1,10,65,-9999,1425441417.631347,-17.37014007568359,-42.1824951171875,-4.432411193847656,104.1907501220703,90.41382598876953,25,228783.674921625,0.1330108642578125,-0.9234466552734375,0.116790771484375,228783.671253625,-0.04634326402512287,-1.484224682923582,-0.301277288850157,228783.6194715833,2.56585285498562,0.5740983263191006,1.453895234193383,0.07230274379253387,-1.31140673160553,-0.3235691785812378,0.01736181229352951,-0.0004927573027089238,0.2169396877288818,XTrueNorthZVertical,-0.02188214591044781,0.6712324279069555,0.7405655422012569,0.02304089851820732,0.06334192305803299,-0.9931748509407043,-0.09793639928102493,-19.08903312683105,-41.63827896118164,-4.738204479217529,1,192.168.1.8,10.83.46.32,1,0
2015-03-03 19:56:57.710,46,1425441417.007428,37.77925815226449,-122.4388021438899,57.14687,-1,-1,10,65,-9999,1425441417.682202,-16.32997894287109,-42.50537109375,-2.984588623046875,109.280517578125,95.50359344482422,25,228783.7239135417,0.1016998291015625,-0.931854248046875,0.080474853515625,228783.7230351667,-0.1805655177006804,-1.84080357707367,-0.4412663515501722,228783.671253625,2.466539674622933,0.6038103924989603,1.446153442720862,-0.05557337775826454,-1.482020854949951,-0.2688812017440796,0.06362924724817276,0.05805328488349915,0.2289247810840607,XTrueNorthZVertical,-0.001146192795234647,0.6699475755178695,0.7406251056675666,0.05141391872431179,0.07058706134557724,-0.9922420978546143,-0.1023378670215607,-18.74521827697754,-41.91775512695312,-3.47943639755249,1,192.168.1.8,10.83.46.32,1,0
2015-03-03 19:56:57.768,47,1425441417.007428,37.77925815226449,-122.4388021438899,57.14687,-1,-1,10,65,-9999,1425441417.733887,-16.22766876220703,-42.81124877929688,-1.619972229003906,114.2956314086914,100.5187072753906,25,228783.773046375,0.026519775390625,-1.008819580078125,-0.0598602294921875,228783.7748166667,-0.2247878402336642,-1.836088450363685,-0.4082793730240147,228783.7230351667,2.387947477719726,0.5963850930717001,1.431579849717188,-0.1897947937250137,-1.838599681854248,-0.408870667219162,0.0238520223647356,0.06393342465162277,0.2117816507816315,XTrueNorthZVertical,0.02467458316168624,0.664819630107528,0.7416101815456222,0.08614156302990428,0.07793936133384705,-0.9903250336647034,-0.114812046289444,-18.41391754150391,-42.14354705810547,-2.331758260726929,1,192.168.1.8,10.83.46.32,1,0
2015-03-03 19:56:57.808,48,1425441417.007428,37.77925815226449,-122.4388021438899,57.14687,-1,-1,10,65,-9999,1425441417.78794,-15.20456314086914,-42.98117065429688,-0.5549087524414062,119.7829360961914,106.0060119628906,25,228783.821946625,-0.0575714111328125,-0.994842529296875,-0.2390594482421875,228783.7748166667,-0.2247878402336642,-1.836088450363685,-0.4082793730240147,228783.7748166667,2.318310106974586,0.572391171733926,1.411511623476213,-0.2340143918991089,-1.833884835243225,-0.3758825659751892,-0.05939142405986786,-0.02147858962416649,0.0734703540802002,XTrueNorthZVertical,0.05204256839727694,0.6562212127136867,0.7424319462611612,0.1243386589679017,0.08591119945049286,-0.9873409867286682,-0.1333305835723877,-17.62038230895996,-42.53747177124023,-0.8206124305725098,1,192.168.1.8,10.83.46.32,1,0
2015-03-03 19:56:57.866,49,1425441417.007428,37.77925815226449,-122.4388021438899,57.14687,-1,-1,10,65,-9999,1425441417.838949,-13.87451934814453,-43.321044921875,0.6100082397460938,126.7918090820312,113.0148849487305,25,228783.8709809167,-0.0809326171875,-0.933258056640625,-0.34466552734375,228783.8783802083,0.2427756291843864,-1.183417175689715,-0.4794161341655573,228783.8265984583,2.245709522253392,0.5601217163238411,1.394557905165923,-0.007597680669277906,-1.509153008460999,-0.4211832880973816,-0.1507210582494736,-0.01033236458897591,-0.09052363038063049,XTrueNorthZVertical,0.07628835820515908,0.6480063101656584,0.7409149764680177,0.1591003202923402,0.09314964711666107,-0.9845101833343506,-0.148535817861557,-16.93088340759277,-42.82413101196289,0.1634979248046875,1,192.168.1.8,10.83.46.32,1,0
2015-03-03 19:56:57.905,50,1425441417.007428,37.77925815226449,-122.4388021438899,57.14687,-1,-1,10,65,-9999,1425441417.889819,-12.88552093505859,-43.7288818359375,1.708358764648438,131.5842895507812,117.8073577880859,25,228783.920007375,-0.1087646484375,-0.875396728515625,-0.308807373046875,228783.8783802083,0.2427756291843864,-1.183417175689715,-0.4794161341655573,228783.8783802083,2.12103213466364,0.6165791837390526,1.389013090516615,0.2335492521524429,-1.181213736534119,-0.4470199346542358,-0.185470387339592,0.05026482045650482,-0.1971710622310638,XTrueNorthZVertical,0.09441068886081368,0.6460181051851605,0.7337243832903596,0.1881376221037697,0.104537770152092,-0.983522891998291,-0.1474944651126862,-16.09578514099121,-43.12809371948242,1.217037200927734,1,192.168.1.8,10.83.46.32,1,0
2015-03-03 19:56:57.964,51,1425441417.007428,37.77925815226449,-122.4388021438899,57.14687,-1,-1,10,65,-9999,1425441417.941543,-11.58957672119141,-44.03475952148438,3.072967529296875,136.3374328613281,122.5605010986328,25,228783.9691325417,-0.0658416748046875,-0.8331146240234375,-0.2865447998046875,228783.9301617084,0.3654277795040947,-0.5577420986697688,-0.4942081298081844,228783.9301617084,1.970464629956115,0.7215634530234312,1.386769697914751,0.3562014698982239,-0.5555386543273926,-0.461812287569046,-0.2227432280778885,0.1128297969698906,-0.1610169857740402,XTrueNorthZVertical,0.104232888886856,0.6484161899452421,0.7243875527669369,0.20965359231695,0.1208755522966385,-0.9831148386001587,-0.1373838931322098,-14.79836273193359,-43.51107025146484,2.895318984985352,1,192.168.1.8,10.83.46.32,1,0
2015-03-03 19:56:58.008,52,1425441417.007428,37.77925815226449,-122.4388021438899,57.14687,-1,-1,10,65,-9999,1425441417.993069,-10.22542953491211,-44.17070007324219,3.805198669433594,138.2795562744141,124.5026245117188,25,228784.0180324583,-0.0070037841796875,-0.811614990234375,-0.2785186767578125,228783.9819435417,0.5010271537793323,-0.0380057056004118,-0.4831080743847341,228783.9819435417,1.801992607561452,0.8754186663815068,1.385303252401881,0.4918009638786316,-0.03580225631594658,-0.4507125616073608,-0.1926948726177216,0.1580163240432739,-0.1744267344474792,XTrueNorthZVertical,0.1033599379998647,0.6559241202463753,0.7144558793853809,0.2205290774279504,0.1416084468364716,-0.9828454256057739,-0.1181605458259583,-13.81486129760742,-43.75040817260742,3.954637050628662,1,192.168.1.8,10.83.46.32,1,0
2015-03-03 19:56:58.062,53,1425441417.007428,37.77925815226449,-122.4388021438899,57.14687,-1,-1,10,65,-9999,1425441418.044392,-9.287582397460938,-44.11972045898438,4.587356567382812,139.3753356933594,125.5984115600586,25,228784.0671583333,-0.0008697509765625,-0.835174560546875,-0.2100372314453125,228784.0337250833,0.6259626984176745,0.02715944942884609,-0.3785579626265124,228784.0337250833,1.61118437251809,1.063747039665771,1.385336439098734,0.6167365908622742,0.029362877830863,-0.346162736415863,-0.1743966192007065,0.1565423458814621,-0.1669868230819702,XTrueNorthZVertical,0.09975569072610946,0.6672906673231068,0.7026887925404103,0.2258327571306204,0.161197766661644,-0.9828515648841858,-0.08954393863677979,-12.91392803192139,-43.92403411865234,4.949493408203125,1,192.168.1.8,10.83.46.32,1,0
2015-03-03 19:56:58.102,54,1425441417.007428,37.77925815226449,-122.4388021438899,57.14687,-1,-1,10,65,-9999,1425441418.097343,-8.980648040771484,-44.35762023925781,6.517784118652344,141.3779144287109,127.6009902954102,25,228784.1160615,-0.007415771484375,-0.7877349853515625,-0.1638641357421875,228784.0855067917,0.6635577445779961,0.3212043917066749,-0.2160223118217774,228784.0855067917,1.426466876820403,1.254454889047617,1.385839345396429,0.6543317437171936,0.3234077990055084,-0.1836274266242981,-0.1840715408325195,0.1567265093326569,-0.1358431130647659,XTrueNorthZVertical,0.09568793609588974,0.6798810765678313,0.6910994466824331,0.2258032357823698,0.174778938293457,-0.9829441905021667,-0.05721108242869377,-12.01395988464355,-43.97688674926758,6.502763748168945,1,192.168.1.8,10.83.46.32,1,0
2015-03-03 19:56:58.163,55,1425441417.007428,37.77925815226449,-122.4388021438899,57.14687,-1,-1,10,65,-9999,1425441418.148484,-8.588455200195312,-44.40859985351562,8.032173156738281,141.2271575927734,127.4502258300781,25,228784.16511675,0.0166473388671875,-0.749420166015625,-0.118865966796875,228784.1372887084,0.6430018693881105,0.660762490697849,-0.2991731252728854,228784.1372887084,1.240402202364115,1.463081265758547,1.382607165022942,0.6337759494781494,0.6629658937454224,-0.2667785882949829,-0.1774511933326721,0.2007284015417099,-0.1326127946376801,XTrueNorthZVertical,0.0869540526719299,0.6945378166828137,0.6797742815204635,0.2190048994625768,0.1859961152076721,-0.9823446273803711,-0.0201124269515276,-11.71961975097656,-43.87724304199219,7.617464065551758,1,192.168.1.8,10.83.46.32,1,0
2015-03-03 19:56:58.200,56,1425441417.007428,37.77925815226449,-122.4388021438899,57.14687,-1,-1,10,65,-9999,1425441418.148484,-8.588455200195312,-44.40859985351562,8.032173156738281,141.2271575927734,127.4502258300781,25,228784.21421575,0.1162567138671875,-0.6375732421875,-0.03955078125,228784.1890704167,0.5872294172074531,0.9320350088105193,-0.413564149891168,228784.1890704167,1.086179101649662,1.655337797139477,1.365998058068331,0.5780035853385925,0.9342383742332458,-0.3811699450016022,-0.1610936671495438,0.2713383734226227,-0.1077030971646309,XTrueNorthZVertical,0.07039717518592832,0.7096693503633675,0.6690832187845408,0.2091442160459473,0.2026433497667313,-0.9791020154953003,0.01717269793152809,-11.45397186279297,-43.77401351928711,8.557461738586426,1,192.168.1.8,10.83.46.32,1,0
2015-03-03 19:56:58.258,57,1425441417.007428,37.77925815226449,-122.4388021438899,57.14687,-1,-1,10,65,-9999,1425441418.252736,-8.179206848144531,-43.86482238769531,9.330223083496094,137.8454437255859,124.0685119628906,25,228784.26317825,0.2928009033203125,-0.70697021484375,0.18756103515625,228784.24085175,0.4625564602525927,1.240069802610643,-0.3599560487284179,228784.24085175,0.9782130815250728,1.814935840291089,1.342811840037633,0.4533306956291199,1.242273092269897,-0.327562153339386,-0.04343953728675842,0.3536862730979919,-0.02767030708491802,XTrueNorthZVertical,0.04828209750601256,0.7245585781485014,0.6592068007196408,0.1952693157172838,0.2193123400211334,-0.9741238951683044,0.05463258922100067,-10.970290184021,-43.71257019042969,9.457890510559082,1,192.168.1.8,10.83.46.32,1,0
2015-03-03 19:56:58.298,58,1425441417.007428,37.77925815226449,-122.4388021438899,57.14687,-1,-1,10,65,-9999,1425441418.252736,-8.179206848144531,-43.86482238769531,9.330223083496094,137.8454437255859,124.0685119628906,25,228784.312259375,0.3514556884765625,-0.962982177734375,0.2224578857421875,228784.2926340417,0.03978922458243787,0.93327231345297,0.1219296347159698,228784.24085175,0.9782130815250728,1.814935840291089,1.342811840037633,0.4533306956291199,1.242273092269897,-0.327562153339386,-0.04343953728675842,0.3536862730979919,-0.02767030708491802,XTrueNorthZVertical,0.04828209750601256,0.7245585781485014,0.6592068007196408,0.1952693157172838,0.2193123400211334,-0.9741238951683044,0.05463258922100067,-10.970290184021,-43.71257019042969,9.457890510559082,1,192.168.1.8,10.83.46.32,1,0
2015-03-03 19:56:58.357,59,1425441417.007428,37.77925815226449,-122.4388021438899,57.14687,-1,-1,10,65,-9999,1425441418.303947,-8.128055572509766,-43.60990905761719,9.479988098144531,134.6352386474609,120.8583145141602,25,228784.36118625,0.2135467529296875,-1.05694580078125,0.1314849853515625,228784.3444154167,0.01379437549828343,0.1967069370676507,0.4353642539423386,228784.3444154167,0.9053285480594025,1.969981567084328,1.35278758007442,0.004591783508658409,0.1988210082054138,0.4676074087619781,0.013273810967803,-0.06894276291131973,0.07101169228553772,XTrueNorthZVertical,0.02702915394950306,0.7357316875850534,0.6576465708009632,0.1595910477365064,0.1992811262607574,-0.976330041885376,0.08406338095664978,-11.49319553375244,-43.59364700317383,9.38552188873291,1,192.168.1.8,10.83.46.32,1,0
2015-03-03 19:56:58.396,60,1425441417.007428,37.77925815226449,-122.4388021438899,57.14687,-1,-1,10,65,-9999,1425441418.357097,-8.912441253662109,-43.13410949707031,9.24700927734375,132.3514099121094,118.5744781494141,25,228784.4103120417,0.2442779541015625,-1.090087890625,0.09649658203125,228784.3961970833,-0.0512914173304901,0.2117103877008301,0.5977893835618353,228784.3961970833,0.8562045858065125,2.027879313576296,1.377523359315462,-0.06049392744898796,0.213824450969696,0.6300323009490967,0.07772171497344971,-0.1066776216030121,0.02373765595257282,XTrueNorthZVertical,0.03351887818396482,0.7357039356259284,0.6602599717045263,0.1472174567041045,0.1723545789718628,-0.981380820274353,0.08476759493350983,-12.84478378295898,-43.25864028930664,9.180923461914062,1,192.168.1.8,10.83.46.32,1,0
2015-03-03 19:56:58.455,61,1425441417.007428,37.77925815226449,-122.4388021438899,57.14687,-1,-1,10,65,-9999,1425441418.408508,-10.08901596069336,-43.15109252929688,9.296943664550781,130.5898284912109,116.8128967285156,25,228784.4592112917,0.16998291015625,-1.149917602539062,0.1093292236328125,228784.4479790417,-0.1479772143897078,0.1588562274426815,0.6213146833671592,228784.3961970833,0.8562045858065125,2.027879313576296,1.377523359315462,-0.06049392744898796,0.213824450969696,0.6300323009490967,0.07772171497344971,-0.1066776216030121,0.02373765595257282,XTrueNorthZVertical,0.03351887818396482,0.7357039356259284,0.6602599717045263,0.1472174567041045,0.1723545789718628,-0.981380820274353,0.08476759493350983,-12.84478378295898,-43.25864028930664,9.180923461914062,1,192.168.1.8,10.83.46.32,1,0
2015-03-03 19:56:58.494,62,1425441417.007428,37.77925815226449,-122.4388021438899,57.14687,-1,-1,10,65,-9999,1425441418.459964,-11.67483901977539,-42.72627258300781,8.880905151367188,127.6149673461914,113.8380432128906,25,228784.50831625,0.1254730224609375,-1.206298828125,0.1541748046875,228784.49976075,-0.2780939389287992,0.539433132491583,0.5324322146179827,228784.4479790417,0.7951972271188685,2.096663620159409,1.408707228293667,-0.1571796387434006,0.1609702557325363,0.6535572409629822,0.07850257307291031,-0.1305851191282272,0.02182198502123356,XTrueNorthZVertical,0.04222926739148835,0.7339756034108771,0.664621671477291,0.1333211995889147,0.1395760476589203,-0.9868922829627991,0.08100699633359909,-14.11639308929443,-42.90943908691406,8.949596405029297,1,192.168.1.8,10.83.46.32,1,0
2015-03-03 19:56:58.553,63,1425441417.007428,37.77925815226449,-122.4388021438899,57.14687,-1,-1,10,65,-9999,1425441418.512724,-12.95372009277344,-41.99555969238281,8.498146057128906,125.5328521728516,111.7559280395508,25,228784.557384875,0.1473388671875,-1.189010620117188,0.101470947265625,228784.5515422084,-0.3048179615194174,0.4849227523515141,0.4678028876000487,228784.5515422084,0.7309308396561893,2.20814751399031,1.470003257634489,-0.3140201568603516,0.4870367348194122,0.5000447630882263,0.07570262253284454,-0.2004793733358383,0.06223875284194946,XTrueNorthZVertical,0.04504846359115604,0.726573674575511,0.6786097625973926,0.09772475292014504,0.08086781203746796,-0.9949246644973755,0.05987733602523804,-17.10367202758789,-42.11453628540039,7.376869201660156,1,192.168.1.8,10.83.46.32,1,0
2015-03-03 19:56:58.591,64,1425441417.007428,37.77925815226449,-122.4388021438899,57.14687,-1,-1,10,65,-9999,1425441418.564934,-15.26552581787109,-41.05482482910156,7.541831970214844,122.6358947753906,108.8589706420898,25,228784.606235125,0.09197998046875,-1.1607666015625,0.0674896240234375,228784.5515422084,-0.3048179615194174,0.4849227523515141,0.4678028876000487,228784.5515422084,0.7309308396561893,2.20814751399031,1.470003257634489,-0.3140201568603516,0.4870367348194122,0.5000447630882263,0.07570262253284454,-0.2004793733358383,0.06223875284194946,XTrueNorthZVertical,0.04504846359115604,0.726573674575511,0.6786097625973926,0.09772475292014504,0.08086781203746796,-0.9949246644973755,0.05987733602523804,-17.10367202758789,-42.11453628540039,7.376869201660156,1,192.168.1.8,10.83.46.32,1,0
2015-03-03 19:56:58.651,65,1425441417.007428,37.77925815226449,-122.4388021438899,57.14687,-1,-1,10,65,-9999,1425441418.641352,-16.86830139160156,-40.8848876953125,6.310287475585938,119.2965316772461,105.5196075439453,25,228784.655261625,-0.011322021484375,-1.091140747070312,0.0541534423828125,228784.6551058333,-0.3309025591323075,-0.09995083255565489,0.1425624752613587,228784.6033244584,0.7204565215633282,2.233552062138652,1.495284420362681,-0.2810941338539124,0.1087791621685028,0.3370616734027863,0.04587715864181519,-0.1653099954128265,0.02247568778693676,XTrueNorthZVertical,0.04676654373292066,0.7218183724003352,0.6851759235907525,0.08558672366696082,0.05946952104568481,-0.9971503019332886,0.04641774296760559,-18.17980575561523,-41.82248687744141,6.400130271911621,1,192.168.1.8,10.83.46.32,1,0
2015-03-03 19:56:58.689,66,1425441417.007428,37.77925815226449,-122.4388021438899,57.14687,-1,-1,10,65,-9999,1425441418.641352,-16.86830139160156,-40.8848876953125,6.310287475585938,119.2965316772461,105.5196075439453,25,228784.7042685,-0.0240936279296875,-1.073974609375,0.03216552734375,228784.706887625,-0.4954142754658813,0.0946612619985395,0.1868732147425331,228784.6551058333,0.8109734880519944,2.139654894659148,1.513756168294824,-0.3401046097278595,-0.09783688187599182,0.1748037338256836,-0.05364653468132019,-0.106713630259037,0.02970028296113014,XTrueNorthZVertical,0.0515105407016667,0.7160316300305466,0.6911677431783475,0.08326178995222482,0.04803130030632019,-0.9983736276626587,0.03070926293730736,-19.01518821716309,-41.56759643554688,5.580795288085938,1,192.168.1.8,10.83.46.32,1,0
2015-03-03 19:56:58.750,67,1425441417.007428,37.77925815226449,-122.4388021438899,57.14687,-1,-1,10,65,-9999,1425441418.745116,-18.09596252441406,-41.0208740234375,4.512893676757812,117.0670013427734,103.2900772094727,25,228784.7532962917,0.0498199462890625,-1.095794677734375,-0.013916015625,228784.706887625,-0.4954142754658813,0.0946612619985395,0.1868732147425331,228784.706887625,1.131640012262559,1.821752524133948,1.532559168462986,-0.5046162009239197,0.09677518159151077,0.2191141247749329,-0.06112414970993996,-0.07470556348562241,0.02267235703766346,XTrueNorthZVertical,0.05370729184929503,0.7084222696161587,0.6992772801288926,0.07914989635824909,0.03703052178025246,-0.9992690682411194,0.00949317030608654,-19.36508178710938,-41.48479461669922,4.959179401397705,1,192.168.1.8,10.83.46.32,1,0
2015-03-03 19:56:58.788,68,1425441417.007428,37.77925815226449,-122.4388021438899,57.14687,-1,-1,10,65,-9999,1425441418.745116,-18.09596252441406,-41.0208740234375,4.512893676757812,117.0670013427734,103.2900772094727,25,228784.8023004167,0.03277587890625,-1.096923828125,0.007904052734375,228784.7586695417,-0.5773299148034106,-0.1652755109342085,0.1935822501606607,228784.7586695417,1.949654271069349,1.001571387009508,1.538142464497045,-0.5865318179130554,-0.1631616055965424,0.2258228659629822,0.02231971733272076,-0.0963277667760849,0.003680710215121508,XTrueNorthZVertical,0.05692303114885509,0.6985423434767085,0.7090820841471429,0.07746590682563138,0.02750022895634174,-0.9994668960571289,-0.01759672537446022,-19.76613426208496,-41.39988708496094,3.99209189414978,1,192.168.1.8,10.83.46.32,1,0
2015-03-03 19:56:58.849,69,1425441417.007428,37.77925815226449,-122.4388021438899,57.14687,-1,-1,10,65,-9999,1425441418.797218,-18.53928375244141,-40.68099975585938,3.647483825683594,117.4371566772461,103.6602325439453,25,228784.8513152917,-0.020416259765625,-1.04034423828125,-0.0364532470703125,228784.8622327083,-0.5054482675049728,0.3359860010210508,0.2590845613839227,228784.81045125,2.697358697221376,0.245586849131547,1.521309383838233,-0.563514232635498,-0.1029004156589508,0.3123310804367065,0.02074921876192093,-0.09814805537462234,0.0558866523206234,XTrueNorthZVertical,0.06418038666657278,0.6869421948666924,0.7198706064163781,0.07601062281454804,0.01202666014432907,-0.9987757802009583,-0.0479825995862484,-20.34228897094727,-41.22359085083008,2.71932315826416,1,192.168.1.8,10.83.46.32,1,0
2015-03-03 19:56:58.886,70,1425441417.007428,37.77925815226449,-122.4388021438899,57.14687,-1,-1,10,65,-9999,1425441418.848758,-18.81209564208984,-40.27316284179688,2.549087524414062,116.6463088989258,102.869384765625,25,228784.900430625,-0.025390625,-0.9678192138671875,-0.06671142578125,228784.8622327083,-0.5054482675049728,0.3359860010210508,0.2590845613839227,228784.8622327083,2.974415931932834,-0.02291098651268796,1.496005476068488,-0.5146453976631165,0.338100403547287,0.2913234531879425,-0.01646143011748791,-0.01935131847858429,0.02269965410232544,XTrueNorthZVertical,0.06515282389990731,0.6770556151889466,0.7297909704043454,0.06896338796163663,-0.001711787073872983,-0.9972044825553894,-0.07470160722732544,-20.8966236114502,-40.99991607666016,1.710489273071289,1,192.168.1.8,10.83.46.32,1,0
2015-03-03 19:56:58.951,71,1425441417.007428,37.77925815226449,-122.4388021438899,57.14687,-1,-1,10,65,-9999,1425441418.901688,-19.46002197265625,-40.10324096679688,1.350830078125,115.0896606445312,101.3127365112305,25,228784.949353375,-0.01361083984375,-0.92498779296875,-0.0181884765625,228784.9140149583,-0.5524472017904732,0.3949350717499547,0.3127251531119716,228784.9140149583,3.123665434574936,-0.1517780576313724,1.470025767542208,-0.5616332292556763,0.3970497846603394,0.344965934753418,-0.01068382617086172,0.03881121799349785,0.02270718105137348,XTrueNorthZVertical,0.06223346427466221,0.6681356005574718,0.7392015921080864,0.05747022969180791,-0.01521033886820078,-0.994926929473877,-0.09944362938404083,-21.44515228271484,-40.7485237121582,0.5008916854858398,1,192.168.1.8,10.83.46.32,1,0
2015-03-03 19:56:58.984,72,1425441417.007428,37.77925815226449,-122.4388021438899,57.14687,-1,-1,10,65,-9999,1425441418.952725,-20.36372375488281,-39.91632080078125,-0.06378173828125,113.4414825439453,99.66455841064453,25,228784.9984675417,-0.1015167236328125,-0.9213714599609375,-0.069793701171875,228784.9657964584,-0.3390393152108266,0.4605335230885684,0.496613763220853,228784.9657964584,-3.015819364864425,-0.2739037830583439,1.44234764509942,-0.3482227921485901,0.4626483917236328,0.5288541913032532,-0.01486591435968876,0.05436861515045166,0.08546362817287445,XTrueNorthZVertical,0.06122517072320228,0.65923526723489,0.7481934689770586,0.04320740408323202,-0.03464885801076889,-0.9917618036270142,-0.123320683836937,-22.31015586853027,-40.26278686523438,-1.323955774307251,1,192.168.1.8,10.83.46.32,1,0
2015-03-03 19:56:59.055,73,1425441417.007428,37.77925815226449,-122.4388021438899,57.14687,-1,-1,10,65,-9999,1425441419.00476,-21.19920349121094,-38.981689453125,-1.744682312011719,109.9803161621094,96.20339202880859,25,228785.047396625,-0.183349609375,-0.852203369140625,-0.0485382080078125,228785.0175782084,0.04714940288708986,0.5973291893254696,0.760350334396926,228785.0175782084,-2.793524132278813,-0.4639938358092821,1.423448831552776,0.03796767443418503,0.5994438529014587,0.7925918698310852,-0.02249270863831043,0.09805070608854294,0.03938883543014526,XTrueNorthZVertical,0.06140896010890769,0.6561879909257268,0.7518207238561946,0.02029446346733948,-0.06570309400558472,-0.9891639947891235,-0.1312925219535828,-23.29241180419922,-39.65426254272461,-2.36451244354248,1,192.168.1.8,10.83.46.32,1,0
2015-03-03 19:56:59.082,74,1425441417.007428,37.77925815226449,-122.4388021438899,57.14687,-1,-1,10,65,-9999,1425441419.055504,-22.154052734375,-37.89411926269531,-2.576805114746094,105.7578353881836,91.98091125488281,25,228785.09641325,0.5074615478515625,-1.2664794921875,0.0465545654296875,228785.0693602917,0.5167358094691646,1.061706985447567,0.09336723202486999,228785.0693602917,-2.60247282664871,-0.612637254176602,1.421231517088727,0.5075541734695435,1.06382167339325,0.125608429312706,-0.0003607621474657208,0.09035274386405945,0.1855833679437637,XTrueNorthZVertical,0.05468350644499051,0.6603449798808819,0.7489633314010118,-0.002855830802943265,-0.08568354696035385,-0.9888359904289246,-0.1219084411859512,-24.52962875366211,-38.85944747924805,-2.971233367919922,1,192.168.1.8,10.83.46.32,1,0
2015-03-03 19:56:59.159,75,1425441417.007428,37.77925815226449,-122.4388021438899,57.14687,-1,-1,10,65,-9999,1425441419.107833,-22.46097564697266,-37.28236389160156,-2.510223388671875,102.9584732055664,89.18154907226562,25,228785.145444125,-0.3121337890625,-1.179153442382812,-0.22607421875,228785.1211417083,0.4725459775014799,1.115935336828197,-1.346417015472451,228785.1211417083,-2.725371746882038,-0.43077116949611,1.466600053060476,0.463364452123642,1.1180499792099,-1.314176082611084,0.6620373129844666,-0.23528191447258,0.06043326482176781,XTrueNorthZVertical,0.02026938422315741,0.672559351271963,0.7396980325662286,-0.009994877757112351,-0.04343074560165405,-0.9945764541625977,-0.09450614452362061,-24.24259185791016,-39.00552368164062,-3.384287357330322,1,192.168.1.8,10.83.46.32,1,0
2015-03-03 19:56:59.179,76,1425441417.007428,37.77925815226449,-122.4388021438899,57.14687,-1,-1,10,65,-9999,1425441419.159632,-21.57433319091797,-38.13201904296875,-2.843070983886719,103.0137405395508,89.23681640625,25,228785.1945050833,0.5533905029296875,-2.39874267578125,-0.225433349609375,228785.172923375,0.2100118235575776,-0.2653653604987655,-0.6639968998417501,228785.172923375,3.069528017914457,0.07167997386260047,1.486154327576544,0.2008303701877594,-0.2632507681846619,-0.6317563056945801,-0.05740053579211235,-0.5084017515182495,-0.0225943960249424,XTrueNorthZVertical,-0.002012441050359277,0.6766343033983823,0.7363129483126072,0.002284201540989644,0.006054711062461138,-0.9964200258255005,-0.0843239426612854,-21.96649551391602,-40.30349731445312,-3.699895620346069,1,192.168.1.8,10.83.46.32,1,0
2015-03-03 19:56:59.255,77,1425441417.007428,37.77925815226449,-122.4388021438899,57.14687,-1,-1,10,65,-9999,1425441419.21136,-19.39182281494141,-39.62741088867188,-2.310516357421875,105.0776138305664,91.30068969726562,25,228785.2532877917,0.2057342529296875,-0.9510955810546875,0.013031005859375,228785.2247056667,-0.0002982740420888747,0.5761618523493018,-0.7386849862969134,228785.2247056667,2.621156760658558,0.4957504326186328,1.4862858531287,-0.009479626081883907,0.5782764554023743,-0.7064447402954102,-0.8390270471572876,0.2289445400238037,0.05082578584551811,XTrueNorthZVertical,-0.005812526368843361,0.6803250696474603,0.7325185141020363,0.02325180698386317,0.0401531420648098,-0.9964311122894287,-0.07424803078174591,-20.76981735229492,-41.00186157226562,-2.83720064163208,1,192.168.1.8,10.83.46.32,1,0
2015-03-03 19:56:59.288,78,1425441417.007428,37.77925815226449,-122.4388021438899,57.14687,-1,-1,10,65,-9999,1425441419.263447,-17.55033493041992,-40.51104736328125,-1.744674682617188,107.6788635253906,93.90193939208984,25,228785.302307,0.119537353515625,-0.9943695068359375,0.0920257568359375,228785.2764872083,0.2840639471444299,-0.1116668771392405,-0.535903112466683,228785.2764872083,2.268802860923911,0.8876972806321819,1.473080048017908,0.2748826742172241,-0.1095523163676262,-0.503663182258606,0.1463756859302521,0.0354517288506031,0.1013906002044678,XTrueNorthZVertical,-0.03188642999667485,0.6842463354873587,0.7282403794475184,0.02135798633301699,0.07567021995782852,-0.9952295422554016,-0.06158041581511497,-18.91889762878418,-41.87747955322266,-2.989978313446045,1,192.168.1.8,10.83.46.32,1,0
2015-03-03 19:56:59.356,79,1425441417.007428,37.77925815226449,-122.4388021438899,57.14687,-1,-1,10,65,-9999,1425441419.314696,-15.89640045166016,-41.17376708984375,-0.8958969116210938,110.0855712890625,96.30864715576172,25,228785.3513399583,0.134674072265625,-0.96051025390625,0.03564453125,228785.3282688333,0.1401997187422404,-0.08484485022050743,-0.5448846232429752,228785.3282688333,2.098341237992807,1.036260284285617,1.457831648610758,0.1310185492038727,-0.08273031562566757,-0.5126450061798096,-0.0341644175350666,0.02365556918084621,0.1655199080705643,XTrueNorthZVertical,-0.03195254820575433,0.6857592245056982,0.7261904623752597,0.03688819469135929,0.0970001146197319,-0.9936262965202332,-0.05742664262652397,-17.97754859924316,-42.32270431518555,-2.486779689788818,1,192.168.1.8,10.83.46.32,1,0
2015-03-03 19:56:59.387,80,1425441417.007428,37.77925815226449,-122.4388021438899,57.14687,-1,-1,10,65,-9999,1425441419.366561,-14.89039611816406,-41.56462097167969,-1.145538330078125,109.6985168457031,95.92159271240234,25,228785.4004547917,0.1602935791015625,-0.987457275390625,0.06182861328125,228785.3800507917,-0.0613946515579237,-0.0668629202241834,-0.6550657228100605,228785.3282688333,2.098341237992807,1.036260284285617,1.457831648610758,0.1310185492038727,-0.08273031562566757,-0.5126450061798096,-0.0341644175350666,0.02365556918084621,0.1655199080705643,XTrueNorthZVertical,-0.03195254820575433,0.6857592245056982,0.7261904623752597,0.03688819469135929,0.0970001146197319,-0.9936262965202332,-0.05742664262652397,-17.97754859924316,-42.32270431518555,-2.486779689788818,1,192.168.1.8,10.83.46.32,1,0
2015-03-03 19:56:59.451,81,1425441417.007428,37.77925815226449,-122.4388021438899,57.14687,-1,-1,10,65,-9999,1425441419.418334,-13.49222946166992,-42.00642395019531,-1.544967651367188,111.1864242553711,97.40950012207031,25,228785.449389125,0.303955078125,-1.10888671875,-0.031646728515625,228785.4318324167,-0.06072273601489671,-0.1801764298654199,-0.6937952755947558,228785.4318324167,1.930059946458296,1.199743363147799,1.403342741758939,-0.06998676061630249,-0.1780488044023514,-0.6616917252540588,0.1790516674518585,0.07816020399332047,0.1043648570775986,XTrueNorthZVertical,-0.0510821773529458,0.6835007018280729,0.7257343307897921,0.05938929831531455,0.1553294360637665,-0.9860123991966248,-0.06043480336666107,-15.4826602935791,-43.30838775634766,-2.293153285980225,1,192.168.1.8,10.83.46.32,1,0
2015-03-03 19:56:59.484,82,1425441417.007428,37.77925815226449,-122.4388021438899,57.14687,-1,-1,10,65,-9999,1425441419.470271,-12.36687088012695,-42.61819458007812,-1.511665344238281,112.8477020263672,99.07077789306641,25,228785.4984474167,0.223541259765625,-0.97210693359375,-0.0209197998046875,228785.4836140834,-0.09963524796648049,-0.7884248459763233,-0.130372654319848,228785.4836140834,1.91910197208595,1.185110353416031,1.382360101184134,-0.1088991835713387,-0.7862972617149353,-0.09826947003602982,-0.13637675344944,-0.08271933346986771,0.03865538910031319,XTrueNorthZVertical,-0.04893732251705513,0.679978056318397,0.7277172198175834,0.07525048342145275,0.1735624223947525,-0.9822983741760254,-0.07046996057033539,-14.33213233947754,-43.70090103149414,-2.325725078582764,1,192.168.1.8,10.83.46.32,1,0
2015-03-03 19:56:59.548,83,1425441417.007428,37.77925815226449,-122.4388021438899,57.14687,-1,-1,10,65,-9999,1425441419.521524,-11.70188903808594,-42.839111328125,-1.361885070800781,114.8173370361328,101.040412902832,25,228785.547436375,0.279205322265625,-0.9313812255859375,-0.0992584228515625,228785.53539625,-0.04903731778384703,-0.4256511728146016,-0.1090412666205313,228785.53539625,1.931662135696581,1.147168391533338,1.373371553440845,-0.0583011694252491,-0.4235235750675201,-0.07693836838006973,0.1576042026281357,0.02096496149897575,-0.01168635115027428,XTrueNorthZVertical,-0.04231622396684318,0.6766791526766198,0.7299569678612257,0.08647249549287042,0.1788063198328018,-0.9805749654769897,-0.08062932640314102,-14.01614952087402,-43.81267929077148,-2.141124248504639,1,192.168.1.8,10.83.46.32,1,0
2015-03-03 19:56:59.582,84,1425441417.007428,37.77925815226449,-122.4388021438899,57.14687,-1,-1,10,65,-9999,1425441419.573492,-11.32677459716797,-43.178955078125,-1.128898620605469,117.5613403320312,103.7844161987305,25,228785.5965608333,0.4544830322265625,-0.8955078125,-0.011932373046875,228785.587178,0.1062137884911942,-0.105028948122218,-0.08438731914523181,228785.53539625,1.931662135696581,1.147168391533338,1.373371553440845,-0.0583011694252491,-0.4235235750675201,-0.07693836838006973,0.1576042026281357,0.02096496149897575,-0.01168635115027428,XTrueNorthZVertical,-0.04231622396684318,0.6766791526766198,0.7299569678612257,0.08647249549287042,0.1788063198328018,-0.9805749654769897,-0.08062932640314102,-14.01614952087402,-43.81267929077148,-2.141124248504639,1,192.168.1.8,10.83.46.32,1,0
2015-03-03 19:56:59.656,85,1425441417.007428,37.77925815226449,-122.4388021438899,57.14687,-1,-1,10,65,-9999,1425441419.625312,-11.2756233215332,-43.06001281738281,-1.145538330078125,118.1563415527344,104.3794174194336,25,228785.6454765417,0.395416259765625,-0.9267730712890625,-0.0124969482421875,228785.6389594584,0.08942788414042478,-0.3809382960088252,-0.177695162677793,228785.6389594584,1.886541382105296,1.167239767327312,1.371729339444461,0.08016422390937805,-0.3788107633590698,-0.1455929279327393,0.196090966463089,0.07929631322622299,0.06813520193099976,XTrueNorthZVertical,-0.03488662604194333,0.6781995131718787,0.7276584472556044,0.09665160980696282,0.181869238615036,-0.9802514910697937,-0.07765668630599976,-13.77778625488281,-43.90957641601562,-1.64603328704834,1,192.168.1.8,10.83.46.32,1,0
2015-03-03 19:56:59.681,86,1425441417.007428,37.77925815226449,-122.4388021438899,57.14687,-1,-1,10,65,-9999,1425441419.625312,-11.2756233215332,-43.06001281738281,-1.145538330078125,118.1563415527344,104.3794174194336,25,228785.6945008333,0.2665863037109375,-0.9348602294921875,0.01422119140625,228785.6389594584,0.08942788414042478,-0.3809382960088252,-0.177695162677793,228785.6389594584,1.886541382105296,1.167239767327312,1.371729339444461,0.08016422390937805,-0.3788107633590698,-0.1455929279327393,0.196090966463089,0.07929631322622299,0.06813520193099976,XTrueNorthZVertical,-0.03488662604194333,0.6781995131718787,0.7276584472556044,0.09665160980696282,0.181869238615036,-0.9802514910697937,-0.07765668630599976,-13.77778625488281,-43.90957641601562,-1.64603328704834,1,192.168.1.8,10.83.46.32,1,0
2015-03-03 19:56:59.750,87,1425441417.007428,37.77925815226449,-122.4388021438899,57.14687,-1,-1,10,65,-9999,1425441419.680744,-11.29267883300781,-43.31492614746094,-0.796051025390625,120.5831680297852,106.8062438964844,25,228785.7435111667,0.3153076171875,-0.9683990478515625,0.0081939697265625,228785.7425232917,0.01653024088612183,-0.3047575077626726,-0.1268895059301334,228785.6907417917,1.8540047736018,1.183616092193486,1.36594713813983,0.05585044994950294,-0.2208171486854553,-0.1617703437805176,0.09052299708127975,0.01801684498786926,0.09649075567722321,XTrueNorthZVertical,-0.03172441432578375,0.6786678879802619,0.7262335069545494,0.1048253720263912,0.1883618980646133,-0.9790916442871094,-0.07680691778659821,-13.53654670715332,-43.99734497070312,-1.258219480514526,1,192.168.1.8,10.83.46.32,1,0
2015-03-03 19:56:59.778,88,1425441417.007428,37.77925815226449,-122.4388021438899,57.14687,-1,-1,10,65,-9999,1425441419.754795,-10.35488510131836,-43.29795837402344,0.2857208251953125,123.4040069580078,109.627082824707,25,228785.7926255834,0.2810821533203125,-0.9839630126953125,0.013427734375,228785.7943050833,0.02974271568622295,-0.4458957244730569,-0.01937742640752554,228785.7425232917,1.83334836784483,1.192985332525224,1.360534750866029,0.007266760803759098,-0.3026300072669983,-0.09478789567947388,0.1063122898340225,-0.0184836070984602,0.0825924426317215,XTrueNorthZVertical,-0.02992798092139066,0.6786811335513548,0.7253895388100442,0.1109335737648714,0.19399593770504,-0.977976381778717,-0.076992467045784,-13.1214485168457,-44.13153839111328,-0.9070687294006348,1,192.168.1.8,10.83.46.32,1,0
2015-03-03 19:56:59.856,89,1425441417.007428,37.77925815226449,-122.4388021438899,57.14687,-1,-1,10,65,-9999,1425441419.806749,-9.843360900878906,-43.26396179199219,0.8182754516601562,125.1335067749023,111.3565826416016,25,228785.8415444584,0.2407379150390625,-0.9796905517578125,0.0559234619140625,228785.7943050833,0.02974271568622295,-0.4458957244730569,-0.01937742640752554,228785.7943050833,1.824819562363246,1.180614911326372,1.359276216723565,0.02047933824360371,-0.4437682628631592,0.0127238342538476,0.08691531419754028,-0.006250109989196062,0.09328214824199677,XTrueNorthZVertical,-0.02297225635079551,0.6778975350491458,0.7251565709569326,0.1186387832637647,0.1941668391227722,-0.9777129292488098,-0.07985441386699677,-12.98132038116455,-44.17699432373047,-0.6827986240386963,1,192.168.1.8,10.83.46.32,1,0
2015-03-03 19:56:59.876,90,1425441417.007428,37.77925815226449,-122.4388021438899,57.14687,-1,-1,10,65,-9999,1425441419.858168,-10.11617279052734,-43.26396179199219,0.6851272583007812,125.4839324951172,111.7070083618164,25,228785.8905450417,0.203857421875,-1.008895874023438,-0.0111083984375,228785.846087125,0.004896754296328696,-0.3933686003967701,0.04539437972872764,228785.846087125,1.831257237000947,1.153095557303326,1.361416846425771,-0.004366530105471611,-0.3912411630153656,0.07749532163143158,0.05075527355074883,-0.001530471839942038,0.1402411013841629,XTrueNorthZVertical,-0.01445295718487416,0.6764852481519545,0.7256410147488582,0.1249157502460182,0.1899826377630234,-0.9781600832939148,-0.0843176394701004,-13.03615760803223,-44.16435623168945,-0.3951907157897949,1,192.168.1.8,10.83.46.32,1,0
2015-03-03 19:56:59.954,91,1425441417.007428,37.77925815226449,-122.4388021438899,57.14687,-1,-1,10,65,-9999,1425441419.911569,-10.20142364501953,-43.14500427246094,0.7683486938476562,125.3663024902344,111.5893783569336,25,228785.9395584583,0.1652069091796875,-0.9847869873046875,-0.04461669921875,228785.9496504167,-0.131448038768022,-0.1793764162739601,0.1527719696162865,228785.897868875,1.852089893653547,1.107959215337604,1.36718459431377,-0.05094566941261292,-0.5960230827331543,0.1806051731109619,0.02292404137551785,-0.02955322712659836,0.07917506247758865,XTrueNorthZVertical,-0.00318097417627396,0.674424312084933,0.7266747433646283,0.1307117129865696,0.1809333860874176,-0.9793426394462585,-0.09028346091508865,-13.28112411499023,-44.09297561645508,-0.09467887878417969,1,192.168.1.8,10.83.46.32,1,0
2015-03-03 19:56:59.973,92,1425441417.007428,37.77925815226449,-122.4388021438899,57.14687,-1,-1,10,65,-9999,1425441419.963242,-10.66179656982422,-42.82212829589844,0.8515472412109375,125.7985763549805,112.0216522216797,25,228785.988563125,0.2295684814453125,-0.9778594970703125,-0.0794830322265625,228785.9496504167,-0.131448038768022,-0.1793764162739601,0.1527719696162865,228785.9496504167,1.900376022752473,1.041961455892452,1.37443228686482,-0.1407111287117004,-0.1772489994764328,0.1848722696304321,0.03767857328057289,0.005471172276884317,0.0520947203040123,XTrueNorthZVertical,0.006965506105489259,0.6713670011259906,0.7290568072918467,0.1330188300545663,0.1684524118900299,-0.9807824492454529,-0.0984356626868248,-13.66305255889893,-43.97607803344727,0.1140580177307129,1,192.168.1.8,10.83.46.32,1,0
2015-03-03 19:57:00.064,93,1425441417.007428,37.77925815226449,-122.4388021438899,57.14687,-1,-1,10,65,-9999,1425441420.013401,-10.81526184082031,-42.80513000488281,0.7017669677734375,125.9917068481445,112.2147827148438,25,228786.0375727917,0.183502197265625,-0.9765167236328125,-0.0783538818359375,228786.00143275,-0.1861134148835335,-0.2718765230479003,0.2090261876381392,228786.00143275,1.96500321307661,0.9669142369910548,1.379569745964012,-0.1953764259815216,-0.2697491347789764,0.2411261647939682,0.06073014438152313,-0.005609135609120131,0.01658685132861137,XTrueNorthZVertical,0.0143848488774868,0.6677050956917056,0.7323199119163569,0.1329305600860806,0.1564482003450394,-0.9817718267440796,-0.1079259589314461,-14.06495666503906,-43.84934234619141,-0.01285696029663086,1,192.168.1.8,10.83.46.32,1,0
2015-03-03 19:57:00.104,94,1425441417.007428,37.77925815226449,-122.4388021438899,57.14687,-1,-1,10,65,-9999,1425441420.065505,-11.51435089111328,-42.65220642089844,0.1525650024414062,125.4025726318359,111.6256484985352,25,228786.0865703333,0.37548828125,-0.9713134765625,-0.0890350341796875,228786.05321425,-0.2596142641247394,-0.3027284453281412,0.2074908752697086,228786.05321425,2.058077737602367,0.8594313070487538,1.380822925634969,-0.2688771784305573,-0.300601065158844,0.2395905703306198,0.05856367200613022,0.01086362823843956,0.05956225469708443,XTrueNorthZVertical,0.02332691358054239,0.661675430912015,0.7373357570600718,0.1340800748610079,0.1430354416370392,-0.98200923204422,-0.1232829615473747,-14.69296836853027,-43.64178466796875,-0.3151774406433105,1,192.168.1.8,10.83.46.32,1,0
2015-03-03 19:57:00.153,95,1425441417.007428,37.77925815226449,-122.4388021438899,57.14687,-1,-1,10,65,-9999,1425441420.116553,-12.50330352783203,-42.61820983886719,-0.3467254638671875,124.9059066772461,111.1289825439453,25,228786.135583125,0.1577301025390625,-1.001663208007812,-0.1333770751953125,228786.1049959167,-0.1856007563736932,-0.1502771203071002,0.2597772495834523,228786.1049959167,2.155048478573156,0.7553024704236143,1.383917876784386,-0.1948635876178741,-0.148149773478508,0.2918766140937805,0.2482783645391464,0.02659532986581326,-0.0006868410273455083,XTrueNorthZVertical,0.03075224198627253,0.6568255589120463,0.7418178049264179,0.1316846040762711,0.1273625046014786,-0.9825890064239502,-0.135268971323967,-15.20077228546143,-43.46411895751953,-0.6285238265991211,1,192.168.1.8,10.83.46.32,1,0
2015-03-03 19:57:00.170,96,1425441417.007428,37.77925815226449,-122.4388021438899,57.14687,-1,-1,10,65,-9999,1425441420.116553,-12.50330352783203,-42.61820983886719,-0.3467254638671875,124.9059066772461,111.1289825439453,25,228786.18462925,0.18975830078125,-0.944244384765625,-0.0743865966796875,228786.156778125,-0.252711883211472,0.1734825744655057,0.2052421020452457,228786.156778125,2.241720524414452,0.6713344996195747,1.384218139257977,-0.2619746327400208,0.1756098866462708,0.2373411059379578,0.08773966878652573,-0.04183037206530571,0.03740931302309036,XTrueNorthZVertical,0.03368748528756034,0.6528733146693649,0.7460080567159734,0.1268604490232146,0.1153853312134743,-0.9826447367668152,-0.1452431827783585,-15.76744174957275,-43.25658798217773,-0.9182052612304688,1,192.168.1.8,10.83.46.32,1,0
2015-03-03 19:57:00.252,97,1425441417.007428,37.77925815226449,-122.4388021438899,57.14687,-1,-1,10,65,-9999,1425441420.173639,-13.3558464050293,-42.48228454589844,-0.5464401245117188,124.7858123779297,111.0088882446289,25,228786.2336065834,0.0589141845703125,-0.9873809814453125,-0.32037353515625,228786.2085599167,-0.1305971587997417,-0.1061030009898469,0.2720182032178925,228786.2085599167,2.330862789289662,0.5815090601286398,1.383582143081302,-0.1398597955703735,-0.1039757058024406,0.3041168749332428,-0.02447562292218208,0.003125915303826332,-0.005571868736296892,XTrueNorthZVertical,0.03812830112105443,0.6486763595834141,0.7501084006318399,0.1228926619316728,0.1022344082593918,-0.9825265407562256,-0.1555304229259491,-16.22463798522949,-43.07236862182617,-1.456088066101074,1,192.168.1.8,10.83.46.32,1,0
2015-03-03 19:57:00.268,98,1425441417.007428,37.77925815226449,-122.4388021438899,57.14687,-1,-1,10,65,-9999,1425441420.246811,-13.57751083374023,-42.39732360839844,-0.9625015258789062,124.2145919799805,110.4376678466797,25,228786.2826197083,0.0975341796875,-0.99298095703125,-0.250274658203125,228786.2603414167,-0.09544716083622189,-0.04786712480086621,0.09189636815481923,228786.2603414167,2.391989602834015,0.5221560064294325,1.383970062479081,-0.1047097146511078,-0.04573984444141388,0.1239947751164436,0.02776860259473324,-0.01518879923969507,-0.1969501227140427,XTrueNorthZVertical,0.04072069864285212,0.6464105100610895,0.7525419535691359,0.1190625515719639,0.09263850003480911,-0.9825986623764038,-0.1609905511140823,-16.91590690612793,-42.79256820678711,-1.798953056335449,1,192.168.1.8,10.83.46.32,1,0
2015-03-03 19:57:00.355,99,1425441417.007428,37.77925815226449,-122.4388021438899,57.14687,-1,-1,10,65,-9999,1425441420.298836,-13.74801635742188,-42.329345703125,-1.228782653808594,124.8799819946289,111.1030578613281,25,228786.331634,0.0643463134765625,-0.985870361328125,-0.1237945556640625,228786.31212375,-0.07208937386346391,-0.4484960349614103,0.1264327738031848,228786.31212375,2.43058907610573,0.4707080793747065,1.382107837144359,-0.08135182410478592,-0.4463687837123871,0.1585308313369751,0.01702990010380745,-0.03717335686087608,0.02531106770038605,XTrueNorthZVertical,0.04726815946876897,0.6435679499053967,0.7542066220408196,0.1214841228665443,0.08506666123867035,-0.9822511076927185,-0.1671720296144485,-13.0374698638916,-42.84087371826172,-1.278190135955811,1,192.168.1.8,10.83.46.32,1,0
2015-03-03 19:57:00.366,100,1425441417.007428,37.77925815226449,-122.4388021438899,57.14687,-1,-1,10,65,-9999,1425441420.350046,-13.9014778137207,-42.00650024414062,-1.212127685546875,125.1857604980469,111.4088363647461,25,228786.380747625,0.059814453125,-1.00775146484375,-0.2537384033203125,228786.3639052917,0.09181008173550066,-0.340567170728205,0.1087352694112813,228786.3639052917,2.473932296325286,0.4077910960384706,1.385978459044825,0.08259543776512146,-0.338457316160202,0.1407745629549026,-0.0113708134740591,-0.01840355433523655,-0.06595123559236526,XTrueNorthZVertical,0.05780842538603523,0.642112897777121,0.7541962450436019,0.12464847495523,0.07287899404764175,-0.9829697608947754,-0.1686984300613403,-13.46041107177734,-42.71386337280273,-1.137170314788818,1,192.168.1.8,10.83.46.32,1,0
2015-03-03 19:57:00.454,101,1425441417.007428,37.77925815226449,-122.4388021438899,57.14687,-1,-1,10,65,-9999,1425441420.402261,-14.05493545532227,-41.85356140136719,-0.9957733154296875,125.5425109863281,111.7655868530273,25,228786.429669625,0.1146392822265625,-0.9594573974609375,-0.0990753173828125,228786.4156870834,0.02101686837457832,-0.4251747332955864,-0.02233140468864143,228786.4156870834,2.486418296325746,0.3770439533756525,1.389082932534334,0.01180230919271708,-0.4230648875236511,0.009707593359053135,0.01842641271650791,-0.004333761986345053,0.01413620077073574,XTrueNorthZVertical,0.06595153979244145,0.6415916538858641,0.7531923047549518,0.1292745218703553,0.06653452664613724,-0.9835355281829834,-0.1680210828781128,-13.71135520935059,-42.64158248901367,-0.8026885986328125,1,192.168.1.8,10.83.46.32,1,0
2015-03-03 19:57:00.464,102,1425441417.007428,37.77925815226449,-122.4388021438899,57.14687,-1,-1,10,65,-9999,1425441420.454217,-14.46415328979492,-41.78559875488281,-0.3633575439453125,127.0278167724609,113.2508926391602,25,228786.4787850833,0.1788482666015625,-0.9866485595703125,-0.093505859375,228786.4674692083,0.06588633905245135,-0.3342964916255045,-0.04672356342878619,228786.4156870834,2.486418296325746,0.3770439533756525,1.389082932534334,0.01180230919271708,-0.4230648875236511,0.009707593359053135,0.01842641271650791,-0.004333761986345053,0.01413620077073574,XTrueNorthZVertical,0.06595153979244145,0.6415916538858641,0.7531923047549518,0.1292745218703553,0.06653452664613724,-0.9835355281829834,-0.1680210828781128,-13.71135520935059,-42.64158248901367,-0.8026885986328125,1,192.168.1.8,10.83.46.32,1,0
2015-03-03 19:57:00.550,103,1425441417.007428,37.77925815226449,-122.4388021438899,57.14687,-1,-1,10,65,-9999,1425441420.506194,-14.73696136474609,-41.75161743164062,0.03606414794921875,127.3017578125,113.5248336791992,25,228786.5277014583,0.11236572265625,-1.001327514648438,-0.0986785888671875,228786.5192509583,-0.02446406408957689,-0.2197976089830737,-0.03477369330149164,228786.5192509583,2.474726095132365,0.3535296783083139,1.392343402698068,-0.03367842733860016,-0.217687800526619,-0.002735366811975837,0.05475589260458946,-0.02231972105801105,0.08335398137569427,XTrueNorthZVertical,0.07911936666540784,0.6406834671898347,0.7506527314852537,0.140660240600112,0.06145504489541054,-0.9841194748878479,-0.1665296405553818,-13.73790645599365,-42.64054489135742,-0.06256628036499023,1,192.168.1.8,10.83.46.32,1,0
2015-03-03 19:57:00.563,104,1425441417.007428,37.77925815226449,-122.4388021438899,57.14687,-1,-1,10,65,-9999,1425441420.558039,-14.63466262817383,-41.58171081542969,0.3023452758789062,127.9574508666992,114.1805267333984,25,228786.5767158333,0.0650787353515625,-0.9759979248046875,-0.2008514404296875,228786.5710325417,-0.01154933069934663,-0.3218717798758488,-0.02365739259539189,228786.5192509583,2.474726095132365,0.3535296783083139,1.392343402698068,-0.03367842733860016,-0.217687800526619,-0.002735366811975837,0.05475589260458946,-0.02231972105801105,0.08335398137569427,XTrueNorthZVertical,0.07911936666540784,0.6406834671898347,0.7506527314852537,0.140660240600112,0.06145504489541054,-0.9841194748878479,-0.1665296405553818,-13.73790645599365,-42.64054489135742,-0.06256628036499023,1,192.168.1.8,10.83.46.32,1,0
2015-03-03 19:57:00.650,105,1425441417.007428,37.77925815226449,-122.4388021438899,57.14687,-1,-1,10,65,-9999,1425441420.610396,-14.07198715209961,-41.87059020996094,0.68511962890625,129.5306396484375,115.7537078857422,25,228786.6257305834,0.066558837890625,-0.98968505859375,-0.146636962890625,228786.6228149583,0.06176562989777174,-0.2774875371485882,-0.1912660989606188,228786.5710325417,2.478947264137122,0.3373059944050494,1.3907727970303,-0.02076360397040844,-0.3197619915008545,0.00838061235845089,0.01635049097239971,-0.02215722389519215,-0.01138056069612503,XTrueNorthZVertical,0.0835827298962154,0.6391653884905746,0.7507287253670258,0.1445265380871868,0.05925681069493294,-0.9838394522666931,-0.1689630597829819,-13.7280101776123,-42.64376831054688,0.02476263046264648,1,192.168.1.8,10.83.46.32,1,0
2015-03-03 19:57:00.663,106,1425441417.007428,37.77925815226449,-122.4388021438899,57.14687,-1,-1,10,65,-9999,1425441420.610396,-14.07198715209961,-41.87059020996094,0.68511962890625,129.5306396484375,115.7537078857422,25,228786.6748659583,0.1142578125,-1.002334594726562,-0.0847930908203125,228786.6228149583,0.06176562989777174,-0.2774875371485882,-0.1912660989606188,228786.6228149583,2.457936879816719,0.3410401427751852,1.391051622354026,0.05255144089460373,-0.2753777801990509,-0.1592283844947815,-0.01404972467571497,-0.004376625176519156,-0.03859493881464005,XTrueNorthZVertical,0.08894327938535095,0.6386298213882536,0.7492594773215958,0.1511664176112977,0.0597955733537674,-0.9838893413543701,-0.1684820950031281,-13.71535015106201,-42.64741516113281,0.1927824020385742,1,192.168.1.8,10.83.46.32,1,0
2015-03-03 19:57:00.723,107,1425441417.007428,37.77925815226449,-122.4388021438899,57.14687,-1,-1,10,65,-9999,1425441420.714016,-13.5775146484375,-42.05747985839844,0.8681793212890625,130.1216888427734,116.3447647094727,25,228786.72377325,0.119110107421875,-0.9880828857421875,-0.1415863037109375,228786.7263782917,0.1562111758480148,-0.05455725177525426,-0.1628134185064302,228786.674596625,2.397207041896573,0.3971297180027134,1.394149456895092,0.1746364235877991,0.04564257338643074,-0.1418643593788147,0.040705606341362,-0.02898926474153996,0.07643640786409378,XTrueNorthZVertical,0.08798318852609956,0.6412739048800116,0.7462465525160674,0.1553796196368261,0.067967489361763,-0.9844384789466858,-0.1620534807443619,-13.32754135131836,-42.76674652099609,0.576108455657959,1,192.168.1.8,10.83.46.32,1,0
2015-03-03 19:57:00.758,108,1425441417.007428,37.77925815226449,-122.4388021438899,57.14687,-1,-1,10,65,-9999,1425441420.714016,-13.5775146484375,-42.05747985839844,0.8681793212890625,130.1216888427734,116.3447647094727,25,228786.7727950834,0.1805572509765625,-0.9684906005859375,-0.1420440673828125,228786.7263782917,0.1562111758480148,-0.05455725177525426,-0.1628134185064302,228786.7263782917,2.338749995569017,0.4533355204056806,1.398062663645675,0.1469971686601639,-0.05244753137230873,-0.1307763606309891,0.04383416473865509,-0.002964288461953402,0.01292871776968241,XTrueNorthZVertical,0.08664276768573284,0.6443877095892192,0.743095639015167,0.1583236801575643,0.07527594268321991,-0.985118567943573,-0.1545150279998779,-13.02206993103027,-42.85550308227539,0.8839597702026367,1,192.168.1.8,10.83.46.32,1,0
2015-03-03 19:57:00.853,109,1425441417.007428,37.77925815226449,-122.4388021438899,57.14687,-1,-1,10,65,-9999,1425441420.816941,-12.69087219238281,-42.56729125976562,1.500595092773438,131.4871826171875,117.7102508544922,25,228786.82184075,0.247344970703125,-0.977691650390625,-0.10223388671875,228786.829942,0.0643523582645657,-0.09612466901753804,-0.1664920429201567,228786.7781605,2.283259650227238,0.5130476282649409,1.399671841411215,0.08921544998884201,0.1534520834684372,-0.1701206117868423,0.09697272628545761,0.01690329983830452,0.006322027184069157,XTrueNorthZVertical,0.08276356667050298,0.6472767142591997,0.7408168803401975,0.159290310115482,0.08358452469110489,-0.9853938817977905,-0.1483660936355591,-12.75525379180908,-42.92844772338867,1.18397045135498,1,192.168.1.8,10.83.46.32,1,0
2015-03-03 19:57:00.857,110,1425441417.007428,37.77925815226449,-122.4388021438899,57.14687,-1,-1,10,65,-9999,1425441420.816941,-12.69087219238281,-42.56729125976562,1.500595092773438,131.4871826171875,117.7102508544922,25,228786.8708629583,0.102264404296875,-0.9899749755859375,-0.08660888671875,228786.829942,0.0643523582645657,-0.09612466901753804,-0.1664920429201567,228786.829942,2.237777632916325,0.5575998421162697,1.399310140524445,0.05513853579759598,-0.09401499480009079,-0.134455606341362,0.1570469439029694,0.007640591822564602,0.0425647646188736,XTrueNorthZVertical,0.0809333208259909,0.6488840208582649,0.7390753393637656,0.1617620897586944,0.09029802680015564,-0.9853322505950928,-0.1447986513376236,-12.37550067901611,-43.03458786010742,1.349606990814209,1,192.168.1.8,10.83.46.32,1,0
2015-03-03 19:57:00.923,111,1425441417.007428,37.77925815226449,-122.4388021438899,57.14687,-1,-1,10,65,-9999,1425441420.920329,-11.94063949584961,-42.36338806152344,1.367454528808594,131.3982238769531,117.6212921142578,25,228786.919878875,0.083160400390625,-1.029312133789062,-0.141265869140625,228786.88172375,0.09806424923944275,0.01180153205457714,-0.1900716712117183,228786.88172375,2.195818271235204,0.5945664080980361,1.398348076059731,0.08885052800178528,0.01391118764877319,-0.1580355912446976,0.02450194954872131,0.0003806254535447806,0.02715745382010937,XTrueNorthZVertical,0.08067665540999565,0.6499364837878344,0.7373551650424318,0.1654726889323087,0.09611877799034119,-0.9851676225662231,-0.1421476900577545,-12.11320114135742,-43.10353469848633,1.518455505371094,1,192.168.1.8,10.83.46.32,1,0
2015-03-03 19:57:00.954,112,1425441417.007428,37.77925815226449,-122.4388021438899,57.14687,-1,-1,10,65,-9999,1425441420.920329,-11.94063949584961,-42.36338806152344,1.367454528808594,131.3982238769531,117.6212921142578,25,228786.9688927917,0.2113800048828125,-0.9776763916015625,-0.116180419921875,228786.9335059584,0.1035719326898356,0.1158387189868496,-0.1816989590606182,228786.9335059584,2.143027500684444,0.6495548009772228,1.399119973125146,0.09435830265283585,0.1179483532905579,-0.1496631950139999,-0.01456568110734224,-0.01505117956548929,-0.00427536852657795,XTrueNorthZVertical,0.07782522664287152,0.6526262377970665,0.7349812315859396,0.1668077424375921,0.1033260598778725,-0.9852997660636902,-0.1360444575548172,-11.84778594970703,-43.17029571533203,1.704522132873535,1,192.168.1.8,10.83.46.32,1,0
2015-03-03 19:57:01.023,113,1425441417.007428,37.77925815226449,-122.4388021438899,57.14687,-1,-1,10,65,-9999,1425441420.973372,-11.95768356323242,-42.58430480957031,2.24951171875,131.5046844482422,117.7277603149414,25,228787.0179231667,0.21295166015625,-0.976348876953125,-0.078094482421875,228786.9852877917,0.178970550523832,0.04179218803828646,-0.1371525298229718,228786.9852877917,2.085209705464778,0.7104479532628794,1.400807870966885,0.1697569936513901,0.04390180483460426,-0.1051170453429222,0.09365066140890121,0.01351030357182026,0.01067445892840624,XTrueNorthZVertical,0.07486223554960149,0.6559526898029101,0.7321296084541049,0.1676542774210074,0.1103288307785988,-0.9855867028236389,-0.1282434314489365,-11.49483680725098,-43.25468063354492,1.962522983551025,1,192.168.1.8,10.83.46.32,1,0
2015-03-03 19:57:01.058,114,1425441417.007428,37.77925815226449,-122.4388021438899,57.14687,-1,-1,10,65,-9999,1425441421.02383,-11.48025894165039,-42.65226745605469,2.415931701660156,131.7435913085938,117.9666595458984,25,228787.0669353333,0.155242919921875,-0.996185302734375,-0.0985565185546875,228787.0370692917,0.1085203523113119,-0.08392739122497513,-0.1179508720473915,228787.0370692917,2.034500438305158,0.7594754158801353,1.401332978504988,0.09930689632892609,-0.08181779831647873,-0.08591571450233459,0.09032659232616425,-0.002987302839756012,0.07491321861743927,XTrueNorthZVertical,0.07375624193953194,0.6583361653160741,0.7295727074580139,0.169932870946575,0.1161248236894608,-0.9856753945350647,-0.1223070174455643,-11.25547218322754,-43.30355453491211,2.250879764556885,1,192.168.1.8,10.83.46.32,1,0
2015-03-03 19:57:01.121,115,1425441417.007428,37.77925815226449,-122.4388021438899,57.14687,-1,-1,10,65,-9999,1425441421.075473,-11.30974960327148,-42.75422668457031,2.64892578125,131.9211578369141,118.1442337036133,25,228787.1160000833,0.13067626953125,-0.98199462890625,-0.2089691162109375,228787.0888515833,0.1537038096817052,-0.232442031522661,-0.0213186045260843,228787.0888515833,2.003659669975064,0.7828971130842547,1.404399302371724,0.1444904506206512,-0.2303324639797211,0.01071619614958763,0.03005611337721348,-0.01922894269227982,-0.07739813625812531,XTrueNorthZVertical,0.0762823724866579,0.6599057405206321,0.727268594555685,0.172585661433966,0.1168249920010567,-0.9861879348754883,-0.1174108237028122,-11.07462406158447,-43.33757400512695,2.481379985809326,1,192.168.1.8,10.83.46.32,1,0
2015-03-03 19:57:01.151,116,1425441417.007428,37.77925815226449,-122.4388021438899,57.14687,-1,-1,10,65,-9999,1425441421.127349,-11.41205596923828,-42.34638977050781,3.04833984375,133.7786254882812,120.0016937255859,25,228787.1649748333,0.23651123046875,-1.0067138671875,0.0150604248046875,228787.14063325,0.1041919165916061,-0.3868598346926164,-0.1946970493929679,228787.14063325,1.974346225030688,0.7928581019654819,1.405013346127042,0.09497865289449692,-0.3847502768039703,-0.1626625657081604,0.02808784134685993,0.02005714736878872,0.01651211641728878,XTrueNorthZVertical,0.08251870217020418,0.6597594303706524,0.7249772857435278,0.1797667902282353,0.1175573021173477,-0.9862894415855408,-0.1158163174986839,-10.99959564208984,-43.32836151123047,2.934573173522949,1,192.168.1.8,10.83.46.32,1,0
2015-03-03 19:57:01.209,117,1425441417.007428,37.77925815226449,-122.4388021438899,57.14687,-1,-1,10,65,-9999,1425441421.17976,-10.88348007202148,-42.56729125976562,4.16339111328125,137.3845977783203,123.6076736450195,25,228787.21399825,0.227447509765625,-0.9666290283203125,-0.074462890625,228787.1924150834,0.1723691068137436,-0.0861577886379165,-0.1657143998818536,228787.1924150834,1.905064451836497,0.8543986989873473,1.406202441430529,0.1631559282541275,-0.08404825627803802,-0.1336802095174789,0.1357347667217255,0.005375360138714314,0.07822370529174805,XTrueNorthZVertical,0.08353916999232366,0.6627388394023647,0.7210404125019807,0.1841172649358349,0.1235730871558189,-0.9864850044250488,-0.1075968742370605,-10.67816257476807,-43.37939453125,3.339914321899414,1,192.168.1.8,10.83.46.32,1,0
2015-03-03 19:57:01.248,118,1425441417.007428,37.77925815226449,-122.4388021438899,57.14687,-1,-1,10,65,-9999,1425441421.231277,-10.33784866333008,-42.73721313476562,4.229957580566406,137.3206024169922,123.5436706542969,25,228787.2630122917,0.185302734375,-0.985443115234375,-0.0112152099609375,228787.24419725,0.162368137972169,-0.2622659736221313,-0.2126254498513813,228787.1924150834,1.905064451836497,0.8543986989873473,1.406202441430529,0.1631559282541275,-0.08404825627803802,-0.1336802095174789,0.1357347667217255,0.005375360138714314,0.07822370529174805,XTrueNorthZVertical,0.08353916999232366,0.6627388394023647,0.7210404125019807,0.1841172649358349,0.1235730871558189,-0.9864850044250488,-0.1075968742370605,-10.67816257476807,-43.37939453125,3.339914321899414,1,192.168.1.8,10.83.46.32,1,0
2015-03-03 19:57:01.307,119,1425441417.007428,37.77925815226449,-122.4388021438899,57.14687,-1,-1,10,65,-9999,1425441421.283168,-10.23554229736328,-43.07710266113281,4.429664611816406,137.4081726074219,123.6312484741211,25,228787.3120272084,0.33447265625,-0.9672393798828125,-0.053802490234375,228787.2959790833,0.1240372604026585,-0.02173751976555377,-0.2296374565786985,228787.2959790833,1.771279253538069,0.967758357325163,1.401376351559765,0.1148242726922035,-0.01962803304195404,-0.1976039409637451,0.1608883738517761,0.02332616411149502,0.0787050873041153,XTrueNorthZVertical,0.08579518251366834,0.6669525065424569,0.713742231648654,0.195922365541193,0.1388705372810364,-0.9856827259063721,-0.0956270843744278,-9.901613235473633,-43.48158264160156,4.273138046264648,1,192.168.1.8,10.83.46.32,1,0
2015-03-03 19:57:01.351,120,1425441417.007428,37.77925815226449,-122.4388021438899,57.14687,-1,-1,10,65,-9999,1425441421.335219,-9.758121490478516,-42.97514343261719,4.729225158691406,138.1628112792969,124.3858871459961,25,228787.3610309584,0.2743072509765625,-0.9913177490234375,-0.0750274658203125,228787.3477606667,0.03330868838583905,-0.04857712354748134,-0.245922154012315,228787.3477606667,1.727188040919015,1.009211405148804,1.395510451204341,0.02414894662797451,-0.04645786061882973,-0.2139158546924591,0.1063464879989624,0.02225912362337112,0.04670960828661919,XTrueNorthZVertical,0.08378528867822106,0.6682412008743284,0.7117310274493125,0.1996814295445762,0.1476055383682251,-0.984676718711853,-0.09286744892597198,-9.5234375,-43.54520416259766,4.479886054992676,1,192.168.1.8,10.83.46.32,1,0
2015-03-03 19:57:01.405,121,1425441417.007428,37.77925815226449,-122.4388021438899,57.14687,-1,-1,10,65,-9999,1425441421.387001,-8.700969696044922,-43.21304321289062,4.928939819335938,139.5245971679688,125.7476654052734,25,228787.410127875,0.18865966796875,-0.9775848388671875,-0.0595703125,228787.3995430417,-0.005222458897645386,-0.1731872299006159,-0.2378144263896778,228787.3477606667,1.727188040919015,1.009211405148804,1.395510451204341,0.02414894662797451,-0.04645786061882973,-0.2139158546924591,0.1063464879989624,0.02225912362337112,0.04670960828661919,XTrueNorthZVertical,0.08378528867822106,0.6682412008743284,0.7117310274493125,0.1996814295445762,0.1476055383682251,-0.984676718711853,-0.09286744892597198,-9.5234375,-43.54520416259766,4.479886054992676,1,192.168.1.8,10.83.46.32,1,0
2015-03-03 19:57:01.453,122,1425441417.007428,37.77925815226449,-122.4388021438899,57.14687,-1,-1,10,65,-9999,1425441421.438525,-8.428157806396484,-43.31498718261719,5.028793334960938,140.4953155517578,126.7183837890625,25,228787.4590657917,0.174072265625,-0.9562225341796875,0.02117919921875,228787.451324625,0.07223238561400117,0.008711466241758196,-0.2890272804680106,228787.3995430417,1.697781669374124,1.031698230402438,1.387328650411112,-0.01438210904598236,-0.1710679829120636,-0.2058084458112717,0.02744068391621113,0.004518231842666864,0.03761235624551773,XTrueNorthZVertical,0.08285121520584565,0.668061921732099,0.7104140931707367,0.2052821642978424,0.1565650552511215,-0.9832169413566589,-0.09365788847208023,-9.12394905090332,-43.62283706665039,4.555416107177734,1,192.168.1.8,10.83.46.32,1,0
2015-03-03 19:57:01.504,123,1425441417.007428,37.77925815226449,-122.4388021438899,57.14687,-1,-1,10,65,-9999,1425441421.490898,-7.814323425292969,-43.48490905761719,5.361656188964844,140.5784606933594,126.8015289306641,25,228787.508105875,0.2046051025390625,-1.018325805664062,-0.094390869140625,228787.5031064583,0.1454059323572363,0.09707168910117021,-0.2449072233208858,228787.5031064583,1.612119479675756,1.113314222418458,1.366738942289249,0.1362464725971222,0.09919088333845139,-0.2129019051790237,0.058352280408144,-0.01996936649084091,-0.008684274740517139,XTrueNorthZVertical,0.07552353849949167,0.6704798121953733,0.7060325436446606,0.2151071123173316,0.1818058043718338,-0.9792524576187134,-0.08950603008270264,-7.998939514160156,-43.82448959350586,4.730868339538574,1,192.168.1.8,10.83.46.32,1,0
2015-03-03 19:57:01.553,124,1425441417.007428,37.77925815226449,-122.4388021438899,57.14687,-1,-1,10,65,-9999,1425441421.542229,-7.234596252441406,-43.620849609375,4.928939819335938,141.3807067871094,127.6037750244141,25,228787.5570995,0.338409423828125,-0.913360595703125,-0.153564453125,228787.5031064583,0.1454059323572363,0.09707168910117021,-0.2449072233208858,228787.5031064583,1.612119479675756,1.113314222418458,1.366738942289249,0.1362464725971222,0.09919088333845139,-0.2129019051790237,0.058352280408144,-0.01996936649084091,-0.008684274740517139,XTrueNorthZVertical,0.07552353849949167,0.6704798121953733,0.7060325436446606,0.2151071123173316,0.1818058043718338,-0.9792524576187134,-0.08950603008270264,-7.998939514160156,-43.82448959350586,4.730868339538574,1,192.168.1.8,10.83.46.32,1,0
2015-03-03 19:57:01.601,125,1425441417.007428,37.77925815226449,-122.4388021438899,57.14687,-1,-1,10,65,-9999,1425441421.594362,-6.740131378173828,-43.60386657714844,5.145286560058594,141.3525238037109,127.5755996704102,25,228787.6062242917,0.354949951171875,-0.8662261962890625,-0.023651123046875,228787.6066704583,0.07886605357327954,0.3065977520759173,-0.5130673050675805,228787.5548885833,1.567307627857322,1.165785258960041,1.355989156726393,0.09692391753196716,0.2884199321269989,-0.3595009744167328,0.1341335326433182,0.03992950171232224,-0.02204248867928982,XTrueNorthZVertical,0.06832049848272904,0.6733029712936589,0.7035342822815394,0.2168753971124419,0.1959140747785568,-0.9770175218582153,-0.08399083465337753,-7.556419849395752,-43.88450622558594,4.899055004119873,1,192.168.1.8,10.83.46.32,1,0
2015-03-03 19:57:01.650,126,1425441417.007428,37.77925815226449,-122.4388021438899,57.14687,-1,-1,10,65,-9999,1425441421.594362,-6.740131378173828,-43.60386657714844,5.145286560058594,141.3525238037109,127.5755996704102,25,228787.65512875,0.2278594970703125,-0.9479827880859375,0.03497314453125,228787.658452,0.2025400588032513,0.3400422616773504,-0.7844628612226124,228787.6066704583,1.514231457241778,1.237675927052029,1.339023814712149,0.06970677524805069,0.308716893196106,-0.481062650680542,0.1378744840621948,0.1070345789194107,0.05146026611328125,XTrueNorthZVertical,0.05500596265724061,0.6778042851464197,0.7003436635476358,0.2169664811021637,0.2170754671096802,-0.973260760307312,-0.07511138916015625,-6.740056991577148,-44.00348663330078,5.021450996398926,1,192.168.1.8,10.83.46.32,1,0
2015-03-03 19:57:01.699,127,1425441417.007428,37.77925815226449,-122.4388021438899,57.14687,-1,-1,10,65,-9999,1425441421.646169,-5.904644012451172,-43.75679016113281,5.228492736816406,141.7855987548828,128.0086669921875,25,228787.7041573334,0.441070556640625,-0.854644775390625,0.0630950927734375,228787.658452,0.2025400588032513,0.3400422616773504,-0.7844628612226124,228787.658452,1.426898748630674,1.337729629651617,1.312971530609046,0.1933808773756027,0.3421613872051239,-0.7524585127830505,-0.02022445574402809,0.01896410621702671,0.09386344254016876,XTrueNorthZVertical,0.04057769336766529,0.6847687944583444,0.6928718117300517,0.2222021767013537,0.2480839490890503,-0.9669468998908997,-0.05889029800891876,-5.789992332458496,-44.11404418945312,5.23232889175415,1,192.168.1.8,10.83.46.32,1,0
2015-03-03 19:57:01.752,128,1425441417.007428,37.77925815226449,-122.4388021438899,57.14687,-1,-1,10,65,-9999,1425441421.697909,-4.148403167724609,-43.77378845214844,5.910835266113281,143.9910736083984,130.2141418457031,25,228787.7531615834,0.542999267578125,-0.7597198486328125,0.12652587890625,228787.7102344584,0.1764583906675602,-0.6584564595099494,-1.23993105191785,228787.7102344584,1.364117498759476,1.388555850362554,1.265273788107116,0.167299285531044,-0.6563373208045959,-1.207926869392395,0.1452600508928299,0.09904513508081436,0.1176085695624352,XTrueNorthZVertical,0.02745670502672446,0.6870148392441702,0.6843853647907869,0.2426384519226963,0.2958104908466339,-0.9536899328231812,-0.05451348051428795,-4.322074890136719,-44.23979949951172,5.577641010284424,1,192.168.1.8,10.83.46.32,1,0
2015-03-03 19:57:01.797,129,1425441417.007428,37.77925815226449,-122.4388021438899,57.14687,-1,-1,10,65,-9999,1425441421.748825,-1.232707977294922,-44.0286865234375,6.393470764160156,149.0140838623047,135.2371520996094,25,228787.802304125,0.24560546875,-0.910308837890625,-0.2362213134765625,228787.813797875,0.09550601669631263,0.05384778566085716,-1.961113477214654,228787.762016,1.329316807614266,1.375573260512685,1.190529446725955,-0.2098827958106995,-0.8787055015563965,-1.662786960601807,0.178881511092186,0.1688457578420639,0.1985270977020264,XTrueNorthZVertical,0.01681306733753444,0.6809674806669952,0.6747865012882626,0.2840137225624381,0.3641177713871002,-0.9285656213760376,-0.07200121879577637,-0.7458171844482422,-44.39488220214844,5.957198619842529,1,192.168.1.8,10.83.46.32,1,0
2015-03-03 19:57:01.851,130,1425441417.007428,37.77925815226449,-122.4388021438899,57.14687,-1,-1,10,65,-9999,1425441421.805693,2.501434326171875,-44.04568481445312,6.676399230957031,156.1004028320312,142.3234710693359,25,228787.85119125,0.55792236328125,-0.7198028564453125,-0.1625213623046875,228787.813797875,0.09550601669631263,0.05384778566085716,-1.961113477214654,228787.813797875,1.276088950826271,1.405426728971436,1.10039521083911,0.08634710311889648,0.05596685409545898,-1.929110050201416,-0.1594018489122391,-0.1867842227220535,-0.0767250657081604,XTrueNorthZVertical,-0.007646439235322908,0.6801733095005509,0.6588755238403958,0.3212302149207192,0.4470605254173279,-0.8913865685462952,-0.0746116042137146,2.882774353027344,-44.33675384521484,5.735144138336182,1,192.168.1.8,10.83.46.32,1,0
2015-03-03 19:57:01.896,131,1425441417.007428,37.77925815226449,-122.4388021438899,57.14687,-1,-1,10,65,-9999,1425441421.879691,9.833293914794922,-43.535888671875,6.210403442382812,165.4005889892578,151.6236572265625,25,228787.9003141667,0.57000732421875,-0.63128662109375,-0.0948638916015625,228787.8655799583,-0.4155434112133148,-0.1413970759683401,-2.137525528879247,228787.8655799583,1.289021709819737,1.400549445826027,0.9971425526275541,-0.4247022271156311,-0.1392780244350433,-2.105522394180298,0.1076279059052467,0.2065313309431076,0.01952986977994442,XTrueNorthZVertical,-0.04775363398173293,0.6721201895418181,0.6498208829988853,0.3517198702863369,0.5348586440086365,-0.8399236798286438,-0.09194808453321457,6.74354362487793,-43.91460418701172,5.743027210235596,1,192.168.1.8,10.83.46.32,1,0
2015-03-03 19:57:01.954,132,1425441417.007428,37.77925815226449,-122.4388021438899,57.14687,-1,-1,10,65,-9999,1425441421.930989,15.03380393981934,-42.43132019042969,5.661209106445312,171.98095703125,158.2040252685547,25,228787.949219375,0.8342132568359375,-0.792755126953125,-0.1000213623046875,228787.9173617917,-0.2743290280957542,0.2339477828029917,-2.429815980630931,228787.9173617917,1.279162974291067,1.408919782540659,0.8820668365750608,-0.2834877669811249,0.2360668182373047,-2.397813320159912,-0.00612363126128912,0.06226102635264397,0.1008766144514084,XTrueNorthZVertical,-0.0885798006795795,0.664030959335168,0.6330773481977883,0.3878525248579911,0.6272478699684143,-0.772054135799408,-0.1024330109357834,12.27957057952881,-42.83657836914062,4.603206157684326,1,192.168.1.8,10.83.46.32,1,0
2015-03-03 19:57:01.994,133,1425441417.007428,37.77925815226449,-122.4388021438899,57.14687,-1,-1,10,65,-9999,1425441421.983106,19.60342979431152,-40.93592834472656,5.361640930175781,176.9417419433594,163.1648101806641,25,228787.998370625,0.8093414306640625,-0.6064605712890625,0.0350341796875,228787.9691434167,-0.5407854856931252,-0.1788206145544605,-2.467845654681154,228787.9691434167,1.278237427207601,1.426457647233693,0.7647649342403712,-0.5499441027641296,-0.1767016053199768,-2.435843229293823,0.1779715865850449,0.1584928929805756,0.08381186425685883,XTrueNorthZVertical,-0.1355982274059991,0.6555305558627894,0.6144632687061786,0.4175256978311289,0.7140419483184814,-0.6923674345016479,-0.1037856191396713,16.69939041137695,-41.34007263183594,4.36792516708374,1,192.168.1.8,10.83.46.32,1,0
2015-03-03 19:57:02.056,134,1425441417.007428,37.77925815226449,-122.4388021438899,57.14687,-1,-1,10,65,-9999,1425441422.037988,23.90024375915527,-38.93072509765625,5.06207275390625,184.0917510986328,170.3148193359375,25,228788.0472866667,0.907745361328125,-0.45819091796875,-0.0252532958984375,228788.0209258333,-0.1803359532147156,0.1412886853119738,-2.289422650077442,228788.0209258333,1.274957341615344,1.419375938607145,0.6441301188948531,-0.1894944906234741,0.1434076726436615,-2.257420539855957,-0.07837585359811783,-0.03533064946532249,0.1554985791444778,XTrueNorthZVertical,-0.1749233266550795,0.6396040475591731,0.594003258222238,0.4554872415810219,0.7904730439186096,-0.6005030870437622,-0.1206169873476028,21.0452823638916,-39.39479446411133,3.477964401245117,1,192.168.1.8,10.83.46.32,1,0
2015-03-03 19:57:02.092,135,1425441417.007428,37.77925815226449,-122.4388021438899,57.14687,-1,-1,10,65,-9999,1425441422.037988,23.90024375915527,-38.93072509765625,5.06207275390625,184.0917510986328,170.3148193359375,25,228788.0964506667,0.7978668212890625,-0.433502197265625,-0.176910400390625,228788.072707375,-0.2674825735653785,-0.2780310883270734,-2.394885693457343,228788.072707375,1.272912063913073,1.428356390359765,0.5284446223062272,-0.2766410410404205,-0.2759121060371399,-2.362884044647217,0.04118025302886963,0.1493476033210754,-0.07564768940210342,XTrueNorthZVertical,-0.217084416963743,0.6257612224279036,0.5710892342302748,0.4849271500413291,0.8548463582992554,-0.5041907429695129,-0.1225944980978966,26.23488616943359,-36.18016815185547,3.110662460327148,1,192.168.1.8,10.83.46.32,1,0
2015-03-03 19:57:02.159,136,1425441417.007428,37.77925815226449,-122.4388021438899,57.14687,-1,-1,10,65,-9999,1425441422.11272,30.80583953857422,-34.42753601074219,4.180023193359375,191.9581604003906,178.1812286376953,25,228788.1453163333,0.9891204833984375,-0.1742401123046875,-0.1224517822265625,228788.1244892083,-0.509687221012052,-0.2212975013090064,-2.246651217706334,228788.1244892083,1.277106224382125,1.417419634032965,0.4113006007395484,-0.5188456177711487,-0.2191785573959351,-2.214649677276611,0.1569026559591293,-0.01827376335859299,0.005101303569972515,XTrueNorthZVertical,-0.255273101185219,0.6040018676361737,0.5496943181174176,0.5175456986746213,0.9058414697647095,-0.3998017907142639,-0.1400347799062729,29.90016555786133,-33.27351379394531,2.409005641937256,1,192.168.1.8,10.83.46.32,1,0
2015-03-03 19:57:02.190,137,1425441417.007428,37.77925815226449,-122.4388021438899,57.14687,-1,-1,10,65,-9999,1425441422.164586,34.79573822021484,-30.96090698242188,3.248039245605469,198.3839569091797,184.6070251464844,25,228788.1943425,1.190750122070312,-0.092010498046875,-0.162139892578125,228788.1762715417,-0.298620785662803,0.2344029170332863,-1.977196307037642,228788.1762715417,1.281218298485909,1.414843544377692,0.3044529757033594,-0.3077790439128876,0.2365218251943588,-1.945195198059082,0.2416640967130661,0.06295494735240936,0.06864951550960541,XTrueNorthZVertical,-0.2915278270253917,0.5838855733605167,0.5280185796121538,0.5434018299192206,0.9424331784248352,-0.2997713387012482,-0.1481783241033554,33.1141242980957,-30.13860702514648,1.438410758972168,1,192.168.1.8,10.83.46.32,1,0
2015-03-03 19:57:02.255,138,1425441417.007428,37.77925815226449,-122.4388021438899,57.14687,-1,-1,10,65,-9999,1425441422.215902,38.01834487915039,-27.10345458984375,2.665565490722656,203.2205200195312,189.4435882568359,25,228788.243348875,1.029769897460938,-0.13555908203125,-0.068023681640625,228788.22805325,-0.4017655473137899,0.07767269108881503,-1.503341652176498,228788.1762715417,1.281218298485909,1.414843544377692,0.3044529757033594,-0.3077790439128876,0.2365218251943588,-1.945195198059082,0.2416640967130661,0.06295494735240936,0.06864951550960541,XTrueNorthZVertical,-0.2915278270253917,0.5838855733605167,0.5280185796121538,0.5434018299192206,0.9424331784248352,-0.2997713387012482,-0.1481783241033554,33.1141242980957,-30.13860702514648,1.438410758972168,1,192.168.1.8,10.83.46.32,4,0
2015-03-03 19:57:02.288,139,1425441417.007428,37.77925815226449,-122.4388021438899,57.14687,-1,-1,10,65,-9999,1425441422.269614,39.89393997192383,-23.67085266113281,2.299423217773438,206.4013519287109,192.6244201660156,25,228788.2923790833,1.296646118164062,0.137725830078125,-0.01593017578125,228788.2798347917,-0.02526247978438265,0.2167008852675296,-0.9876631176600944,228788.2798347917,1.290135350317541,1.430595071563495,0.1551737219458807,-0.03442057222127914,0.2188197672367096,-0.9556625485420227,0.3001061081886292,0.2237808555364609,0.1239642277359962,XTrueNorthZVertical,-0.3463863201880729,0.5576601487426165,0.4931380834776384,0.5708296700407309,0.9782904982566833,-0.1545517295598984,-0.1380633562803268,37.9529914855957,-23.78386688232422,0.9208555221557617,1,192.168.1.8,10.83.46.32,4,0
2015-03-03 19:57:02.358,140,1425441417.007428,37.77925815226449,-122.4388021438899,57.14687,-1,-1,10,65,-9999,1425441422.349864,41.0192985534668,-20.88397216796875,2.199569702148438,209.8280944824219,196.0511627197266,25,228788.3413825417,1.152694702148438,0.0517425537109375,-0.108489990234375,228788.3316170417,0.1786278016915388,-0.1139388198651871,-0.2530953784084435,228788.2798347917,1.290135350317541,1.430595071563495,0.1551737219458807,-0.03442057222127914,0.2188197672367096,-0.9556625485420227,0.3001061081886292,0.2237808555364609,0.1239642277359962,XTrueNorthZVertical,-0.3463863201880729,0.5576601487426165,0.4931380834776384,0.5708296700407309,0.9782904982566833,-0.1545517295598984,-0.1380633562803268,37.9529914855957,-23.78386688232422,0.9208555221557617,1,192.168.1.8,10.83.46.32,4,0
2015-03-03 19:57:02.387,141,1425441417.007428,37.77925815226449,-122.4388021438899,57.14687,-1,-1,10,65,-9999,1425441422.349864,41.0192985534668,-20.88397216796875,2.199569702148438,209.8280944824219,196.0511627197266,25,228788.3904500417,1.1990966796875,0.05682373046875,-0.110015869140625,228788.3833989583,0.0516815704301867,0.2193805579563673,0.358884925337988,228788.3833989583,1.277400706865601,1.433642669522489,0.1383278204316759,0.04258085787296295,0.2215304225683212,0.3908829092979431,0.199700340628624,0.1654902547597885,0.05076230317354202,XTrueNorthZVertical,-0.348900394243062,0.557278639761013,0.4848170378363245,0.5767681321559326,0.9811468124389648,-0.137887105345726,-0.1354180723428726,39.15841674804688,-21.73002433776855,1.172440052032471,1,192.168.1.8,10.83.46.32,4,0
2015-03-03 19:57:02.454,142,1425441417.007428,37.77925815226449,-122.4388021438899,57.14687,-1,-1,10,65,-9999,1425441422.422771,40.89994049072266,-20.90097045898438,2.549057006835938,209.8615417480469,196.0846099853516,25,228788.439410625,1.098464965820312,0.0102386474609375,-0.0190887451171875,228788.4351805,0.1612173860651458,0.03758465983207027,0.9247310232048679,228788.3833989583,1.277400706865601,1.433642669522489,0.1383278204316759,0.04258085787296295,0.2215304225683212,0.3908829092979431,0.199700340628624,0.1654902547597885,0.05076230317354202,XTrueNorthZVertical,-0.348900394243062,0.557278639761013,0.4848170378363245,0.5767681321559326,0.9811468124389648,-0.137887105345726,-0.1354180723428726,39.15841674804688,-21.73002433776855,1.172440052032471,1,192.168.1.8,10.83.46.32,4,0
2015-03-03 19:57:02.484,143,1425441417.007428,37.77925815226449,-122.4388021438899,57.14687,-1,-1,10,65,-9999,1425441422.475578,40.25200653076172,-22.60031127929688,3.481048583984375,208.6981811523438,194.9212493896484,25,228788.4885453334,1.115188598632812,-0.051666259765625,-0.07781982421875,228788.486963,0.2957656106581291,0.1733443564049306,1.394444728887049,228788.4351805,1.279345337879884,1.43805729312991,0.173797647438759,0.1521167606115341,0.03973449766635895,0.9567286968231201,0.1692370176315308,0.1898918002843857,0.1132659092545509,XTrueNorthZVertical,-0.3392955564465922,0.5654207725311354,0.4933272184766711,0.5672795931107004,0.9762707948684692,-0.1729240268468857,-0.1303557455539703,38.69539260864258,-22.52238273620605,1.535963535308838,1,192.168.1.8,10.83.46.32,4,0
2015-03-03 19:57:02.550,144,1425441417.007428,37.77925815226449,-122.4388021438899,57.14687,-1,-1,10,65,-9999,1425441422.526942,38.71743011474609,-24.97933959960938,4.080177307128906,207.2583923339844,193.4814605712891,25,228788.5374469583,1.108795166015625,-0.1951446533203125,-0.089019775390625,228788.486963,0.2957656106581291,0.1733443564049306,1.394444728887049,228788.486963,1.274045104824371,1.445519100632007,0.2362709359370442,0.2866650819778442,0.1754941791296005,1.42644202709198,0.1579143851995468,0.2072538435459137,0.06500561535358429,XTrueNorthZVertical,-0.3196382746771896,0.5805963985331316,0.5056539087582923,0.5523163276720022,0.9645984172821045,-0.2340787947177887,-0.1214783936738968,37.69143295288086,-24.14655685424805,1.802644729614258,1,192.168.1.8,10.83.46.32,4,0
2015-03-03 19:57:02.581,145,1425441417.007428,37.77925815226449,-122.4388021438899,57.14687,-1,-1,10,65,-9999,1425441422.526942,38.71743011474609,-24.97933959960938,4.080177307128906,207.2583923339844,193.4814605712891,25,228788.58647175,1.0538330078125,-0.216400146484375,0.0176849365234375,228788.5905264167,0.01366015217934344,0.1871331392649249,2.145653762842278,228788.5387445417,1.272150985215902,1.456131552553691,0.3203722380675256,0.1757652908563614,0.2765720188617706,1.846096634864807,0.1659095734357834,0.119775228202343,0.01957232877612114,XTrueNorthZVertical,-0.2944539491676343,0.5991667711739247,0.5231341515981793,0.5297421235432676,0.9428855776786804,-0.3149198889732361,-0.1085921078920364,35.42025375366211,-27.30637741088867,2.591788768768311,1,192.168.1.8,10.83.46.32,4,0
2015-03-03 19:57:02.623,146,1425441417.007428,37.77925815226449,-122.4388021438899,57.14687,-1,-1,10,65,-9999,1425441422.579158,36.22800827026367,-28.10606384277344,5.145301818847656,204.0845794677734,190.3076477050781,25,228788.6354784583,0.985931396484375,-0.4071197509765625,0.02862548828125,228788.5905264167,0.01366015217934344,0.1871331392649249,2.145653762842278,228788.5905264167,1.280732802497292,1.464881730267494,0.4229101862395717,0.004559802822768688,0.1892829090356827,2.177650451660156,0.1470445990562439,0.1940158307552338,0.11408781260252,XTrueNorthZVertical,-0.2654953944192044,0.6175036491548459,0.546904699233954,0.4990958772243441,0.9067884087562561,-0.4104159772396088,-0.09640287607908249,32.93834686279297,-30.2022590637207,3.136687755584717,1,192.168.1.8,10.83.46.32,4,0
2015-03-03 19:57:02.681,147,1425441417.007428,37.77925815226449,-122.4388021438899,57.14687,-1,-1,10,65,-9999,1425441422.630732,32.90309143066406,-31.41972351074219,5.860931396484375,199.1347808837891,185.3578491210938,25,228788.6845125833,0.8781890869140625,-0.6020050048828125,0.0173492431640625,228788.642308625,0.08242270520908036,0.2183552409366868,2.43831252977272,228788.642308625,1.291219363240257,1.470924889123983,0.5392136709131111,0.07332243770360947,0.2205049991607666,2.470309019088745,0.13209468126297,0.1063416376709938,0.1141840443015099,XTrueNorthZVertical,-0.2313515075194069,0.6353717051881166,0.5727816183137356,0.4633578528746655,0.853836715221405,-0.5134614109992981,-0.08555855602025986,29.79199600219727,-33.2755012512207,3.482550621032715,1,192.168.1.8,10.83.46.32,4,0
