loggingTime,loggingSample,locationTimestamp_since1970,locationLatitude,locationLongitude,locationAltitude,locationSpeed,locationCourse,locationVerticalAccuracy,locationHorizontalAccuracy,locationFloor,locationHeadingTimestamp_since1970,locationHeadingX,locationHeadingY,locationHeadingZ,locationTrueHeading,locationMagneticHeading,locationHeadingAccuracy,accelerometerTimestamp_sinceReboot,accelerometerAccelerationX,accelerometerAccelerationY,accelerometerAccelerationZ,gyroTimestamp_sinceReboot,gyroRotationX,gyroRotationY,gyroRotationZ,motionTimestamp_sinceReboot,motionYaw,motionRoll,motionPitch,motionRotationRateX,motionRotationRateY,motionRotationRateZ,motionUserAccelerationX,motionUserAccelerationY,motionUserAccelerationZ,motionAttitudeReferenceFrame,motionQuaternionX,motionQuaternionY,motionQuaternionZ,motionQuaternionW,motionGravityX,motionGravityY,motionGravityZ,motionMagneticFieldX,motionMagneticFieldY,motionMagneticFieldZ,motionMagneticFieldCalibrationAccuracy,IP_en0,IP_pdp_ip0,deviceOrientation,state
2015-03-16 13:20:29.463,1,1426537225.111496,37.78789173057514,-122.3968914980785,12.03921,-1,-1,10,65,-9999,1426537229.415819,-13.82155227661133,-14.658935546875,-30.30440521240234,28.79573822021484,15.02869129180908,10,453427.1214462084,-0.2383880615234375,-0.8448638916015625,-0.4456329345703125,453427.0972580417,-0.1231235298326523,0.0569479714858184,0.06850582430065329,453427.0972580417,-1.607697577775515,-0.454372189419015,1.120885471418369,-0.1341691911220551,0.06967420130968094,0.09937936067581177,-0.03613462299108505,-0.02163326740264893,0.009687363170087337,XTrueNorthZVertical,-0.2220256207387608,0.5052963912922271,0.6772936637422239,-0.486470400638275,-0.190870389342308,-0.9004858732223511,-0.3907603621482849,-15.05110549926758,-14.15149593353271,-28.96443367004395,2,10.3.35.51,10.71.35.210,1,0
2015-03-16 13:20:29.526,2,1426537225.111496,37.78789173057514,-122.3968914980785,12.03921,-1,-1,10,65,-9999,1426537229.518134,-13.20768547058105,-14.28509521484375,-30.93679046630859,27.83876037597656,14.07171249389648,10,453427.170462375,-0.125518798828125,-0.913726806640625,-0.418426513671875,453427.1490375,0.03291001317065419,0.6376760798401701,-0.03572870286839405,453427.1490375,-1.603281255804436,-0.4279511492088554,1.112396024576709,0.0219276137650013,0.6504532098770142,-0.004847159143537283,-0.04683730006217957,-0.02671563997864723,0.0255168117582798,XTrueNorthZVertical,-0.2292643307689919,0.4961191729201576,0.6742582010671494,-0.4966683885165876,-0.1836467087268829,-0.8967615365982056,-0.402607262134552,-14.68688869476318,-13.84345245361328,-29.29834747314453,2,10.3.35.51,10.71.35.210,1,0
2015-03-16 13:20:29.533,3,1426537225.111496,37.78789173057514,-122.3968914980785,12.03921,-1,-1,10,65,-9999,1426537229.518134,-13.20768547058105,-14.28509521484375,-30.93679046630859,27.83876037597656,14.07171249389648,10,453427.2195031667,-0.11285400390625,-0.896392822265625,-0.39666748046875,453427.2008170834,-0.01508174756922773,0.05274976434341749,-0.03310841867186509,453427.2008170834,-1.609746338061963,-0.4020083934796219,1.113056730657698,-0.0260646864771843,0.06552917510271072,-0.002232137601822615,0.07751153409481049,-0.006068238522857428,0.003430931828916073,XTrueNorthZVertical,-0.2366225032887418,0.4905758722177476,0.672765961010913,-0.5007305095559251,-0.1729094833135605,-0.8970537185668945,-0.4066902101039886,-14.10227489471436,-13.82386493682861,-29.59333610534668,2,10.3.35.51,10.71.35.210,1,0
2015-03-16 13:20:29.576,4,1426537225.111496,37.78789173057514,-122.3968914980785,12.03921,-1,-1,10,65,-9999,1426537229.569726,-13.15653038024902,-14.33609008789062,-30.72045135498047,28.3758659362793,14.60881900787354,10,453427.2685205,-0.1791229248046875,-0.89178466796875,-0.3932037353515625,453427.252596625,-0.05795810848728546,-0.5681321553466039,-0.05894640756781386,453427.2008170834,-1.609746338061963,-0.4020083934796219,1.113056730657698,-0.0260646864771843,0.06552917510271072,-0.002232137601822615,0.07751153409481049,-0.006068238522857428,0.003430931828916073,XTrueNorthZVertical,-0.2366225032887418,0.4905758722177476,0.672765961010913,-0.5007305095559251,-0.1729094833135605,-0.8970537185668945,-0.4066902101039886,-14.10227489471436,-13.82386493682861,-29.59333610534668,2,10.3.35.51,10.71.35.210,1,0
2015-03-16 13:20:29.630,5,1426537225.111496,37.78789173057514,-122.3968914980785,12.03921,-1,-1,10,65,-9999,1426537229.622331,-13.48051452636719,-14.04718017578125,-30.40426635742188,28.75039672851562,14.98334980010986,10,453427.3175599167,-0.2504119873046875,-0.8804473876953125,-0.3930206298828125,453427.3043762083,-0.01323031797940465,-0.2479658638328418,-0.02185043779577312,453427.3043762083,-1.618054826471098,-0.4324562273830018,1.10986449855905,-0.02421095781028271,-0.2351841032505035,0.009018607437610626,-0.05886031687259674,0.00460143806412816,0.01475186925381422,XTrueNorthZVertical,-0.2232371966509301,0.4982442054478138,0.6787275793503775,-0.4911687243282049,-0.1864094585180283,-0.8956384062767029,-0.4038357436656952,-14.52896118164062,-13.76667881011963,-29.41303825378418,2,10.3.35.51,10.71.35.210,1,0
2015-03-16 13:20:29.677,6,1426537225.111496,37.78789173057514,-122.3968914980785,12.03921,-1,-1,10,65,-9999,1426537229.672649,-14.06027793884277,-14.149169921875,-30.07143402099609,29.65579605102539,15.88874816894531,10,453427.36658525,-0.1873931884765625,-0.896636962890625,-0.4080810546875,453427.3561556667,0.024198813245005,0.2560179313886964,-0.03464053524698767,453427.3043762083,-1.618054826471098,-0.4324562273830018,1.10986449855905,-0.02421095781028271,-0.2351841032505035,0.009018607437610626,-0.05886031687259674,0.00460143806412816,0.01475186925381422,XTrueNorthZVertical,-0.2232371966509301,0.4982442054478138,0.6787275793503775,-0.4911687243282049,-0.1864094585180283,-0.8956384062767029,-0.4038357436656952,-14.52896118164062,-13.76667881011963,-29.41303825378418,2,10.3.35.51,10.71.35.210,1,0
2015-03-16 13:20:29.729,7,1426537225.111496,37.78789173057514,-122.3968914980785,12.03921,-1,-1,10,65,-9999,1426537229.672649,-14.06027793884277,-14.149169921875,-30.07143402099609,29.65579605102539,15.88874816894531,10,453427.415652875,-0.138092041015625,-0.8968353271484375,-0.4042205810546875,453427.40793525,0.03438913284008419,-0.005520466623625253,-0.05374365606223506,453427.3561556667,-1.618858227602646,-0.4273875815071544,1.10999699439759,0.01329124625772238,0.2688176929950714,-0.003755439538508654,-0.02185051701962948,0.001318687107414007,0.0128064239397645,XTrueNorthZVertical,-0.2248002513589009,0.4971228763190089,0.6783409436573375,-0.4921252218158214,-0.1843109875917435,-0.8956973552703857,-0.4046673774719238,-14.78508186340332,-13.73309516906738,-29.30089378356934,2,10.3.35.51,10.71.35.210,1,0
2015-03-16 13:20:29.804,8,1426537225.111496,37.78789173057514,-122.3968914980785,12.03921,-1,-1,10,65,-9999,1426537229.780884,-13.92386436462402,-14.18313598632812,-30.33770751953125,29.64983749389648,15.88279151916504,10,453427.4646864167,-0.1883392333984375,-0.8970947265625,-0.3953857421875,453427.4597148334,0.02092765247806067,-0.2117002676886878,-0.03505945048645714,453427.40793525,-1.616314175605354,-0.4234090411731538,1.112582443913293,0.02348168380558491,0.007279164157807827,-0.02285890094935894,0.0481262318789959,-0.01105393841862679,0.008402632549405098,XTrueNorthZVertical,-0.227625496383153,0.4965321902307379,0.676942018825187,-0.4933476437257787,-0.1817474514245987,-0.8968440294265747,-0.4032848477363586,-14.44460105895996,-13.80709838867188,-29.43563461303711,2,10.3.35.51,10.71.35.210,1,0
2015-03-16 13:20:29.827,9,1426537225.111496,37.78789173057514,-122.3968914980785,12.03921,-1,-1,10,65,-9999,1426537229.780884,-13.92386436462402,-14.18313598632812,-30.33770751953125,29.64983749389648,15.88279151916504,10,453427.5137543334,-0.205169677734375,-0.8960723876953125,-0.396331787109375,453427.5114944584,0.05025544766644927,0.0122809010507914,-0.03831995860904115,453427.5114944584,-1.616121875987124,-0.4347067882860224,1.114617563201508,0.03942332044243813,0.02507885172963142,-0.007412496488541365,-0.02315629087388515,0.001273265806958079,0.00553709315136075,XTrueNorthZVertical,-0.2245125666573249,0.4998193027071869,0.6779189574364005,-0.4901026792035463,-0.1855229139328003,-0.8977423906326294,-0.3995495438575745,-14.66766357421875,-13.86834621429443,-29.29620361328125,2,10.3.35.51,10.71.35.210,1,0
2015-03-16 13:20:29.875,10,1426537225.111496,37.78789173057514,-122.3968914980785,12.03921,-1,-1,10,65,-9999,1426537229.857616,-13.78745460510254,-14.72695922851562,-30.13799285888672,29.15185165405273,15.38480472564697,10,453427.562777375,-0.1776580810546875,-0.9034881591796875,-0.3994140625,453427.5114944584,0.05025544766644927,0.0122809010507914,-0.03831995860904115,453427.5114944584,-1.616121875987124,-0.4347067882860224,1.114617563201508,0.03942332044243813,0.02507885172963142,-0.007412496488541365,-0.02315629087388515,0.001273265806958079,0.00553709315136075,XTrueNorthZVertical,-0.2245125666573249,0.4998193027071869,0.6779189574364005,-0.4901026792035463,-0.1855229139328003,-0.8977423906326294,-0.3995495438575745,-14.66766357421875,-13.86834621429443,-29.29620361328125,2,10.3.35.51,10.71.35.210,1,0
2015-03-16 13:20:29.926,11,1426537225.111496,37.78789173057514,-122.3968914980785,12.03921,-1,-1,10,65,-9999,1426537229.857616,-13.78745460510254,-14.72695922851562,-30.13799285888672,29.15185165405273,15.38480472564697,10,453427.6118210417,-0.1739959716796875,-0.9002227783203125,-0.3979644775390625,453427.6150534584,0.001571531359255759,-0.05894028229730668,-0.02909556754133369,453427.5632737083,-1.61445535406335,-0.4319547819519008,1.116159329498338,0.0243108868598938,0.08690052479505539,-0.00038437097100541,0.006184891797602177,-0.005067664198577404,-0.0006129242246970534,XTrueNorthZVertical,-0.226365957563059,0.4993574712880788,0.6770092591485544,-0.4909776055100365,-0.1838429719209671,-0.898420512676239,-0.3988011479377747,-14.66126823425293,-13.9305534362793,-29.26988220214844,2,10.3.35.51,10.71.35.210,1,0
2015-03-16 13:20:29.975,12,1426537225.111496,37.78789173057514,-122.3968914980785,12.03921,-1,-1,10,65,-9999,1426537229.93473,-14.04323768615723,-14.5400390625,-30.05479431152344,29.81490325927734,16.04785537719727,10,453427.6609892917,-0.192901611328125,-0.892242431640625,-0.3946533203125,453427.6150534584,0.001571531359255759,-0.05894028229730668,-0.02909556754133369,453427.6150534584,-1.615821806438781,-0.43033791956962,1.116353188271016,-0.009261105209589005,-0.0461408868432045,0.001807936350814998,0.009129292331635952,-0.001717169769108295,0.0009750935714691877,XTrueNorthZVertical,-0.2266356707039223,0.4991657913070297,0.6771374831116221,-0.4908712575396698,-0.1831252574920654,-0.8985056281089783,-0.3989395797252655,-14.58896350860596,-13.94557094573975,-29.29884338378906,2,10.3.35.51,10.71.35.210,1,0
2015-03-16 13:20:30.025,13,1426537225.111496,37.78789173057514,-122.3968914980785,12.03921,-1,-1,10,65,-9999,1426537229.984781,-13.85567092895508,-14.52304077148438,-30.40426635742188,29.17476081848145,15.40771389007568,10,453427.7098806667,-0.1879425048828125,-0.9035491943359375,-0.3916778564453125,453427.6668330834,-0.01200659545851324,-0.04789455536009403,-0.03057335563021866,453427.6668330834,-1.61605631659992,-0.4327769860041541,1.115671158156717,-0.02276483364403248,-0.03507044911384583,0.0003702651883941144,-0.008546887896955013,0.005963582545518875,0.004394627176225185,XTrueNorthZVertical,-0.2255278680335808,0.4996130573423862,0.6775554279120241,-0.4903494598142064,-0.1843547224998474,-0.8982059955596924,-0.3990479409694672,-14.61100196838379,-13.94963359832764,-29.28592300415039,2,10.3.35.51,10.71.35.210,1,0
2015-03-16 13:20:30.062,14,1426537225.111496,37.78789173057514,-122.3968914980785,12.03921,-1,-1,10,65,-9999,1426537230.037108,-13.66810417175293,-14.74392700195312,-30.28778076171875,29.15165519714355,15.38460826873779,10,453427.7590065,-0.18328857421875,-0.8936309814453125,-0.3972320556640625,453427.7186125834,0.005976666118355826,0.02347496606072146,-0.03240720835684723,453427.7186125834,-1.614061804050427,-0.4342613209833139,1.11541328159064,-0.004777295514941216,0.03629564121365547,-0.001458696788176894,-0.002898215781897306,-0.005456565879285336,0.007306120824068785,XTrueNorthZVertical,-0.2254389341947149,0.4996851991428818,0.6772654824678436,-0.4907172627126511,-0.1850442886352539,-0.8980926275253296,-0.3989839851856232,-14.69705200195312,-13.91532325744629,-29.25917625427246,2,10.3.35.51,10.71.35.210,1,0
2015-03-16 13:20:30.122,15,1426537225.111496,37.78789173057514,-122.3968914980785,12.03921,-1,-1,10,65,-9999,1426537230.08944,-13.82156753540039,-14.6929931640625,-30.47084808349609,29.14093780517578,15.37389087677002,10,453427.8079445,-0.187286376953125,-0.8828277587890625,-0.3943328857421875,453427.8221715417,0.04062146242308763,-0.01911776820124282,-0.03995673741500385,453427.7703919584,-1.616206835588958,-0.4315702901901699,1.115415706109614,-0.006963325664401054,-0.008386828936636448,-0.01011405140161514,-0.001959313172847033,0.007606023922562599,0.006030638236552477,XTrueNorthZVertical,-0.2258154527683374,0.4992675877271076,0.677487870145827,-0.4906622258757701,-0.1839690357446671,-0.8980937004089355,-0.3994785249233246,-14.65012073516846,-13.9217472076416,-29.2796516418457,2,10.3.35.51,10.71.35.210,1,0
2015-03-16 13:20:30.160,16,1426537225.111496,37.78789173057514,-122.3968914980785,12.03921,-1,-1,10,65,-9999,1426537230.141221,-13.90682411193848,-14.57406616210938,-30.32106781005859,29.14852905273438,15.3814811706543,10,453427.8570709167,-0.19952392578125,-0.8785400390625,-0.4055938720703125,453427.8221715417,0.04062146242308763,-0.01911776820124282,-0.03995673741500385,453427.8221715417,-1.615954776576078,-0.4325895667782468,1.115833133694333,0.02993924356997013,-0.006297167856246233,-0.008961847051978111,-0.001434749807231128,0.01660911180078983,0.005334678571671247,XTrueNorthZVertical,-0.2256697434995988,0.499597804536562,0.6774893103255494,-0.4903910805934304,-0.1842189431190491,-0.898277223110199,-0.3989503979682922,-14.65279769897461,-13.9209098815918,-29.27870941162109,2,10.3.35.51,10.71.35.210,1,0
2015-03-16 13:20:30.219,17,1426537225.111496,37.78789173057514,-122.3968914980785,12.03921,-1,-1,10,65,-9999,1426537230.191685,-13.70220375061035,-14.60806274414062,-30.22121429443359,29.15068626403809,15.38363933563232,10,453427.90600075,-0.22412109375,-0.8756866455078125,-0.4117431640625,453427.8739510833,0.0785928132454374,-0.002490055619224088,-0.03922117232192397,453427.8739510833,-1.612552051935053,-0.4360274173277681,1.116658254123829,0.06790453940629959,0.01032852381467819,-0.008219577372074127,-0.01568197272717953,0.02156428433954716,-0.009141304530203342,XTrueNorthZVertical,-0.2256265692008098,0.5002712011576484,0.6769408060604181,-0.4904819044706296,-0.1852762848138809,-0.8986395001411438,-0.3976427614688873,-14.69179725646973,-13.94355869293213,-29.24837112426758,2,10.3.35.51,10.71.35.210,1,0
2015-03-16 13:20:30.258,18,1426537225.111496,37.78789173057514,-122.3968914980785,12.03921,-1,-1,10,65,-9999,1426537230.243957,-13.75335693359375,-15.03286743164062,-29.83846282958984,29.16144561767578,15.39439964294434,10,453427.9550071667,-0.2472381591796875,-0.876190185546875,-0.4167327880859375,453427.9257307917,0.1235648156252785,0.07355464509522551,-0.04489157491492068,453427.9257307917,-1.603699035547167,-0.4429597616320529,1.117048370695224,0.1128623932600021,0.08636598289012909,-0.01386852376163006,-0.04352140799164772,0.02446667850017548,-0.01948004402220249,XTrueNorthZVertical,-0.2256271374284408,0.5010752186596348,0.6755015435180508,-0.4916438362938015,-0.1878781318664551,-0.8988105654716492,-0.3960320353507996,-14.70383548736572,-13.97786998748779,-29.22593688964844,2,10.3.35.51,10.71.35.210,1,0
2015-03-16 13:20:30.317,19,1426537225.111496,37.78789173057514,-122.3968914980785,12.03921,-1,-1,10,65,-9999,1426537230.295317,-13.25885391235352,-15.185791015625,-29.8551025390625,28.52427291870117,14.75722503662109,10,453428.00405175,-0.2561798095703125,-0.874847412109375,-0.4042816162109375,453427.9775102917,0.1741430384158454,0.235737160739416,-0.06008517524993174,453427.9775102917,-1.593396064054128,-0.445115941382233,1.120267621768574,0.1635050922632217,0.2485501170158386,-0.02899979427456856,-0.06166071072220802,0.02549166604876518,-0.01877652294933796,XTrueNorthZVertical,-0.2285448173871004,0.5012594709972636,0.6728203915218401,-0.4937802212455927,-0.1874848008155823,-0.9002169966697693,-0.3930124044418335,-14.6987247467041,-13.97791481018066,-29.22848510742188,2,10.3.35.51,10.71.35.210,1,0
2015-03-16 13:20:30.356,20,1426537225.111496,37.78789173057514,-122.3968914980785,12.03921,-1,-1,10,65,-9999,1426537230.347366,-12.59383010864258,-15.5086669921875,-29.67205047607422,27.35030746459961,13.58326148986816,10,453428.0530747917,-0.2783966064453125,-0.89324951171875,-0.4016265869140625,453428.029289875,0.2183320714352031,0.4380170287041665,-0.07872623761605038,453428.029289875,-1.580739514543119,-0.4399817351770268,1.126910404417979,0.2076873928308487,0.4508211016654968,-0.04762009158730507,-0.07793553918600082,0.01881232485175133,-0.01861477270722389,XTrueNorthZVertical,-0.235635107896822,0.5002006785382869,0.6682896988463651,-0.497658751045366,-0.1829134523868561,-0.9030896425247192,-0.3885507583618164,-14.22199821472168,-14.24776840209961,-29.3338508605957,2,10.3.35.51,10.71.35.210,1,0
2015-03-16 13:20:30.417,21,1426537225.111496,37.78789173057514,-122.3968914980785,12.03921,-1,-1,10,65,-9999,1426537230.400216,-12.38920402526855,-15.67861938476562,-29.93830871582031,26.96853256225586,13.20148658752441,10,453428.1022228751,-0.2979583740234375,-0.9262542724609375,-0.3826446533203125,453428.081069375,0.2031661679755289,0.6999434492873128,-0.1599270845170024,453428.081069375,-1.571335162679579,-0.4211827232510588,1.135031777613388,0.1925176531076431,0.7127346992492676,-0.1287944167852402,-0.1077310815453529,0.004524272866547108,-0.008966013789176941,XTrueNorthZVertical,-0.2469253014482514,0.4964078497473565,0.6626776122478777,-0.5034535742243331,-0.1725728809833527,-0.9065476059913635,-0.3852142989635468,-13.67863178253174,-14.42440700531006,-29.50543212890625,2,10.3.35.51,10.71.35.210,1,0
2015-03-16 13:20:30.455,22,1426537225.111496,37.78789173057514,-122.3968914980785,12.03921,-1,-1,10,65,-9999,1426537230.450678,-11.14442253112793,-16.0694580078125,-29.92165374755859,25.87652587890625,12.10947799682617,10,453428.1512479584,-0.2525482177734375,-0.93975830078125,-0.3593902587890625,453428.1328491667,0.2389752983088433,1.06396401447141,-0.2107700255199231,453428.1328491667,-1.57870350038007,-0.3696806421376965,1.147316836469153,0.2283269613981247,1.076754212379456,-0.1796360909938812,-0.1290029883384705,-0.02070842869579792,0.01581805385649204,XTrueNorthZVertical,-0.266135636464278,0.4874270433043852,0.6563508766558722,-0.5106762224073841,-0.148478090763092,-0.911664605140686,-0.383173406124115,-13.04777145385742,-14.61972999572754,-29.69441223144531,2,10.3.35.51,10.71.35.210,1,0
2015-03-16 13:20:30.513,23,1426537225.111496,37.78789173057514,-122.3968914980785,12.03921,-1,-1,10,65,-9999,1426537230.50279,-9.490396499633789,-16.83413696289062,-30.53739166259766,24.8794002532959,11.11235332489014,10,453428.2001888333,-0.2143402099609375,-0.9262542724609375,-0.31195068359375,453428.1846284583,0.2466425390871815,1.409075603283726,-0.2769871291797623,453428.1846284583,-1.595148851900314,-0.2915407038890839,1.16198296598026,0.236073300242424,1.421895503997803,-0.2458096593618393,-0.1201163157820702,-0.03064900450408459,0.05141576379537582,XTrueNorthZVertical,-0.2923810952680833,0.4734344630315844,0.6475748088881143,-0.5205957627538494,-0.1142586842179298,-0.9175931811332703,-0.3807462155818939,-10.44451141357422,-15.27746963500977,-30.38503265380859,2,10.3.35.51,10.71.35.210,1,0
2015-03-16 13:20:30.553,24,1426537225.111496,37.78789173057514,-122.3968914980785,12.03921,-1,-1,10,65,-9999,1426537230.50279,-9.490396499633789,-16.83413696289062,-30.53739166259766,24.8794002532959,11.11235332489014,10,453428.249317375,-0.1630859375,-0.94964599609375,-0.294647216796875,453428.2364082084,0.253047707824931,1.765428395057267,-0.2859944726186283,453428.1846284583,-1.595148851900314,-0.2915407038890839,1.16198296598026,0.236073300242424,1.421895503997803,-0.2458096593618393,-0.1201163157820702,-0.03064900450408459,0.05141576379537582,XTrueNorthZVertical,-0.2923810952680833,0.4734344630315844,0.6475748088881143,-0.5205957627538494,-0.1142586842179298,-0.9175931811332703,-0.3807462155818939,-10.44451141357422,-15.27746963500977,-30.38503265380859,2,10.3.35.51,10.71.35.210,1,0
2015-03-16 13:20:30.612,25,1426537225.111496,37.78789173057514,-122.3968914980785,12.03921,-1,-1,10,65,-9999,1426537230.606528,-3.999710083007812,-17.95571899414062,-30.90351867675781,19.7865104675293,6.019462585449219,10,453428.2983705417,-0.111358642578125,-0.9141845703125,-0.2771148681640625,453428.2881877084,0.2647626871440806,1.864807446926881,-0.2151317507532549,453428.2881877084,-1.640761994144128,-0.07562668196733116,1.190514565792617,0.2541992366313934,1.877622365951538,-0.1839490979909897,-0.1009380221366882,0.009218046441674232,0.08940517157316208,XTrueNorthZVertical,-0.3592121703886824,0.4311682495666093,0.6196297484992978,-0.5487435730329099,-0.02804451808333397,-0.9285600781440735,-0.3701211214065552,-6.465688705444336,-15.99256896972656,-31.11545562744141,2,10.3.35.51,10.71.35.210,1,0
2015-03-16 13:20:30.651,26,1426537225.111496,37.78789173057514,-122.3968914980785,12.03921,-1,-1,10,65,-9999,1426537230.606528,-3.999710083007812,-17.95571899414062,-30.90351867675781,19.7865104675293,6.019462585449219,10,453428.3472939167,-0.0831756591796875,-0.921722412109375,-0.2218780517578125,453428.3399672917,0.3017428094087029,1.855242171239644,-0.08774290211873165,453428.2881877084,-1.640761994144128,-0.07562668196733116,1.190514565792617,0.2541992366313934,1.877622365951538,-0.1839490979909897,-0.1009380221366882,0.009218046441674232,0.08940517157316208,XTrueNorthZVertical,-0.3592121703886824,0.4311682495666093,0.6196297484992978,-0.5487435730329099,-0.02804451808333397,-0.9285600781440735,-0.3701211214065552,-6.465688705444336,-15.99256896972656,-31.11545562744141,2,10.3.35.51,10.71.35.210,1,0
2015-03-16 13:20:30.709,27,1426537225.111496,37.78789173057514,-122.3968914980785,12.03921,-1,-1,10,65,-9999,1426537230.658237,-1.152053833007812,-18.58450317382812,-30.52075958251953,16.59434509277344,2.827298164367676,10,453428.3963395417,-0.075439453125,-0.963623046875,-0.16058349609375,453428.3917467917,0.2711859653772427,2.050103803987978,0.100659766037834,453428.3399672917,-1.658316740965018,0.03369085062635949,1.204603401303492,0.2911794781684875,1.868056774139404,-0.05656059458851814,-0.09267336130142212,0.01336342003196478,0.1277728676795959,XTrueNorthZVertical,-0.3928769786885417,0.4083106753090371,0.6010795359280373,-0.5635897803311248,0.01206117682158947,-0.9336972832679749,-0.3578601479530334,-1.876076340675354,-16.66329956054688,-31.37760162353516,2,10.3.35.51,10.71.35.210,1,0
2015-03-16 13:20:30.749,28,1426537225.111496,37.78789173057514,-122.3968914980785,12.03921,-1,-1,10,65,-9999,1426537230.709326,1.695598602294922,-19.17922973632812,-30.20456695556641,12.96034526824951,359.1932983398438,10,453428.445466875,-0.01885986328125,-1.053359985351562,-0.1192779541015625,453428.4435265834,0.236040228471467,2.190699002152096,0.2745388851896525,453428.3917467917,-1.654445147275506,0.1280567657167304,1.219055157975022,0.2606227099895477,2.062918424606323,0.1318417936563492,-0.1198354586958885,-0.007697921711951494,0.1652744114398956,XTrueNorthZVertical,-0.4253457627674391,0.3850001127620783,0.5774721339974788,-0.5808457684147138,0.04399927705526352,-0.9387742280960083,-0.3417117893695831,0.8081051707267761,-17.08103179931641,-31.19814682006836,2,10.3.35.51,10.71.35.210,1,0
2015-03-16 13:20:30.807,29,1426537225.111496,37.78789173057514,-122.3968914980785,12.03921,-1,-1,10,65,-9999,1426537230.761741,4.713770866394043,-19.29818725585938,-29.55553436279297,8.774004936218262,355.0069580078125,10,453428.4944061667,0.022430419921875,-1.08087158203125,-0.0858001708984375,453428.4953059167,0.2103119618124295,2.196822941078733,0.4407872488700669,453428.4435265834,-1.628881240038896,0.2113112875237809,1.232602908492259,0.2254770845174789,2.203513622283936,0.3057205975055695,-0.1005185320973396,-0.08404918760061264,0.1928268522024155,XTrueNorthZVertical,-0.4570624025824843,0.3590156893133774,0.5483833926028779,-0.601229845108869,0.06958896666765213,-0.9433556199073792,-0.3244033753871918,2.661937236785889,-17.33331871032715,-30.95495223999023,2,10.3.35.51,10.71.35.210,1,0
2015-03-16 13:20:30.847,30,1426537225.111496,37.78789173057514,-122.3968914980785,12.03921,-1,-1,10,65,-9999,1426537230.813701,7.800150871276855,-19.485107421875,-28.83995819091797,3.275378227233887,349.5083312988281,10,453428.543536625,0.13140869140625,-1.026290893554688,-0.061676025390625,453428.4953059167,0.2103119618124295,2.196822941078733,0.4407872488700669,453428.4953059167,-1.575007461895089,0.2711691281588883,1.248007756301525,0.1997489482164383,2.20963716506958,0.4719686210155487,-0.06253743916749954,-0.1325170397758484,0.2198206782341003,XTrueNorthZVertical,-0.4862303527937629,0.3328207031947068,0.5140505363413863,-0.6233477733930523,0.08496785908937454,-0.9483545422554016,-0.3056208491325378,7.247208595275879,-17.97218894958496,-29.83651161193848,2,10.3.35.51,10.71.35.210,1,0
2015-03-16 13:20:30.912,31,1426537225.111496,37.78789173057514,-122.3968914980785,12.03921,-1,-1,10,65,-9999,1426537230.869475,10.27266693115234,-20.24978637695312,-27.65840148925781,357.71728515625,343.9502258300781,10,453428.5924685,0.16595458984375,-0.9686737060546875,0.006500244140625,453428.5988652083,-0.06986483540492072,1.613982147031622,0.3593698869724915,453428.54708575,-1.503707740518986,0.3091425297742414,1.264293767046643,0.1667839139699936,1.983601331710815,0.531554639339447,0.03961099311709404,-0.07289622724056244,0.2257465869188309,XTrueNorthZVertical,-0.5112779545960128,0.3080317309180208,0.4779971331747537,-0.6443834444865814,0.09179769456386566,-0.9533946514129639,-0.2874225974082947,9.728387832641602,-18.41910743713379,-28.84153366088867,2,10.3.35.51,10.71.35.210,1,0
2015-03-16 13:20:30.945,32,1426537225.111496,37.78789173057514,-122.3968914980785,12.03921,-1,-1,10,65,-9999,1426537230.869475,10.27266693115234,-20.24978637695312,-27.65840148925781,357.71728515625,343.9502258300781,10,453428.6414842917,0.2602996826171875,-1.005508422851562,0.0322723388671875,453428.5988652083,-0.06986483540492072,1.613982147031622,0.3593698869724915,453428.5988652083,-1.431913757440521,0.3298562818287384,1.273852008985874,-0.08042765408754349,1.626796126365662,0.3905506432056427,0.07117952406406403,-0.01243866235017776,0.2833254635334015,XTrueNorthZVertical,-0.5292425105319387,0.2854641164054874,0.4468211406790883,-0.66239221650985,0.09477506577968597,-0.9562350511550903,-0.2768252193927765,11.14488220214844,-18.72484970092773,-28.12313461303711,2,10.3.35.51,10.71.35.210,1,0
2015-03-16 13:20:31.014,33,1426537225.111496,37.78789173057514,-122.3968914980785,12.03921,-1,-1,10,65,-9999,1426537230.944484,13.03506088256836,-21.201416015625,-26.12737274169922,350.2197265625,336.4526672363281,10,453428.6905386667,0.3646087646484375,-1.170883178710938,-0.11895751953125,453428.6506448333,-0.4346292214814767,1.215748217639386,0.376193874526849,453428.6506448333,-1.35453153217914,0.327067057100386,1.266325818121484,-0.4451919496059418,1.228562116622925,0.4073743522167206,0.1639876961708069,-0.05150260031223297,0.3161681890487671,XTrueNorthZVertical,-0.5371995456313362,0.2635691872794192,0.4233815694904815,-0.6802175793568097,0.09631198644638062,-0.9540058374404907,-0.2838958501815796,13.89622116088867,-18.91812324523926,-26.73460006713867,2,10.3.35.51,10.71.35.210,1,0
2015-03-16 13:20:31.043,34,1426537225.111496,37.78789173057514,-122.3968914980785,12.03921,-1,-1,10,65,-9999,1426537231.02247,15.06422519683838,-21.32034301757812,-25.67803955078125,344.6657409667969,330.898681640625,10,453428.7396664167,0.1784515380859375,-1.018295288085938,-0.430389404296875,453428.7024243334,-0.4538852077432947,0.5684780999722052,0.5540323152712884,453428.7024243334,-1.253015960597949,0.2753823982205927,1.250280636025249,-0.4644477963447571,0.5812919139862061,0.5852124691009521,0.2758580446243286,-0.2168662548065186,0.09774073958396912,XTrueNorthZVertical,-0.5348375296103776,0.2497123921142872,0.4058667360949161,-0.6977569115647635,0.08566842973232269,-0.9490730762481689,-0.3031850755214691,14.85466194152832,-18.64560508728027,-26.40870094299316,2,10.3.35.51,10.71.35.210,1,0
2015-03-16 13:20:31.106,35,1426537225.111496,37.78789173057514,-122.3968914980785,12.03921,-1,-1,10,65,-9999,1426537231.09942,15.67809295654297,-21.21841430664062,-25.64476013183594,339.9041442871094,326.1370849609375,10,453428.7886202917,0.0876007080078125,-1.04364013671875,-0.3303680419921875,453428.754204125,0.1227163325019792,0.6451912541202647,0.2892941292092365,453428.754204125,-1.16993012436247,0.2176748984189631,1.249353105307955,0.1121538355946541,0.6580049395561218,0.3204739391803741,0.0693741962313652,-0.08211860805749893,-0.09880685061216354,XTrueNorthZVertical,-0.5333616495900945,0.2475580284298352,0.3922801062800903,-0.7073589389293503,0.0682295635342598,-0.9487804174423218,-0.3084807395935059,15.02982902526855,-18.53444290161133,-26.38783645629883,2,10.3.35.51,10.71.35.210,1,0
2015-03-16 13:20:31.141,36,1426537225.111496,37.78789173057514,-122.3968914980785,12.03921,-1,-1,10,65,-9999,1426537231.09942,15.67809295654297,-21.21841430664062,-25.64476013183594,339.9041442871094,326.1370849609375,10,453428.8377575834,0.232574462890625,-1.067626953125,-0.2949981689453125,453428.805983625,-0.1402399324747006,1.439482245029706,0.007947139008905455,453428.805983625,-1.151406348122494,0.2598394947110256,1.250427189200694,-0.1508023291826248,1.452295780181885,0.0391266718506813,0.03917651250958443,-0.09490237385034561,-0.0240694023668766,XTrueNorthZVertical,-0.5439837504908689,0.2278352965036123,0.3741177254493854,-0.7156875444867586,0.08091016113758087,-0.9491192102432251,-0.3043455183506012,15.99764347076416,-18.86205101013184,-25.57415580749512,2,10.3.35.51,10.71.35.210,1,0
2015-03-16 13:20:31.211,37,1426537225.111496,37.78789173057514,-122.3968914980785,12.03921,-1,-1,10,65,-9999,1426537231.151145,16.56478881835938,-21.55825805664062,-24.57969665527344,337.5006713867188,323.7336120605469,10,453428.8867035834,0.22186279296875,-0.864288330078125,-0.275421142578125,453428.8577632917,-0.2528266654544545,1.171720572182087,-0.01077834556376869,453428.8577632917,-1.134477903007613,0.3113113236957295,1.239237705223177,-0.2633889317512512,1.184533953666687,0.02040084637701511,0.1409991681575775,-0.03151464834809303,0.005198144353926182,XTrueNorthZVertical,-0.5516672567452094,0.2018119050871669,0.3562029648507893,-0.7266736665049308,0.09970822930335999,-0.9455361366271973,-0.3098703920841217,17.56670951843262,-18.68129920959473,-24.6608772277832,2,10.3.35.51,10.71.35.210,1,0
2015-03-16 13:20:31.240,38,1426537225.111496,37.78789173057514,-122.3968914980785,12.03921,-1,-1,10,65,-9999,1426537231.206005,17.74136543273926,-21.40533447265625,-23.59783935546875,334.9241943359375,321.1571350097656,10,453428.9358295417,0.1451873779296875,-0.81500244140625,-0.259918212890625,453428.9095427917,-0.2291325212360195,0.7133740369806914,-0.005366003280400657,453428.9095427917,-1.121165888700309,0.3454769621216051,1.227910199527365,-0.239582747220993,0.7262260317802429,0.02588490396738052,0.08397535979747772,0.1141515374183655,0.04374320805072784,XTrueNorthZVertical,-0.5553641007028224,0.1827566096723547,0.344249225916118,-0.7346177132956121,0.1138548403978348,-0.9417882561683655,-0.3163414597511292,18.43148231506348,-18.49760627746582,-24.16315460205078,2,10.3.35.51,10.71.35.210,1,0
2015-03-16 13:20:31.310,39,1426537225.111496,37.78789173057514,-122.3968914980785,12.03921,-1,-1,10,65,-9999,1426537231.280698,19.4465446472168,-21.09945678710938,-22.73247528076172,331.6116027832031,317.8445434570312,10,453428.9847740834,0.0750732421875,-0.794097900390625,-0.28387451171875,453428.9613222917,-0.2093124774553228,0.5032096142926522,0.1736000198695782,453428.9613222917,-1.091319611656593,0.3459907048020422,1.218822335139299,-0.2197625935077667,0.5160614848136902,0.2048506438732147,-0.01304856687784195,0.1325721740722656,0.06368604302406311,XTrueNorthZVertical,-0.5552157824569811,0.171973039655314,0.3349864870178706,-0.741582590827029,0.1169151440262794,-0.9386940002441406,-0.3243214190006256,19.70301628112793,-18.14262580871582,-23.41741752624512,2,10.3.35.51,10.71.35.210,1,0
2015-03-16 13:20:31.337,40,1426537225.111496,37.78789173057514,-122.3968914980785,12.03921,-1,-1,10,65,-9999,1426537231.33369,20.11156463623047,-21.59225463867188,-22.34972381591797,329.1441650390625,315.3771057128906,10,453429.033796625,0.1240081787109375,-0.875518798828125,-0.2963714599609375,453429.013102125,0.03441070444491384,0.8179976519849993,0.2129207944162711,453429.013102125,-1.055759504809931,0.3458866153125955,1.218057492383596,0.02396067976951599,0.8308494091033936,0.2441711127758026,-0.0320112332701683,0.125319704413414,0.03207068890333176,XTrueNorthZVertical,-0.5579208862472292,0.1619253632388611,0.3219331096288261,-0.747571743255249,0.1171247586607933,-0.9384300708770752,-0.3250089287757874,20.12221145629883,-18.14880752563477,-23.0533390045166,2,10.3.35.51,10.71.35.210,1,0
2015-03-16 13:20:31.407,41,1426537225.111496,37.78789173057514,-122.3968914980785,12.03921,-1,-1,10,65,-9999,1426537231.33369,20.11156463623047,-21.59225463867188,-22.34972381591797,329.1441650390625,315.3771057128906,10,453429.0828365417,0.133941650390625,-0.8907012939453125,-0.3040008544921875,453429.0648817917,0.09560375470831854,0.8673228574826838,0.3583506952233181,453429.0648817917,-1.016273605360673,0.3529805864213205,1.227362505485097,0.08515384793281555,0.8801745176315308,0.3896006643772125,0.0206508282572031,0.03797848522663116,0.01775970123708248,XTrueNorthZVertical,-0.5651432351061602,0.1504394093047147,0.3032567295154283,-0.7523406415350077,0.116403616964817,-0.94160395860672,-0.3159622251987457,20.54064559936523,-18.29772186279297,-22.56134796142578,2,10.3.35.51,10.71.35.210,1,0
2015-03-16 13:20:31.436,42,1426537225.111496,37.78789173057514,-122.3968914980785,12.03921,-1,-1,10,65,-9999,1426537231.409845,20.58901786804199,-22.44192504882812,-21.45107269287109,326.1923217773438,312.4252624511719,10,453429.13185925,0.150115966796875,-0.922698974609375,-0.2896270751953125,453429.11666125,0.1298621263388798,0.8877522325207907,0.3504341825669486,453429.0648817917,-1.016273605360673,0.3529805864213205,1.227362505485097,0.08515384793281555,0.8801745176315308,0.3896006643772125,0.0206508282572031,0.03797848522663116,0.01775970123708248,XTrueNorthZVertical,-0.5651432351061602,0.1504394093047147,0.3032567295154283,-0.7523406415350077,0.116403616964817,-0.94160395860672,-0.3159622251987457,20.54064559936523,-18.29772186279297,-22.56134796142578,2,10.3.35.51,10.71.35.210,1,0
2015-03-16 13:20:31.509,43,1426537225.111496,37.78789173057514,-122.3968914980785,12.03921,-1,-1,10,65,-9999,1426537231.460793,21.44161224365234,-22.64584350585938,-20.28615570068359,322.6615600585938,308.8945007324219,10,453429.1809170833,0.1685638427734375,-0.8725433349609375,-0.3026275634765625,453429.16844075,0.1278535702447421,0.8076866911925394,0.2790665253588962,453429.16844075,-0.9187715805114812,0.3484984194212296,1.250103730508755,0.1174035519361496,0.8205382227897644,0.3103156685829163,0.06099532172083855,0.05312804132699966,0.00124598725233227,XTrueNorthZVertical,-0.5788703567472647,0.1295058808675291,0.2631931949801733,-0.7608328699366618,0.1076448187232018,-0.949017345905304,-0.2962746620178223,21.29464149475098,-23.21515655517578,-19.88188171386719,2,10.3.35.51,10.71.35.210,1,0
2015-03-16 13:20:31.535,44,1426537225.111496,37.78789173057514,-122.3968914980785,12.03921,-1,-1,10,65,-9999,1426537231.513221,21.79970169067383,-23.20663452148438,-19.13788604736328,319.9972534179688,306.2301940917969,10,453429.2300504167,0.1045684814453125,-0.843902587890625,-0.3302764892578125,453429.2202204167,0.2516439556143503,0.638580223030252,0.1754708905353589,453429.16844075,-0.9187715805114812,0.3484984194212296,1.250103730508755,0.1174035519361496,0.8205382227897644,0.3103156685829163,0.06099532172083855,0.05312804132699966,0.00124598725233227,XTrueNorthZVertical,-0.5788703567472647,0.1295058808675291,0.2631931949801733,-0.7608328699366618,0.1076448187232018,-0.949017345905304,-0.2962746620178223,21.29464149475098,-23.21515655517578,-19.88188171386719,2,10.3.35.51,10.71.35.210,1,0
2015-03-16 13:20:31.621,45,1426537225.111496,37.78789173057514,-122.3968914980785,12.03921,-1,-1,10,65,-9999,1426537231.56827,22.27714920043945,-23.58047485351562,-18.23923492431641,317.6762084960938,303.9091491699219,10,453429.2789897917,0.0310211181640625,-0.8089599609375,-0.3096923828125,453429.2719999584,0.3511271370825872,0.6231301602822663,0.02278147891286483,453429.2202204167,-0.8898604185865924,0.3571529560600976,1.262965598342423,0.2411929070949554,0.6514316201210022,0.2067199051380157,0.03065291419625282,0.08942191302776337,-0.03543344140052795,XTrueNorthZVertical,-0.5861003725944862,0.1206248873487941,0.2472175588226605,-0.7621151129366006,0.105928510427475,-0.9529930949211121,-0.283871978521347,21.56282043457031,-23.48561859130859,-19.2656364440918,2,10.3.35.51,10.71.35.210,1,0
2015-03-16 13:20:31.630,46,1426537225.111496,37.78789173057514,-122.3968914980785,12.03921,-1,-1,10,65,-9999,1426537231.56827,22.27714920043945,-23.58047485351562,-18.23923492431641,317.6762084960938,303.9091491699219,10,453429.3280136251,-0.0636138916015625,-0.869415283203125,-0.2449493408203125,453429.3237796667,0.4435846332790861,0.7414541411983778,-0.2347991954034901,453429.2719999584,-0.8898327891424528,0.3882334178286876,1.279087157780227,0.3406762182712555,0.6359813809394836,0.0540301539003849,-0.06266453117132187,0.1497092992067337,-0.0493495799601078,XTrueNorthZVertical,-0.5952210566871612,0.1123318044033976,0.2349192474855185,-0.7602015413799432,0.1088681444525719,-0.9577537178993225,-0.26618692278862,22.13608932495117,-24.13344764709473,-17.75569152832031,2,10.3.35.51,10.71.35.210,1,0
2015-03-16 13:20:31.712,47,1426537225.111496,37.78789173057514,-122.3968914980785,12.03921,-1,-1,10,65,-9999,1426537231.644506,22.58408164978027,-23.784423828125,-17.10759735107422,316.278564453125,302.5115051269531,10,453429.3770610417,-0.038970947265625,-0.850433349609375,-0.032958984375,453429.3755593334,0.6053735337141629,1.155836414176418,-0.6333079630202221,453429.3755593334,-1.04777881287934,0.6221021618527235,1.306815031837122,0.5949227809906006,1.168687462806702,-0.6020598411560059,-0.2168267816305161,0.1107292920351028,0.1263341903686523,XTrueNorthZVertical,-0.6226750424374821,0.07908467337287958,0.2170483775330257,-0.7476037618506034,0.1520532220602036,-0.9653587937355042,-0.2120428085327148,23.14219093322754,-24.50426292419434,-15.86425113677979,2,10.3.35.51,10.71.35.210,1,0
2015-03-16 13:20:31.729,48,1426537225.111496,37.78789173057514,-122.3968914980785,12.03921,-1,-1,10,65,-9999,1426537231.644506,22.58408164978027,-23.784423828125,-17.10759735107422,316.278564453125,302.5115051269531,10,453429.4260970417,0.0986480712890625,-0.7550506591796875,0.0775299072265625,453429.3755593334,0.6053735337141629,1.155836414176418,-0.6333079630202221,453429.3755593334,-1.04777881287934,0.6221021618527235,1.306815031837122,0.5949227809906006,1.168687462806702,-0.6020598411560059,-0.2168267816305161,0.1107292920351028,0.1263341903686523,XTrueNorthZVertical,-0.6226750424374821,0.07908467337287958,0.2170483775330257,-0.7476037618506034,0.1520532220602036,-0.9653587937355042,-0.2120428085327148,23.14219093322754,-24.50426292419434,-15.86425113677979,2,10.3.35.51,10.71.35.210,1,0
2015-03-16 13:20:31.816,49,1426537225.111496,37.78789173057514,-122.3968914980785,12.03921,-1,-1,10,65,-9999,1426537231.772811,25.99444580078125,-23.27459716796875,-12.98046493530273,316.1392517089844,302.3721923828125,10,453429.4751554167,0.245819091796875,-0.794158935546875,0.1616668701171875,453429.4791185417,0.5944689543147245,1.286626385839082,-1.090401214612626,453429.4273388333,-1.247143036788659,0.8887184887728226,1.30449673448408,0.7845677137374878,1.654370665550232,-0.9253568053245544,-0.1056361794471741,0.2097006589174271,0.2434299141168594,XTrueNorthZVertical,-0.6443823802272488,0.04267718424425199,0.2071814472717192,-0.7348644983015241,0.2042842507362366,-0.9647513031959534,-0.1659000068902969,25.48117828369141,-24.05557823181152,-12.63855743408203,2,10.3.35.51,10.71.35.210,1,0
2015-03-16 13:20:31.828,50,1426537225.111496,37.78789173057514,-122.3968914980785,12.03921,-1,-1,10,65,-9999,1426537231.772811,25.99444580078125,-23.27459716796875,-12.98046493530273,316.1392517089844,302.3721923828125,10,453429.5241870417,0.4067535400390625,-0.851104736328125,0.225494384765625,453429.4791185417,0.5944689543147245,1.286626385839082,-1.090401214612626,453429.4791185417,-1.457221469401624,1.16630391535899,1.280021023434847,0.5840184688568115,1.299477100372314,-1.05915379524231,-0.01774027198553085,0.1638629585504532,0.27449631690979,XTrueNorthZVertical,-0.6660177062228622,0.002386174681925521,0.2004363302214779,-0.7184984172949017,0.2635593712329865,-0.958021879196167,-0.1128294393420219,27.32217407226562,-23.31085014343262,-9.889263153076172,2,10.3.35.51,10.71.35.210,1,0
2015-03-16 13:20:31.918,51,1426537225.111496,37.78789173057514,-122.3968914980785,12.03921,-1,-1,10,65,-9999,1426537231.910154,29.76289749145508,-21.45632934570312,-8.2708740234375,316.9216613769531,303.1546020507812,10,453429.5732365417,0.4320220947265625,-0.7414093017578125,0.1163330078125,453429.5308982084,0.2901245028371232,0.8889011202150509,-0.6712622696115954,453429.5308982084,-1.562878806538089,1.320500148580847,1.244901623361033,0.2796740829944611,0.9017517566680908,-0.6400151252746582,0.09657344222068787,0.09625992178916931,0.3047942221164703,XTrueNorthZVertical,-0.6778535226873956,-0.02940540933576812,0.1981090417497775,-0.7073914815849686,0.3101800978183746,-0.9473646879196167,-0.07929984480142593,28.40392112731934,-22.60509490966797,-8.361893653869629,2,10.3.35.51,10.71.35.210,1,0
2015-03-16 13:20:31.926,52,1426537225.111496,37.78789173057514,-122.3968914980785,12.03921,-1,-1,10,65,-9999,1426537231.910154,29.76289749145508,-21.45632934570312,-8.2708740234375,316.9216613769531,303.1546020507812,10,453429.6223371667,0.39642333984375,-0.5796661376953125,0.07562255859375,453429.5826777917,0.1723944068440993,0.5111303880067659,-0.1575520774568697,453429.5826777917,-1.605070908000862,1.396211121730913,1.231324122179863,0.1619440913200378,0.5239809155464172,-0.1263052523136139,0.1040945798158646,0.201521247625351,0.1741731613874435,XTrueNorthZVertical,-0.6847754683468643,-0.04650252414121399,0.1918019205908111,-0.701521256567762,0.3279275298118591,-0.9429305195808411,-0.05784014612436295,29.92776489257812,-21.3878173828125,-5.88085412979126,2,10.3.35.51,10.71.35.210,1,0
2015-03-16 13:20:32.010,53,1426537225.111496,37.78789173057514,-122.3968914980785,12.03921,-1,-1,10,65,-9999,1426537231.979445,30.53022956848145,-20.72567749023438,-6.490219116210938,314.6775207519531,300.9104614257812,10,453429.6713104583,0.240386962890625,-0.798187255859375,0.046234130859375,453429.634457375,-0.004647216102188271,-0.04564711371617616,-0.02330345848652036,453429.634457375,-1.617498245691801,1.418515074056852,1.230105078188001,-0.0150974141433835,-0.03279676288366318,0.007943029515445232,0.04314124584197998,0.3473396003246307,0.1233184561133385,XTrueNorthZVertical,-0.6871011078198378,-0.05048523752040252,0.1889224418379733,-0.6997510960013886,0.33027184009552,-0.9425238966941833,-0.05068661645054817,30.1167106628418,-21.29867553710938,-5.200418949127197,2,10.3.35.51,10.71.35.210,1,0
2015-03-16 13:20:32.023,54,1426537225.111496,37.78789173057514,-122.3968914980785,12.03921,-1,-1,10,65,-9999,1426537231.979445,30.53022956848145,-20.72567749023438,-6.490219116210938,314.6775207519531,300.9104614257812,10,453429.7203459167,0.0999908447265625,-0.8788909912109375,0.052642822265625,453429.686237125,-0.213790582828291,-0.7711680947448279,0.1482880052889201,453429.686237125,-1.588947185948133,1.370235246908182,1.234735434562853,-0.2242406755685806,-0.7583178877830505,0.1795341819524765,-0.1278633177280426,0.09626740962266922,0.1020583733916283,XTrueNorthZVertical,-0.6822128862626187,-0.04168018063531653,0.1938510393305905,-0.7037542837310415,0.3231605589389801,-0.9440609812736511,-0.06569667905569077,30.10876846313477,-21.30442047119141,-5.222836971282959,2,10.3.35.51,10.71.35.210,1,0
2015-03-16 13:20:32.089,55,1426537232.039479,37.78795915728664,-122.3968001967257,12.53543,-1,-1,10,65,-9999,1426537232.08219,30.63254165649414,-20.52175903320312,-8.254238128662109,315.6899719238281,301.9229125976562,10,453429.7693789167,0.135406494140625,-0.867034912109375,0.120025634765625,453429.7380166667,-0.09473236839964462,-0.7903404577484173,-0.1658065452555703,453429.7380166667,-1.56165235409416,1.300448652163737,1.23394255021724,-0.1051823645830154,-0.7774903178215027,-0.1345606595277786,-0.2188895493745804,0.0606205128133297,0.1439346820116043,XTrueNorthZVertical,-0.6746535808206298,-0.02659387554741768,0.208162046007176,-0.707674961568716,0.3185141682624817,-0.9437991976737976,-0.08827062696218491,29.60213470458984,-21.47897720336914,-7.07540225982666,2,10.3.35.51,10.71.35.210,1,0
2015-03-16 13:20:32.123,56,1426537232.039479,37.78795915728664,-122.3968001967257,12.53543,-1,-1,10,65,-9999,1426537232.08219,30.63254165649414,-20.52175903320312,-8.254238128662109,315.6899719238281,301.9229125976562,10,453429.8183920833,0.218170166015625,-0.8776702880859375,0.12457275390625,453429.7897963334,-0.08462940048832002,0.5593051079135363,-0.2304760860059644,453429.7897963334,-1.560539891662494,1.295224081421136,1.225134664065076,-0.09507928788661957,0.5721551179885864,-0.1992305368185043,-0.1574716120958328,0.1043646559119225,0.2174513041973114,XTrueNorthZVertical,-0.6731324162358606,-0.02822758206925146,0.2124976283426957,-0.7077716360038963,0.3260354399681091,-0.9408514499664307,-0.0921919047832489,29.56011199951172,-21.26417541503906,-7.856773853302002,2,10.3.35.51,10.71.35.210,1,0
2015-03-16 13:20:32.187,57,1426537232.039479,37.78795915728664,-122.3968001967257,12.53543,-1,-1,10,65,-9999,1426537232.13744,30.49612617492676,-20.11392211914062,-8.553787231445312,316.7454223632812,302.9783630371094,10,453429.867432625,0.332550048828125,-0.9615325927734375,0.139434814453125,453429.841576,-0.4072545886365522,1.100862910322784,-0.2007560071890072,453429.841576,-1.532814039088646,1.319323621252914,1.212477249999051,-0.4177043437957764,1.113712668418884,-0.1695107668638229,-0.06809400022029877,0.02326438017189503,0.220367431640625,XTrueNorthZVertical,-0.6736551061021907,-0.05055973786607917,0.1988220200114116,-0.7100016142572126,0.339669942855835,-0.9364876747131348,-0.0872650220990181,29.79470443725586,-21.07427597045898,-7.472947597503662,2,10.3.35.51,10.71.35.210,1,0
2015-03-16 13:20:32.223,58,1426537232.039479,37.78795915728664,-122.3968001967257,12.53543,-1,-1,10,65,-9999,1426537232.210874,31.46808052062988,-19.34921264648438,-7.605209350585938,315.1660766601562,301.3990173339844,10,453429.9164477084,0.28900146484375,-1.03448486328125,0.0894622802734375,453429.8933555834,-0.6165862408517235,0.8014583563511711,-0.07906366012616342,453429.8933555834,-1.461365944362912,1.301495556364612,1.200761026790081,-0.6269290447235107,0.8143361210823059,-0.04773832857608795,-0.03441973030567169,-0.06196337565779686,0.2255222052335739,XTrueNorthZVertical,-0.6683331446245743,-0.07225782368835322,0.1832556197217804,-0.7173053530487161,0.3486134707927704,-0.9323145747184753,-0.09621922671794891,30.5522575378418,-20.53330993652344,-5.712899208068848,2,10.3.35.51,10.71.35.210,1,0
2015-03-16 13:20:32.310,59,1426537232.039479,37.78795915728664,-122.3968001967257,12.53543,-1,-1,10,65,-9999,1426537232.263073,32.38888168334961,-19.00936889648438,-6.872974395751953,312.7789916992188,299.0119323730469,10,453429.9654832917,0.31109619140625,-1.129547119140625,0.1572265625,453429.9451352917,-0.6074345540817753,0.717900878201608,-0.009694172683997434,453429.9451352917,-1.377442913149179,1.259490474184123,1.190287152814944,-0.6177772879600525,0.7307784557342529,0.02163084782660007,-0.04563487321138382,-0.1237246617674828,0.1866802275180817,XTrueNorthZVertical,-0.6597560065190523,-0.08855942755402886,0.1704119795998195,-0.7265252740422125,0.3535419702529907,-0.9284756779670715,-0.1137584820389748,30.78149795532227,-20.3158016204834,-5.240410804748535,2,10.3.35.51,10.71.35.210,1,0
2015-03-16 13:20:32.318,60,1426537232.039479,37.78795915728664,-122.3968001967257,12.53543,-1,-1,10,65,-9999,1426537232.263073,32.38888168334961,-19.00936889648438,-6.872974395751953,312.7789916992188,299.0119323730469,10,453430.0145114583,0.3905487060546875,-1.193923950195312,-0.003448486328125,453429.9969149583,-0.6481955661459831,1.376674786513495,0.1975956339234101,453429.9969149583,-1.285384418126207,1.230130183581514,1.186790587680448,-0.6585381627082825,1.389552235603333,0.2289202958345413,-0.02512019872665405,-0.2210677564144135,0.1402934491634369,XTrueNorthZVertical,-0.6522950446616869,-0.1092024681622992,0.1475502720327853,-0.7354011761209166,0.3531078696250916,-0.9271713495254517,-0.1251719892024994,30.88643646240234,-20.23352241516113,-4.932231903076172,2,10.3.35.51,10.71.35.210,1,0
2015-03-16 13:20:32.410,61,1426537232.039479,37.78795915728664,-122.3968001967257,12.53543,-1,-1,10,65,-9999,1426537232.368175,33.01979827880859,-19.12832641601562,-4.49322509765625,305.1422424316406,291.3751831054688,10,453430.0635463333,0.447662353515625,-1.166610717773438,-0.04779052734375,453430.0486947084,-0.4832183292538634,1.119394516768101,0.2869726516870144,453430.0486947084,-1.200606624840153,1.217116329266531,1.189185453022347,-0.493560791015625,1.132271885871887,0.3182969987392426,0.1027223765850067,-0.3072551190853119,0.1030319258570671,XTrueNorthZVertical,-0.6467667710580881,-0.1311456459234721,0.1196835162681608,-0.7417340468820379,0.3493650257587433,-0.9280658960342407,-0.1289871335029602,30.94721221923828,-20.52269744873047,-2.963667154312134,2,10.3.35.51,10.71.35.210,1,0
2015-03-16 13:20:32.418,62,1426537232.039479,37.78795915728664,-122.3968001967257,12.53543,-1,-1,10,65,-9999,1426537232.368175,33.01979827880859,-19.12832641601562,-4.49322509765625,305.1422424316406,291.3751831054688,10,453430.11260375,0.3668060302734375,-1.127655029296875,-0.0547027587890625,453430.10047425,-0.370782064875699,0.6052457019818391,0.2471525344359316,453430.0486947084,-1.200606624840153,1.217116329266531,1.189185453022347,-0.493560791015625,1.132271885871887,0.3182969987392426,0.1027223765850067,-0.3072551190853119,0.1030319258570671,XTrueNorthZVertical,-0.6467667710580881,-0.1311456459234721,0.1196835162681608,-0.7417340468820379,0.3493650257587433,-0.9280658960342407,-0.1289871335029602,30.94721221923828,-20.52269744873047,-2.963667154312134,2,10.3.35.51,10.71.35.210,1,0
2015-03-16 13:20:32.506,63,1426537232.039479,37.78795915728664,-122.3968001967257,12.53543,-1,-1,10,65,-9999,1426537232.496011,32.57645416259766,-20.38583374023438,-2.16339111328125,297.1818542480469,283.414794921875,10,453430.16166775,0.3838653564453125,-1.049148559570312,-0.0667877197265625,453430.1522539167,-0.4108131044851161,0.7086181639060278,0.08926702921058401,453430.1522539167,-1.071186030677072,1.170052603180546,1.199395214947494,-0.4211553633213043,0.7214952707290649,0.1205907687544823,0.04637147486209869,-0.1136819422245026,0.06352807581424713,XTrueNorthZVertical,-0.6372921912508778,-0.1518890070485912,0.08320970022797104,-0.7509091258310324,0.33416748046875,-0.9318197965621948,-0.1415767818689346,30.59048080444336,-21.19754791259766,-1.606511116027832,2,10.3.35.51,10.71.35.210,1,0
2015-03-16 13:20:32.514,64,1426537232.039479,37.78795915728664,-122.3968001967257,12.53543,-1,-1,10,65,-9999,1426537232.496011,32.57645416259766,-20.38583374023438,-2.16339111328125,297.1818542480469,283.414794921875,10,453430.2107310834,0.4615478515625,-1.22601318359375,-0.1558685302734375,453430.204033625,-0.6033354165319254,0.836408350916826,-0.1521392025412837,453430.1522539167,-1.071186030677072,1.170052603180546,1.199395214947494,-0.4211553633213043,0.7214952707290649,0.1205907687544823,0.04637147486209869,-0.1136819422245026,0.06352807581424713,XTrueNorthZVertical,-0.6372921912508778,-0.1518890070485912,0.08320970022797104,-0.7509091258310324,0.33416748046875,-0.9318197965621948,-0.1415767818689346,30.59048080444336,-21.19754791259766,-1.606511116027832,2,10.3.35.51,10.71.35.210,1,0
2015-03-16 13:20:32.577,65,1426537232.039479,37.78795915728664,-122.3968001967257,12.53543,-1,-1,10,65,-9999,1426537232.548877,32.40593338012695,-20.41983032226562,-1.43115234375,294.8809509277344,281.1138916015625,10,453430.2596639167,0.5142822265625,-1.058013916015625,-0.085174560546875,453430.2558132917,-0.4454395249783263,0.4890429288739757,-0.5008306124908845,453430.204033625,-1.007589608266034,1.150100196357753,1.187132028364893,-0.6136776208877563,0.8492852449417114,-0.1208157762885094,0.07570704817771912,-0.3196184933185577,0.03084658458828926,XTrueNorthZVertical,-0.6286949821075735,-0.1682470178919337,0.06940897185900896,-0.7560541859077369,0.3416818678379059,-0.9272992610931396,-0.1528711169958115,30.50075912475586,-21.37458229064941,-0.7248504161834717,2,10.3.35.51,10.71.35.210,1,0
2015-03-16 13:20:32.612,66,1426537232.039479,37.78795915728664,-122.3968001967257,12.53543,-1,-1,10,65,-9999,1426537232.599945,33.22441864013672,-19.63815307617188,-0.5990715026855469,293.5074462890625,279.7403869628906,10,453430.308796,0.479248046875,-0.999176025390625,-0.1226654052734375,453430.307592875,-0.2759034889322091,0.267834909777596,-0.6301036475966387,453430.2558132917,-0.9562057925848699,1.139866587683578,1.165677496933167,-0.4557816088199615,0.5019197463989258,-0.4695074558258057,0.1569492965936661,-0.1110347658395767,0.04064051061868668,XTrueNorthZVertical,-0.6187079777961848,-0.1867718460918553,0.05973792889714857,-0.7607549359220626,0.3580958843231201,-0.9190555810928345,-0.1646334379911423,30.64074325561523,-21.1854362487793,-0.1284270286560059,2,10.3.35.51,10.71.35.210,1,0
2015-03-16 13:20:32.706,67,1426537232.039479,37.78795915728664,-122.3968001967257,12.53543,-1,-1,10,65,-9999,1426537232.656312,34.02585601806641,-18.90744018554688,0.04995346069335938,292.9331970214844,279.1661376953125,10,453430.3577310417,0.38946533203125,-0.986236572265625,-0.16363525390625,453430.3593724584,-0.0270590482557501,-0.07851398367717106,-0.8603323259373349,453430.307592875,-0.9385919211859518,1.144309300537206,1.132289747829095,-0.2862454652786255,0.2807116210460663,-0.5987808108329773,0.06737856566905975,-0.1112148016691208,0.07795460522174835,XTrueNorthZVertical,-0.6088686200914125,-0.2036131549922719,0.06188161737914984,-0.764193253681632,0.3865551352500916,-0.905386745929718,-0.1756413727998734,30.90511703491211,-20.79813003540039,0.07682609558105469,2,10.3.35.51,10.71.35.210,1,0
2015-03-16 13:20:32.710,68,1426537232.039479,37.78795915728664,-122.3968001967257,12.53543,-1,-1,10,65,-9999,1426537232.656312,34.02585601806641,-18.90744018554688,0.04995346069335938,292.9331970214844,279.1661376953125,10,453430.4067595833,0.766143798828125,-1.116668701171875,-0.0263671875,453430.3593724584,-0.0270590482557501,-0.07851398367717106,-0.8603323259373349,453430.3593724584,-0.9556295426855441,1.159874009469819,1.096105269499619,-0.03740091994404793,-0.06563741713762283,-0.8290098309516907,-0.02954903803765774,-0.09680259972810745,0.01894111931324005,XTrueNorthZVertical,-0.6020982719171302,-0.2149173890729714,0.07478741660223671,-0.7653071318799617,0.4190143644809723,-0.8894339799880981,-0.1825763732194901,31.83008575439453,-19.35229682922363,0.1689958572387695,2,10.3.35.51,10.71.35.210,1,0
2015-03-16 13:20:32.776,69,1426537232.039479,37.78795915728664,-122.3968001967257,12.53543,-1,-1,10,65,-9999,1426537232.730613,35.23653411865234,-17.32705688476562,-0.3328018188476562,296.2900390625,282.5229797363281,10,453430.4558830833,0.809295654296875,-1.061172485351562,-0.1006317138671875,453430.4629320001,0.1017729673734871,-0.6379131011771871,-0.6482821188814106,453430.411152125,-0.9693308221791497,1.200133310749841,1.053626735858681,-0.4857482314109802,0.9611420631408691,-0.6841006278991699,0.3052994608879089,-0.2474466264247894,0.1527289599180222,XTrueNorthZVertical,-0.5945824584517425,-0.2385867245790698,0.08116068434069861,-0.7635188244132359,0.4608443379402161,-0.869222104549408,-0.1790961474180222,32.56121826171875,-18.09211349487305,0.3702306747436523,2,10.3.35.51,10.71.35.210,1,0
2015-03-16 13:20:32.808,70,1426537232.039479,37.78795915728664,-122.3968001967257,12.53543,-1,-1,10,65,-9999,1426537232.781843,35.79924011230469,-16.49441528320312,-0.4160041809082031,298.2980346679688,284.5309753417969,10,453430.5048305417,0.6276397705078125,-0.80511474609375,-0.051849365234375,453430.4629320001,0.1017729673734871,-0.6379131011771871,-0.6482821188814106,453430.4629320001,-0.9787023623566521,1.21471195617823,1.018188798521047,0.09143128991127014,-0.6250367760658264,-0.6169602274894714,0.3173152804374695,-0.2100137770175934,0.08235498517751694,XTrueNorthZVertical,-0.5874912296830965,-0.2517155266047352,0.09153375543836419,-0.763619602476784,0.4919803738594055,-0.8511586785316467,-0.1829866915941238,32.92353057861328,-17.39799499511719,1.022392272949219,2,10.3.35.51,10.71.35.210,1,0
2015-03-16 13:20:32.876,71,1426537232.039479,37.78795915728664,-122.3968001967257,12.53543,-1,-1,10,65,-9999,1426537232.833692,36.14027786254883,-15.54275512695312,-0.9818191528320312,300.3117370605469,286.544677734375,10,453430.5538896667,0.6105804443359375,-0.8901824951171875,-0.139007568359375,453430.5147114167,0.1442344077937105,-0.8873104140959466,0.01602477291122479,453430.5147114167,-1.008016832939908,1.181822236566699,1.014845441837619,0.1338928490877151,-0.874434232711792,0.0473463162779808,0.03070027194917202,0.06109943240880966,0.1524450331926346,XTrueNorthZVertical,-0.5885053896543603,-0.2314938452390731,0.1134612875985478,-0.7662887961732089,0.4883274435997009,-0.8493989706039429,-0.2001440078020096,33.56753921508789,-16.14958190917969,-0.3250384330749512,2,10.3.35.51,10.71.35.210,1,0
2015-03-16 13:20:32.909,72,1426537232.039479,37.78795915728664,-122.3968001967257,12.53543,-1,-1,10,65,-9999,1426537232.886021,36.44721221923828,-14.62509155273438,-1.847187042236328,301.9314270019531,288.1643676757812,10,453430.602911625,0.463623046875,-0.7769775390625,-0.0745086669921875,453430.5664910834,-0.02115908117678856,0.2230956676770279,-0.2306649041272511,453430.5664910834,-1.012637604727277,1.184182560407681,1.006104913877027,-0.03150053694844246,0.2359717190265656,-0.1993436813354492,0.1676283478736877,-0.05971093848347664,0.04678375273942947,XTrueNorthZVertical,-0.5869716229751488,-0.233608748557015,0.1172538894051851,-0.766252418461965,0.4956559538841248,-0.8447538018226624,-0.2017825394868851,33.61271667480469,-16.02542877197266,-1.032212257385254,2,10.3.35.51,10.71.35.210,1,0
2015-03-16 13:20:32.975,73,1426537232.039479,37.78795915728664,-122.3968001967257,12.53543,-1,-1,10,65,-9999,1426537232.937558,36.37900543212891,-14.38714599609375,-1.647487640380859,303.2184143066406,289.4513549804688,10,453430.6519505417,0.5000762939453125,-0.5999603271484375,0.238800048828125,453430.6182710417,0.03145885669267001,0.2835126727987834,0.06373210804668625,453430.6182710417,-1.015687696852316,1.190894422512723,1.002197572375309,0.02111748978495598,0.2963886260986328,0.0950530543923378,-0.1002956926822662,0.03653448075056076,0.1913576871156693,XTrueNorthZVertical,-0.5867388664854504,-0.2364331541873788,0.1176684689426729,-0.7655004732415075,0.5000607371330261,-0.8426563143730164,-0.1996737271547318,33.71846008300781,-15.81365776062012,-0.829500675201416,2,10.3.35.51,10.71.35.210,1,0
2015-03-16 13:20:33.007,74,1426537232.039479,37.78795915728664,-122.3968001967257,12.53543,-1,-1,10,65,-9999,1426537232.989352,36.32785034179688,-14.67605590820312,-0.7987632751464844,302.8063049316406,289.0392456054688,10,453430.7009750833,0.698577880859375,-0.9429473876953125,-0.19964599609375,453430.6700504167,0.8090662086372005,0.1322994513685204,0.8661332234237454,453430.6700504167,-1.032477409988266,1.235133119950421,1.034514893249337,0.798724889755249,0.1451752632856369,0.8974538445472717,0.05643584951758385,0.3167221248149872,0.4531991183757782,XTrueNorthZVertical,-0.5990558839373411,-0.2387067408582516,0.1007646200415827,-0.7576262984457882,0.4824282824993134,-0.8596146106719971,-0.1683022826910019,33.53385543823242,-16.22122573852539,0.2164087295532227,2,10.3.35.51,10.71.35.210,1,0
2015-03-16 13:20:33.077,75,1426537232.039479,37.78795915728664,-122.3968001967257,12.53543,-1,-1,10,65,-9999,1426537233.041877,35.85040283203125,-15.69564819335938,-1.464431762695312,303.1040954589844,289.3370361328125,10,453430.7501244583,0.8553924560546875,-1.494796752929688,-0.432159423828125,453430.7218303334,0.9009244935884316,-2.979683111957336,1.367760121080564,453430.7218303334,-1.057774823019956,1.181943932387487,1.108829970458524,0.890583336353302,-2.96680760383606,1.399080395698547,0.8694714903831482,-0.4478550255298615,-0.1002153009176254,XTrueNorthZVertical,-0.6164518243579479,-0.1884065246806294,0.1029924333415518,-0.7575504374877087,0.4124346375465393,-0.8951777815818787,-0.1689802557229996,32.7370719909668,-17.775634765625,0.07372903823852539,2,10.3.35.51,10.71.35.210,1,0
2015-03-16 13:20:33.109,76,1426537232.039479,37.78795915728664,-122.3968001967257,12.53543,-1,-1,10,65,-9999,1426537233.09234,35.67987823486328,-16.61331176757812,-4.226943969726562,303.9748840332031,290.2078247070312,10,453430.7990403334,-0.1855316162109375,-0.8082733154296875,0.229400634765625,453430.7736098334,0.05873681679002462,-1.957773340575476,0.09213019369852819,453430.7736098334,-1.049767785186426,1.043180890792774,1.111514741525424,0.04839577153325081,-1.944897770881653,0.1234501674771309,-1.030053019523621,0.1935208588838577,0.4431325495243073,XTrueNorthZVertical,-0.6079608923638391,-0.1370670356134247,0.141602393933339,-0.7691195746414,0.3830193281173706,-0.8963711857795715,-0.2231923639774323,31.94071578979492,-19.05720138549805,-2.075565576553345,2,10.3.35.51,10.71.35.210,1,0
2015-03-16 13:20:33.161,77,1426537232.039479,37.78795915728664,-122.3968001967257,12.53543,-1,-1,10,65,-9999,1426537233.144624,35.28768920898438,-17.64984130859375,-5.774612426757812,305.3567199707031,291.5896606445312,10,453430.8481879167,0.553009033203125,-1.12579345703125,-0.337158203125,453430.8253895,0.6590111959650129,1.263801763716558,-0.2018905138133809,453430.8253895,-1.101238506102758,1.112080431009077,1.132132356749249,0.6486702561378479,1.276677250862122,-0.1705708205699921,0.3356997966766357,-0.02984548173844814,0.1300249099731445,XTrueNorthZVertical,-0.6212850887506687,-0.141315851846927,0.1338331535550389,-0.7590278864984297,0.3808224201202393,-0.9053199291229248,-0.1880693435668945,31.47769927978516,-19.29244995117188,-4.964892864227295,2,10.3.35.51,10.71.35.210,1,0
2015-03-16 13:20:33.205,78,1426537232.039479,37.78795915728664,-122.3968001967257,12.53543,-1,-1,10,65,-9999,1426537233.144624,35.28768920898438,-17.64984130859375,-5.774612426757812,305.3567199707031,291.5896606445312,10,453430.8971033334,0.2330169677734375,-0.7832794189453125,0.049835205078125,453430.8771692084,0.2999683451743831,-0.4506907460157446,-0.01607164454641019,453430.8771692084,-1.140565263469884,1.149909154205006,1.142368686143256,0.2896274924278259,-0.4378154575824738,0.01524773798882961,-0.1062196865677834,-0.02197475172579288,-0.02568242326378822,XTrueNorthZVertical,-0.628882419506067,-0.1401372852516273,0.1336811938348459,-0.7529925358815305,0.3791841566562653,-0.9096201062202454,-0.1697368919849396,31.67244338989258,-19.27684593200684,-3.599159717559814,2,10.3.35.51,10.71.35.210,1,0
2015-03-16 13:20:33.260,79,1426537232.039479,37.78795915728664,-122.3968001967257,12.53543,-1,-1,10,65,-9999,1426537233.204046,34.75908279418945,-18.00668334960938,-5.558273315429688,307.1400756835938,293.3730163574219,10,453430.94625775,0.5162506103515625,-0.9879608154296875,0.0302734375,453430.9289490417,0.4109611762417245,1.067980061395249,-0.09619870489584224,453430.9289490417,-1.186000726354857,1.215509262553704,1.144033711325324,0.4007223844528198,1.08087420463562,-0.06479272246360779,0.0353107675909996,-0.04696483537554741,0.2570709586143494,XTrueNorthZVertical,-0.6368402960727294,-0.1498012186112678,0.129409496337559,-0.7451491068357696,0.3880748450756073,-0.9103105664253235,-0.1439880579710007,31.56105804443359,-19.42889022827148,-3.756620407104492,2,10.3.35.51,10.71.35.210,1,0
2015-03-16 13:20:33.307,80,1426537232.039479,37.78795915728664,-122.3968001967257,12.53543,-1,-1,10,65,-9999,1426537233.272819,34.87844085693359,-17.95571899414062,-4.043880462646484,305.0469360351562,291.2798767089844,10,453430.99516625,0.3687744140625,-0.78826904296875,-0.08746337890625,453430.9807285,0.4352292316750715,-0.8385210366095859,0.381233906889824,453430.9289490417,-1.186000726354857,1.215509262553704,1.144033711325324,0.4007223844528198,1.08087420463562,-0.06479272246360779,0.0353107675909996,-0.04696483537554741,0.2570709586143494,XTrueNorthZVertical,-0.6368402960727294,-0.1498012186112678,0.129409496337559,-0.7451491068357696,0.3880748450756073,-0.9103105664253235,-0.1439880579710007,31.56105804443359,-19.42889022827148,-3.756620407104492,2,10.3.35.51,10.71.35.210,1,0
2015-03-16 13:20:33.357,81,1426537232.039479,37.78795915728664,-122.3968001967257,12.53543,-1,-1,10,65,-9999,1426537233.326463,34.84433746337891,-17.95571899414062,-3.711048126220703,305.4242553710938,291.6571960449219,10,453431.0442489167,0.138641357421875,-1.287002563476562,0.124725341796875,453431.0325082917,0.4517616030900655,-0.733932575331667,0.3479835417318577,453431.0325082917,-1.264656089191107,1.259706187505443,1.182434101249942,0.4415229856967926,-0.7210386395454407,0.3793889284133911,-0.2888263761997223,-0.1944341212511063,0.07248403131961823,XTrueNorthZVertical,-0.6523714115129323,-0.1282819842772616,0.1317163088601659,-0.7352591821192543,0.3604969084262848,-0.9255304932594299,-0.1159105449914932,34.62625503540039,-18.52780532836914,-4.464962005615234,2,10.3.35.51,10.71.35.210,1,0
2015-03-16 13:20:33.406,82,1426537232.039479,37.78795915728664,-122.3968001967257,12.53543,-1,-1,10,65,-9999,1426537233.378323,34.41804504394531,-18.14263916015625,-3.993953704833984,306.6380920410156,292.8710327148438,10,453431.0932208333,0.320709228515625,-0.6029205322265625,0.1695709228515625,453431.0842879167,0.179339664650917,0.3906351318539127,-0.04932627076212063,453431.0325082917,-1.264656089191107,1.259706187505443,1.182434101249942,0.4415229856967926,-0.7210386395454407,0.3793889284133911,-0.2888263761997223,-0.1944341212511063,0.07248403131961823,XTrueNorthZVertical,-0.6523714115129323,-0.1282819842772616,0.1317163088601659,-0.7352591821192543,0.3604969084262848,-0.9255304932594299,-0.1159105449914932,34.62625503540039,-18.52780532836914,-4.464962005615234,2,10.3.35.51,10.71.35.210,1,0
2015-03-16 13:20:33.456,83,1426537232.039479,37.78795915728664,-122.3968001967257,12.53543,-1,-1,10,65,-9999,1426537233.430155,34.40099334716797,-18.43154907226562,-3.910743713378906,307.9432678222656,294.1762084960938,10,453431.142361,0.3009033203125,-1.100357055664062,0.0323486328125,453431.136067625,0.243670983942871,-0.1154389785072287,-0.3485846171898886,453431.0842879167,-1.283726046319783,1.27137865648508,1.199608260815894,0.1691011637449265,0.4035288691520691,-0.01792122609913349,-0.01594197563827038,0.2947510778903961,0.2727921009063721,XTrueNorthZVertical,-0.6572330375832837,-0.1206220632444517,0.1292029940949791,-0.732667465801849,0.346584677696228,-0.9318970441818237,-0.1069901064038277,34.21221160888672,-19.14726829528809,-5.009961605072021,2,10.3.35.51,10.71.35.210,1,0
2015-03-16 13:20:33.505,84,1426537232.039479,37.78795915728664,-122.3968001967257,12.53543,-1,-1,10,65,-9999,1426537233.482728,34.57151031494141,-18.49954223632812,-3.577907562255859,309.0990295410156,295.3319702148438,10,453431.191278875,0.3545684814453125,-0.944610595703125,0.1638336181640625,453431.18784725,0.05303765205725505,-0.2923245402136377,-0.5578387714173386,453431.136067625,-1.322449954344246,1.322692419175473,1.188069411741338,0.2334325909614563,-0.1025453582406044,-0.3171798884868622,0.04501194134354591,-0.1163871511816978,0.1385363340377808,XTrueNorthZVertical,-0.661157095474405,-0.1304520623361227,0.1302837434606618,-0.7272411413595127,0.3620162606239319,-0.9276497364044189,-0.09170711040496826,34.28022766113281,-19.22237396240234,-4.190396308898926,2,10.3.35.51,10.71.35.210,1,0
2015-03-16 13:20:33.554,85,1426537232.039479,37.78795915728664,-122.3968001967257,12.53543,-1,-1,10,65,-9999,1426537233.53486,34.79318237304688,-18.07470703125,-3.727680206298828,310.4308166503906,296.6637573242188,10,453431.2404148334,0.5505828857421875,-0.8029632568359375,0.1208038330078125,453431.2396269167,-0.08086582123582003,-0.07382708647474061,-0.4297843988264046,453431.18784725,-1.349742766824802,1.324869774924538,1.173105151124178,0.04279934614896774,-0.2794310450553894,-0.5264343023300171,-0.09811109304428101,0.02338280715048313,0.2340889126062393,XTrueNorthZVertical,-0.6608014051352932,-0.1272696202058603,0.1445104731037774,-0.7254382446956529,0.375637948513031,-0.9219576120376587,-0.09428789466619492,34.43012237548828,-18.94021606445312,-4.245945453643799,2,10.3.35.51,10.71.35.210,1,0
2015-03-16 13:20:33.604,86,1426537232.039479,37.78795915728664,-122.3968001967257,12.53543,-1,-1,10,65,-9999,1426537233.584991,34.98075103759766,-17.58193969726562,-4.077156066894531,313.20263671875,299.4355773925781,10,453431.2893210417,0.360595703125,-1.026443481445312,0.0177154541015625,453431.2396269167,-0.08086582123582003,-0.07382708647474061,-0.4297843988264046,453431.2396269167,-1.359010900243778,1.334124956048175,1.148913842136556,-0.09110402315855026,-0.06093371659517288,-0.3983802497386932,0.1550519913434982,0.08070045709609985,0.2467054575681686,XTrueNorthZVertical,-0.6584592429571515,-0.1357446048620398,0.1529511300674835,-0.7243001838921019,0.3980638682842255,-0.9123197197914124,-0.09600965678691864,34.69424438476562,-18.30693435668945,-4.833075046539307,2,10.3.35.51,10.71.35.210,1,0
2015-03-16 13:20:33.651,87,1426537232.039479,37.78795915728664,-122.3968001967257,12.53543,-1,-1,10,65,-9999,1426537233.637216,35.06601715087891,-16.54534912109375,-5.158863067626953,315.5085754394531,301.7415161132812,10,453431.3383651667,0.3205718994140625,-1.032745361328125,-0.0289306640625,453431.343186375,-0.1270386429511778,-0.3399666279023922,-0.2774209581213362,453431.2914065417,-1.348987835703606,1.289274253160893,1.136124044124831,-0.1297397166490555,-0.9475387930870056,-0.170429989695549,-0.04393976181745529,-0.1194353848695755,0.1347083151340485,XTrueNorthZVertical,-0.6521962418069368,-0.1270575916671996,0.1682820424269612,-0.7281329286120486,0.4045354723930359,-0.9070081114768982,-0.116992861032486,35.08722686767578,-17.29745864868164,-5.646034240722656,2,10.3.35.51,10.71.35.210,1,0
2015-03-16 13:20:33.704,88,1426537232.039479,37.78795915728664,-122.3968001967257,12.53543,-1,-1,10,65,-9999,1426537233.688905,35.23653411865234,-16.17147827148438,-6.024227142333984,317.0042724609375,303.2372131347656,10,453431.3873854167,0.3287506103515625,-0.944061279296875,-0.033203125,453431.343186375,-0.1270386429511778,-0.3399666279023922,-0.2774209581213362,453431.343186375,-1.34092484964128,1.255461545413005,1.122504832575686,-0.1372766345739365,-0.3270735144615173,-0.2460175007581711,-0.09148340672254562,-0.131556436419487,0.1054899394512177,XTrueNorthZVertical,-0.6464720503549174,-0.1219163066116371,0.1808183210801028,-0.7311053371531141,0.4120553135871887,-0.9011889100074768,-0.1344206035137177,35.02470397949219,-17.07623481750488,-6.623078346252441,2,10.3.35.51,10.71.35.210,1,0
2015-03-16 13:20:33.750,89,1426537232.039479,37.78795915728664,-122.3968001967257,12.53543,-1,-1,10,65,-9999,1426537233.740822,35.30474090576172,-16.17147827148438,-6.4569091796875,317.6181030273438,303.8510437011719,10,453431.43653825,0.5829315185546875,-1.063507080078125,-0.1530303955078125,453431.3949659584,-0.2598598075772448,-0.1025538062050983,-0.1975514254493148,453431.3949659584,-1.323653449060709,1.235665618160372,1.10898963013885,-0.2700977027416229,-0.08966082334518433,-0.1661482304334641,-0.09202758222818375,-0.04881232231855392,0.1133403182029724,XTrueNorthZVertical,-0.6412233421924772,-0.1247433563260926,0.1852893832975786,-0.7341250178798725,0.4207781851291656,-0.8952489495277405,-0.1465434432029724,35.08968353271484,-16.6350212097168,-7.360909461975098,2,10.3.35.51,10.71.35.210,1,0
2015-03-16 13:20:33.809,90,1426537232.039479,37.78795915728664,-122.3968001967257,12.53543,-1,-1,10,65,-9999,1426537233.792056,35.40705108642578,-15.76364135742188,-6.689895629882812,317.2025451660156,303.4354858398438,10,453431.4854324583,0.437347412109375,-0.72662353515625,0.0377044677734375,453431.4467457084,-0.3029265845132431,0.1592485110712502,0.2913165337410427,453431.4467457084,-1.293060994877042,1.207853496104604,1.11160917822078,-0.3131643533706665,0.17214135825634,0.322719395160675,0.128301814198494,-0.05631520599126816,0.02997449040412903,XTrueNorthZVertical,-0.637253488716759,-0.1234121563998597,0.1820641674005126,-0.7386000586783915,0.4143465161323547,-0.8964130878448486,-0.157354861497879,35.15327072143555,-16.30357933044434,-7.786786556243896,2,10.3.35.51,10.71.35.210,1,0
2015-03-16 13:20:33.847,91,1426537232.039479,37.78795915728664,-122.3968001967257,12.53543,-1,-1,10,65,-9999,1426537233.843678,35.35589599609375,-15.67868041992188,-6.906238555908203,317.4143676757812,303.6473083496094,10,453431.5344782917,0.6917266845703125,-0.659576416015625,-0.0833282470703125,453431.4985253334,-0.1442442614897438,0.6749590035207343,-0.1537802424049905,453431.4985253334,-1.266951773555719,1.203870249998208,1.110758935708047,-0.1544819325208664,0.6878517270088196,-0.1223777011036873,0.005570448935031891,0.1248414367437363,0.1223358958959579,XTrueNorthZVertical,-0.6350787276258918,-0.1305231734704849,0.1739465360534835,-0.7412025974449735,0.4144277274608612,-0.89603590965271,-0.1592774242162704,35.04924011230469,-16.53149032592773,-7.775201797485352,2,10.3.35.51,10.71.35.210,1,0
2015-03-16 13:20:33.912,92,1426537232.039479,37.78795915728664,-122.3968001967257,12.53543,-1,-1,10,65,-9999,1426537233.895324,35.81629180908203,-15.04995727539062,-6.889602661132812,319.7550354003906,305.9879760742188,10,453431.5835085834,0.4595184326171875,-0.7461395263671875,-0.2705841064453125,453431.550305,0.05288824872010161,-0.07752035827446249,-0.6562252631486809,453431.550305,-1.2797323338324,1.228014172506909,1.093298958473957,0.04265065863728523,-0.0646277591586113,-0.6248230338096619,0.3845910727977753,0.2980599105358124,0.1202969625592232,XTrueNorthZVertical,-0.6347061105566016,-0.1411292225052939,0.1766581973600891,-0.7389333894489784,0.4328222572803497,-0.8881478309631348,-0.1544613987207413,35.25420379638672,-16.40007019042969,-7.09730863571167,2,10.3.35.51,10.71.35.210,1,0
2015-03-16 13:20:33.946,93,1426537232.039479,37.78795915728664,-122.3968001967257,12.53543,-1,-1,10,65,-9999,1426537233.895324,35.81629180908203,-15.04995727539062,-6.889602661132812,319.7550354003906,305.9879760742188,10,453431.6326024167,0.4376373291015625,-1.1190185546875,-0.0399169921875,453431.6020846667,-0.01043186830594938,-0.3152474329803857,-0.138808483388783,453431.6020846667,-1.278179356944219,1.210063435060287,1.069266885214488,-0.02066935412585735,-0.3023549616336823,-0.1074065566062927,-0.1139172166585922,0.08035475015640259,-0.06578203290700912,XTrueNorthZVertical,-0.6282874233931611,-0.1428604747559735,0.1895102190863527,-0.7408992186392375,0.4498242139816284,-0.8768482804298401,-0.1696915924549103,35.79397583007812,-15.06460285186768,-7.351341247558594,2,10.3.35.51,10.71.35.210,1,0
2015-03-16 13:20:34.012,94,1426537232.039479,37.78795915728664,-122.3968001967257,12.53543,-1,-1,10,65,-9999,1426537234.001751,35.86745071411133,-14.25128173828125,-6.806396484375,320.7862548828125,307.0191955566406,10,453431.6815669584,0.5103302001953125,-1.072174072265625,-0.2907562255859375,453431.6538645833,0.3004887268513846,0.633976416453832,-0.3358019765897263,453431.6538645833,-1.308650842226802,1.24520816376035,1.065035788428009,0.2902513444423676,0.6468687057495117,-0.3044003844261169,0.08577980846166611,-0.2195235639810562,0.08227357268333435,XTrueNorthZVertical,-0.6330294207639795,-0.1476161535107676,0.191042858581585,-0.7355173871600807,0.4590199887752533,-0.87480628490448,-0.1549664437770844,35.77148818969727,-14.95734786987305,-7.672763824462891,2,10.3.35.51,10.71.35.210,1,0
2015-03-16 13:20:34.044,95,1426537232.039479,37.78795915728664,-122.3968001967257,12.53543,-1,-1,10,65,-9999,1426537234.001751,35.86745071411133,-14.25128173828125,-6.806396484375,320.7862548828125,307.0191955566406,10,453431.7306811667,0.546356201171875,-0.8076324462890625,-0.0428466796875,453431.7056440834,0.005585181438114178,-0.4850604377798712,0.2532069648581178,453431.7056440834,-1.323336202342889,1.270910273288306,1.07014503907992,-0.004652088973671198,-0.4721682369709015,0.2846082448959351,-0.01484917942434549,-0.3109622895717621,-0.210361048579216,XTrueNorthZVertical,-0.6374906556531883,-0.1506897156500751,0.1866009052151112,-0.7321737175595542,0.4585747718811035,-0.8772701025009155,-0.1417965441942215,36.05969619750977,-14.66658973693848,-6.839770317077637,2,10.3.35.51,10.71.35.210,1,0
2015-03-16 13:20:34.105,96,1426537232.039479,37.78795915728664,-122.3968001967257,12.53543,-1,-1,10,65,-9999,1426537234.077395,35.95270919799805,-13.75845336914062,-6.390357971191406,320.3121643066406,306.5451049804688,10,453431.77963225,0.7397308349609375,-0.1326141357421875,-0.1369476318359375,453431.757423875,0.3743648154901826,0.1026366305149998,-1.354909836188713,453431.757423875,-1.346747509568742,1.264348456736421,1.0599009435485,0.3641276359558105,0.1155287101864815,-1.323508739471436,0.2904286086559296,0.4961168766021729,0.2346947342157364,XTrueNorthZVertical,-0.6367424525305911,-0.1442430103737415,0.2006013116308049,-0.7304191220358064,0.4661784470081329,-0.8723070621490479,-0.1475060135126114,35.82483673095703,-14.96983528137207,-7.394466876983643,2,10.3.35.51,10.71.35.210,1,0
2015-03-16 13:20:34.142,97,1426537232.039479,37.78795915728664,-122.3968001967257,12.53543,-1,-1,10,65,-9999,1426537234.129678,37.04402160644531,-11.9571533203125,-7.056018829345703,327.5792846679688,313.8122253417969,10,453431.828776,0.29718017578125,-0.339935302734375,0.446044921875,453431.809203625,-0.1083824005668458,-1.071921806124675,-1.222865781968731,453431.809203625,-1.404200005965705,1.324133155686088,0.9548354817707716,-0.1186194643378258,-1.059029936790466,-1.191465139389038,-1.381850481033325,0.2846330106258392,-0.1660616844892502,XTrueNorthZVertical,-0.6293196038546265,-0.1828202034236773,0.2367577029758542,-0.7172721773956433,0.5602562427520752,-0.8162186741828918,-0.1410672217607498,36.48648452758789,-13.44060039520264,-7.09080982208252,2,10.3.35.51,10.71.35.210,1,0
2015-03-16 13:20:34.209,98,1426537232.039479,37.78795915728664,-122.3968001967257,12.53543,-1,-1,10,65,-9999,1426537234.180803,37.77725219726562,-8.337615966796875,-7.205799102783203,329.2741088867188,315.5070495605469,10,453431.8776942917,0.37860107421875,-0.8162841796875,-0.118682861328125,453431.8609833334,-0.6482751946625764,0.9836614518061413,-3.915922985812981,453431.8609833334,-1.426290390294613,1.352227289335789,0.86999299590403,-0.6585121750831604,0.9965533018112183,-3.884522438049316,0.1280778646469116,-0.1177404001355171,-0.2694351971149445,XTrueNorthZVertical,-0.6198607018512178,-0.2141548955110106,0.26333187535952,-0.7075073790489611,0.6294904947280884,-0.764324426651001,-0.139820784330368,37.38368988037109,-10.31915378570557,-7.626786708831787,2,10.3.35.51,10.71.35.210,1,0
2015-03-16 13:20:34.240,99,1426537232.039479,37.78795915728664,-122.3968001967257,12.53543,-1,-1,10,65,-9999,1426537234.234084,37.93071746826172,-3.086700439453125,-6.889614105224609,339.3245849609375,325.5575256347656,10,453431.9268469167,0.6089935302734375,-0.429351806640625,0.0792236328125,453431.9127627917,0.005123122988985431,-0.3492251074320527,-3.189887215745617,453431.9127627917,-1.461855401126266,1.372128073483926,0.7185033607876401,-0.005016340874135494,-0.3363222479820251,-3.158394575119019,-0.2575310468673706,0.1009925156831741,0.2663565576076508,XTrueNorthZVertical,-0.5984401245007039,-0.2599662320437292,0.3177193171016722,-0.6879981018032848,0.7379845380783081,-0.6582587361335754,-0.1485739499330521,38.86085891723633,-2.859437942504883,-6.621956825256348,2,10.3.35.51,10.71.35.210,1,0
2015-03-16 13:20:34.317,100,1426537232.039479,37.78795915728664,-122.3968001967257,12.53543,-1,-1,10,65,-9999,1426537234.284502,37.31685638427734,4.32232666015625,-6.922897338867188,350.0875549316406,336.3204956054688,10,453431.975755875,1.001510620117188,-0.91253662109375,0.0105743408203125,453431.9645427084,0.1974094789632136,0.295664144220597,-3.622403751534334,453431.9127627917,-1.461855401126266,1.372128073483926,0.7185033607876401,-0.005016340874135494,-0.3363222479820251,-3.158394575119019,-0.2575310468673706,0.1009925156831741,0.2663565576076508,XTrueNorthZVertical,-0.5984401245007039,-0.2599662320437292,0.3177193171016722,-0.6879981018032848,0.7379845380783081,-0.6582587361335754,-0.1485739499330521,38.86085891723633,-2.859437942504883,-6.621956825256348,2,10.3.35.51,10.71.35.210,1,0
2015-03-16 13:20:34.337,101,1426537232.039479,37.78795915728664,-122.3968001967257,12.53543,-1,-1,10,65,-9999,1426537234.284502,37.31685638427734,4.32232666015625,-6.922897338867188,350.0875549316406,336.3204956054688,10,453432.0247922917,1.137466430664062,-0.13427734375,0.262725830078125,453432.0163222917,-0.09990502618490552,-0.2778313512453174,-3.515651471870726,453432.0163222917,-1.540365628241989,1.400770102315858,0.3729248345710685,-0.1100442782044411,-0.2649287581443787,-3.484159469604492,0.03165628015995026,0.2579412460327148,0.251816064119339,XTrueNorthZVertical,-0.5427146429309063,-0.355909994706255,0.4373710903872046,-0.6224912836899724,0.9178371429443359,-0.3643407821655273,-0.157577782869339,38.08889007568359,7.398690223693848,-7.529208183288574,2,10.3.35.51,10.71.35.210,1,0
2015-03-16 13:20:34.377,102,1426537232.039479,37.78795915728664,-122.3968001967257,12.53543,-1,-1,10,65,-9999,1426537234.338282,35.57756805419922,11.49349975585938,-7.355575561523438,358.4456481933594,344.6785888671875,10,453432.0738097917,0.9660797119140625,-0.2925567626953125,-0.2023468017578125,453432.0163222917,-0.09990502618490552,-0.2778313512453174,-3.515651471870726,453432.0163222917,-1.540365628241989,1.400770102315858,0.3729248345710685,-0.1100442782044411,-0.2649287581443787,-3.484159469604492,0.03165628015995026,0.2579412460327148,0.251816064119339,XTrueNorthZVertical,-0.5427146429309063,-0.355909994706255,0.4373710903872046,-0.6224912836899724,0.9178371429443359,-0.3643407821655273,-0.157577782869339,38.08889007568359,7.398690223693848,-7.529208183288574,2,10.3.35.51,10.71.35.210,1,0
2015-03-16 13:20:34.436,103,1426537232.039479,37.78795915728664,-122.3968001967257,12.53543,-1,-1,10,65,-9999,1426537234.413862,31.55334091186523,20.87374877929688,-7.521987915039062,13.92848491668701,0.16143798828125,10,453432.1228679167,1.376129150390625,0.055328369140625,0.0896453857421875,453432.1198817917,0.05951339456389173,-0.1595342682562157,-2.715275157870454,453432.0681019167,-1.588610481117819,1.421621687139696,0.2132266454734869,0.5661459565162659,0.4766437411308289,-2.918176651000977,0.09455164521932602,-0.03704265877604485,-0.0319136269390583,XTrueNorthZVertical,-0.519311419589313,-0.3970989331585202,0.4888972787794243,-0.5775876682638584,0.9664987921714783,-0.2116145640611649,-0.1452561765909195,35.11145782470703,16.51814270019531,-7.518603324890137,2,10.3.35.51,10.71.35.210,1,0
2015-03-16 13:20:34.511,104,1426537232.039479,37.78795915728664,-122.3968001967257,12.53543,-1,-1,10,65,-9999,1426537234.467824,27.90425109863281,25.56387329101562,-7.355567932128906,20.16621017456055,6.399163246154785,10,453432.1718889167,1.022064208984375,0.0112762451171875,-0.0681304931640625,453432.171661375,-0.2994777909015905,-0.2051779198629748,-1.761821409676863,453432.1198817917,-1.61345436373407,1.426944432805679,0.07762492188362628,0.04937433451414108,-0.1466319262981415,-2.683783769607544,0.3400760293006897,0.0191058274358511,0.1726334542036057,XTrueNorthZVertical,-0.4924822015912253,-0.4312760003888312,0.527939032714412,-0.5410569723244989,0.9866909384727478,-0.07754699140787125,-0.1429245918989182,33.6368293762207,19.42171859741211,-7.31803560256958,2,10.3.35.51,10.71.35.210,1,0
2015-03-16 13:20:34.536,105,1426537232.039479,37.78795915728664,-122.3968001967257,12.53543,-1,-1,10,65,-9999,1426537234.518021,24.64735412597656,29.72726440429688,-7.472061157226562,26.71844100952148,12.95139408111572,10,453432.2209420833,1.2078857421875,0.4628143310546875,0.1703643798828125,453432.2234412084,0.1379200528491326,-0.03013313510202856,-1.726659693804547,453432.171661375,-1.630279172564379,1.42947100436608,-0.03058846862962023,-0.30961674451828,-0.1922757178544998,-1.730330348014832,0.1256215572357178,0.0169321708381176,-0.01246982347220182,XTrueNorthZVertical,-0.4690500401143873,-0.4578180130663082,0.5565087977827864,-0.510580710300514,0.9895670413970947,0.0305836983025074,-0.1407894492149353,31.00677108764648,23.33478546142578,-7.500736236572266,2,10.3.35.51,10.71.35.210,4,0
2015-03-16 13:20:34.577,106,1426537232.039479,37.78795915728664,-122.3968001967257,12.53543,-1,-1,10,65,-9999,1426537234.569442,22.19189071655273,32.378173828125,-7.804897308349609,30.47191619873047,16.70486831665039,10,453432.2699577917,1.20428466796875,0.25738525390625,-0.0328369140625,453432.2234412084,0.1379200528491326,-0.03013313510202856,-1.726659693804547,453432.2234412084,-1.631515415080118,1.408979263378024,-0.1155861327422586,0.1277812123298645,-0.01723107695579529,-1.695168972015381,0.2275350689888,0.3474853932857513,0.3304011225700378,XTrueNorthZVertical,-0.4406957729024603,-0.4751514069004582,0.5795909537475179,-0.4940573646454136,0.9803506731987,0.1153289303183556,-0.1600367575883865,27.27164077758789,27.58166885375977,-7.596190452575684,2,10.3.35.51,10.71.35.210,4,0
2015-03-16 13:20:34.633,107,1426537232.039479,37.78795915728664,-122.3968001967257,12.53543,-1,-1,10,65,-9999,1426537234.622015,20.12862014770508,34.06051635742188,-8.287502288818359,33.98705291748047,20.22000503540039,10,453432.3191033333,0.91485595703125,0.471710205078125,0.14520263671875,453432.3270005417,0.1081408518559756,-0.2419849366567419,-0.3182360323556726,453432.27522075,-1.635417071117819,1.412905723934968,-0.1699570522059103,-0.5452780723571777,-0.2994652986526489,-0.5492507219314575,0.2309522777795792,0.08824523538351059,0.1221330389380455,XTrueNorthZVertical,-0.4277365907303357,-0.4894450246473583,0.590647183148997,-0.4781431363058569,0.973332405090332,0.16914002597332,-0.1549699604511261,25.89552879333496,28.85574722290039,-7.678565502166748,2,10.3.35.51,10.71.35.210,4,0
2015-03-16 13:20:34.677,108,1426537232.039479,37.78795915728664,-122.3968001967257,12.53543,-1,-1,10,65,-9999,1426537234.673068,19.07140731811523,34.74020385742188,-8.187652587890625,34.13565063476562,20.36860466003418,10,453432.3680205001,1.3126220703125,0.38616943359375,-0.249847412109375,453432.3270005417,0.1081408518559756,-0.2419849366567419,-0.3182360323556726,453432.3270005417,-1.62409764698125,1.386556738104671,-0.1911985307444398,0.09800219535827637,-0.2290831208229065,-0.2867459058761597,-0.05030544847249985,0.2816744744777679,0.3250632882118225,XTrueNorthZVertical,-0.4111357100525319,-0.4909553027579495,0.5975952221846943,-0.4825041409100929,0.9651613831520081,0.1900357156991959,-0.1798606365919113,24.81391906738281,29.87153625488281,-7.358931541442871,2,10.3.35.51,10.71.35.210,4,0
2015-03-16 13:20:34.729,109,1426537232.039479,37.78795915728664,-122.3968001967257,12.53543,-1,-1,10,65,-9999,1426537234.726233,18.86678695678711,34.63824462890625,-7.788257598876953,34.10618591308594,20.33913803100586,10,453432.4170641667,1.254730224609375,0.36700439453125,-0.06109619140625,453432.3787801667,0.1322227523291261,0.5118869920724574,0.4406503623900369,453432.3787801667,-1.637140549950605,1.402418409138282,-0.1881089431853312,0.1220842152833939,0.5247886776924133,0.4721401333808899,0.3804557621479034,0.05967205017805099,-0.1179045513272285,XTrueNorthZVertical,-0.4199516398204639,-0.4912504713378955,0.5968280004246104,-0.4755101570854937,0.9684669971466064,0.1870015263557434,-0.1646271944046021,24.14908218383789,30.31730651855469,-7.737946510314941,2,10.3.35.51,10.71.35.210,4,0
2015-03-16 13:20:34.778,110,1426537232.039479,37.78795915728664,-122.3968001967257,12.53543,-1,-1,10,65,-9999,1426537234.726233,18.86678695678711,34.63824462890625,-7.788257598876953,34.10618591308594,20.33913803100586,10,453432.4660836667,1.121688842773438,0.3669586181640625,0.05267333984375,453432.4305600834,-0.2519672633706859,-0.2136499679227348,1.569107350031568,453432.4305600834,-1.618075184484056,1.408817722330182,-0.1317596162351528,-0.2621057033538818,-0.2007484287023544,1.600596785545349,0.2868571877479553,0.264617383480072,0.1676400899887085,XTrueNorthZVertical,-0.432967169785877,-0.4822890706852135,0.5796250754022596,-0.4939346425490285,0.9783558249473572,0.131378710269928,-0.159873366355896,24.75038146972656,29.89333343505859,-7.483325004577637,2,10.3.35.51,10.71.35.210,4,0
2015-03-16 13:20:34.829,111,1426537232.039479,37.78795915728664,-122.3968001967257,12.53543,-1,-1,10,65,-9999,1426537234.777414,20.50376510620117,32.87094116210938,-7.754974365234375,31.09283828735352,17.32579040527344,10,453432.515244,1.308151245117188,-0.0423431396484375,0.02978515625,453432.4823396667,0.1010166296239046,0.3882180468485568,2.414419447420856,453432.4823396667,-1.598528542048542,1.419945345195498,-0.02601787418777672,0.09087827801704407,0.4011194705963135,2.445908546447754,0.1049070134758949,0.2724927663803101,0.1504117399454117,XTrueNorthZVertical,-0.4603297715494388,-0.4614999257876997,0.5495053585906182,-0.5226453460648971,0.9883089065551758,0.02601493895053864,-0.1502286344766617,26.61297607421875,28.31077766418457,-7.241716861724854,2,10.3.35.51,10.71.35.210,4,0
2015-03-16 13:20:34.878,112,1426537232.039479,37.78795915728664,-122.3968001967257,12.53543,-1,-1,10,65,-9999,1426537234.829403,23.99938583374023,30.20303344726562,-7.239089965820312,23.6684684753418,9.901420593261719,10,453432.5641467083,0.894073486328125,-0.158477783203125,-0.0667877197265625,453432.5341194583,0.1230012907386177,-0.3515654933980143,2.830599087818591,453432.5341194583,-1.5894550301292,1.419271282427305,0.1058192879525939,0.1128630414605141,-0.338664174079895,2.862087965011597,0.3091170489788055,0.000214194500586018,0.1793984174728394,XTrueNorthZVertical,-0.4924502434593312,-0.4271322846438394,0.5164972273415397,-0.5552309071370148,0.9830124378204346,-0.105621911585331,-0.1501015424728394,31.34435272216797,23.04220199584961,-6.984368801116943,2,10.3.35.51,10.71.35.210,4,0
2015-03-16 13:20:34.926,113,1426537232.039479,37.78795915728664,-122.3968001967257,12.53543,-1,-1,10,65,-9999,1426537234.880503,27.68257904052734,26.15866088867188,-7.472072601318359,17.50596618652344,3.738919734954834,10,453432.61328,0.8620758056640625,-0.3160247802734375,-0.0668487548828125,453432.5858990834,0.09727755145343334,-0.372764255675045,2.727207451134554,453432.5858990834,-1.567568889586606,1.389779587382524,0.2438109923295761,0.08713941276073456,-0.3598631024360657,2.758695840835571,-0.02434784173965454,-0.003561946796253324,0.1437758505344391,XTrueNorthZVertical,-0.5148302714283395,-0.3841836587149168,0.4830981281645862,-0.594952841426299,0.954569399356842,-0.24140265583992,-0.1747054159641266,33.1125373840332,20.2601261138916,-7.435055732727051,2,10.3.35.51,10.71.35.210,4,0
2015-03-16 13:20:34.977,114,1426537232.039479,37.78795915728664,-122.3968001967257,12.53543,-1,-1,10,65,-9999,1426537234.937902,31.12704658508301,21.74041748046875,-7.871467590332031,10.62337017059326,356.8563232421875,10,453432.6621999583,0.9005889892578125,-0.3671875,0.0553131103515625,453432.6376789584,0.02120355596699288,0.2094000954551864,2.658826262772916,453432.6376789584,-1.544394276966447,1.384854778368201,0.378163052593432,0.0110655203461647,0.222301110625267,2.690314531326294,0.03084314428269863,-0.03944695368409157,0.1622729599475861,XTrueNorthZVertical,-0.5411238774798877,-0.3482529254839909,0.4414952727113562,-0.6252893332261558,0.9133249521255493,-0.3692139387130737,-0.1718097031116486,35.20300674438477,16.0037841796875,-8.174369812011719,2,10.3.35.51,10.71.35.210,4,0
2015-03-16 13:20:35.025,115,1426537232.039479,37.78795915728664,-122.3968001967257,12.53543,-1,-1,10,65,-9999,1426537235.010492,34.89550018310547,13.566650390625,-7.854824066162109,358.7308959960938,344.9638366699219,10,453432.711315,0.9412994384765625,-0.6605377197265625,-0.0367889404296875,453432.6894585417,0.4031077805031898,0.007739146127770266,2.558035735525559,453432.6894585417,-1.527194775236008,1.387397634330254,0.5115496671580689,0.3929698467254639,0.0206400565803051,2.589523553848267,0.08262387663125992,0.08124970644712448,0.1095267608761787,XTrueNorthZVertical,-0.5682818529985689,-0.3123181044398401,0.3975572498447443,-0.6492005447066522,0.8573632836341858,-0.4895291328430176,-0.1590262800455093,37.81074905395508,8.495609283447266,-7.769489288330078,2,10.3.35.51,10.71.35.210,4,0
2015-03-16 13:20:35.076,116,1426537232.039479,37.78795915728664,-122.3968001967257,12.53543,-1,-1,10,65,-9999,1426537235.062387,36.58362579345703,7.568023681640625,-7.53863525390625,349.8407592773438,336.0736999511719,10,453432.7603765834,0.577362060546875,-0.9999542236328125,-0.04302978515625,453432.7412384167,0.5869737537428055,0.1294701090264202,3.201710585721133,453432.7412384167,-1.525408702635232,1.387873294872387,0.6591986735675484,0.5768358707427979,0.142370879650116,3.233197927474976,-0.06977544724941254,-0.2679637670516968,0.07956830412149429,XTrueNorthZVertical,-0.5979631729491971,-0.2656007697027393,0.3528556700417625,-0.6688715332626524,0.7772949934005737,-0.6124836206436157,-0.1437925547361374,38.36589050292969,5.397320747375488,-7.817959785461426,2,10.3.35.51,10.71.35.210,4,0
2015-03-16 13:20:35.122,117,1426537232.039479,37.78795915728664,-122.3968001967257,12.53543,-1,-1,10,65,-9999,1426537235.114394,37.96482086181641,0.957672119140625,-7.422145843505859,343.1249389648438,329.3578796386719,10,453432.80929575,0.6461181640625,-0.28045654296875,0.057373046875,453432.7930180417,0.287162002440519,0.1536864991346197,3.212646324105325,453432.7930180417,-1.515646847738291,1.395051133476913,0.8279239068210291,0.2770258486270905,0.1665877550840378,3.244134664535522,-0.0841849073767662,0.0561697892844677,0.2063989341259003,XTrueNorthZVertical,-0.6281261630320655,-0.2152334608822954,0.2946442761812516,-0.6872530888288407,0.6659872531890869,-0.7365286946296692,-0.1182641610503197,38.76409912109375,-0.1430797576904297,-7.71473503112793,2,10.3.35.51,10.71.35.210,4,0
2015-03-16 13:20:35.162,118,1426537232.039479,37.78795915728664,-122.3968001967257,12.53543,-1,-1,10,65,-9999,1426537235.114394,37.96482086181641,0.957672119140625,-7.422145843505859,343.1249389648438,329.3578796386719,10,453432.8584237917,0.3936767578125,0.27117919921875,-0.2977752685546875,453432.844797875,0.8236523419275645,-0.02148904683584937,1.085274096882006,453432.7930180417,-1.515646847738291,1.395051133476913,0.8279239068210291,0.2770258486270905,0.1665877550840378,3.244134664535522,-0.0841849073767662,0.0561697892844677,0.2063989341259003,XTrueNorthZVertical,-0.6281261630320655,-0.2152334608822954,0.2946442761812516,-0.6872530888288407,0.6659872531890869,-0.7365286946296692,-0.1182641610503197,38.76409912109375,-0.1430797576904297,-7.71473503112793,2,10.3.35.51,10.71.35.210,4,0
2015-03-16 13:20:35.220,119,1426537232.039479,37.78795915728664,-122.3968001967257,12.53543,-1,-1,10,65,-9999,1426537235.167205,37.91366577148438,-4.904998779296875,-7.272365570068359,333.1891479492188,319.4220886230469,10,453432.9073173334,0.0847015380859375,-0.365081787109375,-0.281646728515625,453432.8965775,-0.4990164671563225,-1.07770006674182,-1.415285828629682,453432.8965775,-1.524922091031833,1.355543207000731,0.9305252256095233,-0.5091524124145508,-1.064798951148987,-1.383798122406006,-0.5422288775444031,0.6818776726722717,-0.05969741195440292,XTrueNorthZVertical,-0.6398041697497497,-0.1638551577124903,0.2774031389763675,-0.6977460763829615,0.5836259722709656,-0.8019338250160217,-0.127604216337204,37.48402404785156,-10.39096164703369,-7.012037754058838,2,10.3.35.51,10.71.35.210,4,0
2015-03-16 13:20:35.260,120,1426537232.039479,37.78795915728664,-122.3968001967257,12.53543,-1,-1,10,65,-9999,1426537235.222506,37.45326995849609,-7.334991455078125,-7.888099670410156,333.009521484375,319.2424621582031,10,453432.9564374583,0.2783203125,-0.7389373779296875,0.239959716796875,453432.9483574167,-0.5105165293755026,0.0410238660637986,-2.985975362664866,453432.8965775,-1.524922091031833,1.355543207000731,0.9305252256095233,-0.5091524124145508,-1.064798951148987,-1.383798122406006,-0.5422288775444031,0.6818776726722717,-0.05969741195440292,XTrueNorthZVertical,-0.6398041697497497,-0.1638551577124903,0.2774031389763675,-0.6977460763829615,0.5836259722709656,-0.8019338250160217,-0.127604216337204,37.48402404785156,-10.39096164703369,-7.012037754058838,2,10.3.35.51,10.71.35.210,4,0
2015-03-16 13:20:35.319,121,1426537232.039479,37.78795915728664,-122.3968001967257,12.53543,-1,-1,10,65,-9999,1426537235.294511,37.19749450683594,-2.254058837890625,-8.836669921875,340.073974609375,326.3069152832031,10,453433.005384,0.927490234375,-0.5987701416015625,-0.074432373046875,453433.0001369167,-0.08415109675654178,1.885660797210529,-4.255294130895631,453432.9483574167,-1.517326016092436,1.341973440235586,0.8101610056585146,-0.5205592513084412,0.05392928421497345,-2.954391002655029,-0.3752393126487732,-0.1128363162279129,0.6267254948616028,XTrueNorthZVertical,-0.6171331908953278,-0.2023856691188957,0.3173715125722953,-0.6909862267788927,0.6714124083518982,-0.7243981957435608,-0.1563733369112015,37.45472717285156,-8.748935699462891,-9.099035263061523,2,10.3.35.51,10.71.35.210,4,0
2015-03-16 13:20:35.358,122,1426537232.039479,37.78795915728664,-122.3968001967257,12.53543,-1,-1,10,65,-9999,1426537235.347595,36.89055633544922,4.543243408203125,-7.272357940673828,351.0186157226562,337.2515563964844,10,453433.0543936667,1.220077514648438,-0.6128692626953125,0.0757293701171875,453433.0519168334,0.05135346898388894,0.4893963303506292,-3.531621916295713,453433.0001369167,-1.544850614288015,1.413771138879022,0.6263194261039576,-0.0941922515630722,1.898568153381348,-4.22371244430542,0.06922329217195511,0.05496254563331604,0.1936689615249634,XTrueNorthZVertical,-0.598978390157385,-0.2790623969183098,0.361546101921716,-0.6577487817516637,0.8002225160598755,-0.5861667394638062,-0.1266981363296509,38.66479110717773,0.06532096862792969,-8.198945999145508,2,10.3.35.51,10.71.35.210,4,0
2015-03-16 13:20:35.418,123,1426537232.039479,37.78795915728664,-122.3968001967257,12.53543,-1,-1,10,65,-9999,1426537235.402039,35.62872314453125,12.8359375,-5.974311828613281,358.2565002441406,344.4894409179688,10,453433.1035420834,1.192840576171875,-0.2638702392578125,0.0545196533203125,453433.1036964583,0.1503644719908549,-0.6086601408154297,-3.26310683517571,453433.0519168334,-1.568593052880797,1.483264779685502,0.4419146929171128,0.04131125658750534,0.5023039579391479,-3.500042676925659,0.2460868954658508,-0.1387047320604324,0.1046412885189056,XTrueNorthZVertical,-0.5799163503837832,-0.3524005329915653,0.4033623926212662,-0.6138482288673411,0.9004737734794617,-0.4276710152626038,-0.07902178168296814,38.71554565429688,4.862007141113281,-6.297657489776611,2,10.3.35.51,10.71.35.210,4,0
2015-03-16 13:20:35.456,124,1426537232.039479,37.78795915728664,-122.3968001967257,12.53543,-1,-1,10,65,-9999,1426537235.402039,35.62872314453125,12.8359375,-5.974311828613281,358.2565002441406,344.4894409179688,10,453433.1525676667,1.257781982421875,-0.214385986328125,0.0709686279296875,453433.1036964583,0.1503644719908549,-0.6086601408154297,-3.26310683517571,453433.1036964583,-1.585494130688854,1.465343007601199,0.2699696619632965,0.1403223723173141,-0.5957527160644531,-3.231528043746948,0.2344154566526413,0.002831958467140794,0.1559650748968124,XTrueNorthZVertical,-0.5423016962959247,-0.3939367415045751,0.4615098398657329,-0.5811465895575194,0.9584251046180725,-0.2667022049427032,-0.1014454290270805,37.63755416870117,10.95638275146484,-5.056216239929199,2,10.3.35.51,10.71.35.210,4,0
2015-03-16 13:20:35.514,125,1426537232.039479,37.78795915728664,-122.3968001967257,12.53543,-1,-1,10,65,-9999,1426537235.476494,30.88832092285156,22.72601318359375,-5.941028594970703,11.93632793426514,358.1692810058594,10,453433.201613375,1.467086791992188,-0.156158447265625,-0.100738525390625,453433.2072560417,-0.2225454585958175,-0.16771256964774,-2.110297103578167,453433.1554763333,-1.595457461845434,1.441892711636009,0.1178814157022802,-0.08039872348308563,-0.04688542708754539,-3.182605028152466,0.2729609608650208,-0.09677739441394806,0.1986234486103058,XTrueNorthZVertical,-0.5025585277826307,-0.4284944780961547,0.5095867722512217,-0.5514967877517961,0.9848210215568542,-0.1176085919141769,-0.1276548206806183,33.64760971069336,19.66970062255859,-6.567675113677979,2,10.3.35.51,10.71.35.210,4,0
2015-03-16 13:20:35.554,126,1426537232.039479,37.78795915728664,-122.3968001967257,12.53543,-1,-1,10,65,-9999,1426537235.529026,26.82998466491699,27.21224975585938,-6.406997680664062,21.6264533996582,7.8594069480896,10,453433.250645,1.242568969726562,0.507904052734375,0.1644134521484375,453433.2072560417,-0.2225454585958175,-0.16771256964774,-2.110297103578167,453433.2072560417,-1.610734078582836,1.44171195037202,-0.01259704865250035,-0.2325873672962189,-0.1548053473234177,-2.078718900680542,0.4754853248596191,-0.1687551587820053,0.02797744981944561,XTrueNorthZVertical,-0.4726484933141413,-0.4607010031059339,0.5445781717892028,-0.5174867914021549,0.9916014671325684,0.01259671524167061,-0.1287159770727158,31.66328048706055,22.70321464538574,-6.64783763885498,2,10.3.35.51,10.71.35.210,4,0
2015-03-16 13:20:35.613,127,1426537232.039479,37.78795915728664,-122.3968001967257,12.53543,-1,-1,10,65,-9999,1426537235.580629,23.81181144714355,30.76382446289062,-7.056018829345703,25.41074371337891,11.64369583129883,10,453433.2996545,1.295303344726562,0.2953643798828125,-0.1374664306640625,453433.2590358334,-0.04150216979557683,-0.545618324123292,-1.050344342340635,453433.2590358334,-1.607013864308537,1.416926244138019,-0.08204923324561093,-0.05154398083686829,-0.5327112078666687,-1.018766522407532,0.2577080428600311,0.4259468615055084,0.3171614706516266,XTrueNorthZVertical,-0.4463335037922611,-0.4737218498609808,0.5646506050314509,-0.5074876191143384,0.984860897064209,0.08195720613002777,-0.1527480185031891,29.0930004119873,25.91410255432129,-6.652036190032959,2,10.3.35.51,10.71.35.210,4,0
2015-03-16 13:20:35.652,128,1426537232.039479,37.78795915728664,-122.3968001967257,12.53543,-1,-1,10,65,-9999,1426537235.63267,22.63523483276367,32.17422485351562,-7.172512054443359,27.29816436767578,13.53111743927002,10,453433.348563125,1.29339599609375,0.27679443359375,-0.12164306640625,453433.310815375,0.185222054866684,0.06861847601476363,0.3171926058405796,453433.310815375,-1.619393242974236,1.410616556658791,-0.0934757695088291,0.1751803606748581,0.08152542263269424,0.3487701416015625,0.2853454351425171,0.1635877937078476,-0.06317023932933807,XTrueNorthZVertical,-0.4443485061689722,-0.4723925498076517,0.5716093614053387,-0.5026553479923582,0.9828888177871704,0.093339703977108,-0.1587993651628494,27.10111236572266,27.80937194824219,-7.373029708862305,2,10.3.35.51,10.71.35.210,4,0
2015-03-16 13:20:35.711,129,1426537232.039479,37.78795915728664,-122.3968001967257,12.53543,-1,-1,10,65,-9999,1426537235.684248,23.07858276367188,31.80038452148438,-7.372211456298828,26.39208030700684,12.62503337860107,10,453433.3976914583,1.2099609375,0.143524169921875,0.0775146484375,453433.3625953334,-0.2201984147271307,0.003324157672636905,1.469385815645769,453433.3625953334,-1.608103846343026,1.411117957126538,-0.04606963704733252,-0.2302400022745132,0.01623097620904446,1.500963091850281,0.2300013601779938,0.1811042577028275,0.1246217638254166,XTrueNorthZVertical,-0.4547144597810323,-0.4624054225803171,0.5584482116554015,-0.5172538613612812,0.9862309098243713,0.04605334252119064,-0.1588319689035416,27.44221496582031,27.44820785522461,-7.464165210723877,2,10.3.35.51,10.71.35.210,4,0
2015-03-16 13:20:35.750,130,1426537232.039479,37.78795915728664,-122.3968001967257,12.53543,-1,-1,10,65,-9999,1426537235.736045,24.90312957763672,29.50631713867188,-7.255722045898438,22.83636093139648,9.069314002990723,10,453433.44669025,1.161300659179688,-0.0569000244140625,-0.0262908935546875,453433.414375125,0.05868595041320411,0.6598532875016959,2.19113016793258,453433.414375125,-1.588518769791071,1.424967605412971,0.04758157346785686,0.04864443838596344,0.672760009765625,2.222707033157349,0.1657714545726776,0.1472187787294388,0.1573549658060074,XTrueNorthZVertical,-0.4788083556908024,-0.4451613068657824,0.5287658153121363,-0.541276878230929,0.9882660508155823,-0.04756361991167068,-0.1451479345560074,28.94029808044434,25.91930770874023,-7.269232273101807,2,10.3.35.51,10.71.35.210,4,0
2015-03-16 13:20:35.809,131,1426537232.039479,37.78795915728664,-122.3968001967257,12.53543,-1,-1,10,65,-9999,1426537235.788843,27.76783561706543,26.14166259765625,-6.689907073974609,15.32588958740234,1.558842301368713,10,453433.4957187501,1.071945190429688,-0.047576904296875,0.128021240234375,453433.466154625,-0.1352190748715742,-0.1302826394750033,2.535575700156267,453433.466154625,-1.571443280213878,1.439330661942309,0.1690098287013094,-0.1452604830265045,-0.1173760667443275,2.567152261734009,0.1172063425183296,0.06177631393074989,0.1468434482812881,XTrueNorthZVertical,-0.5094330821263418,-0.4193663849835392,0.4907105078914982,-0.5690456434995976,0.977245569229126,-0.1682063639163971,-0.1292195469141006,32.97533416748047,20.85733032226562,-6.30809497833252,2,10.3.35.51,10.71.35.210,4,0
2015-03-16 13:20:35.848,132,1426537232.039479,37.78795915728664,-122.3968001967257,12.53543,-1,-1,10,65,-9999,1426537235.839462,31.09294128417969,21.77438354492188,-6.506851196289062,6.424029350280762,352.656982421875,10,453433.544734375,0.900390625,-0.4032135009765625,-0.075653076171875,453433.5179344167,0.2046993498150875,-0.4721028274960907,2.665915597594707,453433.5179344167,-1.552191093452095,1.417351205302233,0.2976641628301638,0.1946580559015274,-0.4591963887214661,2.697491645812988,0.2303186357021332,0.1633135229349136,0.2453043758869171,XTrueNorthZVertical,-0.5312078181220137,-0.3804696198538197,0.4570834069297976,-0.6034367062117596,0.9447911977767944,-0.2932879030704498,-0.1461222469806671,34.4588737487793,18.28980827331543,-6.345226287841797,2,10.3.35.51,10.71.35.210,4,0
2015-03-16 13:20:35.910,133,1426537232.039479,37.78795915728664,-122.3968001967257,12.53543,-1,-1,10,65,-9999,1426537235.890922,34.1793212890625,16.59140014648438,-6.922889709472656,0.3733701705932617,346.6063232421875,10,453433.5936594167,0.8719482421875,-0.537139892578125,0.0260467529296875,453433.569714375,0.1708228754848436,-0.1355857921536781,2.864203653401538,453433.569714375,-1.537803760361914,1.398655142622872,0.4427486939809832,0.160781666636467,-0.1226794719696045,2.895779609680176,-0.09549929201602936,-0.04330072551965714,0.09512923657894135,XTrueNorthZVertical,-0.5574342163003878,-0.3344834446171956,0.4175693105007877,-0.6348415295665474,0.8902227878570557,-0.428424745798111,-0.1547758430242538,36.27312088012695,14.03280830383301,-7.03803825378418,2,10.3.35.51,10.71.35.210,4,0
2015-03-16 13:20:35.946,134,1426537232.039479,37.78795915728664,-122.3968001967257,12.53543,-1,-1,10,65,-9999,1426537235.890922,34.1793212890625,16.59140014648438,-6.922889709472656,0.3733701705932617,346.6063232421875,10,453433.6426785833,0.87432861328125,-0.6357574462890625,-0.001953125,453433.6214941251,0.1811636636815122,-0.01516936556909134,2.907627293923607,453433.569714375,-1.537803760361914,1.398655142622872,0.4427486939809832,0.160781666636467,-0.1226794719696045,2.895779609680176,-0.09549929201602936,-0.04330072551965714,0.09512923657894135,XTrueNorthZVertical,-0.5574342163003878,-0.3344834446171956,0.4175693105007877,-0.6348415295665474,0.8902227878570557,-0.428424745798111,-0.1547758430242538,36.27312088012695,14.03280830383301,-7.03803825378418,2,10.3.35.51,10.71.35.210,4,0
2015-03-16 13:20:36.009,135,1426537232.039479,37.78795915728664,-122.3968001967257,12.53543,-1,-1,10,65,-9999,1426537235.994537,38.067138671875,4.8660888671875,-6.689907073974609,343.7555847167969,329.988525390625,10,453433.6917217083,0.6805419921875,-0.3203125,-0.0060882568359375,453433.6732737084,0.1413707106735483,0.2609266699099305,2.864032145827337,453433.6732737084,-1.494347088839377,1.391503126567703,0.732207992363349,0.1313297152519226,0.2738327085971832,2.895607233047485,-0.0643744170665741,0.1465864628553391,0.05354082211852074,XTrueNorthZVertical,-0.6082904213436322,-0.2523275645302342,0.3187205555427596,-0.6817116310539597,0.731778621673584,-0.6685133576393127,-0.1326271295547485,38.78504943847656,2.292104721069336,-7.256680488586426,2,10.3.35.51,10.71.35.210,4,0
2015-03-16 13:20:36.044,136,1426537232.039479,37.78795915728664,-122.3968001967257,12.53543,-1,-1,10,65,-9999,1426537235.994537,38.067138671875,4.8660888671875,-6.689907073974609,343.7555847167969,329.988525390625,10,453433.7408479167,0.2860107421875,0.0289459228515625,-0.1941986083984375,453433.7250535,0.1391216711329764,-0.5037933792035976,1.542703439403978,453433.7250535,-1.476494111809361,1.381071350794915,0.8483307972783801,0.1290807723999023,-0.4908874332904816,1.574278354644775,-0.05734534561634064,0.7659553289413452,-0.06879495084285736,XTrueNorthZVertical,-0.6253470789254199,-0.2158475215070124,0.2789430052965042,-0.6960902636115429,0.6493710875511169,-0.7501777410507202,-0.1247017532587051,38.83218383789062,-2.808248519897461,-6.809405326843262,2,10.3.35.51,10.71.35.210,4,0
2015-03-16 13:20:36.106,137,1426537232.039479,37.78795915728664,-122.3968001967257,12.53543,-1,-1,10,65,-9999,1426537236.102624,37.40211486816406,-3.885406494140625,-7.272357940673828,333.4801330566406,319.7130737304688,10,453433.7897885834,0.071990966796875,-0.5547637939453125,-0.06561279296875,453433.77683325,-0.04044729168779645,-1.642174104015091,-0.2777290858594584,453433.77683325,-1.460964656336332,1.294220773059281,0.8711927728276468,-0.05048809945583344,-1.629268288612366,-0.2461543828248978,-0.6939213275909424,0.3622807562351227,-0.1125009134411812,XTrueNorthZVertical,-0.6154485156991411,-0.1825062812010523,0.2931434441750775,-0.7085065136912775,0.6194431781768799,-0.7650974988937378,-0.1758291572332382,37.87361907958984,-7.23321533203125,-8.686925888061523,2,10.3.35.51,10.71.35.210,4,0
2015-03-16 13:20:36.142,138,1426537232.039479,37.78795915728664,-122.3968001967257,12.53543,-1,-1,10,65,-9999,1426537236.102624,37.40211486816406,-3.885406494140625,-7.272357940673828,333.4801330566406,319.7130737304688,10,453433.8389122083,0.12506103515625,-0.4103546142578125,0.018768310546875,453433.8286131667,-0.5543721346263825,0.4072111791107839,-2.741936063543237,453433.77683325,-1.460964656336332,1.294220773059281,0.8711927728276468,-0.05048809945583344,-1.629268288612366,-0.2461543828248978,-0.6939213275909424,0.3622807562351227,-0.1125009134411812,XTrueNorthZVertical,-0.6154485156991411,-0.1825062812010523,0.2931434441750775,-0.7085065136912775,0.6194431781768799,-0.7650974988937378,-0.1758291572332382,37.87361907958984,-7.23321533203125,-8.686925888061523,2,10.3.35.51,10.71.35.210,4,0
2015-03-16 13:20:36.205,139,1426537232.039479,37.78795915728664,-122.3968001967257,12.53543,-1,-1,10,65,-9999,1426537236.176378,37.52147674560547,-1.149505615234375,-9.0863037109375,338.1104736328125,324.3434143066406,10,453433.8878391667,0.724456787109375,-0.26513671875,-0.1941375732421875,453433.8803927917,-0.09184923020352483,1.835436508528834,-3.279114563855959,453433.8803927917,-1.506495889535046,1.390231441950159,0.6402135162078041,-0.1018898263573647,1.848341941833496,-3.247540473937988,-0.1490680724382401,0.1764682531356812,-0.09726552665233612,XTrueNorthZVertical,-0.5921205353047901,-0.2781769582752436,0.3516071417554326,-0.6696142519253796,0.7889301180839539,-0.5973666906356812,-0.1440217047929764,38.13638305664062,-2.800222396850586,-9.998395919799805,2,10.3.35.51,10.71.35.210,4,0
2015-03-16 13:20:36.241,140,1426537232.039479,37.78795915728664,-122.3968001967257,12.53543,-1,-1,10,65,-9999,1426537236.228242,37.16338729858398,4.9510498046875,-8.037879943847656,346.89599609375,333.1289367675781,10,453433.9369665417,1.166351318359375,-0.6590576171875,0.2802886962890625,453433.8803927917,-0.09184923020352483,1.835436508528834,-3.279114563855959,453433.8803927917,-1.506495889535046,1.390231441950159,0.6402135162078041,-0.1018898263573647,1.848341941833496,-3.247540473937988,-0.1490680724382401,0.1764682531356812,-0.09726552665233612,XTrueNorthZVertical,-0.5921205353047901,-0.2781769582752436,0.3516071417554326,-0.6696142519253796,0.7889301180839539,-0.5973666906356812,-0.1440217047929764,38.13638305664062,-2.800222396850586,-9.998395919799805,2,10.3.35.51,10.71.35.210,4,0
2015-03-16 13:20:36.304,141,1426537232.039479,37.78795915728664,-122.3968001967257,12.53543,-1,-1,10,65,-9999,1426537236.279699,35.38999938964844,12.25814819335938,-6.540130615234375,356.7613525390625,342.9942932128906,10,453433.985894875,1.03411865234375,-0.497344970703125,0.0329742431640625,453433.983952375,0.09666608966715115,-0.2671534068546447,-3.297319666751632,453433.9321727084,-1.532367663884786,1.435086254350427,0.4619220118142082,-0.178727388381958,-0.4298586249351501,-3.281531095504761,0.2520866692066193,-0.4660736620426178,0.2572689354419708,XTrueNorthZVertical,-0.5680968595058811,-0.3416263742210224,0.4000869519301222,-0.6328410436368087,0.8869666457176208,-0.4456695020198822,-0.1211147606372833,38.45674896240234,6.912346839904785,-5.957425594329834,2,10.3.35.51,10.71.35.210,4,0
2015-03-16 13:20:36.337,142,1426537232.039479,37.78795915728664,-122.3968001967257,12.53543,-1,-1,10,65,-9999,1426537236.332403,33.34378051757812,18.715576171875,-6.506851196289062,4.601061820983887,350.8340148925781,10,453434.0349105,1.0350341796875,0.0032501220703125,0.036895751953125,453434.0357322917,-0.3405075159197873,-0.2660476623700438,-3.204822223138781,453433.983952375,-1.55988866515706,1.427807559907226,0.298153577948037,0.08671395480632782,-0.2542499005794525,-3.265646457672119,0.09881186485290527,-0.09129979461431503,-0.05375703051686287,XTrueNorthZVertical,-0.5351760873478366,-0.381417237144495,0.4564794063505981,-0.5997782717620185,0.9461252689361572,-0.2937557399272919,-0.1362148970365524,37.52066421508789,10.70897960662842,-6.301639080047607,2,10.3.35.51,10.71.35.210,4,0
2015-03-16 13:20:36.406,143,1426537232.039479,37.78795915728664,-122.3968001967257,12.53543,-1,-1,10,65,-9999,1426537236.38361,29.3025016784668,24.23837280273438,-6.656631469726562,14.05159282684326,0.2845458984375,10,453434.083958,1.513046264648438,-0.08013916015625,0.0905303955078125,453434.0875119167,-0.04274639865686185,0.1488946733852401,-2.152861874648686,453434.0357322917,-1.56744693513386,1.418480725221078,0.1469348688417573,-0.3504595160484314,-0.2531442642211914,-3.173149347305298,0.05726257711648941,0.1496568471193314,0.1869881451129913,XTrueNorthZVertical,-0.4979491449460331,-0.420714221495163,0.5003898500888093,-0.5697860719315976,0.9777715802192688,-0.1464067250490189,-0.1500923931598663,35.43788528442383,16.14108276367188,-6.768656730651855,2,10.3.35.51,10.71.35.210,4,0
2015-03-16 13:20:36.436,144,1426537232.039479,37.78795915728664,-122.3968001967257,12.53543,-1,-1,10,65,-9999,1426537236.38361,29.3025016784668,24.23837280273438,-6.656631469726562,14.05159282684326,0.2845458984375,10,453434.132986875,1.4674072265625,0.4639129638671875,-0.0326995849609375,453434.0875119167,-0.04274639865686185,0.1488946733852401,-2.152861874648686,453434.0875119167,-1.579659596782727,1.4165833310608,0.007786796917021465,-0.05269832164049149,0.1617979258298874,-2.12118935585022,0.5249435305595398,-0.07235243916511536,0.2441282123327255,XTrueNorthZVertical,-0.4641114329246339,-0.4558526807748749,0.5376169829393495,-0.5364390625915504,0.9881027340888977,-0.00778671819716692,-0.153597816824913,30.84801292419434,23.75947761535645,-6.788250923156738,2,10.3.35.51,10.71.35.210,4,0
2015-03-16 13:20:36.505,145,1426537232.039479,37.78795915728664,-122.3968001967257,12.53543,-1,-1,10,65,-9999,1426537236.487593,23.5048828125,31.51144409179688,-6.889614105224609,24.01713943481445,10.25009250640869,10,453434.1820373334,1.313400268554688,0.456207275390625,-0.1021575927734375,453434.1910715,-0.02903804326178798,-0.01471875871264993,0.5741085551488507,453434.1392918334,-1.587943662664942,1.406661730155697,-0.06496561661737521,0.03272878378629684,-0.2319633364677429,-0.9236658811569214,0.4829282760620117,0.398993045091629,0.1303543448448181,XTrueNorthZVertical,-0.4436261685436639,-0.4708172266035174,0.5583466528068661,-0.5193996091410893,0.9844789505004883,0.06491992622613907,-0.1630539298057556,29.32658576965332,25.64778518676758,-6.658488273620605,2,10.3.35.51,10.71.35.210,4,0
2015-03-16 13:20:36.535,146,1426537232.039479,37.78795915728664,-122.3968001967257,12.53543,-1,-1,10,65,-9999,1426537236.487593,23.5048828125,31.51144409179688,-6.889614105224609,24.01713943481445,10.25009250640869,10,453434.2310669583,1.275192260742188,0.1757965087890625,-0.0476531982421875,453434.1910715,-0.02903804326178798,-0.01471875871264993,0.5741085551488507,453434.1910715,-1.587821908061661,1.399730410609474,-0.06552854439307197,-0.03898977860808372,-0.001815750729292631,0.6057805418968201,0.3301113247871399,0.3907256126403809,0.06770984828472137,XTrueNorthZVertical,-0.4415048404949878,-0.4691905314545537,0.5599710577285009,-0.5209281260204898,0.9832889437675476,0.06548165529966354,-0.1698674410581589,27.87797355651855,27.14044380187988,-6.957584381103516,2,10.3.35.51,10.71.35.210,4,0
2015-03-16 13:20:36.610,147,1426537232.039479,37.78795915728664,-122.3968001967257,12.53543,-1,-1,10,65,-9999,1426537236.591318,25.24416351318359,29.64224243164062,-6.52349853515625,19.87530517578125,6.108259201049805,10,453434.2801038334,1.170486450195312,0.133087158203125,0.071014404296875,453434.2428514167,-0.07057270362266378,0.2644132804090622,1.741418133617439,453434.2428514167,-1.57392326515409,1.406292389302717,-0.00428614637531907,-0.08052432537078857,0.2773161232471466,1.77308976650238,0.2712913453578949,0.135850578546524,0.1494334787130356,XTrueNorthZVertical,-0.4567890982405856,-0.4576712582307971,0.5412089910218678,-0.5375625955318971,0.9864906072616577,0.004286133218556643,-0.1637614816427231,29.02764320373535,25.91096496582031,-6.943408966064453,2,10.3.35.51,10.71.35.210,4,0
