loggingTime,loggingSample,locationTimestamp_since1970,locationLatitude,locationLongitude,locationAltitude,locationSpeed,locationCourse,locationVerticalAccuracy,locationHorizontalAccuracy,locationFloor,accelerometerTimestamp_sinceReboot,accelerometerAccelerationX,accelerometerAccelerationY,accelerometerAccelerationZ,gyroTimestamp_sinceReboot,gyroRotationX,gyroRotationY,gyroRotationZ,motionTimestamp_sinceReboot,motionYaw,motionRoll,motionPitch,motionRotationRateX,motionRotationRateY,motionRotationRateZ,motionUserAccelerationX,motionUserAccelerationY,motionUserAccelerationZ,motionAttitudeReferenceFrame,motionQuaternionX,motionQuaternionY,motionQuaternionZ,motionQuaternionW,motionGravityX,motionGravityY,motionGravityZ,motionMagneticFieldX,motionMagneticFieldY,motionMagneticFieldZ,motionMagneticFieldCalibrationAccuracy,IP_en0,IP_pdp_ip0,deviceOrientation,state
2015-02-08 21:18:56.588,1,1423459136.162377,37.77941328476908,-122.4388696813234,63.28177,0.46,68.203125,4,10,-9999,2622.665066375,-0.036956787109375,-0.3825531005859375,-0.800140380859375,2622.640308416667,0.1845373561504246,-0.04393629903190926,0.07417010162314282,2622.640308416667,2.710342145090604,-0.01677840844477431,0.3854788056045538,0.1774471551179886,-0.03087517246603966,0.1118768006563187,0.00794757716357708,-0.0195812564343214,0.02242008782923222,XArbitraryZVertical,0.04902498885883438,0.1853443008980221,0.9583772434090521,0.2115587386701333,-0.01554645411670208,-0.3760028481483459,-0.9264881014823914,0,0,0,-1,192.168.1.8,10.227.79.254,5,0
2015-02-08 21:18:56.653,2,1423459136.162377,37.77941328476908,-122.4388696813234,63.28177,0.46,68.203125,4,10,-9999,2622.723939083333,-0.088287353515625,-0.3557891845703125,-0.8369293212890625,2622.712801833333,-0.2575295416234254,-0.07045286137361022,-0.08093772658525218,2622.712801833333,2.712777287253603,-0.0337891769514375,0.3893858717827791,-0.2645469903945923,-0.05746620520949364,-0.04316971451044083,-0.03136821836233139,-0.03454897925257683,0.09999881684780121,XArbitraryZVertical,0.05735258107587654,0.1854818916055615,0.9578100991465713,0.2119126312969765,-0.03125385195016861,-0.3796203434467316,-0.9246143102645874,0,0,0,-1,192.168.1.8,10.227.79.254,5,0
2015-02-08 21:18:56.672,3,1423459136.162377,37.77941328476908,-122.4388696813234,63.28177,0.46,68.203125,4,10,-9999,2622.782809916667,-0.054168701171875,-0.3820343017578125,-0.92523193359375,2622.785295166667,-0.5752782154996136,0.2394392209707351,-0.4306893409648135,2622.749048375,2.710298499648748,-0.02145052822872866,0.3744718635839217,-0.5362010598182678,0.5674515962600708,-0.1820001602172852,-0.04560451954603195,-0.04066732153296471,0.07111182063817978,XArbitraryZVertical,0.05012222936930402,0.1795671204633097,0.9592830603237721,0.2121778064441244,-0.0199624951928854,-0.3657810389995575,-0.930486798286438,0,0,0,-1,192.168.1.8,10.227.79.254,5,0
2015-02-08 21:18:56.755,4,1423459136.162377,37.77941328476908,-122.4388696813234,63.28177,0.46,68.203125,4,10,-9999,2622.841686375,0.017059326171875,-0.3414306640625,-0.955596923828125,2622.821541958333,-0.5561434030673942,0.3250617142295457,-0.4145372689534829,2622.821541958333,2.682485000779562,0.01286088140500696,0.334256529899937,-0.5631572008132935,0.3380397260189056,-0.3767670392990112,-0.01539887674152851,-0.04497993737459183,0.05524835363030434,XArbitraryZVertical,0.03167684083703066,0.1634270476126219,0.9604236184447477,0.2233263329675227,0.01214875467121601,-0.3280669450759888,-0.9445763826370239,0,0,0,-1,192.168.1.8,10.227.79.254,5,0
2015-02-08 21:18:56.791,5,1423459136.162377,37.77941328476908,-122.4388696813234,63.28177,0.46,68.203125,4,10,-9999,2622.900585583333,0.02886962890625,-0.3131256103515625,-1.067733764648438,2622.894035375,-0.4084183900329169,-0.1339282406912128,-0.4362417655215197,2622.857788375,2.669948676245667,0.02634396387961965,0.3144661699403321,-0.5028249025344849,0.1133101135492325,-0.3748719692230225,-0.01754187792539597,-0.04167380183935165,-0.03067631646990776,XArbitraryZVertical,0.02393288392560658,0.1552784081405538,0.9607269382561023,0.2287347440626591,0.02504920214414597,-0.3093088567256927,-0.9506316781044006,0,0,0,-1,192.168.1.8,10.227.79.254,5,0
2015-02-08 21:18:56.854,6,1423459136.162377,37.77941328476908,-122.4388696813234,63.28177,0.46,68.203125,4,10,-9999,2622.95946025,0.0267333984375,-0.318634033203125,-0.8564300537109375,2622.966528333333,0.3056315572324366,-0.01298051346915522,-0.4258977815315429,2622.930281916667,2.639997081977602,0.02979728901194629,0.3010844965366978,0.4732619524002075,-0.04229557886719704,-0.4142856597900391,-0.003306175814941525,-0.01843109168112278,-0.09341265261173248,XArbitraryZVertical,0.02294723814640675,0.1489217062961901,0.9582066919840297,0.2431782989748915,0.02845266088843346,-0.2965560853481293,-0.9545915126800537,0,0,0,-1,192.168.1.8,10.227.79.254,5,0
2015-02-08 21:18:56.922,7,1423459136.162377,37.77941328476908,-122.4388696813234,63.28177,0.46,68.203125,4,10,-9999,2623.018368,0.02349853515625,-0.31878662109375,-0.871490478515625,2623.002775166667,0.3421709263366507,0.04587694451824999,-0.3344858423790091,2623.002775166667,2.611037821236171,0.0395419212386809,0.3257587635163947,0.3351599872112274,0.05885480344295502,-0.2967171669006348,-0.005256532691419125,0.01970425061881542,0.03114026039838791,XArbitraryZVertical,0.02368073393606281,0.1615717206483297,0.9529016360347083,0.2555626615321181,0.0374525785446167,-0.3200277388095856,-0.9466676115989685,0,0,0,-1,192.168.1.8,10.227.79.254,5,0
2015-02-08 21:18:56.970,8,1423459136.162377,37.77941328476908,-122.4388696813234,63.28177,0.46,68.203125,4,10,-9999,2623.077229875,-0.1695098876953125,-0.305145263671875,-0.7100067138671875,2623.075268333333,0.1038819246407208,-0.1276623552784744,-0.1082758741232426,2623.075268333333,2.608976297467256,0.03079235420259259,0.3458306875979755,0.09687301516532898,-0.1146862506866455,-0.07050714641809464,-0.1771122664213181,0.02035952545702457,0.207010805606842,XArbitraryZVertical,0.03064323601723792,0.1699614261388278,0.9509465657587971,0.2566607386859429,0.02896469086408615,-0.3389782905578613,-0.940348207950592,0,0,0,-1,192.168.1.8,10.227.79.254,5,0
2015-02-08 21:18:57.054,9,1423459136.162377,37.77941328476908,-122.4388696813234,63.28177,0.46,68.203125,4,10,-9999,2623.136117458334,-0.1103057861328125,-0.290863037109375,-0.655242919921875,2623.111515375,-0.1747545002021275,0.2583830847527958,0.001129712934411613,2623.111515375,2.607968742430592,0.03642760821854101,0.3443706841512967,-0.1817633509635925,0.2713591158390045,0.03889814391732216,-0.1533761471509933,0.06109986081719398,0.3560231328010559,XArbitraryZVertical,0.02785790555092646,0.1699768178366785,0.951017382823364,0.256705582456339,0.03428129106760025,-0.3376043736934662,-0.9406636357307434,0,0,0,-1,192.168.1.8,10.227.79.254,5,0
2015-02-08 21:18:57.086,10,1423459136.162377,37.77941328476908,-122.4388696813234,63.28177,0.46,68.203125,4,10,-9999,2623.195010916667,0.0196533203125,-0.26959228515625,-1.07965087890625,2623.184008375,-1.531360503689112,-1.064072138811667,-0.394843725324565,2623.184008375,2.602495333116663,0.00652775357473908,0.2857669038488969,-1.538369297981262,-1.051096320152283,-0.3570757806301117,-0.06368180364370346,0.01317080296576023,0.115660049021244,XArbitraryZVertical,0.03480585776140632,0.1381155249476223,0.9541873497515158,0.2631333418784687,0.006262980867177248,-0.2818933427333832,-0.9594253301620483,0,0,0,-1,192.168.1.8,10.227.79.254,5,0
2015-02-08 21:18:57.165,11,1423459137.116358,37.77941634416374,-122.438858198116,62.9296,0.7,68.203125,4,10,-9999,2623.25388725,0.1630706787109375,-0.2711181640625,-1.22796630859375,2623.256501875,-0.5216077963673557,0.1320411247427827,-0.09903124303125052,2623.220255208334,2.581481526412674,-0.02058469527900543,0.2295041256683855,-1.350089311599731,-0.7309378385543823,-0.5550938248634338,0.1256953924894333,0.02398820966482162,-0.3233477473258972,XArbitraryZVertical,0.0414733978671891,0.1072074935802123,0.9543432131152096,0.2757091622898177,-0.02004353515803814,-0.2274946719408035,-0.9735730290412903,0,0,0,-1,192.168.1.8,10.227.79.254,5,0
2015-02-08 21:18:57.206,12,1423459137.116358,37.77941634416374,-122.438858198116,62.9296,0.7,68.203125,4,10,-9999,2623.312763583333,0.0166778564453125,-0.3680419921875,-1.142684936523438,2623.292748458333,-0.2048418289334067,-0.04194505348485701,0.005095692429757615,2623.292748458333,2.572303137932329,-0.02065933468008877,0.1890631035746252,-0.2118504345417023,-0.02896948717534542,0.04286283627152443,0.1324266046285629,-0.1647681295871735,-0.1693350076675415,XArbitraryZVertical,0.03637466551722696,0.08770010259399798,0.955151572833676,0.2804835977858311,-0.02028975822031498,-0.187938779592514,-0.9819711446762085,0,0,0,-1,192.168.1.8,10.227.79.254,5,0
2015-02-08 21:18:57.262,13,1423459137.116358,37.77941634416374,-122.438858198116,62.9296,0.7,68.203125,4,10,-9999,2623.371696166667,-0.00714111328125,-0.3640899658203125,-0.9398193359375,2623.365241916667,0.3527519316636446,-0.2714514825379236,-0.2726725418977249,2623.328995291667,2.565717332951137,-0.02820240274744358,0.1897410880471684,0.2267229706048965,-0.2841238379478455,-0.312329888343811,0.04815462231636047,-0.1919190436601639,-0.1502801775932312,XArbitraryZVertical,0.04035726130455033,0.08683319499156454,0.9540456442999182,0.2839510456045616,-0.02769258618354797,-0.1886046379804611,-0.9816625714302063,0,0,0,-1,192.168.1.8,10.227.79.254,5,0
2015-02-08 21:18:57.350,14,1423459137.116358,37.77941634416374,-122.438858198116,62.9296,0.7,68.203125,4,10,-9999,2623.430513833333,-0.096405029296875,-0.3019256591796875,-0.7754364013671875,2623.401488625,0.6557344425597793,-0.2026377968152572,-0.1893289155836952,2623.401488625,2.550150165679673,-0.04304217747475977,0.2279294012851803,0.648766040802002,-0.1896643936634064,-0.1515616923570633,-0.07562244683504105,-0.08626437932252884,0.0399455651640892,XArbitraryZVertical,0.05358497559528829,0.1025259984932335,0.9494535791516795,0.2918132468883133,-0.04191600531339645,-0.2259609699249268,-0.9732341170310974,0,0,0,-1,192.168.1.8,10.227.79.254,5,0
2015-02-08 21:18:57.379,15,1423459137.116358,37.77941634416374,-122.438858198116,62.9296,0.7,68.203125,4,10,-9999,2623.489498,-0.0984344482421875,-0.28765869140625,-0.7139739990234375,2623.473982125,1.050732631227569,-0.5271002997995351,-0.1928552071830691,2623.473982125,2.544319487006583,-0.05292483237995567,0.2913640975674977,1.043764352798462,-0.5141270756721497,-0.1550885140895844,-0.06186302751302719,-0.005068784113973379,0.1980583667755127,XArbitraryZVertical,0.06771611404912442,0.1309910616823055,0.9441533334412984,0.2946699044848807,-0.05067054182291031,-0.2872591018676758,-0.9565117359161377,0,0,0,-1,192.168.1.8,10.227.79.254,5,0
2015-02-08 21:18:57.453,16,1423459137.116358,37.77941634416374,-122.438858198116,62.9296,0.7,68.203125,4,10,-9999,2623.548274583333,-0.0601806640625,-0.3735198974609375,-0.972900390625,2623.5464755,-0.1680047184193217,-1.465967648386653,-0.2391361532386841,2623.510228541667,2.537288029480394,-0.0810277239781409,0.3161936089999574,0.3304612040519714,-0.9594577550888062,-0.1902720630168915,0.005057709757238626,-0.02249918878078461,0.2596092522144318,XArbitraryZVertical,0.08499727986530695,0.1382810960570628,0.9401207184519947,0.2997112537528019,-0.07692660391330719,-0.3109511435031891,-0.9473075866699219,0,0,0,-1,192.168.1.8,10.227.79.254,5,0
2015-02-08 21:18:57.497,17,1423459137.116358,37.77941634416374,-122.438858198116,62.9296,0.7,68.203125,4,10,-9999,2623.607269791667,-0.0695037841796875,-0.3579864501953125,-0.8836822509765625,2623.618968833333,-0.7901785375541406,0.6990374418844678,0.2137338574970723,2623.582722208334,2.528857650772057,-0.1590074057392568,0.310238792704785,-0.2191631495952606,-0.4239795506000519,0.12256970256567,0.05351973325014114,-0.013470065779984,-0.02455010637640953,XArbitraryZVertical,0.1212616406236433,0.123173378449813,0.9353114208460469,0.3087336706442717,-0.1507792621850967,-0.3052860498428345,-0.9402478933334351,0,0,0,-1,192.168.1.8,10.227.79.254,5,0
2015-02-08 21:18:57.557,18,1423459137.116358,37.77941634416374,-122.438858198116,62.9296,0.7,68.203125,4,10,-9999,2623.666154,-0.07568359375,-0.3235321044921875,-0.9015655517578125,2623.655215625,-1.394745133458009,0.5492508758501601,0.2051451629815668,2623.618968833333,2.532918859231487,-0.143010167241817,0.2936787381947918,-0.7971289157867432,0.712022602558136,0.2514937520027161,0.06389610469341278,-0.06986907124519348,0.05923039466142654,XArbitraryZVertical,0.1111594724494872,0.1180532854612703,0.9382347314395895,0.3056510791687928,-0.1364211291074753,-0.2894754111766815,-0.9474139809608459,0,0,0,-1,192.168.1.8,10.227.79.254,5,0
2015-02-08 21:18:57.621,19,1423459137.116358,37.77941634416374,-122.438858198116,62.9296,0.7,68.203125,4,10,-9999,2623.724927333334,-0.2824249267578125,-0.289703369140625,-1.178390502929688,2623.727708958334,-0.4936539259853389,0.1959319571904377,0.06321572111131989,2623.691462208334,2.537815928114282,-0.1182979236406767,0.1944621716984381,-1.625288963317871,-0.2197929471731186,0.3156458139419556,-0.02838261239230633,-0.1322616189718246,-0.1509802341461182,XArbitraryZVertical,0.08498764556006207,0.07503256349170612,0.946899044134994,0.3008810641005327,-0.115797683596611,-0.1932388693094254,-0.9742944240570068,0,0,0,-1,192.168.1.8,10.227.79.254,5,0
2015-02-08 21:18:57.674,20,1423459137.116358,37.77941634416374,-122.438858198116,62.9296,0.7,68.203125,4,10,-9999,2623.783927708334,-0.169036865234375,-0.2448272705078125,-1.092971801757812,2623.76395575,-0.311728065599846,0.7428240712631146,-0.2175762663178386,2623.76395575,2.538612771491405,-0.09899994189859325,0.1473200228407698,-0.3186174631118774,0.7557351589202881,-0.1797608584165573,-0.1873580366373062,-0.1178454607725143,-0.2094162851572037,XArbitraryZVertical,0.06894616274406885,0.05553507996315885,0.9500580199490533,0.2992524691073606,-0.09776768833398819,-0.1467877179384232,-0.98432457447052,0,0,0,-1,192.168.1.8,10.227.79.254,5,0
2015-02-08 21:18:57.752,21,1423459137.116358,37.77941634416374,-122.438858198116,62.9296,0.7,68.203125,4,10,-9999,2623.842697833334,-0.0921783447265625,-0.1895599365234375,-0.9419708251953125,2623.836448958334,0.1950176939882134,0.2115878822906865,-0.311494240056137,2623.836448958334,2.51940083785399,-0.06450010765705728,0.1468745313577943,0.1881341338157654,0.224488839507103,-0.2736752331256866,-0.05005388334393501,-0.0360717885196209,0.004296650644391775,XArbitraryZVertical,0.05306137472296019,0.05996954059275166,0.9482148804292519,0.3073705991895728,-0.06376142054796219,-0.1463470309972763,-0.9871762990951538,0,0,0,-1,192.168.1.8,10.227.79.254,5,0
2015-02-08 21:18:57.791,22,1423459137.116358,37.77941634416374,-122.438858198116,62.9296,0.7,68.203125,4,10,-9999,2623.901552625,-0.01873779296875,-0.15435791015625,-0.8797454833984375,2623.908942666667,0.6658451336382651,-0.0572302665613668,-0.2725263343538796,2623.872696,2.509239654005937,-0.0571047047364412,0.1614058535194986,0.5594976544380188,0.1455812901258469,-0.3139386773109436,-0.01120355166494846,-0.004851915873587132,0.08007427304983139,XArbitraryZVertical,0.05210095615811099,0.06774029436672341,0.9462361143493783,0.3119839078983472,-0.05633185058832169,-0.1607059389352798,-0.9853934645652771,0,0,0,-1,192.168.1.8,10.227.79.254,5,0
2015-02-08 21:18:57.851,23,1423459137.116358,37.77941634416374,-122.438858198116,62.9296,0.7,68.203125,4,10,-9999,2623.960430583334,-0.137451171875,-0.1221923828125,-0.98504638671875,2623.945189083333,1.036016801992118,-0.7264134063099373,-0.1474315326823506,2623.945189083333,2.49657390224354,-0.06796736448797289,0.2142973154343326,1.029134154319763,-0.7135136127471924,-0.1096129864454269,0.003785268636420369,0.07839878648519516,-0.0510394349694252,XArbitraryZVertical,0.06591656289903955,0.09066428006835343,0.9413076574326188,0.3183942353655196,-0.06636156141757965,-0.2126608639955521,-0.974869966506958,0,0,0,-1,192.168.1.8,10.227.79.254,5,0
2015-02-08 21:18:57.920,24,1423459137.116358,37.77941634416374,-122.438858198116,62.9296,0.7,68.203125,4,10,-9999,2624.019312916667,-0.0155029296875,-0.255126953125,-0.751678466796875,2624.017682833333,0.5248914739914233,0.1019103864857352,-0.2200229124112944,2623.981436208333,2.495197190494437,-0.07691236525527838,0.2563670782176413,1.187397122383118,0.1099117398262024,-0.1588180810213089,-0.01658651418983936,0.08549248427152634,0.1375993490219116,XArbitraryZVertical,0.07672674121388695,0.1090140842846213,0.9381889365606237,0.3194220654957054,-0.07432535290718079,-0.2535680532455444,-0.9644578695297241,0,0,0,-1,192.168.1.8,10.227.79.254,5,0
2015-02-08 21:18:57.968,25,1423459137.116358,37.77941634416374,-122.438858198116,62.9296,0.7,68.203125,4,10,-9999,2624.07825225,-0.0252227783203125,-0.2229461669921875,-0.9801788330078125,2624.053929333334,0.2859598515244573,-0.007130081186469145,-0.4015463691560764,2624.053929333334,2.481904055701353,-0.06486387268810111,0.2955810175031059,0.279072493314743,0.005772161297500134,-0.3637294769287109,0.0144152594730258,0.04414911195635796,0.0480356365442276,XArbitraryZVertical,0.07801337871288916,0.1288535908609917,0.9337406271002207,0.3247138835444648,-0.06200742349028587,-0.2912957072257996,-0.9546213150024414,0,0,0,-1,192.168.1.8,10.227.79.254,5,0
2015-02-08 21:18:58.050,26,1423459137.116358,37.77941634416374,-122.438858198116,62.9296,0.7,68.203125,4,10,-9999,2624.137094041667,0.087554931640625,-0.2288360595703125,-0.9967041015625,2624.126423041667,-0.0306553809917931,0.1687575940594871,-0.2378386611555975,2624.126423041667,2.454789456556128,-0.03427775147132158,0.3071549127289009,-0.03755155950784683,0.1816711872816086,-0.2000265866518021,0.1341685354709625,0.05605581775307655,-0.02325341291725636,XArbitraryZVertical,0.06744520913628833,0.1383195330589122,0.9295127890892281,0.3351489601035708,-0.03266707435250282,-0.3023479282855988,-0.9526376724243164,0,0,0,-1,192.168.1.8,10.227.79.254,5,0
2015-02-08 21:18:58.086,27,1423459137.116358,37.77941634416374,-122.438858198116,62.9296,0.7,68.203125,4,10,-9999,2624.195978083334,0.033172607421875,-0.258880615234375,-0.753021240234375,2624.198916666667,0.1766621224909513,0.4332555629912138,0.0168788486728132,2624.162669541667,2.45083017848843,-0.01969330521958595,0.3064366537202163,0.1881472915410995,0.2468120157718658,0.008306514471769333,0.06729762256145477,0.06176453083753586,0.03840423747897148,XArbitraryZVertical,0.06082415257398841,0.1403053233232731,0.9293694288521203,0.3359870584202697,-0.01877466961741447,-0.3016632199287415,-0.9532296657562256,0,0,0,-1,192.168.1.8,10.227.79.254,5,0
2015-02-08 21:18:58.154,28,1423459137.116358,37.77941634416374,-122.438858198116,62.9296,0.7,68.203125,4,10,-9999,2624.254861166667,0.01397705078125,-0.3813323974609375,-0.831298828125,2624.235163125,-0.2611916544383934,-0.04264626379987487,0.2376242766878461,2624.235163125,2.457941354008797,-0.0007244712090770796,0.311417297677756,-0.2680957913398743,-0.02970552071928978,0.2754252851009369,0.09181511402130127,0.005779407452791929,0.3106036186218262,XArbitraryZVertical,0.05232122387010061,0.1459879690764394,0.9307271995573537,0.3312051968520593,-0.0006896242848597467,-0.3064080774784088,-0.9519000053405762,0,0,0,-1,192.168.1.8,10.227.79.254,5,0
2015-02-08 21:18:58.207,29,1423459138.18577,37.77942166667225,-122.4388514925935,62.95596,0.7,68.203125,4,10,-9999,2624.313744916667,-0.05523681640625,-0.3619537353515625,-0.7978973388671875,2624.307656708334,0.1102535375487354,-0.5411479419174851,0.1394535010048002,2624.271409791667,2.470719951547998,-0.01907013433577751,0.3028877694298086,-0.1667882651090622,-0.7199205160140991,0.3428190052509308,-0.03746312111616135,-0.08168134093284607,0.08057203888893127,XArbitraryZVertical,0.05856034120455156,0.1393481478493337,0.932942985900752,0.3267570430573304,-0.01820094138383865,-0.2982777655124664,-0.9543055891990662,0,0,0,-1,192.168.1.8,10.227.79.254,5,0
2015-02-08 21:18:58.263,30,1423459138.18577,37.77942166667225,-122.4388514925935,62.95596,0.7,68.203125,4,10,-9999,2624.372622708333,-0.12762451171875,-0.3789215087890625,-0.95166015625,2624.380150083333,-0.2091593456926432,-0.7628779405875202,-0.2323477556200721,2624.343903375,2.491415646142423,-0.05832170326527621,0.2966473125607629,-0.3959782123565674,-0.1905501186847687,0.4032595157623291,0.01434561423957348,-0.09487616270780563,-0.0215461254119873,XArbitraryZVertical,0.07450610309555057,0.130770298726298,0.9354431036652868,0.3198345969053699,-0.05574271082878113,-0.2923156023025513,-0.9546959400177002,0,0,0,-1,192.168.1.8,10.227.79.254,5,0
2015-02-08 21:18:58.367,31,1423459138.18577,37.77942166667225,-122.4388514925935,62.95596,0.7,68.203125,4,10,-9999,2624.431497166667,-0.0697174072265625,-0.3436737060546875,-1.06390380859375,2624.416397166667,-0.1297787693967604,-0.47604643643828,-0.09661548960643965,2624.416397166667,2.487030560104173,-0.09812642820321686,0.284315862986728,-0.1366678923368454,-0.4631093144416809,-0.0588139072060585,0.05532439798116684,-0.07097010314464569,-0.05764205008745193,XArbitraryZVertical,0.09146271051667383,0.1183908319184501,0.9340062012441204,0.3244234879600162,-0.09403594583272934,-0.2805008590221405,-0.9552363753318787,0,0,0,-1,192.168.1.8,10.227.79.254,5,0
2015-02-08 21:18:58.380,32,1423459138.18577,37.77942166667225,-122.4388514925935,62.95596,0.7,68.203125,4,10,-9999,2624.490378875,-0.0694427490234375,-0.3476104736328125,-0.9804840087890625,2624.488890333334,-0.5361822117489232,-0.3070307820691642,-0.2212503633577119,2624.488890333334,2.477886309127872,-0.09508894148910271,0.2703472229757637,-0.5430511832237244,-0.2940849661827087,-0.183451771736145,0.01120536401867867,-0.07775205373764038,0.0009507369832135737,XArbitraryZVertical,0.08837900638829373,0.1119230584482776,0.9336705801550208,0.328514273617453,-0.09149710834026337,-0.2670660614967346,-0.9593247771263123,0,0,0,-1,192.168.1.8,10.227.79.254,5,0
2015-02-08 21:18:58.454,33,1423459138.18577,37.77942166667225,-122.4388514925935,62.95596,0.7,68.203125,4,10,-9999,2624.5492685,-0.25836181640625,-0.214874267578125,-1.032745361328125,2624.52513725,-0.3245256199021128,-0.7585633533054829,-0.05610694521357137,2624.52513725,2.472333243598353,-0.1182844726059378,0.2549472886092154,-0.3313944935798645,-0.745617687702179,-0.0183086059987545,-0.01980829238891602,-0.03290081396698952,-0.07892570644617081,XArbitraryZVertical,0.09705472493728468,0.1006125424731968,0.9327624189842598,0.332282660388823,-0.114194393157959,-0.2521944046020508,-0.9609149694442749,0,0,0,-1,192.168.1.8,10.227.79.254,5,0
2015-02-08 21:18:58.504,34,1423459138.18577,37.77942166667225,-122.4388514925935,62.95596,0.7,68.203125,4,10,-9999,2624.608265708333,-0.14495849609375,-0.00714111328125,-0.56036376953125,2624.597630583333,-0.1505724648719901,0.6352038674002495,1.162185123899058,2624.597630583333,2.494048547993712,-0.1187811656720529,0.2359111261305363,-0.1574412435293198,0.648149311542511,1.199982881546021,-0.04486020281910896,0.1882272660732269,0.2761807441711426,XArbitraryZVertical,0.09325465073913593,0.09261851113816479,0.9375722938303145,0.3219993406077848,-0.1152197569608688,-0.2337289750576019,-0.9654507637023926,0,0,0,-1,192.168.1.8,10.227.79.254,5,0
2015-02-08 21:18:58.558,35,1423459138.18577,37.77942166667225,-122.4388514925935,62.95596,0.7,68.203125,4,10,-9999,2624.667052125,-0.342315673828125,0.1930389404296875,-0.21673583984375,2624.67012425,0.9813570185148958,-0.7781700778828642,2.359106656844347,2624.633877625,2.560288038937755,-0.1309929000696539,0.2335129729965268,0.5015087723731995,-0.3607597649097443,2.207730054855347,-0.02885601855814457,0.2399872690439224,0.5192122459411621,XArbitraryZVertical,0.09558977968602327,0.09273744141860767,0.9473092376753264,0.291320389251618,-0.1270735412836075,-0.2313965708017349,-0.9645247459411621,0,0,0,-1,192.168.1.8,10.227.79.254,5,0
2015-02-08 21:18:58.623,36,1423459138.18577,37.77942166667225,-122.4388514925935,62.95596,0.7,68.203125,4,10,-9999,2624.725945833333,-0.4637603759765625,0.39410400390625,-0.4736175537109375,2624.706371125,0.2105322052345791,-2.720572185278622,1.685385490598281,2624.706371125,2.726915703464907,-0.2589826086256688,0.252816259013162,0.2036635726690292,-2.707627058029175,1.723182439804077,-0.2363881170749664,0.5011845231056213,0.6680854558944702,XArbitraryZVertical,0.1510911718251463,0.09596863193124684,0.9592954246827275,0.2184348133071947,-0.2479563653469086,-0.2501316964626312,-0.9359229803085327,0,0,0,-1,192.168.1.8,10.227.79.254,5,0
2015-02-08 21:18:58.676,37,1423459138.18577,37.77942166667225,-122.4388514925935,62.95596,0.7,68.203125,4,10,-9999,2624.784899541667,-0.203643798828125,0.2310028076171875,-0.9445037841796875,2624.778864625,-2.179054862917942,0.1203807402259797,0.7103327070158209,2624.742617958334,2.774107732684612,-0.3647586949532313,0.2387034193782222,-0.4976662695407867,-2.356647491455078,1.041641592979431,-0.1655826717615128,0.5840839743614197,0.416998028755188,XArbitraryZVertical,0.1984426350554463,0.08222031088498587,0.9560369806001224,0.1996337466342887,-0.3466090857982635,-0.2364430129528046,-0.907720685005188,0,0,0,-1,192.168.1.8,10.227.79.254,5,0
2015-02-08 21:18:58.756,38,1423459138.18577,37.77942166667225,-122.4388514925935,62.95596,0.7,68.203125,4,10,-9999,2624.84372675,-0.48468017578125,0.187255859375,-1.280807495117188,2624.815111458333,-1.956618593926818,-1.489434358647995,0.8569921892981575,2624.815111458333,2.777764402294026,-0.4157396587696482,0.0964767383789199,-1.963430523872375,-1.476563811302185,0.8948404788970947,-0.1123393997550011,0.289961189031601,-0.2792708873748779,XArbitraryZVertical,0.2112703257630382,0.009110526464813216,0.9594074218236355,0.1865991605266575,-0.4019885957241058,-0.09632714092731476,-0.9105637073516846,0,0,0,-1,192.168.1.8,10.227.79.254,5,0
2015-02-08 21:18:58.793,39,1423459138.18577,37.77942166667225,-122.4388514925935,62.95596,0.7,68.203125,4,10,-9999,2624.902696125,-0.2612457275390625,0.15478515625,-0.8523101806640625,2624.887604958334,-1.42006460488972,-1.824083985434044,1.275476262987138,2624.887604958334,2.771064499758066,-0.4964545559015817,-0.0425869210274728,-1.426876544952393,-1.811213493347168,1.313323974609375,0.1357761025428772,0.01093852426856756,-0.06664980202913284,XArbitraryZVertical,0.2376250744927148,-0.06553265109031747,0.9535092344068666,0.1733780133530558,-0.4758792519569397,0.04257404804229736,-0.8784795999526978,0,0,0,-1,192.168.1.8,10.227.79.254,5,0
2015-02-08 21:18:58.859,40,1423459138.18577,37.77942166667225,-122.4388514925935,62.95596,0.7,68.203125,4,10,-9999,2624.961497791667,-0.62628173828125,0.40667724609375,-0.4589996337890625,2624.960098666667,-1.449485078084043,-3.840537950100544,3.245650346862459,2624.92385175,2.806731632909006,-0.6003410340045805,-0.1163984943590015,-1.193195819854736,-3.749898195266724,2.499431133270264,0.1853078007698059,0.126478910446167,0.01188131980597973,XArbitraryZVertical,0.2817947550839303,-0.1039805012156981,0.9431989748647974,0.1419699446648129,-0.5611012578010559,0.116135835647583,-0.8195595145225525,0,0,0,-1,192.168.1.8,10.227.79.254,5,0
2015-02-08 21:18:58.955,41,1423459138.18577,37.77942166667225,-122.4388514925935,62.95596,0.7,68.203125,4,10,-9999,2625.020374541667,-1.229965209960938,0.6343841552734375,-0.8367156982421875,2625.032592208333,-2.039606688235322,-1.192641566757422,2.705258210062339,2624.996345458334,2.893989334175968,-0.8754092194060156,-0.3535247377520324,-2.54981541633606,-4.729658603668213,3.524738073348999,-0.07784869521856308,0.1607512980699539,0.2261685878038406,XArbitraryZVertical,0.3943964392986685,-0.2095723302484351,0.8939937786350266,0.03613877176461675,-0.7203233242034912,0.3462067246437073,-0.6010617613792419,0,0,0,-1,192.168.1.8,10.227.79.254,5,0
2015-02-08 21:18:58.969,42,1423459138.18577,37.77942166667225,-122.4388514925935,62.95596,0.7,68.203125,4,10,-9999,2625.079261916667,-1.125823974609375,0.710968017578125,-0.63519287109375,2625.068839041667,-3.54840302695652,0.6090939697570037,1.679020535592992,2625.032592208333,2.893914173631174,-0.9728442274527417,-0.4910201763933304,-2.046418905258179,-1.179771184921265,2.743104696273804,-0.5021605491638184,0.1048444584012032,-0.2231495380401611,XArbitraryZVertical,0.42343555055927,-0.2692257157920329,0.8649700824954492,-0.006826775715321461,-0.7288422584533691,0.4715257883071899,-0.4964396953582764,0,0,0,-1,192.168.1.8,10.227.79.254,5,0
2015-02-08 21:18:59.056,43,1423459138.18577,37.77942166667225,-122.4388514925935,62.95596,0.7,68.203125,4,10,-9999,2625.138152541667,-1.104415893554688,0.70635986328125,-0.6887664794921875,2625.141332416667,-1.273987023305565,-1.14612892568697,1.93942709014203,2625.105085916667,2.750164517133235,-1.05484468941121,-0.7172256678973116,-2.990882635116577,-0.6845954060554504,1.654650926589966,-0.3752804100513458,0.1134250536561012,-0.491497665643692,XArbitraryZVertical,0.4033140809285281,-0.3891409752072662,0.8280419183073547,-0.01592592431873317,-0.6555270552635193,0.657296359539032,-0.371814101934433,0,0,0,-1,192.168.1.8,10.227.79.254,5,0
2015-02-08 21:18:59.087,44,1423459138.18577,37.77942166667225,-122.4388514925935,62.95596,0.7,68.203125,4,10,-9999,2625.197034083334,-1.232757568359375,0.808441162109375,-0.1104278564453125,2625.177579666667,-0.4135417793380113,-0.7280776156751279,1.308384944577247,2625.177579666667,2.714363740996619,-1.146697293541147,-0.8736639040101818,-0.4203539192676544,-0.7152075171470642,1.346230387687683,-0.6528921127319336,-0.06455320864915848,-0.03108098730444908,XArbitraryZVertical,0.4049927439467941,-0.4515362189970425,0.7925518884742713,-0.06290806275973751,-0.5851449966430664,0.7666863799095154,-0.2641918361186981,0,0,0,-1,192.168.1.8,10.227.79.254,5,0
2015-02-08 21:18:59.156,45,1423459138.18577,37.77942166667225,-122.4388514925935,62.95596,0.7,68.203125,4,10,-9999,2625.255992041667,-0.8523712158203125,0.7116241455078125,-0.04931640625,2625.250072875,-1.488366963683091,-0.3630684850943935,0.6368960399568858,2625.250072875,2.647914055687881,-1.222747228144133,-0.9348665586449657,-1.495179057121277,-0.3501985967159271,0.6747410297393799,-0.2914938032627106,-0.004120050929486752,0.1565160006284714,XArbitraryZVertical,0.4067320762546729,-0.482996384591317,0.772057802581449,-0.07218213137888919,-0.5583139061927795,0.8045198321342468,-0.2025670260190964,0,0,0,-1,192.168.1.8,10.227.79.254,5,0
2015-02-08 21:18:59.205,46,1423459138.18577,37.77942166667225,-122.4388514925935,62.95596,0.7,68.203125,4,10,-9999,2625.314800083333,-0.67578125,0.7857818603515625,-0.1048583984375,2625.322566583333,-0.0558960228552371,-0.7133154474367096,-0.1531416163755895,2625.286319875,2.601103387793999,-1.262984675152463,-0.9550440981782784,-0.6210307478904724,0.01845631562173367,-0.1385595947504044,-0.2526896595954895,-0.1791626960039139,0.08195661753416061,XArbitraryZVertical,0.4062506356415371,-0.4974592385005613,0.763270811923953,-0.07008847791365813,-0.550426185131073,0.8163391947746277,-0.1749894469976425,0,0,0,-1,192.168.1.8,10.227.79.254,5,0
2015-02-08 21:18:59.263,47,1423459139.20488,37.77942996475639,-122.4388473016419,62.85526,0.73,68.203125,4,10,-9999,2625.373666125,-0.5946807861328125,0.8282470703125,-0.2263946533203125,2625.358813333333,0.656093702990831,-1.846011654901429,-0.02185203569242717,2625.358813333333,2.598444377075827,-1.322371290876799,-0.948714997587894,0.6492817997932434,-1.833142042160034,0.01599216088652611,-0.1204641237854958,0.01246690843254328,-0.04170254617929459,XArbitraryZVertical,0.4295267910181292,-0.4938287743942758,0.7516244088350321,-0.08185734799832337,-0.5648385882377625,0.8126673698425293,-0.1432797610759735,0,0,0,-1,192.168.1.8,10.227.79.254,5,0
2015-02-08 21:18:59.354,48,1423459139.20488,37.77942996475639,-122.4388473016419,62.85526,0.73,68.203125,4,10,-9999,2625.432558041667,-0.4104156494140625,0.7171630859375,0.0761260986328125,2625.431307041667,0.7378804453316005,-1.93501103642246,0.279933916925935,2625.395060541667,2.658721687664588,-1.352929745424673,-0.9372515737070964,1.316003680229187,-2.417590856552124,-0.09521771967411041,0.1025469079613686,0.02928627282381058,-0.03985591232776642,XArbitraryZVertical,0.4581364803482797,-0.4755321662206725,0.7431489145265684,-0.1082118990756672,-0.5780107975006104,0.8059340715408325,-0.1279602497816086,0,0,0,-1,192.168.1.8,10.227.79.254,5,0
2015-02-08 21:18:59.384,49,1423459139.20488,37.77942996475639,-122.4388473016419,62.85526,0.73,68.203125,4,10,-9999,2625.491466416667,-0.375244140625,0.652374267578125,-0.2138824462890625,2625.467553791667,0.08023838048299736,-1.066083358066895,0.01453659849408851,2625.467553791667,2.743209243272655,-1.410841683971312,-0.9400309963636212,0.07342658936977386,-1.053213953971863,0.0523800365626812,0.105198860168457,-0.1629993617534637,-0.001266010920517147,XArbitraryZVertical,0.4983876701647463,-0.4523747818087613,0.7234630995122393,-0.1535185026483418,-0.5822343826293945,0.8075763583183289,-0.09393357485532761,0,0,0,-1,192.168.1.8,10.227.79.254,5,0
2015-02-08 21:18:59.454,50,1423459139.20488,37.77942996475639,-122.4388473016419,62.85526,0.73,68.203125,4,10,-9999,2625.550361958333,-0.4993743896484375,0.6798095703125,-0.1053009033203125,2625.540047541667,0.5632734842538634,-1.332293739579542,-0.04321671290536985,2625.540047541667,2.788798462379863,-1.442822245581314,-0.935311243167699,0.5564618110656738,-1.319424510002136,-0.005373804364353418,0.151915967464447,-0.12332633882761,-0.02402307651937008,XArbitraryZVertical,0.5209836304097121,-0.4366909486124245,0.7120964762600938,-0.1754869816911464,-0.588714063167572,0.8047838807106018,-0.07575414329767227,0,0,0,-1,192.168.1.8,10.227.79.254,5,0
2015-02-08 21:18:59.503,51,1423459139.20488,37.77942996475639,-122.4388473016419,62.85526,0.73,68.203125,4,10,-9999,2625.609387666667,-0.5733184814453125,0.6715240478515625,0.0009765625,2625.6125415,0.7216628595574539,-0.7378333073803061,-0.1747126885730133,2625.576294291667,2.827224451611364,-1.456566835853811,-0.9316034195571733,0.7077280879020691,-1.157534718513489,-0.05743780359625816,0.05111043900251389,-0.1494097709655762,-0.01078586373478174,XArbitraryZVertical,0.5348760392280345,-0.4241579783766217,0.7053819768689374,-0.1908766584673736,-0.592660129070282,0.8025774955749512,-0.06799526512622833,0,0,0,-1,192.168.1.8,10.227.79.254,5,0
2015-02-08 21:18:59.558,52,1423459139.20488,37.77942996475639,-122.4388473016419,62.85526,0.73,68.203125,4,10,-9999,2625.668139083334,-0.7085723876953125,0.728179931640625,-0.026824951171875,2625.648788083333,0.3702928421834515,-0.5179805709626677,-0.1698468269453295,2625.648788083333,2.898768579995475,-1.452320802561145,-0.9180149723250598,0.3634812831878662,-0.5051116943359375,-0.1320047527551651,-0.08675525337457657,-0.08716786652803421,0.1165323629975319,XArbitraryZVertical,0.5507686866334776,-0.4009452027125805,0.7010301721612096,-0.2108399771519606,-0.6031403541564941,0.7943974733352661,-0.07179359346628189,0,0,0,-1,192.168.1.8,10.227.79.254,5,0
2015-02-08 21:18:59.653,53,1423459139.20488,37.77942996475639,-122.4388473016419,62.85526,0.73,68.203125,4,10,-9999,2625.72702175,-0.813629150390625,0.929534912109375,-0.047882080078125,2625.721282,0.287260273084743,-0.2202354326662828,-0.4132938390405249,2625.685034916667,2.91280397127292,-1.451337566005522,-0.9094629863935153,0.264704704284668,-0.234151616692543,-0.2805600762367249,-0.1017247140407562,-0.02541060745716095,0.02311422489583492,XArbitraryZVertical,0.5547961526608762,-0.3944672915742724,0.7009165281218052,-0.2128680471006274,-0.6097926497459412,0.7891740202903748,-0.07319357246160507,0,0,0,-1,192.168.1.8,10.227.79.254,5,0
2015-02-08 21:18:59.676,54,1423459139.20488,37.77942996475639,-122.4388473016419,62.85526,0.73,68.203125,4,10,-9999,2625.785927041667,-0.6531219482421875,1.013839721679688,-0.1602630615234375,2625.793775291667,0.173255406824522,0.3245083093550272,-0.6262244871528293,2625.757528625,2.93102562691733,-1.447272372892648,-0.8764868256607585,0.01463210582733154,0.05469230189919472,-0.72159743309021,-0.1666560918092728,0.2971323430538177,-0.02724253013730049,XArbitraryZVertical,0.5628041670969673,-0.3792534555645365,0.7043525838907438,-0.2081002727222917,-0.6349796652793884,0.7684956789016724,-0.07883657515048981,0,0,0,-1,192.168.1.8,10.227.79.254,5,0
2015-02-08 21:18:59.756,55,1423459139.20488,37.77942996475639,-122.4388473016419,62.85526,0.73,68.203125,4,10,-9999,2625.844821875,-0.618408203125,1.196990966796875,0.0515289306640625,2625.830022375,-0.05042642260843236,0.7275234118522823,-0.8598441685095233,2625.830022375,2.93152385150659,-1.418069187071013,-0.8291140730511393,-0.05718366801738739,0.7403189539909363,-0.8219557404518127,-0.010404072701931,0.3948079347610474,0.1532471030950546,XArbitraryZVertical,0.5606143525383125,-0.3665051621528608,0.7183668609755763,-0.1879749102818328,-0.6676660180091858,0.7373331785202026,-0.1027710288763046,0,0,0,-1,192.168.1.8,10.227.79.254,5,0
2015-02-08 21:18:59.795,56,1423459139.20488,37.77942996475639,-122.4388473016419,62.85526,0.73,68.203125,4,10,-9999,2625.903776625,-0.29791259765625,0.7208709716796875,-0.184326171875,2625.902516,-0.2381353373010323,0.5674719577123732,-0.1252106491789474,2625.902516,2.876577525546801,-1.412780351876471,-0.8014498123458421,-0.244892492890358,0.5802673697471619,-0.08732271939516068,0.3528772294521332,0.08087468147277832,-0.08938309550285339,XArbitraryZVertical,0.553224938763705,-0.3731051394467273,0.7277580522451913,-0.1584390716983375,-0.6869989633560181,0.7183654308319092,-0.1094694435596466,0,0,0,-1,192.168.1.8,10.227.79.254,5,0
2015-02-08 21:18:59.857,57,1423459139.20488,37.77942996475639,-122.4388473016419,62.85526,0.73,68.203125,4,10,-9999,2625.962622333333,-0.64813232421875,0.914794921875,0.0754852294921875,2625.938762958333,0.2870948907810491,0.4399100036069948,-0.08256731485627167,2625.938762958333,2.881075527962632,-1.39093892753256,-0.7991110490511392,0.280337780714035,0.4527052640914917,-0.04467965662479401,0.2563926577568054,0.02860959991812706,0.0677710697054863,XArbitraryZVertical,0.5464828564730345,-0.3728039630790398,0.7336642812067466,-0.155275288359208,-0.6860954165458679,0.7167364954948425,-0.1247473880648613,0,0,0,-1,192.168.1.8,10.227.79.254,5,0
2015-02-08 21:18:59.921,58,1423459139.20488,37.77942996475639,-122.4388473016419,62.85526,0.73,68.203125,4,10,-9999,2626.021528083334,-0.4484405517578125,0.896514892578125,-0.11090087890625,2626.011256375,-0.7922965495690806,0.3449786970739213,-0.7864719499489683,2626.011256375,2.865433000861421,-1.391294071161751,-0.7693982706027178,-0.7990535497665405,0.3577737808227539,-0.7485848665237427,0.1299445331096649,0.250265508890152,0.1333773732185364,XArbitraryZVertical,0.5487353179089159,-0.3671026253154817,0.7378654258734482,-0.1402848055438992,-0.7067878246307373,0.6957031488418579,-0.1282504200935364,0,0,0,-1,192.168.1.8,10.227.79.254,5,0
2015-02-08 21:18:59.970,59,1423459139.20488,37.77942996475639,-122.4388473016419,62.85526,0.73,68.203125,4,10,-9999,2626.0804155,-0.3366546630859375,0.713775634765625,-0.036346435546875,2626.083750416667,-0.4203794454367897,1.049506245545587,-0.0856776206933752,2626.047503541667,2.820460815935023,-1.396534257084552,-0.751508141768344,-0.7265691757202148,0.9744561314582825,-0.5465518236160278,0.3573808670043945,0.1555306166410446,-0.02210557088255882,XArbitraryZVertical,0.5454057535061261,-0.3730832660707275,0.7410711569446278,-0.1189747072498086,-0.7195940017700195,0.6827414631843567,-0.1266828775405884,0,0,0,-1,192.168.1.8,10.227.79.254,5,0
2015-02-08 21:19:00.083,60,1423459139.20488,37.77942996475639,-122.4388473016419,62.85526,0.73,68.203125,4,10,-9999,2626.139305458334,-0.4145050048828125,0.6361541748046875,-0.0112152099609375,2626.119997125,-0.2905069327696586,0.527770351129799,0.197589508652903,2626.119997125,2.778236071065675,-1.360116212114052,-0.7525538272543351,-0.2972638010978699,0.5405651330947876,0.2354757934808731,0.3053890466690063,-0.03842457756400108,0.1347055733203888,XArbitraryZVertical,0.5235957976553158,-0.3866813735989623,0.7529879742439789,-0.09661297342114568,-0.7138057947158813,0.683505117893219,-0.1526499092578888,0,0,0,-1,192.168.1.8,10.227.79.254,5,0
2015-02-08 21:19:00.090,61,1423459139.20488,37.77942996475639,-122.4388473016419,62.85526,0.73,68.203125,4,10,-9999,2626.198215666667,-0.5443115234375,0.6219635009765625,-0.03857421875,2626.192490875,-0.222663969264326,0.1155529618018841,0.5638282207089268,2626.156244125,2.770418541136662,-1.354072038516484,-0.7663485231978595,-0.2153254747390747,0.2189258188009262,0.4575099647045135,0.2783624827861786,-0.06835658103227615,0.1375240981578827,XArbitraryZVertical,0.5173057468090546,-0.3936180979507093,0.7537162478916113,-0.09680586215822098,-0.7035943865776062,0.6935091614723206,-0.1549191176891327,0,0,0,-1,192.168.1.8,10.227.79.254,5,0
2015-02-08 21:19:00.158,62,1423459139.20488,37.77942996475639,-122.4388473016419,62.85526,0.73,68.203125,4,10,-9999,2626.25709525,-0.5950775146484375,0.662689208984375,-0.0336761474609375,2626.228737583333,-0.1355562310655783,-0.07048002561672902,0.5561362125324509,2626.228737583333,2.762510006475563,-1.353285660618044,-0.8087378767831557,-0.1423129588365555,-0.05768547207117081,0.5940216779708862,0.09804872423410416,-0.08105186372995377,0.07828141748905182,XArbitraryZVertical,0.5075728607981421,-0.4097248669738009,0.7503783929096004,-0.1068999149621259,-0.6741443276405334,0.7234163880348206,-0.1489906460046768,0,0,0,-1,192.168.1.8,10.227.79.254,5,0
2015-02-08 21:19:00.221,63,1423459140.178926,37.77943801138343,-122.43884487089,62.82529,0.78,10.8984375,4,10,-9999,2626.315990458334,-0.6932525634765625,0.652557373046875,0.015411376953125,2626.301231625,-0.06170624140546297,-0.2965565695018826,0.5592643615488581,2626.301231625,2.775236572096086,-1.355592400741705,-0.8523400754469177,-0.06846287101507187,-0.2837621867656708,0.5971493124961853,-0.01043293718248606,-0.09318530559539795,0.186658188700676,XArbitraryZVertical,0.5027806776540071,-0.4206315484874319,0.7446361573687186,-0.1256888369506423,-0.6430399417877197,0.7528227567672729,-0.1405613869428635,0,0,0,-1,192.168.1.8,10.227.79.254,5,0
2015-02-08 21:19:00.266,64,1423459140.178926,37.77943801138343,-122.43884487089,62.82529,0.78,10.8984375,4,10,-9999,2626.374880333333,-0.8398284912109375,0.821563720703125,0.0178070068359375,2626.373725333333,-0.2424882741027669,0.1195583560813633,0.3166743546924501,2626.337478166667,2.776637377534823,-1.348298862394277,-0.8793633709799666,-0.07757110148668289,0.2207821011543274,0.8082754015922546,-0.09249307215213776,-0.05353621765971184,0.1478623449802399,XArbitraryZVertical,0.4951381366154364,-0.4295174483582513,0.7434120269765703,-0.1330095687212427,-0.6219234466552734,0.7703331112861633,-0.1407059729099274,0,0,0,-1,192.168.1.8,10.227.79.254,5,0
2015-02-08 21:19:00.355,65,1423459140.178926,37.77943801138343,-122.43884487089,62.82529,0.78,10.8984375,4,10,-9999,2626.433766291667,-0.902374267578125,0.829559326171875,-0.0729827880859375,2626.446218833334,-0.203539809476467,0.3773060105980662,0.3186597412851042,2626.409972083333,2.760704504490601,-1.351113584116884,-0.9132791668147391,-0.3591243922710419,0.2265053391456604,0.3609413504600525,-0.2841802835464478,0.08618874102830887,0.0796242281794548,XArbitraryZVertical,0.4859785650960133,-0.444109833380764,0.7399340477917176,-0.1381625675800366,-0.5964654684066772,0.7915120720863342,-0.1331825852394104,0,0,0,-1,192.168.1.8,10.227.79.254,5,0
2015-02-08 21:19:00.386,66,1423459140.178926,37.77943801138343,-122.43884487089,62.82529,0.78,10.8984375,4,10,-9999,2626.492793291667,-0.9992218017578125,1.027786254882812,-0.0040130615234375,2626.482465958334,-0.3995415414874647,0.4492758085285855,-0.1500709916387281,2626.446218833334,2.7518865266808,-1.347870507363072,-0.9281169742436026,-0.210296243429184,0.3901000320911407,0.3565436601638794,-0.3454353809356689,0.01737830974161625,0.09864575415849686,XArbitraryZVertical,0.4797908165122632,-0.4511632412289772,0.7395964076552761,-0.1387431293350544,-0.5845115184783936,0.8004927635192871,-0.1325049996376038,0,0,0,-1,192.168.1.8,10.227.79.254,5,0
2015-02-08 21:19:00.456,67,1423459140.178926,37.77943801138343,-122.43884487089,62.82529,0.78,10.8984375,4,10,-9999,2626.551554083333,-0.8032684326171875,0.5840301513671875,-0.077911376953125,2626.5549595,-0.201320064707886,0.1993168349359284,0.1518997843592855,2626.518712875,2.710189368018324,-1.344982351788536,-0.937668568071202,-0.3811920285224915,0.6089988946914673,0.2449047714471817,-0.3206756114959717,0.1432362645864487,0.108594574034214,XArbitraryZVertical,0.4671875415975749,-0.4642181713004486,0.7419339522342268,-0.125583840252618,-0.5766479969024658,0.8061808347702026,-0.1324745863676071,0,0,0,-1,192.168.1.8,10.227.79.254,5,0
2015-02-08 21:19:00.503,68,1423459140.178926,37.77943801138343,-122.43884487089,62.82529,0.78,10.8984375,4,10,-9999,2626.61044075,-0.6832733154296875,0.6680145263671875,-0.1012725830078125,2626.591206791667,0.0969739510891643,-0.2456688873926485,-0.5431937822668839,2626.591206791667,2.692034226700713,-1.347202687321478,-0.9433473993634838,0.09021769464015961,-0.2328752279281616,-0.5053108930587769,-0.1668516099452972,-0.2317080050706863,0.05728541687130928,XArbitraryZVertical,0.4625556590212068,-0.4700573751097153,0.7419006249061082,-0.1211271611834486,-0.5724672079086304,0.8095278143882751,-0.1301766484975815,0,0,0,-1,192.168.1.8,10.227.79.254,5,0
2015-02-08 21:19:00.559,69,1423459140.178926,37.77943801138343,-122.43884487089,62.82529,0.78,10.8984375,4,10,-9999,2626.669420333334,-0.678070068359375,0.7250823974609375,-0.0977935791015625,2626.663700208333,1.383055720485325,-1.851165936875169,-0.2480971576745827,2626.663700208333,2.756978976024805,-1.363651710262928,-0.8989309762674105,1.376299500465393,-1.838372468948364,-0.210214838385582,-0.03148456290364265,-0.04991963505744934,0.004725419916212559,XArbitraryZVertical,0.4926808664699423,-0.439610447998794,0.7387503992933571,-0.1351150079326719,-0.6091404557228088,0.7826619744300842,-0.1280164420604706,0,0,0,-1,192.168.1.8,10.227.79.254,5,0
2015-02-08 21:19:00.659,70,1423459140.178926,37.77943801138343,-122.43884487089,62.82529,0.78,10.8984375,4,10,-9999,2626.7281945,-0.83026123046875,0.6471710205078125,-0.0704345703125,2626.736194041667,1.273441075282099,-2.435058413236753,-0.5903375925156846,2626.699947458334,2.839046696402493,-1.379420865780527,-0.8816950913643864,1.553440570831299,-2.486804723739624,-0.2222975939512253,-0.1402908712625504,-0.07876360416412354,0.08012621104717255,XArbitraryZVertical,0.5192987255314813,-0.4121372297784715,0.730623721203484,-0.1632810935371722,-0.6242355108261108,0.7718178033828735,-0.12094347178936,0,0,0,-1,192.168.1.8,10.227.79.254,5,0
2015-02-08 21:19:00.677,71,1423459140.178926,37.77943801138343,-122.43884487089,62.82529,0.78,10.8984375,4,10,-9999,2626.787084166667,-0.72802734375,0.625579833984375,-0.1265716552734375,2626.772440875,0.8097615599978202,-1.58033843298065,-1.140732562370143,2626.772440875,2.958207467166268,-1.446976868054844,-0.824842406814669,0.8031309247016907,-1.567653894424438,-1.102785587310791,-0.106277734041214,-0.11581901460886,-0.01611147820949554,XArbitraryZVertical,0.5764406803514988,-0.3546927915233927,0.7080695666768126,-0.2013619984589183,-0.6734769344329834,0.7344408631324768,-0.08381833136081696,0,0,0,-1,192.168.1.8,10.227.79.254,5,0
2015-02-08 21:19:00.755,72,1423459140.178926,37.77943801138343,-122.43884487089,62.82529,0.78,10.8984375,4,10,-9999,2626.845966166667,-0.5607757568359375,0.7008819580078125,-0.219757080078125,2626.844934833333,0.3239120275869585,-0.3125765487231452,-1.667265076225273,2626.808688208333,2.974905788687355,-1.469627436903905,-0.7765357635383223,0.3082392513751984,-0.6145170927047729,-1.496592164039612,0.04165306314826012,-0.05081853643059731,-0.1071386262774467,XArbitraryZVertical,0.595007382035633,-0.331577362631723,0.7054753606786893,-0.1957732959026349,-0.7096980810165405,0.7008124589920044,-0.07204533368349075,0,0,0,-1,192.168.1.8,10.227.79.254,5,0
2015-02-08 21:19:00.795,73,1423459140.178926,37.77943801138343,-122.43884487089,62.82529,0.78,10.8984375,4,10,-9999,2626.904955375,-0.4995269775390625,0.6707305908203125,-0.2515869140625,2626.881181583333,0.5377129967435008,-0.313276161141509,-1.506167266093072,2626.881181583333,2.994599885052138,-1.481153506921826,-0.6641988143871274,0.5310825705528259,-0.3005917966365814,-1.468221187591553,0.2857751548290253,0.07952490448951721,-0.1729322224855423,XArbitraryZVertical,0.6184554908959906,-0.2868225714396194,0.7120200435329598,-0.1681459957914528,-0.7842493057250977,0.6164284944534302,-0.0704912394285202,0,0,0,-1,192.168.1.8,10.227.79.254,5,0
2015-02-08 21:19:00.857,74,1423459140.178926,37.77943801138343,-122.43884487089,62.82529,0.78,10.8984375,4,10,-9999,2626.963739208334,-0.53558349609375,0.7105712890625,-0.15850830078125,2626.953675541667,0.7678202349384893,-0.5195204107049515,-0.8371705476208067,2626.953675541667,3.048036749095495,-1.480328207826827,-0.5793553436017452,0.761189877986908,-0.5068361759185791,-0.7992249131202698,0.3257489800453186,0.1485450714826584,-0.1071678549051285,XArbitraryZVertical,0.6357413127056953,-0.2408983647215576,0.7158289595127193,-0.1593419653345266,-0.8333936333656311,0.5474845767021179,-0.07560192048549652,0,0,0,-1,192.168.1.8,10.227.79.254,5,0
2015-02-08 21:19:00.956,75,1423459140.178926,37.77943801138343,-122.43884487089,62.82529,0.78,10.8984375,4,10,-9999,2627.022620833333,-0.6459197998046875,0.8286285400390625,-0.14678955078125,2627.026169458334,0.3613147935165764,-0.2686634191927197,-0.3008921957565316,2626.989922458334,3.073677013069965,-1.484288715815012,-0.5551469491715538,0.6028133630752563,-0.4890876412391663,-0.5278368592262268,0.2773549556732178,0.2238931208848953,-0.07780536264181137,XArbitraryZVertical,0.6427682043874187,-0.2239124529295876,0.7146894089295633,-0.1610319769969717,-0.8466451168060303,0.5270681977272034,-0.07342449575662613,0,0,0,-1,192.168.1.8,10.227.79.254,5,0
2015-02-08 21:19:00.972,76,1423459140.178926,37.77943801138343,-122.43884487089,62.82529,0.78,10.8984375,4,10,-9999,2627.081522125,-0.586639404296875,0.831787109375,-0.1351470947265625,2627.062416291667,0.1247075780490315,0.08695593801661324,-0.05012442014081737,2627.062416291667,3.100017744164683,-1.485186997567465,-0.5351510054298597,0.1180773749947548,0.09963986277580261,-0.01217964850366116,0.3075571358203888,0.2830130755901337,-0.0707366019487381,XArbitraryZVertical,0.6479484246591541,-0.2082968647796742,0.714063724990456,-0.1639763756077238,-0.8570414185523987,0.5099709630012512,-0.0735505074262619,0,0,0,-1,192.168.1.8,10.227.79.254,5,0
2015-02-08 21:19:01.054,77,1423459140.178926,37.77943801138343,-122.43884487089,62.82529,0.78,10.8984375,4,10,-9999,2627.140402458333,-0.749298095703125,1.120925903320312,-0.00048828125,2627.134910166667,-0.1216699765096871,0.06137068310811299,0.4855059846302415,2627.098663,3.109102855793104,-1.471893476021654,-0.5379291872301736,0.2667697072029114,0.3018514513969421,0.1500279456377029,0.223822221159935,0.3747262358665466,-0.001598713453859091,XArbitraryZVertical,0.6438691657434147,-0.2074469144143611,0.7173504379340683,-0.1667531837796579,-0.8545747995376587,0.5123587250709534,-0.08479654788970947,0,0,0,-1,192.168.1.8,10.227.79.254,5,0
2015-02-08 21:19:01.090,78,1423459140.178926,37.77943801138343,-122.43884487089,62.82529,0.78,10.8984375,4,10,-9999,2627.19928575,-0.7952117919921875,0.685211181640625,0.0244140625,2627.207403958334,-0.01029578077424633,0.5486684425197598,0.7262088755382192,2627.171157041667,3.108738143490541,-1.458296248768692,-0.5816356315494996,-0.1613320261240005,0.3196063041687012,1.194968938827515,0.1503362655639648,0.1955122202634811,-0.01816600561141968,XArbitraryZVertical,0.6346605909189489,-0.2242865140634198,0.7174698993781573,-0.1792719649861582,-0.8302831649780273,0.5493913292884827,-0.09380298852920532,0,0,0,-1,192.168.1.8,10.227.79.254,5,0
2015-02-08 21:19:01.156,79,1423459140.178926,37.77943801138343,-122.43884487089,62.82529,0.78,10.8984375,4,10,-9999,2627.258157625,-0.852783203125,0.7611083984375,0.16448974609375,2627.243651,-0.3282481864738255,0.6746074662568439,0.2049592743374792,2627.243651,3.107467628093256,-1.420026845997531,-0.6334860014898469,-0.334878146648407,0.6872909665107727,0.2429027110338211,-0.118014931678772,0.2241431176662445,0.2837143540382385,XArbitraryZVertical,0.615297676436794,-0.2467406351423163,0.7239879644162729,-0.1907072513604076,-0.7968257665634155,0.5919579863548279,-0.1210556551814079,0,0,0,-1,192.168.1.8,10.227.79.254,5,0
2015-02-08 21:19:01.229,80,1423459141.20457,37.77943981349262,-122.4388436136045,62.38998,0.75,7.3828125,3,10,-9999,2627.317022,-0.5334320068359375,0.645050048828125,-0.016754150390625,2627.316144708333,-1.199423572789418,1.095429795382914,-0.2713670603313681,2627.279897791667,3.078970883032953,-1.410453207272621,-0.6386977171629328,-0.9547741413116455,0.7988743782043457,-0.1233178898692131,0.05133253708481789,0.1150312572717667,0.2546795606613159,XArbitraryZVertical,0.6076474813049145,-0.2582100578572137,0.7289815357455955,-0.18077064205001,-0.7925739884376526,0.5961503982543945,-0.1281842142343521,0,0,0,-1,192.168.1.8,10.227.79.254,5,0
2015-02-08 21:19:01.274,81,1423459141.20457,37.77943981349262,-122.4388436136045,62.38998,0.75,7.3828125,3,10,-9999,2627.375897875,-0.5509033203125,0.5068206787109375,-0.048126220703125,2627.352391791667,-0.9916312276843124,1.303336656414893,0.1939473695461106,2627.352391791667,2.980160834615657,-1.39188142439931,-0.6436318600307527,-0.998261034488678,1.316019892692566,0.2318900525569916,0.3205541968345642,-0.03174522146582603,0.08682882785797119,XArbitraryZVertical,0.5866432882474518,-0.29098431721156,0.742031128912739,-0.1434140272624596,-0.7871527075767517,0.6001045703887939,-0.1423555612564087,0,0,0,-1,192.168.1.8,10.227.79.254,5,0
2015-02-08 21:19:01.355,82,1423459141.20457,37.77943981349262,-122.4388436136045,62.38998,0.75,7.3828125,3,10,-9999,2627.434775666667,-0.6532135009765625,0.535308837890625,-0.117950439453125,2627.424885375,-0.3322764839386794,0.1671407889617,0.5798474009818625,2627.424885375,2.9246711747158,-1.367117559263665,-0.6866390484641761,-0.3389062285423279,0.1798238307237625,0.6177895665168762,0.1437318176031113,-0.1196287274360657,0.02690256200730801,XArbitraryZVertical,0.5629542209209235,-0.3238291747280219,0.7488062698705096,-0.1323116810599526,-0.757394552230835,0.6339414715766907,-0.1564344167709351,0,0,0,-1,192.168.1.8,10.227.79.254,5,0
2015-02-08 21:19:01.386,83,1423459141.20457,37.77943981349262,-122.4388436136045,62.38998,0.75,7.3828125,3,10,-9999,2627.493656708334,-0.70684814453125,0.5383453369140625,-0.050323486328125,2627.497379583333,-0.239838428818138,0.2974330158166277,0.410035994079031,2627.461132583333,2.925423313064531,-1.368979215818815,-0.7119878847234831,-0.06447302550077438,-0.1004419922828674,0.7222285866737366,0.01850888319313526,-0.1048933640122414,0.08125790953636169,XArbitraryZVertical,0.5600482483558683,-0.3323690722988388,0.7456999379955873,-0.1407421819005324,-0.74169921875,0.6533400416374207,-0.1517535150051117,0,0,0,-1,192.168.1.8,10.227.79.254,5,0
2015-02-08 21:19:01.455,84,1423459141.20457,37.77943981349262,-122.4388436136045,62.38998,0.75,7.3828125,3,10,-9999,2627.552532875,-0.6108551025390625,0.65020751953125,-0.086700439453125,2627.533626333333,-0.3227743251692766,0.6003588013815437,0.3792961908806824,2627.533626333333,2.912998441591086,-1.355238311446173,-0.7490618766287859,-0.3294039070606232,0.6130415797233582,0.4172374904155731,0.09657494723796844,-0.0708598792552948,0.08325999975204468,XArbitraryZVertical,0.5471679184740175,-0.3496963135872042,0.7464890177672296,-0.1451685351901676,-0.7153798937797546,0.6809520721435547,-0.1566395163536072,0,0,0,-1,192.168.1.8,10.227.79.254,5,0
2015-02-08 21:19:01.503,85,1423459141.20457,37.77943981349262,-122.4388436136045,62.38998,0.75,7.3828125,3,10,-9999,2627.611430041667,-0.81573486328125,0.7834014892578125,-0.0832672119140625,2627.606120166667,-0.301409647956334,0.3360661621698621,0.5314921187531847,2627.569873416667,2.90288215117728,-1.342761422619405,-0.7689975075919494,-0.3186087608337402,0.4721107482910156,0.5908018946647644,0.08388583362102509,-0.02962844632565975,0.06928108632564545,XArbitraryZVertical,0.5375761113351559,-0.3602586562321491,0.7484166445206528,-0.1452520269601635,-0.7000052332878113,0.695415198802948,-0.1624512523412704,0,0,0,-1,192.168.1.8,10.227.79.254,5,0
2015-02-08 21:19:01.560,86,1423459141.20457,37.77943981349262,-122.4388436136045,62.38998,0.75,7.3828125,3,10,-9999,2627.67032725,-0.9744415283203125,0.7879791259765625,-0.19024658203125,2627.642367041667,-0.539097041562015,0.4611953186194531,0.7208037237897944,2627.642367041667,2.881099353922552,-1.331173631260176,-0.8166175558646076,-0.545726478099823,0.4738778173923492,0.7587442398071289,-0.1596104353666306,0.09124954044818878,0.0272936224937439,XArbitraryZVertical,0.5213940773133948,-0.3832718873774348,0.7476253817254792,-0.1493558337946487,-0.6651270985603333,0.7288340926170349,-0.1625017523765564,0,0,0,-1,192.168.1.8,10.227.79.254,5,0
2015-02-08 21:19:01.655,87,1423459141.20457,37.77943981349262,-122.4388436136045,62.38998,0.75,7.3828125,3,10,-9999,2627.729216458334,-1.081451416015625,1.008941650390625,-0.0771636962890625,2627.714861208333,-0.6158586652419139,0.7350785335487281,0.4498140333848905,2627.714861208333,2.850709089385084,-1.309687522947816,-0.8784129623605843,-0.6224880218505859,0.7477608323097229,0.4877540469169617,-0.5630893707275391,0.2482633888721466,0.07341247051954269,XArbitraryZVertical,0.4965323405381059,-0.413590322456258,0.7478192526933162,-0.1522006743464001,-0.6167354583740234,0.7697267532348633,-0.1647973656654358,0,0,0,-1,192.168.1.8,10.227.79.254,5,0
2015-02-08 21:19:01.678,88,1423459141.20457,37.77943981349262,-122.4388436136045,62.38998,0.75,7.3828125,3,10,-9999,2627.788225625,-0.920745849609375,0.4355926513671875,-0.145965576171875,2627.787355208333,-0.4717563502382714,0.835934574558901,0.1179657857494959,2627.751107875,2.820138452589961,-1.300043599990759,-0.9064268266127267,-0.7495883107185364,1.093302726745605,0.7741104364395142,-0.3782039284706116,-0.0228098351508379,0.04710608720779419,XArbitraryZVertical,0.4813094506306472,-0.4311487478295636,0.7488868632234856,-0.1470388930518809,-0.5941013693809509,0.7873057126998901,-0.1649039387702942,0,0,0,-1,192.168.1.8,10.227.79.254,5,0
2015-02-08 21:19:01.754,89,1423459141.20457,37.77943981349262,-122.4388436136045,62.38998,0.75,7.3828125,3,10,-9999,2627.846988208334,-0.77972412109375,0.775482177734375,-0.1944732666015625,2627.859848708334,1.157489970897248,-1.126831926744365,-0.3369242326730856,2627.823601875,2.780561949097937,-1.281811403476358,-0.9181410279207125,0.1944922506809235,0.01292816456407309,-0.6424746513366699,-0.2721476256847382,-0.1547493189573288,-0.02863848954439163,XArbitraryZVertical,0.463538172171225,-0.4456440747650318,0.7544575177309415,-0.1316342489865568,-0.582115650177002,0.7944740653038025,-0.1730674505233765,0,0,0,-1,192.168.1.8,10.227.79.254,5,0
2015-02-08 21:19:01.796,90,1423459141.20457,37.77943981349262,-122.4388436136045,62.38998,0.75,7.3828125,3,10,-9999,2627.905978208334,-0.744171142578125,0.6609039306640625,0.021026611328125,2627.896096125,1.511206765823829,-1.732716787387823,-0.3773081411269382,2627.859848708334,2.813173943942851,-1.278181123043429,-0.8937501931283669,1.15097975730896,-1.114254832267761,-0.2989247739315033,-0.1575070470571518,-0.0198899507522583,0.01769166998565197,XArbitraryZVertical,0.4739561409385967,-0.4301247378567074,0.7562211156180477,-0.1359702564669836,-0.5998629331588745,0.7794266939163208,-0.1807165741920471,0,0,0,-1,192.168.1.8,10.227.79.254,5,0
2015-02-08 21:19:01.856,91,1423459141.20457,37.77943981349262,-122.4388436136045,62.38998,0.75,7.3828125,3,10,-9999,2627.96473175,-0.6794891357421875,0.587890625,-0.075531005859375,2627.968589625,0.7632361357541358,-1.366463161629695,-0.7631836714806614,2627.93234275,2.945766118339476,-1.288172028168362,-0.8418977107001049,1.175405144691467,-1.514485716819763,-0.5249447822570801,-0.06141025573015213,-0.1103951260447502,0.2250063270330429,XArbitraryZVertical,0.5134801498732445,-0.3787682677080743,0.7503314978949086,-0.1728449545991071,-0.639624297618866,0.7459084391593933,-0.1857454627752304,0,0,0,-1,192.168.1.8,10.227.79.254,5,0
2015-02-08 21:19:01.957,92,1423459141.20457,37.77943981349262,-122.4388436136045,62.38998,0.75,7.3828125,3,10,-9999,2628.02360775,-0.6483306884765625,0.606689453125,-0.1413726806640625,2628.004836958333,0.5218253766284151,-0.6792453612952168,-1.028410813918852,2628.004836958333,3.00316168757648,-1.330638215592233,-0.7759340940905642,0.5153152346611023,-0.6666686534881592,-0.9904124140739441,0.05657878518104553,-0.09279338270425797,0.07002723217010498,XArbitraryZVertical,0.5494798960189247,-0.336429599181927,0.7426583053728005,-0.1826078041216466,-0.6932822465896606,0.7003831267356873,-0.1697739362716675,0,0,0,-1,192.168.1.8,10.227.79.254,5,0
2015-02-08 21:19:01.972,93,1423459141.20457,37.77943981349262,-122.4388436136045,62.38998,0.75,7.3828125,3,10,-9999,2628.082490083334,-0.55303955078125,0.70684814453125,-0.15576171875,2628.0773305,0.1842571916037483,0.0376360588411088,-1.59023074484975,2628.0773305,3.001890780715218,-1.344557772529476,-0.6862218816884701,0.1777471601963043,0.05021259188652039,-1.55223286151886,0.1762481331825256,0.0484490841627121,0.01519867777824402,XArbitraryZVertical,0.5666699223781509,-0.3035055737290547,0.7496261124372914,-0.1575761953453014,-0.7539306282997131,0.6336187720298767,-0.1735391318798065,0,0,0,-1,192.168.1.8,10.227.79.254,5,0
2015-02-08 21:19:02.058,94,1423459141.20457,37.77943981349262,-122.4388436136045,62.38998,0.75,7.3828125,3,10,-9999,2628.141367125,-0.2988739013671875,0.72735595703125,-0.037811279296875,2628.149824583334,-0.4301521813729445,0.6976520654854086,-1.536067108283609,2628.113577875,2.988718099859372,-1.345429219339123,-0.6298297983499155,-0.0516846552491188,0.4006330966949463,-1.673202991485596,0.3226498365402222,0.1704227030277252,0.07263169437646866,XArbitraryZVertical,0.5722393582193508,-0.2867896504013361,0.7562364555697664,-0.135647471759229,-0.7876919507980347,0.5890071988105774,-0.1805876195430756,0,0,0,-1,192.168.1.8,10.227.79.254,5,0
2015-02-08 21:19:02.091,95,1423459141.20457,37.77943981349262,-122.4388436136045,62.38998,0.75,7.3828125,3,10,-9999,2628.20029125,-0.41778564453125,0.8795013427734375,-0.264251708984375,2628.186071375,-0.6258061045455778,0.4677216611868013,-0.4326923044206621,2628.186071375,2.928621203068497,-1.334270935104128,-0.5506967269195957,-0.632315993309021,0.4802979528903961,-0.3946951925754547,0.4944194257259369,0.309970885515213,0.02928853407502174,XArbitraryZVertical,0.5693566436774941,-0.2756651897304456,0.7696016696547522,-0.08691941978524129,-0.8284343481063843,0.5232810974121094,-0.1996834278106689,0,0,0,-1,192.168.1.8,10.227.79.254,5,0
2015-02-08 21:19:02.167,96,1423459141.20457,37.77943981349262,-122.4388436136045,62.38998,0.75,7.3828125,3,10,-9999,2628.2591425,-0.5528564453125,0.8566741943359375,-0.167816162109375,2628.258565458334,0.4595036786950348,-0.5265759233808984,1.037518025898596,2628.22231875,2.918817972757057,-1.339370292513202,-0.5540655049361547,0.09414219111204147,-0.3502352833747864,0.3258664011955261,0.3448569178581238,0.3784379363059998,-0.0921805128455162,XArbitraryZVertical,0.5695354752236182,-0.2794707077867826,0.7683216872480012,-0.08489552906576595,-0.8277212977409363,0.5261488556861877,-0.1950509250164032,0,0,0,-1,192.168.1.8,10.227.79.254,5,0
2015-02-08 21:19:02.224,97,1423459142.153486,37.77944002304019,-122.4388413504906,62.22586,0.71,7.3828125,3,10,-9999,2628.318039,-0.9038848876953125,1.087921142578125,-0.017730712890625,2628.294812291667,0.5061902241846689,-0.303226989084204,1.299678804657669,2628.294812291667,2.972911427392385,-1.340900982380437,-0.6180507638369334,0.4996804893016815,-0.2906509637832642,1.337675094604492,0.08517750352621078,0.2813311815261841,0.05057369917631149,XArbitraryZVertical,0.5697280491628819,-0.2873143802836296,0.7596913760478535,-0.1254169447794816,-0.7935667634010315,0.5794476270675659,-0.1857207864522934,0,0,0,-1,192.168.1.8,10.227.79.254,5,0
2015-02-08 21:19:02.268,98,1423459142.153486,37.77944002304019,-122.4388413504906,62.22586,0.71,7.3828125,3,10,-9999,2628.376922583333,-0.7429351806640625,0.576385498046875,-0.185272216796875,2628.367306375,-0.7217161227792556,0.08569040386660759,1.592974067088641,2628.367306375,2.997871467405223,-1.330108058677836,-0.7148775613069688,-0.7282257676124573,0.09826622903347015,1.630969762802124,-0.01905168034136295,0.01532770227640867,0.02125910669565201,XArbitraryZVertical,0.5568393301520603,-0.3161078712644704,0.7507487917052318,-0.162425447124504,-0.7334049940109253,0.6555249691009521,-0.1800115555524826,0,0,0,-1,192.168.1.8,10.227.79.254,5,0
2015-02-08 21:19:02.352,99,1423459142.153486,37.77944002304019,-122.4388413504906,62.22586,0.71,7.3828125,3,10,-9999,2628.435805541667,-0.9237518310546875,0.8324737548828125,0.002685546875,2628.403553333334,-0.2728150210160442,0.3155963070831861,0.8976970086633645,2628.403553333334,2.986953594671913,-1.330171777822769,-0.7653208672893834,-0.2793246507644653,0.3281720578670502,0.9356925487518311,-0.1284744143486023,-0.1470530927181244,-0.07727114111185074,XArbitraryZVertical,0.548087943393902,-0.3371498953973037,0.7455715434635138,-0.1733569378977215,-0.7003830075263977,0.6927684545516968,-0.1718591153621674,0,0,0,-1,192.168.1.8,10.227.79.254,5,0
2015-02-08 21:19:02.385,100,1423459142.153486,37.77944002304019,-122.4388413504906,62.22586,0.71,7.3828125,3,10,-9999,2628.494686416667,-0.697113037109375,0.786590576171875,-0.0411834716796875,2628.476047416667,-0.8839305963565269,0.7046753539121655,-0.4100767404437092,2628.476047416667,2.984334326279372,-1.28754397120389,-0.7715781590378511,-0.8904401063919067,0.7172509431838989,-0.3720818161964417,-0.07084688544273376,0.1054670289158821,0.3241746127605438,XArbitraryZVertical,0.5307429273987444,-0.3437219771878949,0.7565017746251446,-0.1669497301683141,-0.6882473230361938,0.6972673535346985,-0.200334295630455,0,0,0,-1,192.168.1.8,10.227.79.254,5,0
2015-02-08 21:19:02.454,101,1423459142.153486,37.77944002304019,-122.4388413504906,62.22586,0.71,7.3828125,3,10,-9999,2628.553562,-0.3968505859375,0.66632080078125,-0.2006683349609375,2628.548541416667,-1.35237930052092,1.020208277761408,-0.1028366339128647,2628.512294125,2.911422942785352,-1.311023323105205,-0.766720552975691,-1.570497751235962,0.8424889445304871,-0.5697368383407593,0.04226334393024445,0.09967987984418869,0.08446388691663742,XArbitraryZVertical,0.5275298734116148,-0.3594688297671025,0.7565121090713144,-0.1420697783227583,-0.6960261464118958,0.6937771439552307,-0.1849887818098068,0,0,0,-1,192.168.1.8,10.227.79.254,5,0
2015-02-08 21:19:02.502,102,1423459142.153486,37.77944002304019,-122.4388413504906,62.22586,0.71,7.3828125,3,10,-9999,2628.612547875,-0.4688262939453125,0.565643310546875,-0.115966796875,2628.621035291667,-0.1583211983796846,0.2447692715764197,0.6350664482880014,2628.584788416667,2.790887154191983,-1.325411331183021,-0.7850895723355672,-0.7670703530311584,0.905088484287262,0.418040007352829,0.2682132720947266,-0.08927379548549652,0.0116740632802248,XArbitraryZVertical,0.5071275812723538,-0.3961142001367896,0.7582590970656091,-0.1046818918442982,-0.6861362457275391,0.7068885564804077,-0.1718303114175797,0,0,0,-1,192.168.1.8,10.227.79.254,5,0
2015-02-08 21:19:02.561,103,1423459142.153486,37.77944002304019,-122.4388413504906,62.22586,0.71,7.3828125,3,10,-9999,2628.671431041667,-0.6138916015625,0.56036376953125,-0.0219879150390625,2628.657282375,-0.001470597553941755,-0.2814926651119584,0.8046413664860338,2628.657282375,2.785029388137426,-1.310904593780928,-0.8357540510319337,-0.007979905232787132,-0.2689175009727478,0.8426350355148315,0.1116139069199562,-0.1835901290178299,0.1384582966566086,XArbitraryZVertical,0.4911867129224982,-0.4154145004316325,0.7569376319192429,-0.1149427129661894,-0.6480976939201355,0.7418023943901062,-0.1723328083753586,0,0,0,-1,192.168.1.8,10.227.79.254,5,0
2015-02-08 21:19:02.650,104,1423459142.153486,37.77944002304019,-122.4388413504906,62.22586,0.71,7.3828125,3,10,-9999,2628.730207333334,-0.7056121826171875,0.553985595703125,-0.0172882080078125,2628.729776208334,-0.1014315501217389,-0.008347944752962379,0.7502199359263736,2628.693529375,2.797121345719253,-1.319767976844394,-0.8613176633147908,0.08063390851020813,-0.7197425961494446,0.6397947669029236,-0.03421681746840477,-0.1926157772541046,0.1606882661581039,XArbitraryZVertical,0.4922807588724893,-0.4204175862596796,0.7511618714167981,-0.1290912488789822,-0.6310206055641174,0.7587016224861145,-0.1618174165487289,0,0,0,-1,192.168.1.8,10.227.79.254,5,0
2015-02-08 21:19:02.679,105,1423459142.153486,37.77944002304019,-122.4388413504906,62.22586,0.71,7.3828125,3,10,-9999,2628.789092416667,-0.8483123779296875,0.746002197265625,0.0134735107421875,2628.766023333334,0.07498289838783499,0.04405720654539885,0.5553130294395074,2628.766023333334,2.816496687349831,-1.31584211816106,-0.9098928299763531,0.0685865506529808,0.05653057992458344,0.5933619737625122,-0.2000639289617538,-0.1623475104570389,0.1552817076444626,XArbitraryZVertical,0.4857681689419627,-0.4320010892322458,0.7448948058910858,-0.1501201955148528,-0.5939881801605225,0.7894379496574402,-0.1548086851835251,0,0,0,-1,192.168.1.8,10.227.79.254,5,0
2015-02-08 21:19:02.754,106,1423459142.153486,37.77944002304019,-122.4388413504906,62.22586,0.71,7.3828125,3,10,-9999,2628.847970333334,-0.922027587890625,0.8491668701171875,-0.045135498046875,2628.838517,-0.04655631691232921,-0.1906399897883412,0.2850107009119531,2628.838517,2.829248793924279,-1.308975371339474,-0.9392999080953007,-0.05295256525278091,-0.1781668066978455,0.3230590522289276,-0.3666097223758698,0.06515419483184814,0.1179253682494164,XArbitraryZVertical,0.480388288016246,-0.4391168543750587,0.7417020102332881,-0.1621160354699182,-0.5702341794967651,0.8071449995040894,-0.1528069674968719,0,0,0,-1,192.168.1.8,10.227.79.254,5,0
2015-02-08 21:19:02.798,107,1423459142.153486,37.77944002304019,-122.4388413504906,62.22586,0.71,7.3828125,3,10,-9999,2628.906958125,-1.08099365234375,0.9676513671875,-0.0064849853515625,2628.911011333334,-0.4073616477123734,0.3200853314166237,-0.1761526597744192,2628.8747645,2.831871583255912,-1.309607006079264,-0.9522939181938965,-0.05911534652113914,0.02863317541778088,0.3533227443695068,-0.3855130970478058,-0.01372230611741543,0.1107852011919022,XArbitraryZVertical,0.4787096893657257,-0.4426897528903834,0.7395611169415836,-0.1670693577570405,-0.5601503849029541,0.81474769115448,-0.1497256308794022,0,0,0,-1,192.168.1.8,10.227.79.254,5,0
2015-02-08 21:19:02.855,108,1423459142.153486,37.77944002304019,-122.4388413504906,62.22586,0.71,7.3828125,3,10,-9999,2628.9657905,-0.7604827880859375,0.633270263671875,-0.0972137451171875,2628.947258,-0.5430768694950294,0.4248378434176914,-0.1357413207613388,2628.947258,2.78508615718389,-1.326238394523026,-0.9552876616441258,-0.549472987651825,0.4373107552528381,-0.09769375622272491,-0.3171865344047546,0.04262048006057739,0.06214608624577522,XArbitraryZVertical,0.4737863759940825,-0.4534616167412248,0.7389596093842881,-0.1543947141694277,-0.5601938366889954,0.8164798617362976,-0.1397980600595474,0,0,0,-1,192.168.1.8,10.227.79.254,5,0
2015-02-08 21:19:02.921,109,1423459142.153486,37.77944002304019,-122.4388413504906,62.22586,0.71,7.3828125,3,10,-9999,2629.024606166667,-0.6575469970703125,0.7278289794921875,-0.130157470703125,2629.019752333334,-0.0993199296934151,0.08930298188530007,-0.858323237210979,2628.9835055,2.757121754412338,-1.334648983264737,-0.9568894733088068,-0.3698395490646362,0.3754281401634216,-0.1918644160032272,-0.1739312708377838,-0.255086749792099,0.01499396562576294,XArbitraryZVertical,0.4701815069529166,-0.4599365396958562,0.7388739863830397,-0.1464682976569784,-0.5600775480270386,0.8174036741256714,-0.1347754597663879,0,0,0,-1,192.168.1.8,10.227.79.254,5,0
2015-02-08 21:19:02.974,110,1423459142.153486,37.77944002304019,-122.4388413504906,62.22586,0.71,7.3828125,3,10,-9999,2629.083481166667,-0.6267852783203125,0.7606201171875,-0.1470184326171875,2629.055999083334,0.5875356807328123,-0.5332359566349686,-0.5563857507265914,2629.055999083334,2.738972673797971,-1.347589620243635,-0.9116449639183638,0.5811396837234497,-0.5207632780075073,-0.5183389782905579,0.01668663136661053,0.06266766786575317,-0.06335901468992233,XArbitraryZVertical,0.4801519449207355,-0.4490759423783816,0.7424223003004997,-0.1288178395344703,-0.5972530245780945,0.7905122637748718,-0.1355698108673096,0,0,0,-1,192.168.1.8,10.227.79.254,5,0
2015-02-08 21:19:03.048,111,1423459142.153486,37.77944002304019,-122.4388413504906,62.22586,0.71,7.3828125,3,10,-9999,2629.142353958333,-0.7327880859375,0.6357574462890625,-0.0388336181640625,2629.128493416667,1.598307579803742,-2.508049533445317,-0.2832756514617664,2629.128493416667,2.882474198191824,-1.359075719209214,-0.8828951903713322,1.591911673545837,-2.495577096939087,-0.2452293932437897,-0.1002379357814789,-0.1015292927622795,0.09017958492040634,XArbitraryZVertical,0.5204887551391721,-0.4029639698977225,0.7320874362523987,-0.1753838088859477,-0.6207398176193237,0.7725803256034851,-0.1334229856729507,0,0,0,-1,192.168.1.8,10.227.79.254,5,0
2015-02-08 21:19:03.091,112,1423459142.153486,37.77944002304019,-122.4388413504906,62.22586,0.71,7.3828125,3,10,-9999,2629.201231166667,-0.6745147705078125,0.60296630859375,-0.0185089111328125,2629.200987333334,0.6003920908951698,-1.293640619518132,-1.227103403895266,2629.164740083334,2.952261234815686,-1.393516020541366,-0.8573978083078017,1.207756400108337,-2.380117654800415,-0.6792477369308472,-0.0902242437005043,-0.1412893235683441,0.06982879340648651,XArbitraryZVertical,0.5509145448164945,-0.3725449846129277,0.71961780269353,-0.1996337065626285,-0.6441507339477539,0.756142258644104,-0.115406796336174,0,0,0,-1,192.168.1.8,10.227.79.254,5,0
2015-02-08 21:19:03.151,113,1423459142.153486,37.77944002304019,-122.4388413504906,62.22586,0.71,7.3828125,3,10,-9999,2629.260101541667,-0.564666748046875,0.6929168701171875,-0.099212646484375,2629.273481125,-0.3005302721643898,0.3961052647329355,-1.463857359538874,2629.237234208334,2.987867830382727,-1.446886746466532,-0.7728405003661666,-0.1562172025442123,0.07294437289237976,-1.355225324630737,0.1079175770282745,-0.06607631593942642,0.05103873834013939,XArbitraryZVertical,0.5896575891669776,-0.3287278885178042,0.7113704075304746,-0.1954329709602509,-0.7104414105415344,0.6981716752052307,-0.08848380297422409,0,0,0,-1,192.168.1.8,10.227.79.254,5,0
2015-02-08 21:19:03.222,114,1423459143.189921,37.77944132223519,-122.43884487089,62.34702,0.69,7.3828125,3,10,-9999,2629.318989958334,-0.44036865234375,0.715667724609375,-0.1481781005859375,2629.309728375,-0.09620056910860529,0.1436724808037038,-1.240119603723028,2629.273481125,2.966496331431444,-1.448968285328893,-0.7245688146798517,-0.3069259822368622,0.4085774123668671,-1.425812125205994,0.2025859802961349,0.04278428480029106,-0.02548803947865963,XArbitraryZVertical,0.5941510247977697,-0.3185683314511676,0.7180895843351165,-0.1727603160381691,-0.7432354092597961,0.6628126502037048,-0.09099755436182022,0,0,0,-1,192.168.1.8,10.227.79.254,5,0
2015-02-08 21:19:03.268,115,1423459143.189921,37.77944132223519,-122.43884487089,62.34702,0.69,7.3828125,3,10,-9999,2629.377870416667,-0.51458740234375,0.835784912109375,-0.055511474609375,2629.382222291667,0.2170553520086191,-0.2058564933087269,-0.5982354630444235,2629.345975333334,2.947785982993115,-1.452618017566793,-0.6447709538140768,0.1995748579502106,-0.2166906446218491,-0.8482601046562195,0.335288792848587,0.1440255045890808,-0.04671260714530945,XArbitraryZVertical,0.6040281034083474,-0.296704628033594,0.7261454343792363,-0.140816270816125,-0.7936628460884094,0.6010153889656067,-0.09423282742500305,0,0,0,-1,192.168.1.8,10.227.79.254,5,0
2015-02-08 21:19:03.355,116,1423459143.189921,37.77944132223519,-122.43884487089,62.34702,0.69,7.3828125,3,10,-9999,2629.436749791667,-0.56976318359375,0.915924072265625,-0.07806396484375,2629.418469625,-0.0815569115386956,0.05772135346637741,-0.2386136410328106,2629.418469625,2.954943285043284,-1.458831408771974,-0.6072484654517828,-0.08795244246721268,0.07019314914941788,-0.2005695253610611,0.2552117705345154,0.3351211845874786,0.02820311300456524,XArbitraryZVertical,0.6124107381927437,-0.2812029564219174,0.7269332803220795,-0.132083272998444,-0.8160790801048279,0.570609986782074,-0.09175597131252289,0,0,0,-1,192.168.1.8,10.227.79.254,5,0
2015-02-08 21:19:03.385,117,1423459143.189921,37.77944132223519,-122.43884487089,62.34702,0.69,7.3828125,3,10,-9999,2629.49564025,-0.78875732421875,1.13104248046875,-0.0406951904296875,2629.490963375,-0.08634261201756799,0.1083467142082387,0.4842566957628853,2629.490963375,2.948872713512845,-1.446760476488584,-0.6233391005365061,-0.09273805469274521,0.1208183318376541,0.5223002433776855,0.0685897096991539,0.4977171421051025,0.05760418251156807,XArbitraryZVertical,0.6049954050328467,-0.2894047822495796,0.7296792142977547,-0.1333929388012535,-0.8056960105895996,0.583749532699585,-0.1004508659243584,0,0,0,-1,192.168.1.8,10.227.79.254,5,0
2015-02-08 21:19:03.449,118,1423459143.189921,37.77944132223519,-122.43884487089,62.34702,0.69,7.3828125,3,10,-9999,2629.554525833334,-0.60400390625,0.63818359375,-0.1083984375,2629.5272105,-0.1414681823694452,-0.07445798933698038,0.8938532682620532,2629.5272105,2.947510988766835,-1.448114598780422,-0.6495084040754552,-0.147863581776619,-0.06198645755648613,0.9318965673446655,0.03153027594089508,0.4294915199279785,0.02390916272997856,XArbitraryZVertical,0.601691098581683,-0.2987299092267705,0.7271055474069544,-0.1415831421849871,-0.7903956174850464,0.604794979095459,-0.09745652973651886,0,0,0,-1,192.168.1.8,10.227.79.254,5,0
2015-02-08 21:19:03.503,119,1423459143.189921,37.77944132223519,-122.43884487089,62.34702,0.69,7.3828125,3,10,-9999,2629.613515041667,-0.880584716796875,0.7584075927734375,0.248809814453125,2629.599704458334,0.6517194609003759,0.5397252812631647,0.7020055349193611,2629.599704458334,2.984847077381762,-1.406809253001951,-0.7223191246202212,0.6453241109848022,0.5521966814994812,0.740048348903656,-0.04221592843532562,-0.05339937657117844,0.1898369193077087,XArbitraryZVertical,0.5821340056242641,-0.3160343141084758,0.7291490090268039,-0.1720001001077407,-0.7402089834213257,0.661126434803009,-0.1224846243858337,0,0,0,-1,192.168.1.8,10.227.79.254,5,0
2015-02-08 21:19:03.563,120,1423459143.189921,37.77944132223519,-122.43884487089,62.34702,0.69,7.3828125,3,10,-9999,2629.672400208333,-0.7047576904296875,0.838165283203125,0.115264892578125,2629.672198625,-1.969067274126284,0.9842185851061859,-0.7222120033742283,2629.635951666667,3.000148399272328,-1.373189124668959,-0.7296774986166711,-0.2588565349578857,0.7143620252609253,-0.07341104745864868,-0.1781588494777679,0.1743283569812775,0.5104427933692932,XArbitraryZVertical,0.5712042051756127,-0.3171071811500448,0.7366807505946882,-0.1745573354403208,-0.7308835387229919,0.6666292548179626,-0.1463375836610794,0,0,0,-1,192.168.1.8,10.227.79.254,5,0
2015-02-08 21:19:03.649,121,1423459143.189921,37.77944132223519,-122.43884487089,62.34702,0.69,7.3828125,3,10,-9999,2629.731182583334,-0.419219970703125,0.733001708984375,-0.2293548583984375,2629.708445541667,-2.004868681292438,1.223111325421237,-0.6352145200446098,2629.708445541667,2.832090698815161,-1.41382027593956,-0.710994967267958,-2.011263847351074,1.23558235168457,-0.5971724987030029,0.2086778879165649,0.1626128107309341,-0.03480437770485878,XArbitraryZVertical,0.5608091040968997,-0.355338850659053,0.7391538425198357,-0.1134858892660511,-0.7483965158462524,0.6525880098342896,-0.1184549033641815,0,0,0,-1,192.168.1.8,10.227.79.254,5,0
2015-02-08 21:19:03.679,122,1423459143.189921,37.77944132223519,-122.43884487089,62.34702,0.69,7.3828125,3,10,-9999,2629.790063375,-0.5418701171875,0.60009765625,-0.11114501953125,2629.78093975,-0.5102416911510065,0.5448862211396293,0.5437200228982836,2629.78093975,2.731773690327153,-1.408061605828557,-0.7340942730833596,-0.5165295004844666,0.5572589039802551,0.5818135738372803,0.212242916226387,-0.05876996368169785,0.001040407340042293,XArbitraryZVertical,0.5358808565356371,-0.3907528447002002,0.7438488297201657,-0.0826609973402324,-0.7326286435127258,0.6699149608612061,-0.1202878430485725,0,0,0,-1,192.168.1.8,10.227.79.254,5,0
2015-02-08 21:19:03.748,123,1423459143.189921,37.77944132223519,-122.43884487089,62.34702,0.69,7.3828125,3,10,-9999,2629.848948875,-0.675567626953125,0.5674285888671875,0.0183563232421875,2629.817186666667,-0.1433012361477467,0.2174710714547805,0.8241029487840059,2629.817186666667,2.723869376257284,-1.402016139356775,-0.7616608682704301,-0.1495889872312546,0.2298436462879181,0.8621963262557983,0.1363353133201599,-0.1148985177278519,0.04637026414275169,XArbitraryZVertical,0.5268706280620172,-0.4020255620620628,0.7437334476418619,-0.08742624087181122,-0.7134074568748474,0.6901243329048157,-0.121565580368042,0,0,0,-1,192.168.1.8,10.227.79.254,5,0
2015-02-08 21:19:03.798,124,1423459143.189921,37.77944132223519,-122.43884487089,62.34702,0.69,7.3828125,3,10,-9999,2629.907938708333,-0.7122344970703125,0.569427490234375,-0.053375244140625,2629.889680708333,-0.4870993539104359,0.3929771157165284,0.7150931074643375,2629.889680708333,2.708558610378317,-1.39237112364703,-0.8232998259749066,-0.4933870136737823,0.4053495228290558,0.7531858682632446,-0.04061270505189896,-0.1371253579854965,0.07875112444162369,XArbitraryZVertical,0.5080455898170413,-0.4261030362552629,0.7419016153548619,-0.09953830566849753,-0.6690125465393066,0.7333930730819702,-0.1206517592072487,0,0,0,-1,192.168.1.8,10.227.79.254,5,0
2015-02-08 21:19:03.857,125,1423459143.189921,37.77944132223519,-122.43884487089,62.34702,0.69,7.3828125,3,10,-9999,2629.966766333333,-0.7118072509765625,0.6092071533203125,-0.0610809326171875,2629.962174958333,-0.3711597011182723,0.5005445889898099,0.5910720923443284,2629.925927791667,2.692908419948405,-1.386682403597542,-0.852169689776598,-0.4081980586051941,0.5288417935371399,0.7132193446159363,-0.07642341405153275,-0.1954748779535294,0.07150155305862427,XArbitraryZVertical,0.4966668537223387,-0.4393836768909821,0.7415629058696284,-0.1017274669571321,-0.6472246646881104,0.7527105808258057,-0.1205280423164368,0,0,0,-1,192.168.1.8,10.227.79.254,5,0
2015-02-08 21:19:03.949,126,1423459143.189921,37.77944132223519,-122.43884487089,62.34702,0.69,7.3828125,3,10,-9999,2630.025586416667,-0.82806396484375,0.75897216796875,0.011474609375,2630.034668916667,-0.1693509463503568,0.2390871510746267,0.6168815854166133,2629.998422,2.672731169163624,-1.369492413150781,-0.9003721622007539,-0.120658315718174,0.2951050400733948,0.6231927871704102,-0.1716540902853012,-0.1095317080616951,0.1034635901451111,XArbitraryZVertical,0.4755917738925879,-0.460105491682217,0.742257608901475,-0.105683693905163,-0.6087719202041626,0.783558189868927,-0.1242308020591736,0,0,0,-1,192.168.1.8,10.227.79.254,5,0
2015-02-08 21:19:03.975,127,1423459143.189921,37.77944132223519,-122.43884487089,62.34702,0.69,7.3828125,3,10,-9999,2630.084482458334,-0.9542999267578125,0.7410888671875,0.0167694091796875,2630.07091625,-0.1175436747167183,0.2054567528291061,0.6469947468104663,2630.07091625,2.671264053935236,-1.35437770081054,-0.9472052990622953,-0.1238311231136322,0.2178287208080292,0.6850862503051758,-0.3086352646350861,-0.0937996432185173,0.1421332061290741,XArbitraryZVertical,0.4594652410435802,-0.4755991338051367,0.7410571442865588,-0.116324825804412,-0.5703320503234863,0.8117867112159729,-0.1253943145275116,0,0,0,-1,192.168.1.8,10.227.79.254,5,0
2015-02-08 21:19:04.050,128,1423459143.189921,37.77944132223519,-122.43884487089,62.34702,0.69,7.3828125,3,10,-9999,2630.143372166667,-0.9394073486328125,0.97021484375,-0.0236053466796875,2630.143409875,-0.500415159360832,0.3269980986581423,0.3669449823771129,2630.107163125,2.664084471047993,-1.352063320221521,-0.9641298717095245,-0.3530160486698151,0.2957825362682343,0.2395039349794388,-0.4095779955387115,0.03141316771507263,0.1734888106584549,XArbitraryZVertical,0.4531445968531916,-0.4824962750968522,0.7401616563961814,-0.118397809360182,-0.5565475225448608,0.821553111076355,-0.1237146407365799,0,0,0,-1,192.168.1.8,10.227.79.254,5,0
2015-02-08 21:19:04.092,129,1423459143.189921,37.77944132223519,-122.43884487089,62.34702,0.69,7.3828125,3,10,-9999,2630.202365458334,-0.9049530029296875,0.5569305419921875,-0.0963897705078125,2630.179657375,-0.222664235580435,0.1145119321317721,0.5528456106895491,2630.179657375,2.62367660026817,-1.365786225798094,-0.9994096669588864,-0.228951558470726,0.1268836557865143,0.5909363031387329,-0.3487608134746552,-0.1816517561674118,0.05777186900377274,XArbitraryZVertical,0.4402251901962519,-0.5011533234860573,0.7356215861617228,-0.117932227353134,-0.5294740796089172,0.8411518931388855,-0.1100942566990852,0,0,0,-1,192.168.1.8,10.227.79.254,5,0
2015-02-08 21:19:04.151,130,1423459143.189921,37.77944132223519,-122.43884487089,62.34702,0.69,7.3828125,3,10,-9999,2630.261157125,-0.6573333740234375,0.7866363525390625,-0.12103271484375,2630.252151083334,0.3338922237720304,-0.4228529894572554,-0.5012263582288702,2630.252151083334,2.611400157851915,-1.384750249753627,-0.9864944594054287,0.3276050090789795,-0.4104814529418945,-0.4631362557411194,-0.1467141509056091,-0.04044199734926224,-0.01242097187787294,XArbitraryZVertical,0.4471429441752221,-0.4990446723098818,0.7334888930099684,-0.1140686036753962,-0.5420981049537659,0.8340973854064941,-0.1020352020859718,0,0,0,-1,192.168.1.8,10.227.79.254,5,0
2015-02-08 21:19:04.217,131,1423459143.189921,37.77944132223519,-122.43884487089,62.34702,0.69,7.3828125,3,10,-9999,2630.320080958334,-0.7275543212890625,0.6819000244140625,-0.0673980712890625,2630.324645458334,1.374591661908835,-2.252949593684371,-0.04344867423631574,2630.288398416667,2.651097970744763,-1.383807752626281,-0.9770777168225226,0.9492214918136597,-1.391528367996216,0.01921793818473816,-0.1427792459726334,-0.06700997054576874,-0.03044351935386658,XArbitraryZVertical,0.4587651981859487,-0.4873742474917233,0.7323104707314987,-0.1253882381736847,-0.5496951341629028,0.8288660645484924,-0.1040016710758209,0,0,0,-1,192.168.1.8,10.227.79.254,5,0
2015-02-08 21:19:04.275,132,1423459144.225119,37.77944727338644,-122.4388577790209,62.3439,0.71,7.3828125,3,10,-9999,2630.378909416667,-0.783843994140625,0.5619354248046875,-0.0345306396484375,2630.36089225,1.283914222584945,-2.297686172623849,-0.155915032334798,2630.36089225,2.808593743673041,-1.403993662021905,-0.959885871429429,1.277627110481262,-2.285314798355103,-0.1178257092833519,-0.1964633762836456,-0.2275733798742294,0.05367224290966988,XArbitraryZVertical,0.5064379057949885,-0.4426082406637113,0.7173367649492263,-0.1817871241940586,-0.565652072429657,0.8191261291503906,-0.09523718804121017,0,0,0,-1,192.168.1.8,10.227.79.254,5,0
2015-02-08 21:19:04.352,133,1423459144.225119,37.77944727338644,-122.4388577790209,62.3439,0.71,7.3828125,3,10,-9999,2630.43779875,-0.6385955810546875,0.64642333984375,-0.08111572265625,2630.433386458334,0.3179758415171719,-0.9159447221364785,-1.358452373070737,2630.397139708333,2.865456091159221,-1.428600547077052,-0.9382457079576147,0.8036614656448364,-1.766850471496582,-0.780811607837677,-0.1939989328384399,-0.2415655255317688,0.04270701482892036,XArbitraryZVertical,0.5317431912594932,-0.4187569007475051,0.7082743005282308,-0.2005974871147854,-0.5852369070053101,0.8065221905708313,-0.08378367125988007,0,0,0,-1,192.168.1.8,10.227.79.254,5,0
2015-02-08 21:19:04.387,134,1423459144.225119,37.77944727338644,-122.4388577790209,62.3439,0.71,7.3828125,3,10,-9999,2630.49669175,-0.52838134765625,0.721649169921875,-0.170623779296875,2630.469633416667,0.08987609415188512,-0.581446895532564,-1.469236412308616,2630.469633416667,2.887217561374085,-1.4787130462842,-0.8470628461345623,0.08358912914991379,-0.569075882434845,-1.431147813796997,0.08453709632158279,-0.04996735602617264,-0.07404326647520065,XArbitraryZVertical,0.5707951937226311,-0.3791407958267912,0.7033007637192399,-0.1892435983459228,-0.6593814492225647,0.749338686466217,-0.06089020892977715,0,0,0,-1,192.168.1.8,10.227.79.254,5,0
2015-02-08 21:19:04.449,135,1423459144.225119,37.77944727338644,-122.4388577790209,62.3439,0.71,7.3828125,3,10,-9999,2630.555619166667,-0.5347900390625,0.7948455810546875,-0.1529541015625,2630.542127708333,0.2775692961940536,-0.9141675947410687,-1.138246767808663,2630.542127708333,2.897518105617306,-1.526749309208363,-0.7565761818432142,0.2712824046611786,-0.9017967581748962,-1.10015869140625,0.1891164183616638,0.07944869250059128,-0.1354755163192749,XArbitraryZVertical,0.6052205365307114,-0.3430714123174133,0.6975147968307146,-0.1717067745146595,-0.7264851927757263,0.6864356994628906,-0.0320202149450779,0,0,0,-1,192.168.1.8,10.227.79.254,5,0
2015-02-08 21:19:04.504,136,1423459144.225119,37.77944727338644,-122.4388577790209,62.3439,0.71,7.3828125,3,10,-9999,2630.614573958333,-0.610931396484375,0.8886566162109375,-0.1140899658203125,2630.614622125,0.1946110292897583,-0.3521212951175138,-0.6091810551246493,2630.578374625,2.907569924482106,-1.547379365611327,-0.7228905144758345,0.2074310481548309,-0.6764987111091614,-0.8243935108184814,0.2062492668628693,0.1717884838581085,-0.1224406957626343,XArbitraryZVertical,0.6196274469658771,-0.3275400421978515,0.6933899236657229,-0.1673014090868027,-0.7496910095214844,0.6615549921989441,-0.01755869574844837,0,0,0,-1,192.168.1.8,10.227.79.254,5,0
2015-02-08 21:19:04.563,137,1423459144.225119,37.77944727338644,-122.4388577790209,62.3439,0.71,7.3828125,3,10,-9999,2630.67337775,-0.51239013671875,0.834442138671875,-0.1490936279296875,2630.687116083333,0.1166022472713753,0.1996558553426954,-0.1239009065548465,2630.650868916667,2.916695578781843,-1.563086040839935,-0.6826586607975996,-0.101301945745945,0.04077986627817154,-0.4126008749008179,0.1925164014101028,0.2482007294893265,-0.08673006296157837,XArbitraryZVertical,0.6328861410294367,-0.3105864831823619,0.6911110966325692,-0.1592376245383485,-0.7758751511573792,0.6308581233024597,-0.005982337985187769,0,0,0,-1,192.168.1.8,10.227.79.254,5,0
2015-02-08 21:19:04.651,138,1423459144.225119,37.77944727338644,-122.4388577790209,62.3439,0.71,7.3828125,3,10,-9999,2630.732271875,-0.7564697265625,1.11767578125,0.040130615234375,2630.723363375,0.1522193636900951,0.009872604477032743,-0.01764743696341007,2630.687116083333,2.914881344876683,-1.558022657726864,-0.6748964562725697,0.1103155538439751,0.2120263576507568,-0.0858139768242836,0.2383648157119751,0.2311405539512634,-0.1364197731018066,XArbitraryZVertical,0.632048595124199,-0.3090761227676789,0.6934773014893661,-0.15516364282737,-0.7807079553604126,0.6248164772987366,-0.00997304730117321,0,0,0,-1,192.168.1.8,10.227.79.254,5,0
2015-02-08 21:19:04.681,139,1423459144.225119,37.77944727338644,-122.4388577790209,62.3439,0.71,7.3828125,3,10,-9999,2630.791280666667,-0.454315185546875,0.6049346923828125,-0.15020751953125,2630.795857,0.338214001589011,0.4006084038201505,0.7819190097493688,2630.759610166667,2.918458683241016,-1.551586160685027,-0.6813243389173547,-0.2677035927772522,0.0376264713704586,0.423274964094162,0.1781767904758453,0.3306879997253418,-0.04361234232783318,XArbitraryZVertical,0.6293814544933094,-0.3105137647366021,0.6947089030347029,-0.1576062393857406,-0.7765960097312927,0.6298222541809082,-0.0149203734472394,0,0,0,-1,192.168.1.8,10.227.79.254,5,0
2015-02-08 21:19:04.752,140,1423459144.225119,37.77944727338644,-122.4388577790209,62.3439,0.71,7.3828125,3,10,-9999,2630.850061875,-0.7750091552734375,0.910369873046875,0.1777191162109375,2630.832104416667,0.8903578693313242,0.4720330526755306,0.6372329298347809,2630.832104416667,2.953078635137096,-1.502844651028811,-0.7308303701961568,0.884173572063446,0.4843079149723053,0.6753672957420349,0.07536043971776962,0.1400222033262253,0.1205360814929008,XArbitraryZVertical,0.610199672781924,-0.3199636267267522,0.7024034686035753,-0.1786309161437902,-0.7429019212722778,0.667488157749176,-0.05055927485227585,0,0,0,-1,192.168.1.8,10.227.79.254,5,0
2015-02-08 21:19:04.799,141,1423459144.225119,37.77944727338644,-122.4388577790209,62.3439,0.71,7.3828125,3,10,-9999,2630.908954583334,-0.6781768798828125,0.7248687744140625,0.0510101318359375,2630.904598458334,-0.5338402278863076,0.1415153203207396,0.07811690635864024,2630.904598458334,2.984171978889454,-1.466917912799304,-0.7640201893800146,-0.54002445936203,0.1537900120019913,0.1162508279085159,-0.001741378335282207,0.05685789510607719,0.1824003756046295,XArbitraryZVertical,0.5974898747054771,-0.3249153857757601,0.7068040526622719,-0.1945864148670645,-0.718168318271637,0.6918298602104187,-0.07487168163061142,0,0,0,-1,192.168.1.8,10.227.79.254,5,0
2015-02-08 21:19:04.858,142,1423459144.225119,37.77944727338644,-122.4388577790209,62.3439,0.71,7.3828125,3,10,-9999,2630.967840541667,-0.460357666015625,0.688262939453125,-0.058868408203125,2630.977092791667,-0.3903901210336255,0.8274556022803067,0.5412643220571215,2630.940845708334,2.951233651040691,-1.474082683651083,-0.7666664163085146,-0.6932251453399658,0.6943938136100769,0.03560121729969978,0.1799200624227524,0.02025109715759754,0.04012832418084145,XArbitraryZVertical,0.5941804585121474,-0.3349267803511359,0.7075014304185424,-0.1849739454129664,-0.7168616056442261,0.6937381625175476,-0.06954726576805115,0,0,0,-1,192.168.1.8,10.227.79.254,5,0
2015-02-08 21:19:04.922,143,1423459144.225119,37.77944727338644,-122.4388577790209,62.3439,0.71,7.3828125,3,10,-9999,2631.026723333333,-0.5215301513671875,0.63677978515625,-0.04925537109375,2631.013339708334,-0.0352261643706961,0.2292888487920071,0.9398154339351857,2631.013339708334,2.92130729995248,-1.446991481340165,-0.809485072390447,-0.04141024127602577,0.2415632903575897,0.9779485464096069,0.2027642130851746,-0.07621169835329056,0.0271622147411108,XArbitraryZVertical,0.5723919734014778,-0.3602384408644491,0.7134197604384214,-0.1833792243551734,-0.6845909953117371,0.7239320278167725,-0.08519139140844345,0,0,0,-1,192.168.1.8,10.227.79.254,5,0
2015-02-08 21:19:04.976,144,1423459144.225119,37.77944727338644,-122.4388577790209,62.3439,0.71,7.3828125,3,10,-9999,2631.08562,-0.6634979248046875,0.6388702392578125,0.0417022705078125,2631.085834041667,0.5897777960545499,-0.9210992704263269,1.24418065806929,2631.049586958333,2.939467919343992,-1.441551821552281,-0.8483928395080758,0.399791419506073,-0.5817554593086243,1.235243678092957,0.08038823306560516,-0.1319326013326645,0.0326814167201519,XArbitraryZVertical,0.5672079764377224,-0.3683291972195832,0.7086182352586589,-0.2011688609102125,-0.6556751132011414,0.7502187490463257,-0.0852174311876297,0,0,0,-1,192.168.1.8,10.227.79.254,5,0
2015-02-08 21:19:05.050,145,1423459144.225119,37.77944727338644,-122.4388577790209,62.3439,0.71,7.3828125,3,10,-9999,2631.144503291667,-0.7427215576171875,0.6103668212890625,0.0251312255859375,2631.122080958333,0.3604101176942764,-0.564776306056995,1.289418177609812,2631.122080958333,3.013235651162352,-1.439309523671654,-0.9333799472661991,0.3542261719703674,-0.5525020956993103,1.327550530433655,-0.1154297292232513,-0.1816114634275436,0.132224515080452,XArbitraryZVertical,0.5657272034396238,-0.3754198768067302,0.6892499053722784,-0.2528778664318296,-0.5899840593338013,0.8036360144615173,-0.07802529633045197,0,0,0,-1,192.168.1.8,10.227.79.254,5,0
2015-02-08 21:19:05.093,146,1423459144.225119,37.77944727338644,-122.4388577790209,62.3439,0.71,7.3828125,3,10,-9999,2631.20339175,-0.8283538818359375,0.7014923095703125,0.0634918212890625,2631.194575291667,0.309848406502468,-0.1766075276886047,0.8234523385296996,2631.194575291667,3.070001942397663,-1.409083328191685,-1.007272173971992,0.3036645352840424,-0.1643335223197937,0.8615841269493103,-0.2899087369441986,-0.1755170375108719,0.138450488448143,XArbitraryZVertical,0.5537411871294947,-0.3877727237258546,0.6780641049080895,-0.2884997089181346,-0.527199387550354,0.8453778624534607,-0.08600602298974991,0,0,0,-1,192.168.1.8,10.227.79.254,5,0
2015-02-08 21:19:05.152,147,1423459144.225119,37.77944727338644,-122.4388577790209,62.3439,0.71,7.3828125,3,10,-9999,2631.262269208334,-0.8585662841796875,0.803619384765625,-0.0037384033203125,2631.23082225,0.09005079751939432,-0.2125599360885654,0.5287376112377158,2631.23082225,3.090390254009602,-1.398634982518334,-1.029606969000636,0.08386697620153427,-0.200286015868187,0.5668691396713257,-0.3438392877578735,-0.08228579163551331,0.1515153795480728,XArbitraryZVertical,0.5504368274046819,-0.3910154497807967,0.6739878365491334,-0.2997776063237799,-0.5075401067733765,0.8570966124534607,-0.08825243264436722,0,0,0,-1,192.168.1.8,10.227.79.254,5,0
2015-02-08 21:19:05.221,148,1423459145.193708,37.77945452373268,-122.438871441523,64.11954,0.79,335.7421875,4,10,-9999,2631.321155708334,-1.048919677734375,1.123779296875,-0.04217529296875,2631.303316625,-0.1805732408678417,0.007340737228694412,0.01726314281811164,2631.303316625,3.087506117486061,-1.405022794703134,-1.05601960838518,-0.18675696849823,0.01961447857320309,0.05539409071207047,-0.5113877654075623,0.1123548969626427,0.05060407519340515,XArbitraryZVertical,0.5475385330221737,-0.3994742718503365,0.667841173733381,-0.3075874309070439,-0.4855910241603851,0.8704026937484741,-0.08124372363090515,0,0,0,-1,192.168.1.8,10.227.79.254,5,0
2015-02-08 21:19:05.269,149,1423459145.193708,37.77945452373268,-122.438871441523,64.11954,0.79,335.7421875,4,10,-9999,2631.380049166667,-0.77001953125,0.6906585693359375,-0.1285400390625,2631.375810833334,-0.04526947747360292,-0.2296401197397886,-0.01369317537686042,2631.339563375,3.070712171100295,-1.421838162203259,-1.053735081688248,-0.2192070037126541,-0.1142078340053558,-0.1270973831415176,-0.5312727093696594,0.2616295218467712,0.01695039868354797,XArbitraryZVertical,0.5501835320935997,-0.400770520743779,0.6662141578180371,-0.3046961874368972,-0.4888536036014557,0.8692756295204163,-0.07336214184761047,0,0,0,-1,192.168.1.8,10.227.79.254,5,0
2015-02-08 21:19:05.353,150,1423459145.193708,37.77945452373268,-122.438871441523,64.11954,0.79,335.7421875,4,10,-9999,2631.438920125,-0.5862884521484375,0.836761474609375,-0.1311187744140625,2631.448304708334,0.6209053555076141,-0.7873137751695423,-0.756754001660883,2631.412057875,3.065256164591,-1.442793335790138,-1.04401955167317,0.2083766460418701,-0.390592485666275,-0.5918238162994385,-0.2308555841445923,-0.197180449962616,-0.05880796536803246,XArbitraryZVertical,0.5577726767377343,-0.3959806871311317,0.662972422366029,-0.3042310038212819,-0.4986366033554077,0.8644320368766785,-0.06417787075042725,0,0,0,-1,192.168.1.8,10.227.79.254,5,0
2015-02-08 21:19:05.387,151,1423459145.193708,37.77945452373268,-122.438871441523,64.11954,0.79,335.7421875,4,10,-9999,2631.497806458333,-0.53802490234375,0.7639923095703125,-0.18304443359375,2631.484552083334,1.631333440481815,-2.249848608911083,0.08322591459384826,2631.484552083334,-3.1226424307654,-1.434516659975149,-1.000784794032577,1.625149965286255,-2.23757529258728,0.1213555634021759,0.05131621286273003,-0.01935446821153164,-0.1296423822641373,XArbitraryZVertical,0.5801296168256899,-0.3560789831600011,0.6581960653080763,-0.3216136269600388,-0.5346383452415466,0.8418947458267212,-0.07331477105617523,0,0,0,-1,192.168.1.8,10.227.79.254,5,0
2015-02-08 21:19:05.455,152,1423459145.193708,37.77945452373268,-122.438871441523,64.11954,0.79,335.7421875,4,10,-9999,2631.556689291667,-0.68450927734375,0.719207763671875,-0.0675048828125,2631.557046041667,2.397421555447317,-4.622864689812804,-0.08575964605494965,2631.52079925,-2.980081449735429,-1.426267267708061,-0.9995860728695319,2.474077463150024,-3.865407228469849,0.3015940189361572,-0.06334449350833893,-0.1264950633049011,-0.0137305473908782,XArbitraryZVertical,0.6015531424920106,-0.3149600535052434,0.6363496863302063,-0.3660506224027159,-0.5350136756896973,0.8412472605705261,-0.07786796241998672,0,0,0,-1,192.168.1.8,10.227.79.254,5,0
2015-02-08 21:19:05.520,153,1423459145.193708,37.77945452373268,-122.438871441523,64.11954,0.79,335.7421875,4,10,-9999,2631.615659833334,-0.6808929443359375,0.725616455078125,-0.095428466796875,2631.593293583333,2.087251172769058,-4.557437746048391,-0.5382189973506158,2631.593293583333,-2.683021117187175,-1.492553570111248,-0.9729632567054108,2.081069469451904,-4.545163631439209,-0.5000922083854675,-0.1275442093610764,-0.0971871018409729,-0.0761077031493187,XArbitraryZVertical,0.6624558336372114,-0.1978766156898681,0.5599136249567134,-0.4566112635831391,-0.561130702495575,0.8265572190284729,-0.0439942255616188,0,0,0,-1,192.168.1.8,10.227.79.254,5,0
2015-02-08 21:19:05.568,154,1423459145.193708,37.77945452373268,-122.438871441523,64.11954,0.79,335.7421875,4,10,-9999,2631.674563666667,-0.5226898193359375,0.7509765625,-0.2644500732421875,2631.665787375,0.4066231531420945,-2.127619634888588,-1.102951893881843,2631.665787375,-2.544792700598003,-1.616213757454952,-0.9051426789854008,0.4004415571689606,-2.115345478057861,-1.064825654029846,0.06565173715353012,-0.02264303900301456,-0.2689447104930878,XArbitraryZVertical,0.7102771562732039,-0.09760040034151694,0.500914807238596,-0.4848348987219813,-0.6169365048408508,0.7865132689476013,0.02803895436227322,0,0,0,-1,192.168.1.8,10.227.79.254,5,0
2015-02-08 21:19:05.652,155,1423459145.193708,37.77945452373268,-122.438871441523,64.11954,0.79,335.7421875,4,10,-9999,2631.733337583334,-0.486236572265625,0.6310882568359375,-0.1923828125,2631.73828175,0.3233626174540751,-0.5034940398970726,-0.4526897147299581,2631.702034791667,-2.525926125292672,-1.653369255405844,-0.8750091761817217,0.2776504456996918,-1.083670258522034,-0.7126782536506653,0.1666073501110077,-0.05487238243222237,-0.3534664213657379,XArbitraryZVertical,0.7220200453302219,-0.07156251868989993,0.4902402238331949,-0.482939316059573,-0.6388058066368103,0.7675493955612183,0.05286828055977821,0,0,0,-1,192.168.1.8,10.227.79.254,5,0
2015-02-08 21:19:05.686,156,1423459145.193708,37.77945452373268,-122.438871441523,64.11954,0.79,335.7421875,4,10,-9999,2631.792345166667,-0.553955078125,0.6277618408203125,-0.137054443359375,2631.77452875,0.2736464599083669,-0.1989815429546874,-0.369770596293687,2631.77452875,-2.489238479468567,-1.660940401408953,-0.8463791987681646,0.2675623595714569,-0.1868000626564026,-0.3315998017787933,0.1294297277927399,-0.1417996436357498,-0.1979936957359314,XArbitraryZVertical,0.7263925287440377,-0.04671888626730193,0.485451412695819,-0.4842604317538513,-0.6600083708763123,0.7488858103752136,0.05965752154588699,0,0,0,-1,192.168.1.8,10.227.79.254,5,0
2015-02-08 21:19:05.754,157,1423459145.193708,37.77945452373268,-122.438871441523,64.11954,0.79,335.7421875,4,10,-9999,2631.851112208334,-0.7054595947265625,0.8239288330078125,-0.074554443359375,2631.847023125,0.1292701056285552,-0.3031881069322889,-0.5246749589947999,2631.810776333334,-2.473092309010202,-1.655696613181099,-0.8371933188577229,0.2936190366744995,-0.2253248989582062,-0.2841920554637909,0.08881517499685287,-0.102874256670475,-0.1928546130657196,XArbitraryZVertical,0.7258562603448421,-0.03900073122629361,0.4856419702327339,-0.4855548465729603,-0.6671385169029236,0.7427668571472168,0.0567767359316349,0,0,0,-1,192.168.1.8,10.227.79.254,5,0
2015-02-08 21:19:05.803,158,1423459145.193708,37.77945452373268,-122.438871441523,64.11954,0.79,335.7421875,4,10,-9999,2631.90999725,-0.66162109375,1.007110595703125,-0.167633056640625,2631.883270083334,-0.2324454936320781,0.1994590477381386,-0.5428305270941971,2631.883270083334,-2.463186832370698,-1.65988705463655,-0.8059799288849687,-0.2385294586420059,0.2116402685642242,-0.5046605467796326,0.1037515103816986,0.08001943677663803,-0.2016809433698654,XArbitraryZVertical,0.7281749441412567,-0.02374610716495407,0.4891884961486843,-0.4794705291831652,-0.689658522605896,0.7215095162391663,0.06160525232553482,0,0,0,-1,192.168.1.8,10.227.79.254,5,0
2015-02-08 21:19:05.859,159,1423459145.193708,37.77945452373268,-122.438871441523,64.11954,0.79,335.7421875,4,10,-9999,2631.968986791667,-0.48101806640625,0.8912353515625,-0.140380859375,2631.9557645,-0.04852039821626265,0.09476619054548863,-0.06713562791980751,2631.9557645,-2.46007749900759,-1.638269458812571,-0.7750432469907154,-0.05460428446531296,0.1069472506642342,-0.0289661455899477,0.08392000198364258,0.516363263130188,-0.07830172777175903,XArbitraryZVertical,0.7237321952247852,-0.01716152731439232,0.5036034868172161,-0.4714877725253328,-0.7127652168273926,0.6997469663619995,0.04816561564803123,0,0,0,-1,192.168.1.8,10.227.79.254,5,0
2015-02-08 21:19:05.954,160,1423459145.193708,37.77945452373268,-122.438871441523,64.11954,0.79,335.7421875,4,10,-9999,2632.027761708333,-0.6559600830078125,0.8932037353515625,-0.0283203125,2632.028258833333,1.077586349763274,0.5170902762102542,-0.02722016950169989,2631.992011625,-2.462803308400019,-1.63369373364735,-0.7907267371467487,0.1889639347791672,0.2995418906211853,0.5443122386932373,0.1855349391698837,-0.0481906458735466,-0.2707251310348511,XArbitraryZVertical,0.7221478878420213,-0.02462983302404201,0.5022097282227544,-0.4750591418854597,-0.7019381523132324,0.7108646035194397,0.04420839995145798,0,0,0,-1,192.168.1.8,10.227.79.254,5,0
2015-02-08 21:19:05.977,161,1423459145.193708,37.77945452373268,-122.438871441523,64.11954,0.79,335.7421875,4,10,-9999,2632.086641166667,-0.7153472900390625,0.87652587890625,0.241302490234375,2632.100752958333,0.02891553785164434,-0.1354433130353589,-0.2681853817770504,2632.064505875,-2.368121802742291,-1.539745298312542,-0.8003106619268793,1.058822989463806,0.009461185894906521,0.1708787977695465,0.005581067875027657,0.3069178462028503,0.2273878306150436,XArbitraryZVertical,0.699207047206136,-0.01726190057030545,0.510169744520373,-0.5005380741781802,-0.6961480975151062,0.7175725102424622,-0.02162306383252144,0,0,0,-1,192.168.1.8,10.227.79.254,5,0
2015-02-08 21:19:06.053,162,1423459145.193708,37.77945452373268,-122.438871441523,64.11954,0.79,335.7421875,4,10,-9999,2632.14552,-0.3569183349609375,0.7981719970703125,0.0149993896484375,2632.13700025,-0.5910047143687495,0.5839409458934233,-0.6008216587789995,2632.100752958333,-2.344180730966842,-1.527116052706757,-0.8007030157550361,0.02283182553946972,-0.1232626065611839,-0.2300170063972473,-0.001559613388963044,0.1203043162822723,0.2209066152572632,XArbitraryZVertical,0.6961681510305687,-0.01223062496752548,0.5084483731463011,-0.5066365256754294,-0.6955381631851196,0.7178457379341125,-0.03040063381195068,0,0,0,-1,192.168.1.8,10.227.79.254,5,0
2015-02-08 21:19:06.094,163,1423459145.193708,37.77945452373268,-122.438871441523,64.11954,0.79,335.7421875,4,10,-9999,2632.204406291667,-0.3605804443359375,0.68975830078125,-0.06640625,2632.209494375,-0.04463777566303613,0.3364001225705581,0.6802544330322479,2632.173247291667,-2.392164464682471,-1.52288478734632,-0.7774997798024909,-0.4775725901126862,0.8034488558769226,0.1450288146734238,0.4398639500141144,0.05463425070047379,0.005521809682250023,XArbitraryZVertical,0.6945977267177614,-0.02163281211951328,0.5276353617967091,-0.4885355099273562,-0.7118518352508545,0.7014997601509094,-0.03413203731179237,0,0,0,-1,192.168.1.8,10.227.79.254,5,0
2015-02-08 21:19:06.163,164,1423459146.140663,37.77945708021315,-122.4388891273387,62.70493,0.83,330.46875,3,10,-9999,2632.263292833334,-0.526275634765625,0.7161102294921875,0.011962890625,2632.245741708333,0.2914121412241765,0.04057858552953735,0.9721270348088992,2632.245741708333,-2.392196734660838,-1.497798616337167,-0.8263406889615212,0.285328596830368,0.05275895446538925,1.010294318199158,0.2054912000894547,-0.02317658253014088,-0.003164530266076326,XArbitraryZVertical,0.6879126997880012,-0.04546964916139018,0.5242149893621814,-0.4999072648037206,-0.6757670640945435,0.7354568839073181,-0.04941725730895996,0,0,0,-1,192.168.1.8,10.227.79.254,5,0
2015-02-08 21:19:06.256,165,1423459146.140663,37.77945708021315,-122.4388891273387,62.70493,0.83,330.46875,3,10,-9999,2632.322179916667,-0.631500244140625,0.691497802734375,-0.0584564208984375,2632.318235833333,0.4164600712605201,-0.2935740953971028,1.273908460053408,2632.318235833333,-2.342251077512882,-1.46598941699741,-0.9091378969472262,0.4103766083717346,-0.2813938856124878,1.312075257301331,-0.006651634350419044,-0.0982242152094841,0.02747407928109169,XArbitraryZVertical,0.6807461067168656,-0.06667532564064202,0.5007666205768443,-0.5304450309472191,-0.6110546588897705,0.7889743447303772,-0.06427827477455139,0,0,0,-1,192.168.1.8,10.227.79.254,5,0
2015-02-08 21:19:06.271,166,1423459146.140663,37.77945708021315,-122.4388891273387,62.70493,0.83,330.46875,3,10,-9999,2632.381060333334,-0.7354888916015625,0.6782684326171875,0.0691375732421875,2632.354483125,0.8322002900783918,-0.5963174544273485,1.264903513459523,2632.354483125,-2.295614302462772,-1.445168024193596,-0.9522804005066214,0.8261168599128723,-0.5841373801231384,1.303070068359375,-0.09509199112653732,-0.1413237154483795,0.03349713236093521,XArbitraryZVertical,0.6770939275967006,-0.07223725362974616,0.4834833161561596,-0.5500631558269958,-0.5752571225166321,0.8147398829460144,-0.07265118509531021,0,0,0,-1,192.168.1.8,10.227.79.254,5,0
2015-02-08 21:19:06.353,167,1423459146.140663,37.77945708021315,-122.4388891273387,62.70493,0.83,330.46875,3,10,-9999,2632.439970291667,-0.85284423828125,0.8250274658203125,0.108306884765625,2632.426977041667,0.4618597773114279,-0.1432594245186325,0.6987937626447255,2632.426977041667,-2.17820696301468,-1.376771984234334,-1.01751388004116,0.4557764232158661,-0.1310794651508331,0.7369597554206848,-0.333208441734314,-0.06685343384742737,0.2145076543092728,XArbitraryZVertical,0.6659700013741155,-0.07632155994552285,0.4543586808207459,-0.5867002351457509,-0.5156227350234985,0.8508042097091675,-0.1013179570436478,0,0,0,-1,192.168.1.8,10.227.79.254,5,0
2015-02-08 21:19:06.389,168,1423459146.140663,37.77945708021315,-122.4388891273387,62.70493,0.83,330.46875,3,10,-9999,2632.498995291667,-0.84918212890625,0.7942657470703125,-0.0825347900390625,2632.499471708334,-0.2943890226906671,0.3531447479244313,0.12983522841187,2632.463224541667,-2.162477113107252,-1.362633901892961,-1.035531839453215,-0.104750744998455,0.1184383854269981,0.4295331835746765,-0.3605770468711853,-0.03347359597682953,0.1596569567918777,XArbitraryZVertical,0.6637616208593869,-0.08194223275882234,0.4490741922633869,-0.5924848951725357,-0.4990573525428772,0.8601337671279907,-0.1054119616746902,0,0,0,-1,192.168.1.8,10.227.79.254,5,0
2015-02-08 21:19:06.453,169,1423459146.140663,37.77945708021315,-122.4388891273387,62.70493,0.83,330.46875,3,10,-9999,2632.557755166667,-0.8347320556640625,1.060760498046875,-0.0861968994140625,2632.535718666667,-0.2746344926727863,0.494127169711046,-0.2982125230676939,2632.535718666667,-2.197011950663509,-1.367367182294657,-1.04607687422,-0.2807177007198334,0.5063068270683289,-0.2600473165512085,-0.4097506403923035,0.09698359668254852,0.004988561850041151,XArbitraryZVertical,0.6634714715663005,-0.09591852578542316,0.454544373816918,-0.5865105754035395,-0.4906399846076965,0.8654645085334778,-0.1012104824185371,0,0,0,-1,192.168.1.8,10.227.79.254,5,0
2015-02-08 21:19:06.517,170,1423459146.140663,37.77945708021315,-122.4388891273387,62.70493,0.83,330.46875,3,10,-9999,2632.6166295,-0.7777862548828125,0.5867767333984375,-0.158935546875,2632.608212916667,0.1697110057297355,-0.01674728851496329,0.2043936189219464,2632.608212916667,-2.214485915856689,-1.354849105148227,-1.051234114420142,0.1636278927326202,-0.004567773547023535,0.2425582408905029,-0.2572496235370636,-0.2643378973007202,-0.0363747775554657,XArbitraryZVertical,0.6597721290425019,-0.107273064875846,0.462264229861752,-0.5826705836758829,-0.4849683940410614,0.8680366277694702,-0.1063864529132843,0,0,0,-1,192.168.1.8,10.227.79.254,5,0
2015-02-08 21:19:06.570,171,1423459146.140663,37.77945708021315,-122.4388891273387,62.70493,0.83,330.46875,3,10,-9999,2632.675630375,-0.57122802734375,0.852020263671875,-0.1711883544921875,2632.644459958333,0.5172588543072563,-0.701532823825872,-0.6828946909369524,2632.644459958333,-2.194869184130361,-1.352556274448557,-1.039153677193321,0.5111757516860962,-0.6893534064292908,-0.6447303295135498,-0.2671903669834137,-0.187338650226593,-0.05955090001225471,XArbitraryZVertical,0.6600873188467976,-0.09697638554757171,0.4608704823566349,-0.5852168065222867,-0.4949251115322113,0.8619754910469055,-0.1097606271505356,0,0,0,-1,192.168.1.8,10.227.79.254,5,0
2015-02-08 21:19:06.651,172,1423459146.140663,37.77945708021315,-122.4388891273387,62.70493,0.83,330.46875,3,10,-9999,2632.734402166667,-0.657012939453125,0.7747802734375,-0.15850830078125,2632.716954625,1.910747242046857,-2.148460201999003,0.1107451570859641,2632.716954625,-2.057285573591807,-1.328500005057583,-1.00438602888177,1.904664158821106,-2.13628077507019,0.1489089876413345,-0.1369202733039856,-0.08232753723859787,-0.06346564739942551,XArbitraryZVertical,0.6584252442399356,-0.04584254621423819,0.4380807505470186,-0.6102949407494236,-0.5209318995475769,0.8438326716423035,-0.1287493109703064,0,0,0,-1,192.168.1.8,10.227.79.254,5,0
2015-02-08 21:19:06.687,173,1423459146.140663,37.77945708021315,-122.4388891273387,62.70493,0.83,330.46875,3,10,-9999,2632.793279166667,-0.7806549072265625,0.7231597900390625,-0.0528717041015625,2632.789449083334,1.834042610014286,-2.919711121053732,-0.5142787770474576,2632.753201416667,-1.912598654245044,-1.294863109734485,-0.9871434703451538,2.42925500869751,-2.775258302688599,0.03810767456889153,-0.137800469994545,-0.0485207736492157,0.01331225503236055,XArbitraryZVertical,0.6518624672587194,-0.002532863886500141,0.4091841641398684,-0.6384647431119987,-0.5302293300628662,0.8344551920890808,-0.1501378118991852,0,0,0,-1,192.168.1.8,10.227.79.254,5,0
2015-02-08 21:19:06.754,174,1423459146.140663,37.77945708021315,-122.4388891273387,62.70493,0.83,330.46875,3,10,-9999,2632.852160208333,-0.712738037109375,0.703582763671875,-0.2583465576171875,2632.861942916667,-0.2689872595812733,-0.399618240526859,-2.055430925116464,2632.825696041667,-1.738723603648676,-1.335799233680726,-0.917042132559601,0.4509238302707672,-1.727097272872925,-1.29115092754364,-0.191641092300415,-0.09333623945713043,-0.004511581733822823,XArbitraryZVertical,0.6485088661854278,0.09291371927731247,0.3609166420207077,-0.6637337333309565,-0.5914552211761475,0.7938061952590942,-0.1416065841913223,0,0,0,-1,192.168.1.8,10.227.79.254,5,0
2015-02-08 21:19:06.803,175,1423459146.140663,37.77945708021315,-122.4388891273387,62.70493,0.83,330.46875,3,10,-9999,2632.911051625,-0.4019012451171875,0.7319793701171875,-0.2394561767578125,2632.898190541667,-0.4142603002001147,0.4416021761636312,-2.224414887868608,2632.898190541667,-1.798681139515276,-1.409350864445495,-0.7841482552569685,-0.4202501475811005,0.4536913931369781,-2.186209917068481,0.1916727274656296,0.04849255457520485,-0.150354266166687,XArbitraryZVertical,0.6497776702827517,0.1445200163941663,0.3971934792517083,-0.6317755013478109,-0.6987833380699158,0.7062224149703979,-0.113805890083313,0,0,0,-1,192.168.1.8,10.227.79.254,5,0
2015-02-08 21:19:06.860,176,1423459146.140663,37.77945708021315,-122.4388891273387,62.70493,0.83,330.46875,3,10,-9999,2632.970018,-0.4066925048828125,0.69952392578125,-0.2902374267578125,2632.970684375,-0.009775931729462868,0.07434294077788896,-1.193265811716937,2632.934437333333,-1.832979829805944,-1.410254033854228,-0.7208885342593798,-0.3608325719833374,0.6303424835205078,-1.655010581016541,0.3736394941806793,0.03965461626648903,-0.1517197042703629,XArbitraryZVertical,0.6446877840774493,0.1559971331670067,0.4263003378288266,-0.6150695712454135,-0.7415594458580017,0.6600524187088013,-0.1200851127505302,0,0,0,-1,192.168.1.8,10.227.79.254,5,0
2015-02-08 21:19:06.953,177,1423459146.140663,37.77945708021315,-122.4388891273387,62.70493,0.83,330.46875,3,10,-9999,2633.028797916667,-0.50347900390625,0.7561798095703125,-0.1750335693359375,2633.006932,0.427783299583319,-0.5362940645147066,-0.7395033756998948,2633.006932,-1.846301135084259,-1.416720579152285,-0.6431846659417765,0.4217936098575592,-0.5242050886154175,-0.7012993097305298,0.3620454370975494,0.118957407772541,-0.1457062959671021,XArbitraryZVertical,0.637067416243275,0.1809524705253153,0.4505374829902307,-0.5986796196570715,-0.7907106280326843,0.5997468233108521,-0.122802622616291,0,0,0,-1,192.168.1.8,10.227.79.254,5,0
2015-02-08 21:19:06.978,178,1423459146.140663,37.77945708021315,-122.4388891273387,62.70493,0.83,330.46875,3,10,-9999,2633.08769375,-0.5709075927734375,0.83111572265625,-0.2225799560546875,2633.079425875,0.2126259824835993,-0.2479405638024861,-0.2265324770637751,2633.079425875,-1.823402024543659,-1.437168187697255,-0.6114906078623696,0.2066363543272018,-0.2358517795801163,-0.1883289664983749,0.2447059601545334,0.2502827346324921,-0.1059994176030159,XArbitraryZVertical,0.6350524908290899,0.2053389777458279,0.4461254618015844,-0.5962518850640188,-0.8114936947822571,0.5740885734558105,-0.1090884730219841,0,0,0,-1,192.168.1.8,10.227.79.254,5,0
2015-02-08 21:19:07.054,179,1423459146.140663,37.77945708021315,-122.4388891273387,62.70493,0.83,330.46875,3,10,-9999,2633.146585125,-0.76123046875,1.19195556640625,-0.04254150390625,2633.151920333334,-0.1966110632684079,0.6330608216710627,0.1543970305134529,2633.115673333334,-1.811302443329954,-1.427807408355726,-0.6110057049765074,0.3154284060001373,0.2856712639331818,0.1909598112106323,0.2237068116664886,0.3138817548751831,-0.06362417340278625,XArbitraryZVertical,0.6316502950328328,0.2065385614897447,0.4456085095879917,-0.5998272947986416,-0.8107123970985413,0.5736914873123169,-0.1167194545269012,0,0,0,-1,192.168.1.8,10.227.79.254,5,0
2015-02-08 21:19:07.095,180,1423459146.140663,37.77945708021315,-122.4388891273387,62.70493,0.83,330.46875,3,10,-9999,2633.205591458333,-0.4942779541015625,0.679595947265625,-0.36083984375,2633.1881675,-0.6097578958167604,0.7882719805297528,0.9230657485752414,2633.1881675,-1.827017990457551,-1.39248811872003,-0.6403988634560913,-0.6157473921775818,0.8003605008125305,0.961268424987793,0.3250481188297272,0.2545812427997589,-0.1627560704946518,XArbitraryZVertical,0.6294614831430523,0.180741722967327,0.4531937366259433,-0.6047529312877875,-0.7891441583633423,0.597515344619751,-0.1422213464975357,0,0,0,-1,192.168.1.8,10.227.79.254,5,0
2015-02-08 21:19:07.157,181,1423459146.140663,37.77945708021315,-122.4388891273387,62.70493,0.83,330.46875,3,10,-9999,2633.264375333334,-0.87249755859375,0.98284912109375,0.0948638916015625,2633.260661875,0.6665364902572497,0.4907430909138823,0.3362525834461677,2633.224415,-1.813088428492151,-1.36038581099129,-0.6827773251007295,0.5919581651687622,0.5567821264266968,1.23068642616272,0.1694183349609375,0.06178359687328339,-0.1379787772893906,XArbitraryZVertical,0.6270969318313102,0.1604047055745693,0.4470128285311383,-0.6174133944496906,-0.7587127685546875,0.6309501528739929,-0.1620395332574844,0,0,0,-1,192.168.1.8,10.227.79.254,5,0
2015-02-08 21:19:07.218,182,1423459146.140663,37.77945708021315,-122.4388891273387,62.70493,0.83,330.46875,3,10,-9999,2633.323263083334,-0.6868438720703125,0.7380218505859375,-0.0375213623046875,2633.296908833333,-0.6223999215113666,0.7596986588781837,0.03820570899827675,2633.296908833333,-1.770392381124547,-1.294101452117417,-0.7077201033590838,-0.628389298915863,0.7717868685722351,0.07640761882066727,-0.0365423783659935,0.2289557456970215,0.3705063760280609,XArbitraryZVertical,0.6127560953437786,0.1440259009941685,0.4470554800554544,-0.635553227679835,-0.7309442162513733,0.6501030921936035,-0.2075730115175247,0,0,0,-1,192.168.1.8,10.227.79.254,5,0
