loggingTime,loggingSample,locationTimestamp_since1970,locationLatitude,locationLongitude,locationAltitude,locationSpeed,locationCourse,locationVerticalAccuracy,locationHorizontalAccuracy,locationFloor,locationHeadingTimestamp_since1970,locationHeadingX,locationHeadingY,locationHeadingZ,locationTrueHeading,locationMagneticHeading,locationHeadingAccuracy,accelerometerTimestamp_sinceReboot,accelerometerAccelerationX,accelerometerAccelerationY,accelerometerAccelerationZ,gyroTimestamp_sinceReboot,gyroRotationX,gyroRotationY,gyroRotationZ,motionTimestamp_sinceReboot,motionYaw,motionRoll,motionPitch,motionRotationRateX,motionRotationRateY,motionRotationRateZ,motionUserAccelerationX,motionUserAccelerationY,motionUserAccelerationZ,motionAttitudeReferenceFrame,motionQuaternionX,motionQuaternionY,motionQuaternionZ,motionQuaternionW,motionGravityX,motionGravityY,motionGravityZ,motionMagneticFieldX,motionMagneticFieldY,motionMagneticFieldZ,motionMagneticFieldCalibrationAccuracy,activityTimestamp_sinceReboot,activity,activityActivityConfidence,activityActivityStartDate,pedometerStartDate,pedometerNumberofSteps,pedometerDistance,pedometerFloorAscended,pedometerFloorDescended,pedometerEndDate,altimeterTimestamp_sinceReboot,altimeterReset,altimeterRelativeAltitude,altimeterPressure,IP_en0,IP_pdp_ip0,deviceOrientation,state
2015-02-16 17:18:38.815,1,1424135914.649742,37.77917309860806,-122.4389002583513,58.1928,-1,-1,10,65,-9999,1424135918.721231,-18.60865783691406,-31.77017211914062,24.2779541015625,161.6041107177734,147.8231506347656,25,526818.45571575,-0.3896484375,-0.9072113037109375,-0.1467437744140625,526818.41420475,0.006256298032814147,-0.09771457618831535,-0.0425530531617221,526818.41420475,2.732467001464352,-1.169567088430472,1.157205011683771,0.02484655380249023,-0.1066113412380219,-0.05242536216974258,2.336423904125695e-06,0.006366363260895014,0.006846368312835693,XTrueNorthZVertical,0.5451576036012065,0.3525932780140729,0.6222289146332721,0.4373927020115861,-0.3699821829795837,-0.915683388710022,-0.1569623351097107,-7.70183277130127,-22.08409881591797,26.84852027893066,1,526752.5687201667,walking,0,2015-02-16 17:17:32.857,null,0,0,0,0,null,0,-0.05306625,100.668,192.168.1.3,10.191.100.224,1,0
2015-02-16 17:18:38.914,2,1424135914.649742,37.77917309860806,-122.4389002583513,58.1928,-1,-1,10,65,-9999,1424135918.84012,-18.60865783691406,-31.28451538085938,24.47909545898438,161.3374481201172,147.5564880371094,25,526818.55500275,-0.3372802734375,-0.8784332275390625,-0.149139404296875,526818.51614175,0.06928213575841138,0.08158727157512251,-0.01840830208684571,526818.51614175,2.746142103263678,-1.191886928801838,1.159504621303076,0.08790741860866547,0.07266005128622055,-0.02820826694369316,-0.005349491722881794,0.01125544030219316,0.01795808039605618,XTrueNorthZVertical,0.549487392912187,0.352307067813235,0.6184925687913876,0.43750463745297,-0.3714357912540436,-0.9166051745414734,-0.1478866636753082,-7.391676902770996,-21.93819046020508,27.05453109741211,1,526752.5687201667,walking,0,2015-02-16 17:17:32.857,null,0,0,0,0,null,0,-0.05306625,100.668,192.168.1.3,10.191.100.224,1,0
2015-02-16 17:18:39.012,3,1424135914.649742,37.77917309860806,-122.4389002583513,58.1928,-1,-1,10,65,-9999,1424135918.957774,-18.19097518920898,-31.42326354980469,24.34500122070312,162.4353485107422,148.6543884277344,25,526818.6542647501,-0.3718719482421875,-0.937042236328125,-0.1367950439453125,526818.6160727501,0.1249408709605224,-0.005281048441627129,0.06571083673661512,526818.6160727501,2.773643294592222,-1.207910354076255,1.161655520729038,0.1435542553663254,-0.01419514045119286,0.05587072670459747,0.02218221314251423,0.002805374097079039,0.006755650043487549,XTrueNorthZVertical,0.549382772361461,0.3571701552052122,0.6194961817467899,0.4322413225362467,-0.3719136714935303,-0.917462944984436,-0.1412160992622375,-7.650974273681641,-21.7294921875,27.15069961547852,1,526818.6284587501,unknown,2,2015-02-16 17:18:38.926,null,0,0,0,0,null,0,-0.05306625,100.668,192.168.1.3,10.191.100.224,1,0
2015-02-16 17:18:39.113,4,1424135914.649742,37.77917309860806,-122.4389002583513,58.1928,-1,-1,10,65,-9999,1424135919.057791,-18.74789047241211,-30.59071350097656,24.34500122070312,160.3591918945312,146.5782318115234,25,526818.75354375,-0.3759002685546875,-0.8925628662109375,-0.1146240234375,526818.71600775,0.1012248888211488,0.01044411884696375,-0.02909077385137155,526818.71600775,2.80856862415914,-1.233684008416221,1.165505674792205,0.1198627501726151,0.001508433604612947,-0.03893287479877472,-0.00745405163615942,0.005917157512158155,-0.004838572349399328,XTrueNorthZVertical,0.5507102302198108,0.3626438685940093,0.6188940351238086,0.4268229968431873,-0.3720930814743042,-0.9189878106117249,-0.1304153352975845,-7.87600040435791,-21.27859497070312,27.44191551208496,1,526818.6284587501,unknown,2,2015-02-16 17:18:38.926,null,0,0,0,0,null,0,-0.05306625,100.668,192.168.1.3,10.191.100.224,1,0
2015-02-16 17:18:39.213,5,1424135914.649742,37.77917309860806,-122.4389002583513,58.1928,-1,-1,10,65,-9999,1424135919.17652,-18.43462371826172,-31.24980163574219,24.98187255859375,161.0508880615234,147.2699279785156,25,526818.8528197501,-0.3479461669921875,-0.9267730712890625,-0.125213623046875,526818.81593675,0.121060911568386,0.07054154463790985,-0.1890817742345358,526818.81593675,2.825751276543834,-1.253001779004707,1.18172272195942,0.1397022306919098,0.06160054355859756,-0.1989028602838516,-0.02549656294286251,0.03149255737662315,0.01818878762423992,XTrueNorthZVertical,0.5518223109472229,0.3690892095122326,0.613005836226737,0.4283563560379096,-0.3603371679782867,-0.9252608418464661,-0.1185305863618851,-7.567817211151123,-21.03480911254883,27.71522521972656,1,526818.6284587501,unknown,2,2015-02-16 17:18:38.926,null,0,0,0,0,null,0,-0.05306625,100.668,192.168.1.3,10.191.100.224,1,0
2015-02-16 17:18:39.310,6,1424135914.649742,37.77917309860806,-122.4389002583513,58.1928,-1,-1,10,65,-9999,1424135919.295379,-16.48543548583984,-30.90290832519531,26.5235595703125,164.1323852539062,150.3514251708984,25,526818.9520737501,-0.2605133056640625,-0.9638519287109375,-0.1167449951171875,526818.91585775,0.1593241448462084,-0.4385885430740975,-0.5755740926967213,526818.91585775,2.840359894979287,-1.27871400876429,1.230704208979309,0.1779480576515198,-0.4475220143795013,-0.5853970050811768,0.01884779706597328,-0.01113348081707954,-0.009493415243923664,XTrueNorthZVertical,0.5512209985301878,0.3848760795025178,0.5961814001745034,0.4388548538363664,-0.319445937871933,-0.9427239298820496,-0.09605162590742111,-6.940375328063965,-20.80644989013672,28.04980659484863,1,526818.6284587501,unknown,2,2015-02-16 17:18:38.926,null,0,0,0,0,null,0,-0.05306625,100.668,192.168.1.3,10.191.100.224,1,0
2015-02-16 17:18:39.410,7,1424135914.649742,37.77917309860806,-122.4389002583513,58.1928,-1,-1,10,65,-9999,1424135919.295379,-16.48543548583984,-30.90290832519531,26.5235595703125,164.1323852539062,150.3514251708984,25,526819.05136575,-0.3418426513671875,-0.9534454345703125,-0.0681304931640625,526819.01578775,0.01861443075521784,-0.5593399953238163,-0.5473200840598527,526819.01578775,2.806784757206659,-1.30040990145401,1.282493602183331,0.03723714500665665,-0.5682714581489563,-0.5571512579917908,0.0054101194255054,0.01069927029311657,0.03054953925311565,XTrueNorthZVertical,0.557651661114858,0.3886546112876247,0.5685891219218099,0.4633342841367399,-0.2739953100681305,-0.9587278366088867,-0.0759444385766983,-3.894083499908447,-20.87111854553223,28.58498191833496,1,526818.6284587501,unknown,2,2015-02-16 17:18:38.926,null,0,0,0,0,null,0,-0.05306625,100.668,192.168.1.3,10.191.100.224,1,0
2015-02-16 17:18:39.509,8,1424135914.649742,37.77917309860806,-122.4389002583513,58.1928,-1,-1,10,65,-9999,1424135919.41416,-13.73570251464844,-31.90887451171875,27.42855834960938,169.2835693359375,155.5026092529297,25,526819.1506227501,-0.25091552734375,-0.958404541015625,-0.052520751953125,526819.11571775,-0.1093752270212273,0.1269041533161288,-0.2332114187615849,526819.11571775,2.752533817162004,-1.264602285677487,1.314515874039063,-0.09075050801038742,0.1179618909955025,-0.2429806143045425,-0.04144786670804024,0.02925967983901501,0.014503363519907,XTrueNorthZVertical,0.5543216019959394,0.3930946785966638,0.5567745217614484,0.4777094279795693,-0.2416942268610001,-0.9673395156860352,-0.0764082670211792,-2.508583307266235,-21.03716278076172,28.61841011047363,1,526818.6284587501,unknown,2,2015-02-16 17:18:38.926,null,0,0,0,0,null,0,-0.05306625,100.668,192.168.1.3,10.191.100.224,1,0
2015-02-16 17:18:39.615,9,1424135914.649742,37.77917309860806,-122.4389002583513,58.1928,-1,-1,10,65,-9999,1424135919.533921,-10.81192779541016,-32.32514953613281,27.361572265625,174.3924407958984,160.6114807128906,25,526819.2498967501,-0.14825439453125,-0.9801483154296875,-0.094146728515625,526819.21563775,0.1014949333556828,0.2578280819816233,0.04633261138076256,526819.21563775,2.758724277158733,-1.25365886262232,1.322972436219935,0.120144285261631,0.24887415766716,0.03657669574022293,0.03036490082740784,-0.01730686612427235,0.01004275213927031,XTrueNorthZVertical,0.5490626783062998,0.400353326730815,0.558835973105466,0.475341745140867,-0.2330626547336578,-0.9694485068321228,-0.07649477571249008,-2.619881868362427,-21.07931900024414,28.57739067077637,1,526818.6284587501,unknown,2,2015-02-16 17:18:38.926,null,0,0,0,0,null,0,-0.05306625,100.668,192.168.1.3,10.191.100.224,1,0
2015-02-16 17:18:39.707,10,1424135914.649742,37.77917309860806,-122.4389002583513,58.1928,-1,-1,10,65,-9999,1424135919.651257,-11.54286956787109,-32.35983276367188,27.7972412109375,173.2466888427734,159.4657287597656,25,526819.34918575,-0.20166015625,-0.95928955078125,-0.0756072998046875,526819.31558575,-0.01562663032825795,-0.2245691947081687,0.1548143478562683,526819.31558575,2.793328949379926,-1.285626060437928,1.32065361628629,0.003012348897755146,-0.2335053980350494,0.1449542790651321,0.06963732838630676,-0.01626083441078663,-0.01326217874884605,XTrueNorthZVertical,0.5513397304041814,0.4015035376996922,0.5588964983785295,0.47165044835801,-0.2375450432300568,-0.9688770771026611,-0.06963881850242615,-2.911801815032959,-20.80805206298828,28.7474365234375,1,526818.6284587501,unknown,2,2015-02-16 17:18:38.926,null,0,0,0,0,null,0,-0.05306625,100.668,192.168.1.3,10.191.100.224,1,0
2015-02-16 17:18:39.806,11,1424135914.649742,37.77917309860806,-122.4389002583513,58.1928,-1,-1,10,65,-9999,1424135919.770092,-11.85613632202148,-32.04762268066406,27.76376342773438,172.7103118896484,158.9293518066406,25,526819.44844375,-0.27191162109375,-0.9654083251953125,-0.0367279052734375,526819.41550675,0.02263127662738436,-0.275631580184912,0.1121185492601179,526819.41550675,2.802286812347573,-1.325528411081057,1.3101939661002,0.0412701815366745,-0.2845643162727356,0.1022331863641739,-0.007387997582554817,0.004946495406329632,0.01526244729757309,XTrueNorthZVertical,0.5620064873931768,0.3909812802034056,0.5528425548767715,0.4750236695359821,-0.2499514818191528,-0.9662349224090576,-0.06256469339132309,-2.230348348617554,-20.79794502258301,28.81561660766602,1,526818.6284587501,unknown,2,2015-02-16 17:18:38.926,null,0,0,0,0,null,0,-0.05306625,100.668,192.168.1.3,10.191.100.224,1,0
2015-02-16 17:18:39.907,12,1424135914.649742,37.77917309860806,-122.4389002583513,58.1928,-1,-1,10,65,-9999,1424135919.888891,-11.50806427001953,-31.56198120117188,29.23861694335938,173.4920501708984,159.7110900878906,25,526819.5477337501,-0.2674713134765625,-0.951568603515625,-0.0401763916015625,526819.51543775,0.1590791340259212,-0.03606506011407106,0.07416584056539868,526819.51543775,2.863787047079504,-1.40343357337152,1.301650874892544,0.1777397990226746,-0.04500814899802208,0.06431066989898682,-0.02366568706929684,0.01163641829043627,0.0008080562693066895,XTrueNorthZVertical,0.5726910798339176,0.3871396705789659,0.547614244813681,0.4714514522869031,-0.2621924579143524,-0.9639984965324402,-0.04429560527205467,-1.910536050796509,-20.43807220458984,29.09473991394043,1,526818.6284587501,unknown,2,2015-02-16 17:18:38.926,null,0,0,0,0,null,0,0,100.6673,192.168.1.3,10.191.100.224,1,0
2015-02-16 17:18:40.022,13,1424135914.649742,37.77917309860806,-122.4389002583513,58.1928,-1,-1,10,65,-9999,1424135920.008598,-10.95115661621094,-31.00694274902344,28.63525390625,173.7262115478516,159.9452514648438,25,526819.64700875,-0.308563232421875,-0.960357666015625,-0.02880859375,526819.61536675,0.1076620154919793,0.03805018039061613,-0.01741387773581012,526819.61536675,2.91676292741608,-1.455384526127029,1.297158469995923,0.1263043284416199,0.02910664677619934,-0.02720756083726883,-0.03028323873877525,0.008601075038313866,-0.008431568741798401,XTrueNorthZVertical,0.5773377452890696,0.388743516420392,0.546258569021375,0.4660055927990334,-0.2684380710124969,-0.9627941846847534,-0.0311192125082016,-1.985461235046387,-19.98739242553711,29.40120315551758,1,526818.6284587501,unknown,2,2015-02-16 17:18:38.926,null,0,0,0,0,null,0,0,100.6673,192.168.1.3,10.191.100.224,1,0
2015-02-16 17:18:40.105,14,1424135914.649742,37.77917309860806,-122.4389002583513,58.1928,-1,-1,10,65,-9999,1424135920.008598,-10.95115661621094,-31.00694274902344,28.63525390625,173.7262115478516,159.9452514648438,25,526819.74627675,-0.303802490234375,-0.9609222412109375,-0.017486572265625,526819.7152967501,0.06506688438503397,0.1877110452214721,-0.009975668811218811,526819.7152967501,2.953361867423268,-1.474059545652811,1.296461156417214,0.08369791507720947,0.1787513196468353,-0.01968952268362045,-0.009702100418508053,-0.007426220923662186,-0.005755556747317314,XTrueNorthZVertical,0.5754037619090225,0.3947500422230785,0.549519386645966,0.4594685942365155,-0.2696405649185181,-0.9626055359840393,-0.02616582997143269,-2.424567461013794,-19.7072925567627,29.55694198608398,1,526818.6284587501,unknown,2,2015-02-16 17:18:38.926,null,0,0,0,0,null,0,0,100.6673,192.168.1.3,10.191.100.224,1,0
2015-02-16 17:18:40.204,15,1424135914.649742,37.77917309860806,-122.4389002583513,58.1928,-1,-1,10,65,-9999,1424135920.127813,-12.03017425537109,-31.18038940429688,29.07089233398438,172.1660308837891,158.3850708007812,25,526819.84556475,-0.2276611328125,-0.9576568603515625,-0.0355072021484375,526819.81522675,0.01835637044558917,0.5496559426519612,0.03243357365163901,526819.81522675,2.980991972633733,-1.463014612088646,1.290417359772855,0.03700461238622665,0.5406830310821533,0.02278214879333973,0.01206792052835226,0.001600053743459284,0.0007911967695690691,XTrueNorthZVertical,0.5678858672532795,0.403263962141644,0.5604329859892407,0.4481056987705135,-0.2751141786575317,-0.9609506130218506,-0.02976763807237148,-3.526617050170898,-19.45507621765137,29.61303329467773,1,526818.6284587501,unknown,2,2015-02-16 17:18:38.926,null,0,0,0,0,null,0,0,100.6673,192.168.1.3,10.191.100.224,1,0
2015-02-16 17:18:40.303,16,1424135914.649742,37.77917309860806,-122.4389002583513,58.1928,-1,-1,10,65,-9999,1424135920.245311,-13.07437515258789,-31.18038940429688,28.6016845703125,169.9901275634766,156.2091674804688,25,526819.9448387501,-0.22943115234375,-0.9686279296875,-0.04815673828125,526819.91515375,-0.04240817719842179,0.2060354577339803,0.07026377693621459,526819.91515375,2.979431279242356,-1.425868743437131,1.290010861521025,-0.02376912906765938,0.1970711052417755,0.06055467948317528,0.05327341333031654,-0.008751159533858299,-0.007205433212220669,XTrueNorthZVertical,0.5577703123831232,0.4109525753197155,0.5706398252152908,0.4408860167707777,-0.2742054164409637,-0.9608380794525146,-0.04002051800489426,-4.649974346160889,-19.42960929870605,29.47434043884277,1,526818.6284587501,unknown,2,2015-02-16 17:18:38.926,null,0,0,0,0,null,0,0,100.6673,192.168.1.3,10.191.100.224,1,0
2015-02-16 17:18:40.408,17,1424135914.649742,37.77917309860806,-122.4389002583513,58.1928,-1,-1,10,65,-9999,1424135920.34686,-13.87493515014648,-31.14569091796875,28.09896850585938,168.4226226806641,154.6416625976562,25,526820.0441087501,-0.25958251953125,-0.9604034423828125,-0.0428924560546875,526820.01509475,-0.04676324452902837,0.01184254473536436,0.05555034454574481,526820.01509475,2.967248173018604,-1.408724473280246,1.289227681031667,-0.02813535742461681,0.00288586039096117,0.04579472914338112,0.01946085505187511,-0.0007287353510037065,0.0007389721577055752,XTrueNorthZVertical,0.5555053419384574,0.4110904751900151,0.5729216165765773,0.4406577901147086,-0.2742215991020203,-0.9606207609176636,-0.0448368713259697,-4.99363899230957,-19.53169441223145,29.35038757324219,1,526818.6284587501,unknown,2,2015-02-16 17:18:38.926,null,0,0,0,0,null,0,0,100.6673,192.168.1.3,10.191.100.224,1,0
2015-02-16 17:18:40.515,18,1424135914.649742,37.77917309860806,-122.4389002583513,58.1928,-1,-1,10,65,-9999,1424135920.463598,-14.43184661865234,-30.52128601074219,28.30014038085938,167.4349975585938,153.6540374755859,25,526820.14338675,-0.282501220703125,-0.9613189697265625,-0.0403594970703125,526820.1150167501,-0.02554690538880311,0.05098009379905984,0.01174933409721158,526820.01509475,2.967248173018604,-1.408724473280246,1.289227681031667,-0.02813535742461681,0.00288586039096117,0.04579472914338112,0.01946085505187511,-0.0007287353510037065,0.0007389721577055752,XTrueNorthZVertical,0.5555053419384574,0.4110904751900151,0.5729216165765773,0.4406577901147086,-0.2742215991020203,-0.9606207609176636,-0.0448368713259697,-4.99363899230957,-19.53169441223145,29.35038757324219,1,526818.6284587501,unknown,2,2015-02-16 17:18:38.926,null,0,0,0,0,null,0,0,100.6673,192.168.1.3,10.191.100.224,1,0
2015-02-16 17:18:40.601,19,1424135914.649742,37.77917309860806,-122.4389002583513,58.1928,-1,-1,10,65,-9999,1424135920.583028,-14.46665191650391,-31.31915283203125,28.3336181640625,167.6630096435547,153.8820495605469,25,526820.24267175,-0.272705078125,-0.9629364013671875,-0.03814697265625,526820.21493875,-0.03072062843850005,0.1317343285852056,0.06177681517435007,526820.21493875,2.977328017819417,-1.405479564954089,1.289044182503022,-0.01206918340176344,0.1227733641862869,0.05198849365115166,0.007418081630021334,-0.003160109976306558,0.006586154922842979,XTrueNorthZVertical,0.5525234910484558,0.4145359558190744,0.5760781773431533,0.4370488499074177,-0.2742485404014587,-0.9605697393417358,-0.04575546458363533,-5.289449691772461,-19.47389793395996,29.33696937561035,1,526818.6284587501,unknown,2,2015-02-16 17:18:38.926,null,0,0,0,0,null,0,0,100.6673,192.168.1.3,10.191.100.224,1,0
2015-02-16 17:18:40.702,20,1424135914.649742,37.77917309860806,-122.4389002583513,58.1928,-1,-1,10,65,-9999,1424135920.583028,-14.46665191650391,-31.31915283203125,28.3336181640625,167.6630096435547,153.8820495605469,25,526820.3419327501,-0.2407379150390625,-0.961883544921875,-0.047027587890625,526820.3148687501,-0.005001682843277817,0.194399041666988,0.1021375541267189,526820.21493875,2.977328017819417,-1.405479564954089,1.289044182503022,-0.01206918340176344,0.1227733641862869,0.05198849365115166,0.007418081630021334,-0.003160109976306558,0.006586154922842979,XTrueNorthZVertical,0.5525234910484558,0.4145359558190744,0.5760781773431533,0.4370488499074177,-0.2742485404014587,-0.9605697393417358,-0.04575546458363533,-5.289449691772461,-19.47389793395996,29.33696937561035,1,526818.6284587501,unknown,2,2015-02-16 17:18:38.926,null,0,0,0,0,null,0,0,100.6673,192.168.1.3,10.191.100.224,1,0
2015-02-16 17:18:40.799,21,1424135914.649742,37.77917309860806,-122.4389002583513,58.1928,-1,-1,10,65,-9999,1424135920.702821,-14.77991485595703,-31.07633972167969,27.62973022460938,166.7725372314453,152.9915771484375,25,526820.4411997501,-0.27911376953125,-0.951416015625,-0.054901123046875,526820.41481775,-0.06705147202936101,0.1338302363630979,0.03417261784346075,526820.41481775,2.971325075124378,-1.373412612957907,1.280594840124416,-0.04839479923248291,0.1248725205659866,0.02430051378905773,-0.01901701651513577,0.007365317549556494,0.004646509420126677,XTrueNorthZVertical,0.545855445096545,0.4171146493455293,0.5857009810262165,0.4301297404601871,-0.2805893123149872,-0.9581862688064575,-0.05611440539360046,-6.219964027404785,-19.47762489318848,29.1513786315918,1,526818.6284587501,unknown,2,2015-02-16 17:18:38.926,null,0,0,0,0,null,0,0,100.6673,192.168.1.3,10.191.100.224,1,0
2015-02-16 17:18:40.899,22,1424135914.649742,37.77917309860806,-122.4389002583513,58.1928,-1,-1,10,65,-9999,1424135920.819536,-15.58046722412109,-30.69476318359375,27.79730224609375,165.3055572509766,151.5245971679688,25,526820.54044875,-0.2495880126953125,-0.937896728515625,-0.06671142578125,526820.5147397501,-0.04258314688203999,0.1157255346405212,0.0149328768642923,526820.5147397501,2.962219396590666,-1.349259700167411,1.279123018709103,-0.02392333559691906,0.1067677140235901,0.005049817264080048,0.01703901402652264,-0.003890614956617355,0.009671665728092194,XTrueNorthZVertical,0.5408916837019382,0.4193376528487152,0.5906835643931067,0.4274167481567361,-0.2805277705192566,-0.9577640295028687,-0.06318423897027969,-6.702766418457031,-19.57607078552246,28.9779052734375,1,526818.6284587501,unknown,2,2015-02-16 17:18:38.926,null,0,0,0,0,null,0,0,100.6673,192.168.1.3,10.191.100.224,1,0
2015-02-16 17:18:40.997,23,1424135914.649742,37.77917309860806,-122.4389002583513,58.1928,-1,-1,10,65,-9999,1424135920.939278,-15.68489837646484,-30.59068298339844,26.42303466796875,164.6124877929688,150.8315277099609,25,526820.63971775,-0.282318115234375,-0.9471282958984375,-0.0579681396484375,526820.6146687501,-0.06192968062092062,-0.002127333078755296,-0.02965483137025033,526820.6146687501,2.947742759081343,-1.329478251653477,1.284353353258731,-0.04328092932701111,-0.01108028367161751,-0.03958862647414207,-0.001203435007482767,0.004314154852181673,0.004000321496278048,XTrueNorthZVertical,0.5372744319546057,0.4213963152581013,0.5915751781552382,0.4287192196402684,-0.27435502409935,-0.9592549800872803,-0.06752265989780426,-6.864242553710938,-19.6823902130127,28.86787796020508,1,526818.6284587501,unknown,2,2015-02-16 17:18:38.926,null,0,0,0,0,null,0,0,100.6673,192.168.1.3,10.191.100.224,1,0
2015-02-16 17:18:41.096,24,1424135914.649742,37.77917309860806,-122.4389002583513,58.1928,-1,-1,10,65,-9999,1424135921.057841,-15.99815368652344,-30.2091064453125,27.059814453125,163.9880218505859,150.2070617675781,25,526820.73897475,-0.2558441162109375,-0.9361419677734375,-0.067962646484375,526820.71460475,-0.02347043868686833,0.07214769709133664,-0.01066010121136917,526820.6146687501,2.947742759081343,-1.329478251653477,1.284353353258731,-0.04328092932701111,-0.01108028367161751,-0.03958862647414207,-0.001203435007482767,0.004314154852181673,0.004000321496278048,XTrueNorthZVertical,0.5372744319546057,0.4213963152581013,0.5915751781552382,0.4287192196402684,-0.27435502409935,-0.9592549800872803,-0.06752265989780426,-6.864242553710938,-19.6823902130127,28.86787796020508,1,526818.6284587501,unknown,2,2015-02-16 17:18:38.926,null,0,0,0,0,null,0,0,100.6673,192.168.1.3,10.191.100.224,1,0
2015-02-16 17:18:41.198,25,1424135914.649742,37.77917309860806,-122.4389002583513,58.1928,-1,-1,10,65,-9999,1424135921.174557,-15.71969985961914,-30.6253662109375,26.3223876953125,164.0132751464844,150.2323150634766,25,526820.83825075,-0.2714385986328125,-0.9560089111328125,-0.070709228515625,526820.8145057501,-0.004271710388487098,0.009546100927389028,-0.003194195411441038,526820.8145057501,2.946076832221804,-1.31875038183858,1.289519241810674,0.01441339496523142,0.0005753806908614933,-0.0131149273365736,-0.000612011703196913,0.002663394901901484,0.004039674997329712,XTrueNorthZVertical,0.5336608397020944,0.4249629361804644,0.5927505819486945,0.4280880623007716,-0.2688124179840088,-0.9607017040252686,-0.06922522187232971,-6.996794700622559,-19.73026275634766,28.80330276489258,1,526818.6284587501,unknown,2,2015-02-16 17:18:38.926,null,0,0,0,0,null,0,0.09703445,100.6662,192.168.1.3,10.191.100.224,1,0
2015-02-16 17:18:41.297,26,1424135914.649742,37.77917309860806,-122.4389002583513,58.1928,-1,-1,10,65,-9999,1424135921.293149,-16.24179840087891,-31.35386657714844,26.89227294921875,164.6595306396484,150.8785705566406,25,526820.9375187501,-0.279876708984375,-0.9519805908203125,-0.0684814453125,526820.91445875,0.006347111825985848,-0.01595979178062686,-0.01705594888530347,526820.91445875,2.952211438632894,-1.324011616990442,1.291728334362917,0.02502554282546043,-0.02492929250001907,-0.02696602046489716,0.001290916348807514,0.01596956886351109,-0.003143195994198322,XTrueNorthZVertical,0.5335750208443132,0.4262065343551396,0.5920854579657239,0.4278791045530297,-0.2671142816543579,-0.9613125920295715,-0.06729137152433395,-6.993466377258301,-19.6868782043457,28.83378410339355,1,526818.6284587501,unknown,2,2015-02-16 17:18:38.926,null,0,0,0,0,null,0,0.09703445,100.6662,192.168.1.3,10.191.100.224,1,0
2015-02-16 17:18:41.397,27,1424135914.649742,37.77917309860806,-122.4389002583513,58.1928,-1,-1,10,65,-9999,1424135921.293149,-16.24179840087891,-31.35386657714844,26.89227294921875,164.6595306396484,150.8785705566406,25,526821.03679175,-0.2562408447265625,-0.95294189453125,-0.0708160400390625,526821.0143857501,0.02348322186010071,0.1071355085444707,-0.001243696229067004,526821.0143857501,2.964743251018396,-1.33462926431,1.291089840539819,0.04216362908482552,0.09816400706768036,-0.01111933682113886,-0.002402601530775428,0.01329105254262686,-0.00515281455591321,XTrueNorthZVertical,0.5341446879874985,0.4270736438242783,0.5920923231185632,0.4262912928891058,-0.2684103846549988,-0.961136519908905,-0.06459511071443558,-7.003005504608154,-19.58428192138672,28.9012565612793,1,526818.6284587501,unknown,2,2015-02-16 17:18:38.926,null,0,0,0,0,null,0,0.09703445,100.6662,192.168.1.3,10.191.100.224,1,0
2015-02-16 17:18:41.496,28,1424135914.649742,37.77917309860806,-122.4389002583513,58.1928,-1,-1,10,65,-9999,1424135921.411287,-15.78931045532227,-30.41725158691406,26.92581176757812,164.670166015625,150.8892059326172,25,526821.13605875,-0.281585693359375,-0.9577178955078125,-0.0676727294921875,526821.1143167501,6.657902725198096e-05,-0.02646516333266243,0.02667155831714357,526821.0143857501,2.964743251018396,-1.33462926431,1.291089840539819,0.04216362908482552,0.09816400706768036,-0.01111933682113886,-0.002402601530775428,0.01329105254262686,-0.00515281455591321,XTrueNorthZVertical,0.5341446879874985,0.4270736438242783,0.5920923231185632,0.4262912928891058,-0.2684103846549988,-0.961136519908905,-0.06459511071443558,-7.003005504608154,-19.58428192138672,28.9012565612793,1,526818.6284587501,unknown,2,2015-02-16 17:18:38.926,null,0,0,0,0,null,0,0.09703445,100.6662,192.168.1.3,10.191.100.224,1,0
2015-02-16 17:18:41.595,29,1424135914.649742,37.77917309860806,-122.4389002583513,58.1928,-1,-1,10,65,-9999,1424135921.530409,-15.09317398071289,-30.76412963867188,27.59619140625,164.7134857177734,150.9325256347656,25,526821.2353087501,-0.2753143310546875,-0.950714111328125,-0.0651397705078125,526821.2142437501,-0.01381115341315093,-0.006309028622397715,0.01923228412811623,526821.2142437501,2.974899383011985,-1.347057429063792,1.287788868550816,0.004850206896662712,-0.015276157297194,0.009372248314321041,-0.006920754909515381,0.004592523910105228,-0.003486977191641927,XTrueNorthZVertical,0.5361822301458192,0.4260629432007043,0.5917733669675618,0.4251861910957327,-0.2722845673561096,-0.9602199792861938,-0.06195797026157379,-7.046050548553467,-19.49517250061035,28.95099639892578,1,526818.6284587501,unknown,2,2015-02-16 17:18:38.926,null,0,0,0,0,null,0,0.09703445,100.6662,192.168.1.3,10.191.100.224,1,0
2015-02-16 17:18:41.695,30,1424135914.649742,37.77917309860806,-122.4389002583513,58.1928,-1,-1,10,65,-9999,1424135921.649228,-15.99815368652344,-30.13973999023438,27.39511108398438,164.6931610107422,150.9122009277344,25,526821.33461275,-0.27508544921875,-0.955474853515625,-0.06463623046875,526821.31417475,-0.02235856893176024,-0.02646915807429755,0.01501490222586675,526821.2142437501,2.974899383011985,-1.347057429063792,1.287788868550816,0.004850206896662712,-0.015276157297194,0.009372248314321041,-0.006920754909515381,0.004592523910105228,-0.003486977191641927,XTrueNorthZVertical,0.5361822301458192,0.4260629432007043,0.5917733669675618,0.4251861910957327,-0.2722845673561096,-0.9602199792861938,-0.06195797026157379,-7.046050548553467,-19.49517250061035,28.95099639892578,1,526818.6284587501,unknown,2,2015-02-16 17:18:38.926,null,0,0,0,0,null,0,0.09703445,100.6662,192.168.1.3,10.191.100.224,1,0
2015-02-16 17:18:41.794,31,1424135914.649742,37.77917309860806,-122.4389002583513,58.1928,-1,-1,10,65,-9999,1424135921.767619,-15.47605895996094,-31.21511840820312,26.75823974609375,164.6811065673828,150.900146484375,25,526821.43387075,-0.2730255126953125,-0.9567108154296875,-0.06695556640625,526821.4141097501,-0.01810310382592263,0.01594993808459357,0.007498928997445119,526821.31417475,2.975309947626826,-1.347441193591477,1.287250046786121,-0.003706493880599737,-0.03543376550078392,0.005159188061952591,0.006546950899064541,0.006272975821048021,-0.009397291578352451,XTrueNorthZVertical,0.5362948653400137,0.425915232097053,0.5918948591849849,0.4250229859568175,-0.2728128135204315,-0.9600693583488464,-0.06196806579828262,-7.066747665405273,-19.47587585449219,28.95893669128418,1,526818.6284587501,unknown,2,2015-02-16 17:18:38.926,null,0,0,0,0,null,0,0.09703445,100.6662,192.168.1.3,10.191.100.224,1,0
2015-02-16 17:18:41.894,32,1424135914.649742,37.77917309860806,-122.4389002583513,58.1928,-1,-1,10,65,-9999,1424135921.886561,-16.13738250732422,-31.11105346679688,27.19403076171875,164.6591491699219,150.8781890869141,25,526821.53313475,-0.276153564453125,-0.9506683349609375,-0.0638275146484375,526821.51404175,-0.02873976921969911,-0.006294114920293271,0.01927702523442956,526821.4141097501,2.975011037078978,-1.349876951838958,1.285965377626265,0.0005447647417895496,0.006985473912209272,-0.002340588020160794,0.0001487861591158435,0.004875184502452612,0.001194561365991831,XTrueNorthZVertical,0.5372854325459425,0.4248971277283034,0.5915041665690467,0.4253347460497754,-0.2741661071777344,-0.9597091674804688,-0.06157359108328819,-7.000705242156982,-19.4848804473877,28.96891784667969,1,526818.6284587501,unknown,2,2015-02-16 17:18:38.926,null,0,0,0,0,null,0,0.09703445,100.6662,192.168.1.3,10.191.100.224,1,0
2015-02-16 17:18:41.993,33,1424135914.649742,37.77917309860806,-122.4389002583513,58.1928,-1,-1,10,65,-9999,1424135921.886561,-16.13738250732422,-31.11105346679688,27.19403076171875,164.6591491699219,150.8781890869141,25,526821.6323837501,-0.2756500244140625,-0.9517669677734375,-0.0680999755859375,526821.61397275,-0.0191305513744752,0.007496532152464048,0.02243180586173742,526821.51404175,2.972063169329636,-1.348434094866625,1.285155741221376,-0.01010095793753862,-0.01525616552680731,0.009442969225347042,-0.001852834713645279,0.002602688269689679,-0.003487605601549149,XTrueNorthZVertical,0.5376142167190278,0.4241470628710798,0.5914705280503588,0.4257145380778804,-0.2748347818851471,-0.9594813585281372,-0.06214044615626335,-6.975105285644531,-19.50357055664062,28.96251678466797,1,526818.6284587501,unknown,2,2015-02-16 17:18:38.926,null,0,0,0,0,null,0,0.09703445,100.6662,192.168.1.3,10.191.100.224,1,0
2015-02-16 17:18:42.095,34,1424135914.649742,37.77917309860806,-122.4389002583513,58.1928,-1,-1,10,65,-9999,1424135922.006872,-15.85894012451172,-30.69477844238281,27.12698364257812,164.6581115722656,150.8771514892578,25,526821.73166375,-0.279998779296875,-0.9559173583984375,-0.064544677734375,526821.71390075,-0.02229385411727132,0.009650496842120136,0.03522882753178618,526821.61397275,2.968001288163426,-1.345816122713833,1.283476071781581,-0.0004976582713425159,-0.001464280416257679,0.01260621473193169,0.0009732167818583548,0.01203100476413965,-0.0006693669711239636,XTrueNorthZVertical,0.5379676984479667,0.4230616551050491,0.5917372635169509,0.4259772679562314,-0.2762417793273926,-0.9590067267417908,-0.06321918219327927,-6.959311962127686,-19.54158782958984,28.94068145751953,1,526818.6284587501,unknown,2,2015-02-16 17:18:38.926,null,0,0,0,0,null,0,0.09703445,100.6662,192.168.1.3,10.191.100.224,1,0
2015-02-16 17:18:42.190,35,1424135914.649742,37.77917309860806,-122.4389002583513,58.1928,-1,-1,10,65,-9999,1424135922.123994,-15.99816513061523,-30.13973999023438,27.05990600585938,164.6271667480469,150.8462066650391,25,526821.83091975,-0.2863922119140625,-0.950653076171875,-0.0630340576171875,526821.8138307501,-0.02020087581657804,0.003251187058768734,0.02137346564453993,526821.8138307501,2.9642785966096,-1.343086561674294,1.2788495171689,-0.001564987236633897,-0.005731596145778894,0.01155558321624994,-0.007026977837085724,0.002683534286916256,0.002885879948735237,XTrueNorthZVertical,0.5386755052641234,0.4211196429526167,0.5928583515963297,0.4254479424488914,-0.2803875803947449,-0.9576853513717651,-0.06497389078140259,-7.024865627288818,-19.57541084289551,28.90195846557617,1,526818.6284587501,unknown,2,2015-02-16 17:18:38.926,null,0,0,0,0,null,0,0.09703445,100.6662,192.168.1.3,10.191.100.224,1,0
2015-02-16 17:18:42.290,36,1424135914.649742,37.77917309860806,-122.4389002583513,58.1928,-1,-1,10,65,-9999,1424135922.242953,-15.99816513061523,-30.62539672851562,26.99285888671875,164.5841827392578,150.80322265625,25,526821.93018575,-0.2672119140625,-0.95123291015625,-0.0696563720703125,526821.91376375,-0.02548405478707724,0.04466680411891799,0.03520326118532142,526821.8138307501,2.9642785966096,-1.343086561674294,1.2788495171689,-0.001564987236633897,-0.005731596145778894,0.01155558321624994,-0.007026977837085724,0.002683534286916256,0.002885879948735237,XTrueNorthZVertical,0.5386755052641234,0.4211196429526167,0.5928583515963297,0.4254479424488914,-0.2803875803947449,-0.9576853513717651,-0.06497389078140259,-7.024865627288818,-19.57541084289551,28.90195846557617,1,526818.6284587501,unknown,2,2015-02-16 17:18:38.926,null,0,0,0,0,null,0,0.09703445,100.6662,192.168.1.3,10.191.100.224,1,0
2015-02-16 17:18:42.390,37,1424135914.649742,37.77917309860806,-122.4389002583513,58.1928,-1,-1,10,65,-9999,1424135922.361209,-15.92855072021484,-30.48663330078125,26.92581176757812,164.5667266845703,150.7857666015625,25,526822.0294607501,-0.2823028564453125,-0.95208740234375,-0.062225341796875,526822.01367475,-0.02655943923525124,0.008593754521576694,0.03524267596945459,526821.91376375,2.963188166264741,-1.337917596018747,1.277012921976206,-0.006853654980659485,0.03568602353334427,0.02538272365927696,0.01353991404175758,0.005510249175131321,-0.004445670638233423,XTrueNorthZVertical,0.5376583621447826,0.4213186669014131,0.5944857353819449,0.4242650202493772,-0.2817589044570923,-0.957155168056488,-0.06682813167572021,-7.15498685836792,-19.57497024536133,28.87032318115234,1,526818.6284587501,unknown,2,2015-02-16 17:18:38.926,null,0,0,0,0,null,0,0.09703445,100.6662,192.168.1.3,10.191.100.224,1,0
2015-02-16 17:18:42.496,38,1424135914.649742,37.77917309860806,-122.4389002583513,58.1928,-1,-1,10,65,-9999,1424135922.471866,-16.58987808227539,-30.382568359375,27.02630615234375,164.5186157226562,150.7376556396484,25,526822.12871075,-0.267242431640625,-0.9515228271484375,-0.068115234375,526822.11361775,-0.02017823894731237,0.02342463231611896,0.0277480080297536,526822.01367475,2.963222862771713,-1.337329182291869,1.275308462997355,-0.007961325347423553,-0.0004834214341826737,0.02540692873299122,0.00333803566172719,0.001566803199239075,-0.001064419280737638,XTrueNorthZVertical,0.5377417369082789,0.4208897712845489,0.595085780356283,0.4237435182705122,-0.2833063006401062,-0.9566602110862732,-0.06737124919891357,-7.222404479980469,-19.5794849395752,28.85046577453613,1,526822.0982157501,stationary,1,2015-02-16 17:18:42.420,null,0,0,0,0,null,0,0.2501717,100.6644,192.168.1.3,10.191.100.224,1,0
2015-02-16 17:18:42.588,39,1424135914.649742,37.77917309860806,-122.4389002583513,58.1928,-1,-1,10,65,-9999,1424135922.578325,-15.82413101196289,-30.45196533203125,26.89218139648438,164.4531860351562,150.6722259521484,25,526822.2280260001,-0.282012939453125,-0.95556640625,-0.06451416015625,526822.2136,-0.01807780379556688,-0.02327842477227361,0.02032790860057482,526822.11361775,2.96578152646081,-1.337699804295953,1.27454975162356,-0.001628155005164444,0.0142164621502161,0.01789870299398899,0.01133228652179241,0.005221318453550339,-0.001383252441883087,XTrueNorthZVertical,0.5374316695387744,0.4212484509630222,0.5957208840127771,0.4228872212927058,-0.2840373516082764,-0.9564389586448669,-0.06743388622999191,-7.289283752441406,-19.55644989013672,28.84926986694336,1,526822.0982157501,stationary,1,2015-02-16 17:18:42.420,null,0,0,0,0,null,0,0.2501717,100.6644,192.168.1.3,10.191.100.224,1,0
2015-02-16 17:18:42.687,40,1424135914.649742,37.77917309860806,-122.4389002583513,58.1928,-1,-1,10,65,-9999,1424135922.578325,-15.82413101196289,-30.45196533203125,26.89218139648438,164.4531860351562,150.6722259521484,25,526822.3272910001,-0.2729949951171875,-0.95172119140625,-0.0626983642578125,526822.31353,-0.01384950293284807,-0.00740119098543921,0.005377987505306014,526822.2136,2.964431075037997,-1.336987191904576,1.275331824717946,0.0004741546290460974,-0.03248566761612892,0.01045938301831484,0.004193506203591824,0.001787229091860354,0.004337345249950886,XTrueNorthZVertical,0.5373819267295498,0.4212946557477266,0.5954276066263366,0.42331722569922,-0.2832615077495575,-0.9566670060157776,-0.06746295839548111,-7.283303260803223,-19.57199859619141,28.84023475646973,1,526822.0982157501,stationary,1,2015-02-16 17:18:42.420,null,0,0,0,0,null,0,0.2501717,100.6644,192.168.1.3,10.191.100.224,1,0
2015-02-16 17:18:42.788,41,1424135914.649742,37.77917309860806,-122.4389002583513,58.1928,-1,-1,10,65,-9999,1424135922.698731,-16.45065689086914,-29.96630859375,26.95925903320312,164.4010009765625,150.6200408935547,25,526822.426556,-0.2757110595703125,-0.9537506103515625,-0.0667724609375,526822.31353,-0.01384950293284807,-0.00740119098543921,0.005377987505306014,526822.31353,2.965083757597649,-1.337561909366264,1.276220517077022,0.004651917144656181,-0.01672957465052605,-0.00450791884213686,0.01449809689074755,0.008255952037870884,-0.001438856590539217,XTrueNorthZVertical,0.5372767898445764,0.421641837551811,0.5951850086068569,0.4234461570182278,-0.2824729382991791,-0.9569253921508789,-0.06710362434387207,-16.27829360961914,-30.48669052124023,26.85754013061523,1,526822.0982157501,stationary,1,2015-02-16 17:18:42.420,null,0,0,0,0,null,0,0.2501717,100.6644,192.168.1.3,10.191.100.224,1,0
2015-02-16 17:18:42.897,42,1424135914.649742,37.77917309860806,-122.4389002583513,58.1928,-1,-1,10,65,-9999,1424135922.820052,-16.79872894287109,-30.24382019042969,27.56253051757812,164.3064117431641,150.5254516601562,25,526822.52584,-0.27545166015625,-0.953369140625,-0.0658416748046875,526822.5133870001,-0.02561428336438211,-0.03075551584878008,-0.005221393633209354,526822.4134430001,2.966527669167168,-1.340854657169759,1.278185769289231,0.003512059105560184,-0.01687372289597988,-0.01519768126308918,0.004417246673256159,0.003117895685136318,0.001581186545081437,XTrueNorthZVertical,0.5376434344042343,0.4219802603902383,0.5941056598409794,0.424158805957783,-0.2808607220649719,-0.9574941396713257,-0.06574439257383347,-16.19060516357422,-30.49569892883301,26.90028381347656,1,526822.0982157501,stationary,1,2015-02-16 17:18:42.420,null,0,0,0,0,null,0,0.2501717,100.6644,192.168.1.3,10.191.100.224,1,0
2015-02-16 17:18:42.985,43,1424135914.649742,37.77917309860806,-122.4389002583513,58.1928,-1,-1,10,65,-9999,1424135922.936862,-16.38104629516602,-31.00700378417969,26.62405395507812,164.2308807373047,150.4499206542969,25,526822.6251160001,-0.28167724609375,-0.9488525390625,-0.064361572265625,526822.613322,-0.02986149267084048,-0.01694622664839221,0.0001065264436031695,526822.5133870001,2.963627041480768,-1.340318600513336,1.280236826264932,-0.007156186737120152,-0.04020480439066887,-0.01514975819736719,0.00436151959002018,0.003661738010123372,-0.0005786088295280933,XTrueNorthZVertical,0.5377743987307226,0.4219900595309427,0.5931108713298169,0.4253734952731282,-0.2789129018783569,-0.9580837488174438,-0.0654461681842804,-16.07677459716797,-30.52719306945801,26.93281173706055,1,526822.0982157501,stationary,1,2015-02-16 17:18:42.420,null,0,0,0,0,null,0,0.2501717,100.6644,192.168.1.3,10.191.100.224,1,0
2015-02-16 17:18:43.084,44,1424135914.649742,37.77917309860806,-122.4389002583513,58.1928,-1,-1,10,65,-9999,1424135923.056602,-16.38104629516602,-30.17445373535156,27.16049194335938,164.1852264404297,150.4042663574219,25,526822.724391,-0.2895965576171875,-0.949920654296875,-0.0617218017578125,526822.7132530001,-0.02024108954903824,-0.005267998952285741,0.007526625872781943,526822.613322,2.959113461422757,-1.338764283085262,1.280842592445749,-0.01143909059464931,-0.02651640959084034,-0.009864672087132931,-0.001417107996530831,0.008824731223285198,0.003627608763054013,XTrueNorthZVertical,0.5381705595748578,0.4213067520468953,0.5924128386913052,0.4265209590206571,-0.2782459855079651,-0.9582570791244507,-0.06574613600969315,-15.9356107711792,-30.58719635009766,26.94862747192383,1,526822.0982157501,stationary,1,2015-02-16 17:18:42.420,null,0,0,0,0,null,0,0.2501717,100.6644,192.168.1.3,10.191.100.224,1,0
2015-02-16 17:18:43.183,45,1424135914.649742,37.77917309860806,-122.4389002583513,58.1928,-1,-1,10,65,-9999,1424135923.178672,-16.10259246826172,-30.38258361816406,27.2945556640625,164.1838073730469,150.4028472900391,25,526822.823665,-0.2822723388671875,-0.9524688720703125,-0.0679168701171875,526822.813171,-0.02334633538007063,0.02981781682896318,0.03840917450555881,526822.7132530001,2.957632375230535,-1.339403785229153,1.280087672138703,-0.001818488934077322,-0.01483883429318666,-0.002432889305055141,-0.00935332290828228,0.001833718153648078,0.00326458690688014,XTrueNorthZVertical,0.5387892859725733,0.4205223783362236,0.5921179043514067,0.4269232395053246,-0.2789920270442963,-0.9580410122871399,-0.06573406606912613,-15.892653465271,-30.59981536865234,26.95966529846191,1,526822.0982157501,stationary,1,2015-02-16 17:18:42.420,null,0,0,0,0,null,0,0.2501717,100.6644,192.168.1.3,10.191.100.224,1,0
2015-02-16 17:18:43.283,46,1424135923.241578,37.77934094843688,-122.4387503760795,55.05701,-1,-1,10,65,-9999,1424135923.178672,-16.10259246826172,-30.38258361816406,27.2945556640625,164.1838073730469,150.4028472900391,25,526822.92293,-0.2722930908203125,-0.9524078369140625,-0.0849609375,526822.913103,-0.03621925714118665,0.1666089556920112,-0.002190183680481165,526822.813171,2.959286771552697,-1.338923369486995,1.277586635056798,-0.004952955991029739,0.02012646943330765,0.02841987088322639,0.002177727408707142,0.005310014355927706,-0.002413885667920113,XTrueNorthZVertical,0.5386884429149636,0.4202445783081776,0.5932395800515512,0.4257652956457401,-0.2812914848327637,-0.9573211073875427,-0.06641851365566254,-16.00304985046387,-30.56148147583008,26.93783378601074,1,526822.0982157501,stationary,1,2015-02-16 17:18:42.420,null,0,0,0,0,null,0,0.2501717,100.6644,192.168.1.3,10.191.100.224,1,0
2015-02-16 17:18:43.381,47,1424135923.241578,37.77934094843688,-122.4387503760795,55.05701,-1,-1,10,65,-9999,1424135923.290897,-16.58988952636719,-30.45195007324219,26.89242553710938,164.1661071777344,150.3851470947266,25,526823.022186,-0.2974853515625,-0.9399261474609375,-0.0639495849609375,526823.013046,-0.02233433416584052,0.1634312718793287,0.006297843345819383,526822.913103,2.960722954019948,-1.337818475969922,1.272476046890672,-0.01784253120422363,0.1567879617214203,-0.01226229872554541,0.007822073996067047,0.009145741350948811,0.00158902513794601,XTrueNorthZVertical,0.5388523761872005,0.4191767451022505,0.5951457814207697,0.423946343708214,-0.285974532365799,-0.9558315277099609,-0.06785794347524643,-16.15049171447754,-30.5032901763916,26.91578483581543,1,526822.0982157501,stationary,1,2015-02-16 17:18:42.420,null,0,0,0,0,null,0,0.2501717,100.6644,192.168.1.3,10.191.100.224,1,0
2015-02-16 17:18:43.481,48,1424135923.241578,37.77934094843688,-122.4387503760795,55.05701,-1,-1,10,65,-9999,1424135923.413172,-16.34623718261719,-30.90293884277344,27.06005859375,163.9358520507812,150.1548919677734,25,526823.121459,-0.2880401611328125,-0.9376373291015625,-0.06170654296875,526823.112981,-0.04051866440501057,0.0658107052774931,-0.005273591590574908,526823.013046,2.963006309928957,-1.335937550212864,1.268224575346084,-0.003955297637730837,0.1536088436841965,-0.003760908031836152,-0.01582235284149647,0.01080196350812912,0.008275071159005165,XTrueNorthZVertical,0.5384713478789983,0.4187818465584114,0.5972162032288475,0.421904265860199,-0.2897959351539612,-0.9545733332633972,-0.06934074312448502,-16.40449142456055,-30.45655632019043,26.81491470336914,1,526822.0982157501,stationary,1,2015-02-16 17:18:42.420,null,0,0,0,0,null,0,0.2501717,100.6644,192.168.1.3,10.191.100.224,1,0
2015-02-16 17:18:43.582,49,1424135923.241578,37.77934094843688,-122.4387503760795,55.05701,-1,-1,10,65,-9999,1424135923.53237,-16.93795013427734,-30.10508728027344,25.95394897460938,162.2058868408203,148.4249267578125,25,526823.2207330001,-0.235504150390625,-0.94500732421875,-0.05450439453125,526823.2129040001,0.01583888426713726,0.2883899860191546,-0.08346986014969951,526823.112981,2.965633002687113,-1.326672173408356,1.270642890466458,-0.02215169183909893,0.05586922541260719,-0.01542939897626638,0.0006758149247616529,0.0172113012522459,0.008873066864907742,XTrueNorthZVertical,0.5347734788700503,0.422238104282411,0.5996399669241681,0.4197192515241755,-0.2869001924991608,-0.9552911520004272,-0.07146462053060532,-16.71860504150391,-30.43027114868164,26.65024566650391,1,526822.0982157501,stationary,1,2015-02-16 17:18:42.420,null,0,0,0,0,null,0,0.2501717,100.6644,192.168.1.3,10.191.100.224,1,0
2015-02-16 17:18:43.679,50,1424135923.241578,37.77934094843688,-122.4387503760795,55.05701,-1,-1,10,65,-9999,1424135923.650295,-17.07717132568359,-31.07640075683594,26.02099609375,162.2936859130859,148.5127258300781,25,526823.319993,-0.203216552734375,-0.989837646484375,-0.005462646484375,526823.31285,-0.05951552509276379,-0.01250700342733913,0.07373174530771577,526823.2129040001,2.975777111288831,-1.320290741413562,1.276407077952431,0.03421955928206444,0.2783569693565369,-0.09370327740907669,0.03128206729888916,0.0111634936183691,0.01811000518500805,XTrueNorthZVertical,0.5298065474149877,0.4281835413475895,0.6019908034445257,0.41661850684658,-0.2810989618301392,-0.956979513168335,-0.0719277560710907,-16.98192596435547,-30.3955192565918,26.52310562133789,1,526822.0982157501,stationary,1,2015-02-16 17:18:42.420,null,0,0,0,0,null,0,0.2501717,100.6644,192.168.1.3,10.191.100.224,1,0
2015-02-16 17:18:43.787,51,1424135923.241578,37.77934094843688,-122.4387503760795,55.05701,-1,-1,10,65,-9999,1424135923.767678,-17.18158721923828,-30.69480895996094,25.786376953125,161.7237396240234,147.9427795410156,25,526823.4192690001,-0.1820068359375,-1.010772705078125,-0.0364227294921875,526823.31285,-0.05951552509276379,-0.01250700342733913,0.07373174530771577,526823.31285,2.980435770186952,-1.311690068328304,1.283930669054745,-0.0411192998290062,-0.02254458703100681,0.06346730142831802,0.07065214961767197,-0.03123626485466957,0.06486648321151733,XTrueNorthZVertical,0.5250366815209808,0.4336917616536331,0.6033051130950424,0.4150553094326042,-0.2735024988651276,-0.9591354131698608,-0.07249587774276733,-17.18931198120117,-30.44483757019043,26.3322639465332,1,526823.369621,unknown,1,2015-02-16 17:18:43.691,null,0,0,0,0,null,0,0.2501717,100.6644,192.168.1.3,10.191.100.224,1,0
2015-02-16 17:18:43.881,52,1424135923.241578,37.77934094843688,-122.4387503760795,55.05701,-1,-1,10,65,-9999,1424135923.767678,-17.18158721923828,-30.69480895996094,25.786376953125,161.7237396240234,147.9427795410156,25,526823.518531,-0.242279052734375,-0.9951171875,-0.0081787109375,526823.5126990001,-0.3217649871161366,-0.6645726752694253,0.1593710164813938,526823.412769,2.969039009874515,-1.313976925432205,1.275865956514934,-0.1359021812677383,-0.4456458389759064,0.1440073698759079,0.1064421683549881,-0.06051160022616386,0.03376305848360062,XTrueNorthZVertical,0.5294307084243418,0.4275357353073493,0.6023964533331462,0.4171748595826,-0.2811400294303894,-0.956822395324707,-0.07383263856172562,-17.10311889648438,-30.44388771057129,26.38942527770996,1,526823.369621,unknown,1,2015-02-16 17:18:43.691,null,0,0,0,0,null,0,0.2501717,100.6644,192.168.1.3,10.191.100.224,1,0
2015-02-16 17:18:43.980,53,1424135923.241578,37.77934094843688,-122.4387503760795,55.05701,-1,-1,10,65,-9999,1424135923.886405,-16.93793487548828,-31.21517944335938,25.95388793945312,162.7860717773438,149.0051116943359,25,526823.6178090001,-0.342742919921875,-0.933807373046875,-0.0012054443359375,526823.6126280001,-0.4502406717915212,-0.8186810191207136,-0.01381594710311307,526823.5126990001,2.908205578566415,-1.318592908932191,1.257862163077611,-0.3033452033996582,-0.6746498346328735,0.1489787995815277,0.05974000319838524,-0.04220270365476608,0.06705515831708908,XTrueNorthZVertical,0.5461210245221336,0.404155209924846,0.5928782008897844,0.4323261063350248,-0.2981128096580505,-0.9514343738555908,-0.07682078331708908,-16.05828475952148,-30.70478057861328,26.74128913879395,1,526823.369621,unknown,1,2015-02-16 17:18:43.691,null,0,0,0,0,null,0,0.2501717,100.6644,192.168.1.3,10.191.100.224,1,0
2015-02-16 17:18:44.122,54,1424135923.241578,37.77934094843688,-122.4387503760795,55.05701,-1,-1,10,65,-9999,1424135924.005252,-15.05835723876953,-31.56210327148438,25.48464965820312,166.5852966308594,152.8043365478516,25,526823.7170490001,-0.2371063232421875,-0.9276580810546875,-0.02899169921875,526823.712542,-0.4801959077327325,-0.4273015337421237,-0.08552795104011275,526823.6126280001,2.799095420275385,-1.301815763140288,1.240793179206219,-0.4318179190158844,-0.8288107514381409,-0.02428497560322285,-0.02940273098647594,0.006756045389920473,0.08310887962579727,XTrueNorthZVertical,0.5645995925143966,0.3717120806033921,0.5777887951951163,0.4574030693564091,-0.3123941421508789,-0.9460413455963135,-0.08611486107110977,-14.11568164825439,-31.5045108795166,26.90654373168945,1,526823.7090070001,unknown,2,2015-02-16 17:18:44.009,null,0,0,0,0,null,0,0.2501717,100.6644,192.168.1.3,10.191.100.224,1,0
2015-02-16 17:18:44.200,55,1424135923.241578,37.77934094843688,-122.4387503760795,55.05701,-1,-1,10,65,-9999,1424135924.106147,-13.90973663330078,-32.15182495117188,26.054443359375,169.6627044677734,155.8817443847656,25,526823.816344,-0.363616943359375,-1.015243530273438,-0.1237335205078125,526823.712542,-0.4801959077327325,-0.4273015337421237,-0.08552795104011275,526823.712542,2.666948338931448,-1.23135509336514,1.23746797557664,-0.4617588520050049,-0.437495231628418,-0.09607774764299393,0.06004676595330238,0.02489937283098698,0.08789942413568497,XTrueNorthZVertical,0.5685840606208437,0.3496305482439031,0.5676465976773217,0.4819211723213187,-0.3085208833217621,-0.9449585676193237,-0.1089412942528725,-12.11711597442627,-32.79402542114258,26.33392906188965,1,526823.7090070001,unknown,2,2015-02-16 17:18:44.009,null,0,0,0,0,null,0,0.2501717,100.6644,192.168.1.3,10.191.100.224,1,0
2015-02-16 17:18:44.277,56,1424135923.241578,37.77934094843688,-122.4387503760795,55.05701,-1,-1,10,65,-9999,1424135924.22311,-11.29922866821289,-33.43534851074219,24.88128662109375,175.5183868408203,161.7374267578125,25,526823.915611,-0.3759765625,-0.8415069580078125,-0.1953887939453125,526823.912415,-0.2937836861748921,-0.005267998952285741,-0.5842426820449292,526823.812491,2.522789975443407,-1.191171890798621,1.22983717152381,-0.4345325827598572,-1.2823166847229,-0.1997621357440948,-0.02958028018474579,-0.07692904025316238,0.01866080239415169,XTrueNorthZVertical,0.5818849680489339,0.3153599830224205,0.5455300548109974,0.5141546020491439,-0.3105838894844055,-0.9424343705177307,-0.123915933072567,-9.466224670410156,-34.17464065551758,25.65605163574219,1,526823.7090070001,unknown,2,2015-02-16 17:18:44.009,null,0,0,0,0,null,0,0.2501717,100.6644,192.168.1.3,10.191.100.224,1,0
2015-02-16 17:18:44.377,57,1424135923.241578,37.77934094843688,-122.4387503760795,55.05701,-1,-1,10,65,-9999,1424135924.341414,-8.30584716796875,-35.16984558105469,24.07684326171875,181.9981689453125,168.2172088623047,25,526824.014893,-0.138153076171875,-0.9463653564453125,-0.2151641845703125,526823.912415,-0.2937836861748921,-0.005267998952285741,-0.5842426820449292,526823.912415,2.373494837538771,-1.127978251895433,1.259976106436576,-0.2753462791442871,-0.01546155381947756,-0.5947933793067932,-0.1198841631412506,0.1053728312253952,-0.07911081612110138,XTrueNorthZVertical,0.5870296780007274,0.2997864482150752,0.5151516976218234,0.547853083859094,-0.2763408124446869,-0.9520830512046814,-0.1310484856367111,-5.958725929260254,-35.24420166015625,25.26041221618652,1,526823.7090070001,unknown,2,2015-02-16 17:18:44.009,null,0,0,0,0,null,0,0.2501717,100.6644,192.168.1.3,10.191.100.224,1,0
2015-02-16 17:18:44.475,58,1424135923.241578,37.77934094843688,-122.4387503760795,55.05701,-1,-1,10,65,-9999,1424135924.460992,-7.226829528808594,-35.06575012207031,24.1103515625,183.4494018554688,169.6684417724609,25,526824.114174,-0.2700042724609375,-0.9156494140625,-0.1756591796875,526824.012356,-0.01535498789706986,0.1333250347043099,-0.1674196219278313,526824.012356,2.25249705848932,-0.9757547499622389,1.283947677808838,0.003078270703554153,0.123132698237896,-0.1779755502939224,0.08835208415985107,0.01448387932032347,-0.04585739225149155,XTrueNorthZVertical,0.5664017990052426,0.3160560731470128,0.5180043704081232,0.5576460018615873,-0.2343024015426636,-0.9591402411460876,-0.1585951149463654,-5.021281242370605,-36.09693908691406,24.23935890197754,1,526823.7090070001,unknown,2,2015-02-16 17:18:44.009,null,0,0,0,0,null,0,0.2501717,100.6644,192.168.1.3,10.191.100.224,1,0
2015-02-16 17:18:44.576,59,1424135923.241578,37.77934094843688,-122.4387503760795,55.05701,-1,-1,10,65,-9999,1424135924.460992,-7.226829528808594,-35.06575012207031,24.1103515625,183.4494018554688,169.6684417724609,25,526824.2134400001,-0.587127685546875,-0.949981689453125,-0.15484619140625,526824.2122160001,-0.01915957983035706,-0.4582120455663464,0.05487336899664667,526824.112286,2.263707321016492,-1.053537970534257,1.285043354671542,-0.1094182804226875,-1.235182881355286,0.1424013376235962,-0.004629787523299456,0.02794638089835644,-0.04905663058161736,XTrueNorthZVertical,0.5844683989546544,0.2978287810920004,0.4984238307051963,0.5668054544598252,-0.2450039982795715,-0.9594496488571167,-0.1393894106149673,-3.966808795928955,-36.00128936767578,24.57479095458984,1,526823.7090070001,unknown,2,2015-02-16 17:18:44.009,null,0,0,0,0,null,0,0.2501717,100.6644,192.168.1.3,10.191.100.224,1,0
2015-02-16 17:18:44.676,60,1424135923.241578,37.77934094843688,-122.4387503760795,55.05701,-1,-1,10,65,-9999,1424135924.578792,-4.790359497070312,-35.75953674316406,24.44549560546875,189.0134124755859,175.2324523925781,25,526824.3127230001,-0.312835693359375,-0.896575927734375,-0.2373504638671875,526824.2122160001,-0.01915957983035706,-0.4582120455663464,0.05487336899664667,526824.2122160001,2.24631417847925,-1.154734036733075,1.265925254637861,-0.0007272386574186385,-0.4684039652347565,0.04431811347603798,-0.3094834089279175,0.005521403159946203,-0.01630164869129658,XTrueNorthZVertical,0.6112582516620444,0.2563292127240351,0.4692673306557457,0.5834782663494702,-0.2745620012283325,-0.9538856744766235,-0.1213173717260361,-1.28520679473877,-36.31171798706055,24.40402030944824,1,526823.7090070001,unknown,2,2015-02-16 17:18:44.009,null,0,0,0,0,null,0,0.2501717,100.6644,192.168.1.3,10.191.100.224,1,0
2015-02-16 17:18:44.774,61,1424135923.241578,37.77934094843688,-122.4387503760795,55.05701,-1,-1,10,65,-9999,1424135924.69741,-4.442291259765625,-35.75953674316406,25.24993896484375,189.572509765625,175.7915496826172,25,526824.412013,-0.29461669921875,-0.863922119140625,-0.20159912109375,526824.312146,-0.1112365103070837,0.4146011848196448,-0.1610195131961529,526824.312146,2.241650084472569,-1.120370764335692,1.274531095163929,-0.09280454367399216,0.4044094681739807,-0.1715745627880096,-0.07392974942922592,0.05764507129788399,-0.114797405898571,XTrueNorthZVertical,0.6037799800888528,0.2681410981727581,0.4756005845553232,0.580822005031543,-0.2628317177295685,-0.9564335346221924,-0.1271001696586609,-1.365528106689453,-36.24928283691406,24.4923152923584,1,526823.7090070001,unknown,2,2015-02-16 17:18:44.009,null,0,0,0,0,null,0,0.2501717,100.6644,192.168.1.3,10.191.100.224,1,0
2015-02-16 17:18:44.873,62,1424135923.241578,37.77934094843688,-122.4387503760795,55.05701,-1,-1,10,65,-9999,1424135924.816466,-4.477119445800781,-35.58609008789062,24.14389038085938,189.3013458251953,175.5203857421875,25,526824.511289,-0.3510589599609375,-0.90374755859375,-0.2449951171875,526824.5120120001,-0.08772346104277408,-0.3395967148269802,-0.07187126097018642,526824.412079,2.170179827137011,-1.045485982251605,1.277159984796099,-0.1437842100858688,-0.1225822120904922,-0.0483248382806778,-0.04420676827430725,0.09327560663223267,-0.05645285546779633,XTrueNorthZVertical,0.5956111051299474,0.2695816731773574,0.476326982649433,0.5879504817384549,-0.2504099309444427,-0.9571977257728577,-0.1451462656259537,-1.207855224609375,-36.67316818237305,23.86144256591797,1,526823.7090070001,unknown,2,2015-02-16 17:18:44.009,null,0,0,0,0,null,0,0.2501717,100.6644,192.168.1.3,10.191.100.224,1,0
2015-02-16 17:18:44.977,63,1424135923.241578,37.77934094843688,-122.4387503760795,55.05701,-1,-1,10,65,-9999,1424135924.934285,-3.850608825683594,-35.79421997070312,23.60760498046875,190.3244476318359,176.5434875488281,25,526824.610558,-0.2045440673828125,-0.8788604736328125,-0.1317596435546875,526824.5120120001,-0.08772346104277408,-0.3395967148269802,-0.07187126097018642,526824.5120120001,2.141225247319913,-1.025938502722105,1.260641257400685,-0.06935423612594604,-0.3497757911682129,-0.08239120244979858,-0.09004615247249603,0.0485386960208416,-0.08680770546197891,XTrueNorthZVertical,0.5941796284312566,0.260493502980486,0.4789104849468101,0.5913869138845361,-0.2610128223896027,-0.9522862434387207,-0.1581874042749405,-4.974113464355469,-35.70441436767578,23.92406272888184,1,526823.7090070001,unknown,2,2015-02-16 17:18:44.009,null,0,0,0,0,null,0,0.2501717,100.6644,192.168.1.3,10.191.100.224,1,0
2015-02-16 17:18:45.071,64,1424135923.241578,37.77934094843688,-122.4387503760795,55.05701,-1,-1,10,65,-9999,1424135925.034867,-4.685958862304688,-35.51670837402344,23.74169921875,188.3018035888672,174.5208435058594,25,526824.7098330001,-0.152587890625,-1.005599975585938,-0.171905517578125,526824.611943,0.1173769608324794,0.9398047812908255,-0.05778260617144923,526824.611943,2.1566556129603,-1.000153475552591,1.263194617465178,0.1357356905937195,0.9296207427978516,-0.06823625415563583,0.05025646463036537,0.07420197874307632,0.03179067373275757,XTrueNorthZVertical,0.5859796733359274,0.2735921481163506,0.4902367047603234,0.5843313808752318,-0.2548005282878876,-0.9530624747276306,-0.1635503172874451,-5.305685043334961,-35.76109313964844,23.76766204833984,1,526823.7090070001,unknown,2,2015-02-16 17:18:44.009,null,0,0,0,0,null,0,0.2501717,100.6644,192.168.1.3,10.191.100.224,1,0
2015-02-16 17:18:45.171,65,1424135923.241578,37.77934094843688,-122.4387503760795,55.05701,-1,-1,10,65,-9999,1424135925.152359,-7.01800537109375,-35.41264343261719,24.04330444335938,184.2829742431641,170.5020141601562,25,526824.8091130001,-0.2401123046875,-0.931732177734375,-0.1876220703125,526824.711874,0.1522633058480814,0.2604321208955028,0.2827872277178459,526824.711874,2.220944354898648,-1.005610440284188,1.260906920569577,0.1706345081329346,0.2501710951328278,0.2722245454788208,0.1049419194459915,-0.05323267355561256,-0.008580772206187248,XTrueNorthZVertical,0.578201872619322,0.2898624186817969,0.5079147537533374,0.5689332176088414,-0.2575297951698303,-0.9523673057556152,-0.1633247435092926,-7.57585334777832,-35.30369186401367,23.83617782592773,1,526823.7090070001,unknown,2,2015-02-16 17:18:44.009,null,0,0,0,0,null,0,0.2056961,100.6649,192.168.1.3,10.191.100.224,1,0
2015-02-16 17:18:45.270,66,1424135923.241578,37.77934094843688,-122.4387503760795,55.05701,-1,-1,10,65,-9999,1424135925.152359,-7.01800537109375,-35.41264343261719,24.04330444335938,184.2829742431641,170.5020141601562,25,526824.9083850001,-0.2724761962890625,-0.934844970703125,-0.07073974609375,526824.8118060001,0.1003194140505218,-0.1188390362709329,0.04138499070761335,526824.8118060001,2.282166995932029,-1.068242628480113,1.256981492867904,0.1186778396368027,-0.1290937513113022,0.03080638311803341,0.03040939196944237,0.01943071745336056,-0.03893713280558586,XTrueNorthZVertical,0.5851872210905682,0.2884674110475302,0.5082552357061172,0.5621557745472048,-0.2705217003822327,-0.9511628746986389,-0.1486849337816238,-8.20610237121582,-34.85630798339844,24.28178787231445,1,526823.7090070001,unknown,2,2015-02-16 17:18:44.009,null,0,0,0,0,null,0,0.2056961,100.6649,192.168.1.3,10.191.100.224,1,0
2015-02-16 17:18:45.375,67,1424135923.241578,37.77934094843688,-122.4387503760795,55.05701,-1,-1,10,65,-9999,1424135925.271115,-6.704742431640625,-35.86360168457031,24.68011474609375,184.8954925537109,171.1145324707031,25,526825.00766,-0.301605224609375,-0.9417877197265625,-0.1167144775390625,526824.911737,0.08846781456745122,-0.3713940592941993,0.02035773600478371,526824.911737,2.311414418138289,-1.11477926205145,1.262945396186053,0.1068461611866951,-0.3816537857055664,0.009774518199265003,-0.0004284490423742682,0.01814199239015579,0.0626991018652916,XTrueNorthZVertical,0.5927385151387816,0.2862544844837725,0.5008878682905415,0.5619882531040786,-0.272047758102417,-0.9529869556427002,-0.133438840508461,-7.721450805664062,-34.64945983886719,24.73260307312012,1,526823.7090070001,unknown,2,2015-02-16 17:18:44.009,null,0,0,0,0,null,0,0.2056961,100.6649,192.168.1.3,10.191.100.224,1,0
2015-02-16 17:18:45.472,68,1424135923.241578,37.77934094843688,-122.4387503760795,55.05701,-1,-1,10,65,-9999,1424135925.390156,-6.182640075683594,-34.71884155273438,26.18841552734375,185.3660125732422,171.5850524902344,25,526825.106927,-0.281280517578125,-0.9671630859375,-0.099090576171875,526825.011667,0.2590526034508417,-0.1562479274710579,-0.01021215751601785,526825.011667,2.389903803002199,-1.220417517071439,1.270313259077798,0.2774379551410675,-0.1665113568305969,-0.02078132890164852,-0.02360650524497032,0.01340590137988329,-0.01511766575276852,XTrueNorthZVertical,0.6075597107981433,0.2829713627523234,0.4888598662169493,0.5584034986664493,-0.2779987156391144,-0.9551936388015747,-0.1015968099236488,-6.933404922485352,-33.97350311279297,25.87733840942383,1,526823.7090070001,unknown,2,2015-02-16 17:18:44.009,null,0,0,0,0,null,0,0.2056961,100.6649,192.168.1.3,10.191.100.224,1,0
2015-02-16 17:18:45.568,69,1424135923.241578,37.77934094843688,-122.4387503760795,55.05701,-1,-1,10,65,-9999,1424135925.509728,-5.416893005371094,-34.30255126953125,26.92578125,186.4123077392578,172.63134765625,25,526825.206196,-0.3012542724609375,-0.9686737060546875,-0.08294677734375,526825.111604,0.2001227074817863,-0.07686095958855887,-0.1198933817464952,526825.111604,2.453103032294062,-1.298568293181083,1.280671080248724,0.2184931933879852,-0.08712019026279449,-0.1304575353860855,-0.005743017420172691,-0.00895503256469965,-0.0221719928085804,XTrueNorthZVertical,0.6170001717022187,0.2843439759785561,0.4793373201312705,0.5556033255994124,-0.2755374908447266,-0.9582080245018005,-0.0769185796380043,-6.298174858093262,-33.38760757446289,26.78634452819824,1,526823.7090070001,unknown,2,2015-02-16 17:18:44.009,null,0,0,0,0,null,0,0.2056961,100.6649,192.168.1.3,10.191.100.224,1,0
2015-02-16 17:18:45.667,70,1424135923.241578,37.77934094843688,-122.4387503760795,55.05701,-1,-1,10,65,-9999,1424135925.62752,-4.407493591308594,-34.33721923828125,27.6966552734375,187.4499053955078,173.6689453125,25,526825.305481,-0.2889862060546875,-0.9608154296875,-0.0675506591796875,526825.2115140001,0.005445365480885018,-0.2354066624481372,0.06310253676499152,526825.2115140001,2.472050397416161,-1.337021539259631,1.28291700068934,0.02378863096237183,-0.2456578463315964,0.05254179239273071,-0.02505763806402683,-0.009825574234127998,-0.01717644929885864,XTrueNorthZVertical,0.6233204693667361,0.2803327101951906,0.4719990434392777,0.5568681149958896,-0.2761966288089752,-0.9588481187820435,-0.06577032804489136,-5.752407073974609,-33.23892211914062,27.09228134155273,1,526823.7090070001,unknown,2,2015-02-16 17:18:44.009,null,0,0,0,0,null,0,0.2056961,100.6649,192.168.1.3,10.191.100.224,1,0
2015-02-16 17:18:45.775,71,1424135923.241578,37.77934094843688,-122.4387503760795,55.05701,-1,-1,10,65,-9999,1424135925.73089,-4.964385986328125,-33.71281433105469,27.629638671875,187.1434020996094,173.3624420166016,25,526825.404764,-0.2843170166015625,-0.961456298828125,-0.07611083984375,526825.311449,0.002418150269791948,0.005535380325729697,0.1033705977114256,526825.311449,2.485917928595822,-1.357176669605196,1.269745986018421,0.02074254490435123,-0.004714941140264273,0.09284386038780212,0.0007973687024787068,-0.005789864342659712,-0.004688058979809284,XTrueNorthZVertical,0.6271310342786437,0.2743635649717216,0.4735234040995003,0.5542624976256695,-0.2897835671901703,-0.9550255537033081,-0.06286259740591049,-5.89802360534668,-33.15567016601562,27.16288948059082,1,526823.7090070001,unknown,2,2015-02-16 17:18:44.009,null,0,0,0,0,null,0,0.2056961,100.6649,192.168.1.3,10.191.100.224,1,0
2015-02-16 17:18:45.866,72,1424135923.241578,37.77934094843688,-122.4387503760795,55.05701,-1,-1,10,65,-9999,1424135925.846905,-5.55609130859375,-34.30253601074219,27.99822998046875,186.2551574707031,172.4741973876953,25,526825.5040430001,-0.268280029296875,-0.9549713134765625,-0.0695953369140625,526825.411378,0.02590163844600166,0.1720750938293988,0.0967382613326923,526825.411378,2.497905230041775,-1.359180484333264,1.260838360072776,0.04421348869800568,0.1618295013904572,0.08621198683977127,0.01389756985008717,-0.009109906852245331,-0.01204472128301859,XTrueNorthZVertical,0.6266391101291072,0.2743909004184062,0.4788672748739842,0.5501992574718355,-0.2982145845890045,-0.9523463845252991,-0.06406611949205399,-6.406892776489258,-33.03442764282227,27.19533157348633,1,526823.7090070001,unknown,2,2015-02-16 17:18:44.009,null,0,0,0,0,null,0,0.2056961,100.6649,192.168.1.3,10.191.100.224,1,0
2015-02-16 17:18:45.966,73,1424135923.241578,37.77934094843688,-122.4387503760795,55.05701,-1,-1,10,65,-9999,1424135925.846905,-5.55609130859375,-34.30253601074219,27.99822998046875,186.2551574707031,172.4741973876953,25,526825.603308,-0.261077880859375,-0.9534759521484375,-0.0809478759765625,526825.5113250001,-0.0156250324316039,0.1318560350470222,0.1224825069582703,526825.5113250001,2.505476697231708,-1.348870358878109,1.256937933008445,0.002691453089937568,0.1216152608394623,0.1119210720062256,0.03287937492132187,-0.003821865888312459,-0.001640954171307385,XTrueNorthZVertical,0.6234041487736535,0.2781907186175238,0.4853249262362082,0.5462938200129112,-0.3011594116687775,-0.9511494636535645,-0.06795438379049301,-7.069768905639648,-32.96094131469727,27.12014579772949,1,526823.7090070001,unknown,2,2015-02-16 17:18:44.009,null,0,0,0,0,null,0,0.2056961,100.6649,192.168.1.3,10.191.100.224,1,0
2015-02-16 17:18:46.064,74,1424135923.241578,37.77934094843688,-122.4387503760795,55.05701,-1,-1,10,65,-9999,1424135925.966493,-6.983154296875,-34.05972290039062,27.62957763671875,184.6340942382812,170.8531341552734,25,526825.7025860001,-0.293731689453125,-0.9319915771484375,-0.070556640625,526825.611255,-0.044599692459448,0.07657360450693933,0.06080795716977925,526825.611255,2.505634726238659,-1.335704883050877,1.255150789599564,-0.0262775644659996,0.066336989402771,0.05020799487829208,0.04081340134143829,-0.002879769308492541,-0.008638758212327957,XTrueNorthZVertical,0.6203049772616011,0.2811888623888411,0.4899926600961505,0.5441155964944124,-0.3018912672996521,-0.9505961537361145,-0.07230911403894424,-7.508522033691406,-32.92843246459961,27.04160118103027,1,526823.7090070001,unknown,2,2015-02-16 17:18:44.009,null,0,0,0,0,null,0,0.2056961,100.6649,192.168.1.3,10.191.100.224,1,0
2015-02-16 17:18:46.165,75,1424135923.241578,37.77934094843688,-122.4387503760795,55.05701,-1,-1,10,65,-9999,1424135926.088298,-7.226806640625,-34.23316955566406,26.99270629882812,183.5214538574219,169.7404937744141,25,526825.801859,-0.292572021484375,-0.9427337646484375,-0.0805816650390625,526825.711188,-0.02661802877923298,-0.003122822694226915,0.01500424958150643,526825.711188,2.49255698660757,-1.32607508567027,1.254408357745116,-0.008281991817057133,-0.01341909542679787,0.004293425008654594,0.008133923634886742,0.0183738712221384,0.004827204626053572,XTrueNorthZVertical,0.6198326838911927,0.2794915409498626,0.4896359143804072,0.5458467040389575,-0.3018656075000763,-0.950365424156189,-0.07538384199142456,-7.501960754394531,-33.05802917480469,26.88484764099121,1,526823.7090070001,unknown,2,2015-02-16 17:18:44.009,null,0,0,0,0,null,0,0.2056961,100.6649,192.168.1.3,10.191.100.224,1,0
2015-02-16 17:18:46.273,76,1424135923.241578,37.77934094843688,-122.4387503760795,55.05701,-1,-1,10,65,-9999,1424135926.20581,-7.400840759277344,-33.99034118652344,27.1602783203125,182.9442749023438,169.1633148193359,25,526825.9011200001,-0.282867431640625,-0.9485015869140625,-0.0791778564453125,526825.8111170001,-0.008603874533718995,-0.03505731995758508,-0.02338681542863984,526825.8111170001,2.490158369026225,-1.326390804330533,1.256857634495345,0.009729987010359764,-0.04535196349024773,-0.03410592675209045,0.007057942450046539,0.008390889503061771,-0.005856611300259829,XTrueNorthZVertical,0.620074975878124,0.2795433729659506,0.4881507257737936,0.546874232608102,-0.2996299564838409,-0.9511246681213379,-0.07472505420446396,-7.371866226196289,-33.08330154418945,26.88974761962891,1,526823.7090070001,unknown,2,2015-02-16 17:18:44.009,null,0,0,0,0,null,0,0.2056961,100.6649,192.168.1.3,10.191.100.224,1,0
2015-02-16 17:18:46.363,77,1424135923.241578,37.77934094843688,-122.4387503760795,55.05701,-1,-1,10,65,-9999,1424135926.324369,-6.843917846679688,-33.57406616210938,27.02630615234375,183.1181793212891,169.3372192382812,25,526826.0004050001,-0.307220458984375,-0.9459686279296875,-0.068603515625,526825.91105,-0.04701517956814986,-0.05837542583010087,-0.02964311346145398,526825.91105,2.478782594023491,-1.317709409065292,1.261769536054727,-0.02868762612342834,-0.06866748631000519,-0.0403713770210743,0.007196666672825813,0.001091918791644275,-0.001926537021063268,XTrueNorthZVertical,0.6192171726733092,0.2801673602940227,0.4862494254958406,0.5492156861752364,-0.2944433689117432,-0.9526299834251404,-0.07615268975496292,-7.132454872131348,-33.16962432861328,26.84793663024902,1,526823.7090070001,unknown,2,2015-02-16 17:18:44.009,null,0,0,0,0,null,0,0.2056961,100.6649,192.168.1.3,10.191.100.224,1,0
2015-02-16 17:18:46.461,78,1424135923.241578,37.77934094843688,-122.4387503760795,55.05701,-1,-1,10,65,-9999,1424135926.439509,-6.112983703613281,-33.67814636230469,26.65765380859375,183.2863159179688,169.5053558349609,25,526826.099651,-0.2856903076171875,-0.9478912353515625,-0.07843017578125,526826.010982,-0.05014359490066594,0.02442677983431578,-0.01159806654729508,526826.010982,2.469183471743551,-1.313893880012583,1.261727467955293,-0.03181284666061401,0.01413307804614305,-0.02231732569634914,-0.01173403672873974,0.007060569245368242,0.008041384629905224,XTrueNorthZVertical,0.6196336928723587,0.2782286865768545,0.4848035286743081,0.551006763707705,-0.2941894233226776,-0.9526172280311584,-0.0772857666015625,-6.929339408874512,-33.2559700012207,26.79426574707031,1,526823.7090070001,unknown,2,2015-02-16 17:18:44.009,null,0,0,0,0,null,0,0.0631752,100.6666,192.168.1.3,10.191.100.224,1,0
2015-02-16 17:18:46.561,79,1424135923.241578,37.77934094843688,-122.4387503760795,55.05701,-1,-1,10,65,-9999,1424135926.439509,-6.112983703613281,-33.67814636230469,26.65765380859375,183.2863159179688,169.5053558349609,25,526826.1989320001,-0.2872161865234375,-0.964569091796875,-0.083709716796875,526826.110906,-0.05128023205391177,0.05937624176775265,-0.04040654532311824,526826.110906,2.456681389382586,-1.297119017956653,1.264605380712571,-0.0329480767250061,0.0490824282169342,-0.05112645402550697,0.006839938461780548,0.003491695038974285,0.00244307448156178,XTrueNorthZVertical,0.6171291148591885,0.2800312197238142,0.4856710015183518,0.5521393667371369,-0.2902109026908875,-0.9534886479377747,-0.08146834373474121,-6.939606666564941,-33.35111999511719,26.67306137084961,1,526823.7090070001,unknown,2,2015-02-16 17:18:44.009,null,0,0,0,0,null,0,0.0631752,100.6666,192.168.1.3,10.191.100.224,1,0
2015-02-16 17:18:46.659,80,1424135923.241578,37.77934094843688,-122.4387503760795,55.05701,-1,-1,10,65,-9999,1424135926.558946,-6.252220153808594,-33.67814636230469,26.9927978515625,183.4063720703125,169.6254119873047,25,526826.2982150001,-0.2810211181640625,-0.95611572265625,-0.0932769775390625,526826.21085,-0.0524680019000871,0.04230537918034473,-0.08301818802882208,526826.21085,2.441098433561195,-1.277768616571828,1.271289494129266,-0.03413602709770203,0.03201199695467949,-0.0937403067946434,-0.006040910258889198,-0.008369814604520798,-0.003687376622110605,XTrueNorthZVertical,0.6142389857233651,0.2830153261646448,0.4852798224453022,0.5541807628784357,-0.2824722826480865,-0.9554821252822876,-0.08522558957338333,-6.84184455871582,-33.4560432434082,26.56670951843262,1,526823.7090070001,unknown,2,2015-02-16 17:18:44.009,null,0,0,0,0,null,0,0.0631752,100.6666,192.168.1.3,10.191.100.224,1,0
2015-02-16 17:18:46.759,81,1424135923.241578,37.77934094843688,-122.4387503760795,55.05701,-1,-1,10,65,-9999,1424135926.67721,-6.495857238769531,-34.7535400390625,26.6241455078125,183.5882110595703,169.8072509765625,25,526826.3974700001,-0.2767181396484375,-0.9624481201171875,-0.1269378662109375,526826.3107840001,-0.08343843484883658,0.1823216061234787,-0.1129084428394354,526826.3107840001,2.414649749732434,-1.242811463166996,1.278560826437074,-0.06510808318853378,0.1720276325941086,-0.1236200928688049,-0.004302110057324171,-0.001336363260634243,0.0009779692627489567,XTrueNorthZVertical,0.6091478474147952,0.2872911747293633,0.4863868045821143,0.5566242787415594,-0.2727364599704742,-0.9576022624969482,-0.09280536323785782,-6.72455883026123,-33.64049530029297,26.36294746398926,1,526823.7090070001,unknown,2,2015-02-16 17:18:44.009,null,0,0,0,0,null,0,0.0631752,100.6666,192.168.1.3,10.191.100.224,1,0
2015-02-16 17:18:46.858,82,1424135923.241578,37.77934094843688,-122.4387503760795,55.05701,-1,-1,10,65,-9999,1424135926.795602,-5.799720764160156,-34.75352478027344,25.6856689453125,185.444580078125,171.6636199951172,25,526826.496748,-0.276611328125,-0.9537506103515625,-0.1425628662109375,526826.4107080001,-0.1634243476604944,0.1378393590681032,-0.112624017235015,526826.4107080001,2.360682379181969,-1.176872189331211,1.283955772050138,-0.1451094299554825,0.1275490373373032,-0.123329721391201,-0.01813414134085178,0.0005701540503650904,-0.02152147144079208,XTrueNorthZVertical,0.6006671037855843,0.2913827708609399,0.4895666149851142,0.5609096818658723,-0.2612542808055878,-0.9591425657272339,-0.1085902228951454,-6.743899345397949,-34.00411224365234,25.88721656799316,1,526823.7090070001,unknown,2,2015-02-16 17:18:44.009,null,0,0,0,0,null,0,0.0631752,100.6666,192.168.1.3,10.191.100.224,1,0
2015-02-16 17:18:46.957,83,1424135923.241578,37.77934094843688,-122.4387503760795,55.05701,-1,-1,10,65,-9999,1424135926.914795,-6.043365478515625,-35.13511657714844,26.1214599609375,185.3176422119141,171.5366821289062,25,526826.596028,-0.1746063232421875,-0.9272918701171875,-0.160858154296875,526826.510638,-0.1444107090578737,0.4113553240830563,-0.2035491305402823,526826.510638,2.287445992898931,-1.081190121335589,1.288465183560882,-0.1260938346385956,0.4010164737701416,-0.2143079489469528,-0.02357425354421139,0.01326504815369844,-0.01308663096278906,XTrueNorthZVertical,0.5878256758683328,0.2982487020643836,0.4959439075555458,0.5652860846589131,-0.2458654493093491,-0.960408627986908,-0.1310173720121384,-6.856680393218994,-34.46561050415039,25.23916244506836,1,526823.7090070001,unknown,2,2015-02-16 17:18:44.009,null,0,0,0,0,null,0,0.0631752,100.6666,192.168.1.3,10.191.100.224,1,0
2015-02-16 17:18:47.057,84,1424135923.241578,37.77934094843688,-122.4387503760795,55.05701,-1,-1,10,65,-9999,1424135927.03343,-6.182586669921875,-35.20449829101562,24.31155395507812,184.9268951416016,171.1459350585938,25,526826.695286,-0.173797607421875,-0.95245361328125,-0.1851043701171875,526826.61058,-0.09812923037004068,0.2780017935550825,-0.03515638955013602,526826.61058,2.231150142070173,-0.9873983125369502,1.295531911612209,-0.07981817424297333,0.2676652371883392,-0.04591530561447144,0.05458787828683853,0.03165878355503082,-0.0123534444719553,XTrueNorthZVertical,0.5730243616595848,0.3110954429141362,0.5049793195708314,0.565560450873363,-0.2268443405628204,-0.9623533487319946,-0.1497254073619843,-7.344259262084961,-34.88976287841797,24.50865173339844,1,526823.7090070001,unknown,2,2015-02-16 17:18:44.009,null,0,0,0,0,null,0,0.0631752,100.6666,192.168.1.3,10.191.100.224,1,0
2015-02-16 17:18:47.156,85,1424135923.241578,37.77934094843688,-122.4387503760795,55.05701,-1,-1,10,65,-9999,1424135927.133765,-6.739494323730469,-35.69017028808594,24.11044311523438,184.2045440673828,170.423583984375,25,526826.7945600001,-0.19720458984375,-0.9289093017578125,-0.1874847412109375,526826.7105030001,-0.04033650418644915,0.02140675515816592,0.06511375602021936,526826.7105030001,2.211563863218676,-0.9570162596711455,1.292223722269615,-0.02203993499279022,0.01107416767627001,0.0542617179453373,0.0520784929394722,0.01192500256001949,-0.0293946098536253,XTrueNorthZVertical,0.5682755474207928,0.3128464124586935,0.5091728844898921,0.565626226901816,-0.2247927337884903,-0.9614489078521729,-0.1583800464868546,-7.681151866912842,-35.089111328125,24.11766242980957,1,526823.7090070001,unknown,2,2015-02-16 17:18:44.009,null,0,0,0,0,null,0,0.0631752,100.6666,192.168.1.3,10.191.100.224,1,0
2015-02-16 17:18:47.256,86,1424135923.241578,37.77934094843688,-122.4387503760795,55.05701,-1,-1,10,65,-9999,1424135927.25118,-6.461036682128906,-35.20451354980469,24.91488647460938,184.5423583984375,170.7613983154297,25,526826.8938290001,-0.2223052978515625,-0.9077606201171875,-0.1881561279296875,526826.810441,0.03132143758042192,-0.1885251735667093,0.162098093437635,526826.810441,2.210700442125324,-0.9661719959939881,1.285570797439864,0.04958797246217728,-0.1988435536623001,0.1512168198823929,0.02897613309323788,0.03073469363152981,-0.03017662279307842,XTrueNorthZVertical,0.5705069735220979,0.3074863390217513,0.5084570861901563,0.5669615211143439,-0.2314907759428024,-0.9595982432365417,-0.1599478870630264,-7.672173500061035,-35.15914154052734,24.01833152770996,1,526823.7090070001,unknown,2,2015-02-16 17:18:44.009,null,0,0,0,0,null,0,0.0631752,100.6666,192.168.1.3,10.191.100.224,1,0
2015-02-16 17:18:47.355,87,1424135923.241578,37.77934094843688,-122.4387503760795,55.05701,-1,-1,10,65,-9999,1424135927.25118,-6.461036682128906,-35.20451354980469,24.91488647460938,184.5423583984375,170.7613983154297,25,526826.993105,-0.2579803466796875,-0.933380126953125,-0.15509033203125,526826.910376,0.0933738899275952,-0.2690386585903118,0.2440600717781316,526826.910376,2.247539079742007,-1.023255815984158,1.270837466536015,0.1115938872098923,-0.279343456029892,0.23316490650177,0.02936823293566704,0.04372755065560341,-0.04141208902001381,XTrueNorthZVertical,0.5790339440041701,0.2963235279614339,0.5071914966659604,0.5653926729458255,-0.2522838711738586,-0.9553486704826355,-0.153824120759964,-7.746522903442383,-35.027587890625,24.18609619140625,1,526823.7090070001,unknown,2,2015-02-16 17:18:44.009,null,0,0,0,0,null,0,0.0631752,100.6666,192.168.1.3,10.191.100.224,1,0
2015-02-16 17:18:47.457,88,1424135923.241578,37.77934094843688,-122.4387503760795,55.05701,-1,-1,10,65,-9999,1424135927.36992,-7.818496704101562,-34.54542541503906,25.61868286132812,182.4356842041016,168.6547241210938,25,526827.0923850001,-0.325653076171875,-0.9369964599609375,-0.164276123046875,526827.0102960001,0.2009682611278865,-0.2904478105934588,0.2075215016222445,526827.0102960001,2.322294320511055,-1.125101821742999,1.25644034039816,0.2191716283559799,-0.3007482290267944,0.1966231912374496,0.01383123639971018,0.01448752917349339,-0.01372526492923498,XTrueNorthZVertical,0.5938173201249223,0.2841380056811815,0.5029245568847928,0.5601013342003635,-0.278998464345932,-0.9509956836700439,-0.1332931667566299,-7.847141265869141,-34.58761596679688,24.77956771850586,1,526823.7090070001,unknown,2,2015-02-16 17:18:44.009,null,0,0,0,0,null,0,0.0631752,100.6666,192.168.1.3,10.191.100.224,1,0
2015-02-16 17:18:47.554,89,1424135923.241578,37.77934094843688,-122.4387503760795,55.05701,-1,-1,10,65,-9999,1424135927.488342,-7.992523193359375,-34.71888732910156,26.523681640625,182.5468292236328,168.765869140625,25,526827.191694,-0.311553955078125,-0.92437744140625,-0.1528472900390625,526827.110228,0.02858717008923757,0.1810115971832687,0.2970931964615335,526827.110228,2.397608510029172,-1.209314069367081,1.240201787345166,0.0467846468091011,0.1707116067409515,0.2861974239349365,-0.01676135510206223,0.02124319598078728,-0.0532447062432766,XTrueNorthZVertical,0.604767994051332,0.2772282528395864,0.5036607970906052,0.551113419466729,-0.3036274313926697,-0.9458495378494263,-0.1148003414273262,-8.208440780639648,-33.93072891235352,25.5584602355957,1,526823.7090070001,unknown,2,2015-02-16 17:18:44.009,null,0,0,0,0,null,0,0.0631752,100.6666,192.168.1.3,10.191.100.224,1,0
2015-02-16 17:18:47.653,90,1424135923.241578,37.77934094843688,-122.4387503760795,55.05701,-1,-1,10,65,-9999,1424135927.607087,-10.15054702758789,-32.84564208984375,26.7247314453125,178.0338897705078,164.2529296875,25,526827.290974,-0.2667694091796875,-0.9465789794921875,-0.1490020751953125,526827.2102110001,0.01919127144732901,0.8070491304275745,0.3124804086077934,526827.2102110001,2.432176457454547,-1.190301439175037,1.210801454923706,0.03737399354577065,0.7967515587806702,0.3015871942043304,0.02672152779996395,0.01345905475318432,-0.02931513823568821,XTrueNorthZVertical,0.5959675885866188,0.2817972794673559,0.5276964405275864,0.5356766036865708,-0.3270755410194397,-0.9358986020088196,-0.1308258473873138,-10.11472797393799,-33.66141510009766,25.2291374206543,1,526823.7090070001,unknown,2,2015-02-16 17:18:44.009,null,0,0,0,0,null,0,0.0631752,100.6666,192.168.1.3,10.191.100.224,1,0
2015-02-16 17:18:47.752,91,1424135923.241578,37.77934094843688,-122.4387503760795,55.05701,-1,-1,10,65,-9999,1424135927.725769,-12.44779205322266,-33.12315368652344,26.2554931640625,173.9217681884766,160.1408081054688,25,526827.390256,-0.2564697265625,-0.894989013671875,-0.121002197265625,526827.310143,0.1291406759995774,0.445494918729,0.0002316950148368937,526827.310143,2.467282736531239,-1.155747055929304,1.20429055693936,0.1473081856966019,0.4352135360240936,-0.01069527678191662,0.08078327775001526,-0.009697861969470978,-0.02194136939942837,XTrueNorthZVertical,0.581773925485233,0.2988115606236334,0.5490916835064755,0.5203355690425291,-0.3279298841953278,-0.9335852265357971,-0.1445015072822571,-12.57328605651855,-33.29343032836914,24.60421943664551,1,526823.7090070001,unknown,2,2015-02-16 17:18:44.009,null,0,0,0,0,null,0,0.0631752,100.6666,192.168.1.3,10.191.100.224,1,0
2015-02-16 17:18:47.858,92,1424135923.241578,37.77934094843688,-122.4387503760795,55.05701,-1,-1,10,65,-9999,1424135927.845583,-10.95109558105469,-33.29660034179688,26.2890625,176.0539398193359,162.2729797363281,25,526827.4895210001,-0.3403778076171875,-1.04278564453125,0.0614166259765625,526827.410077,0.1682848829659981,-0.07863888593229577,-0.4523283237700343,526827.410077,2.477228059385977,-1.15064219035289,1.235618586264104,0.1864482313394547,-0.08891381323337555,-0.4632704555988312,0.04996194317936897,0.03352422267198563,0.02605005726218224,XTrueNorthZVertical,0.5777683795807131,0.3147964128796963,0.5437565977301297,0.52097572962982,-0.3003281652927399,-0.944351851940155,-0.1341738402843475,-12.37424278259277,-33.17388916015625,24.86521530151367,1,526823.7090070001,unknown,2,2015-02-16 17:18:44.009,null,0,0,0,0,null,0,-0.006572723,100.6674,192.168.1.3,10.191.100.224,1,0
2015-02-16 17:18:47.953,93,1424135923.241578,37.77934094843688,-122.4387503760795,55.05701,-1,-1,10,65,-9999,1424135927.845583,-10.95109558105469,-33.29660034179688,26.2890625,176.0539398193359,162.2729797363281,25,526827.588817,-0.2192840576171875,-1.039260864257812,-0.0638427734375,526827.510004,0.01610413511170915,-0.2668700465146603,-0.7117404539680368,526827.510004,2.412622947832146,-1.124994115858427,1.304350673414848,0.03427411243319511,-0.2771442830562592,-0.7226865887641907,-0.1328063309192657,-0.1274197101593018,0.2064275294542313,XTrueNorthZVertical,0.5790179565834859,0.3285912272398762,0.512769371741148,0.5420642149991842,-0.2375702559947968,-0.9647128582000732,-0.1135320216417313,-9.61845588684082,-33.51983642578125,25.60885429382324,1,526823.7090070001,unknown,2,2015-02-16 17:18:44.009,null,0,0,0,0,null,0,-0.006572723,100.6674,192.168.1.3,10.191.100.224,1,0
2015-02-16 17:18:48.051,94,1424135923.241578,37.77934094843688,-122.4387503760795,55.05701,-1,-1,10,65,-9999,1424135927.964538,-7.087547302246094,-34.58012390136719,27.05999755859375,182.9177551269531,169.1367950439453,25,526827.6881030001,-0.2236328125,-0.9083404541015625,0.0271759033203125,526827.609938,0.02554211169884097,-0.5852453621953441,-0.7402261576197423,526827.609938,2.272684193471471,-0.9976794751428459,1.367147272065397,0.04371172562241554,-0.5955194234848022,-0.7511721253395081,-0.03723977133631706,-0.01152488589286804,-0.003735558362677693,XTrueNorthZVertical,0.5699017114329084,0.3469555566466331,0.490410719070615,0.5606525109924391,-0.1699288040399551,-0.9793350696563721,-0.1096677631139755,-6.898642539978027,-34.06491088867188,25.76622009277344,1,526823.7090070001,unknown,2,2015-02-16 17:18:44.009,null,0,0,0,0,null,0,-0.006572723,100.6674,192.168.1.3,10.191.100.224,1,0
2015-02-16 17:18:48.151,95,1424135923.241578,37.77934094843688,-122.4387503760795,55.05701,-1,-1,10,65,-9999,1424135928.082547,-3.084762573242188,-34.61483764648438,26.82537841796875,189.7895202636719,176.0085601806641,25,526827.787365,0.008636474609375,-1.005081176757812,0.0291595458984375,526827.709872,-0.2603453018439661,0.9804813711484777,-0.5363047171590669,526827.709872,1.983230810786892,-0.7151146873027,1.412278339708062,-0.2421760559082031,0.9702075719833374,-0.5472504496574402,-0.04966149106621742,0.05046585202217102,0.1443604677915573,XTrueNorthZVertical,0.5555716239563903,0.3629716781795976,0.4722050068259177,0.5801846201564627,-0.1035062372684479,-0.9874622821807861,-0.1191834658384323,-3.915691614151001,-34.52082824707031,25.7854118347168,1,526823.7090070001,unknown,2,2015-02-16 17:18:44.009,null,0,0,0,0,null,0,-0.006572723,100.6674,192.168.1.3,10.191.100.224,1,0
2015-02-16 17:18:48.257,96,1424135923.241578,37.77934094843688,-122.4387503760795,55.05701,-1,-1,10,65,-9999,1424135928.201446,-2.4930419921875,-35.55148315429688,25.65219116210938,190.6423187255859,176.8613586425781,25,526827.8866310001,-0.2194061279296875,-0.9524993896484375,0.0390472412109375,526827.809797,-0.2662932058225491,-0.8311528688216636,0.1828196172473235,526827.809797,1.79940372432614,-0.5098282455639516,1.404666649388782,-0.2481204867362976,-0.8414276838302612,0.1718030273914337,0.06076024100184441,0.0003770712937694043,0.1720467209815979,XTrueNorthZVertical,0.5394727547047828,0.3698658781707761,0.4771865117946892,0.5869083765810708,-0.0807034820318222,-0.9862321615219116,-0.1443367600440979,-4.081207275390625,-35.27560424804688,24.71604919433594,1,526823.7090070001,unknown,2,2015-02-16 17:18:44.009,null,0,0,0,0,null,0,-0.006572723,100.6674,192.168.1.3,10.191.100.224,1,0
2015-02-16 17:18:48.349,97,1424135923.241578,37.77934094843688,-122.4387503760795,55.05701,-1,-1,10,65,-9999,1424135928.301512,-1.831710815429688,-35.65554809570312,25.41751098632812,192.8109588623047,179.0299987792969,25,526827.985894,-0.2483367919921875,-0.906829833984375,0.0177154541015625,526827.9097310001,-0.1104586009526715,-0.931086390830233,0.6343553842769503,526827.9097310001,1.937532653581449,-0.7637699548806016,1.35819052496027,-0.09228624403476715,-0.9413609504699707,0.6233389973640442,-0.1004860326647758,0.02519862353801727,0.1883466839790344,XTrueNorthZVertical,0.5690806927290232,0.3161466005685563,0.4625773342760572,0.601847765111473,-0.1459434032440186,-0.977484405040741,-0.1523969769477844,-2.694852352142334,-35.74734878540039,24.22339057922363,1,526823.7090070001,unknown,2,2015-02-16 17:18:44.009,null,0,0,0,0,null,0,-0.006572723,100.6674,192.168.1.3,10.191.100.224,1,0
2015-02-16 17:18:48.449,98,1424135923.241578,37.77934094843688,-122.4387503760795,55.05701,-1,-1,10,65,-9999,1424135928.421259,-3.815704345703125,-35.69023132324219,25.45101928710938,190.688720703125,176.9077606201172,25,526828.0851670001,-0.29644775390625,-0.977386474609375,0.0260772705078125,526828.009667,0.04959232055501954,-0.3519742886253415,0.617307424874917,526828.009667,2.112596211464966,-0.9886107911540989,1.312301872182713,0.06776431202888489,-0.3622486889362335,0.6062912940979004,-0.03741635009646416,0.06417278200387955,0.1647257506847382,XTrueNorthZVertical,0.591519251732687,0.2825368314172373,0.4647744670199527,0.5951996631150306,-0.213514432311058,-0.9667759537696838,-0.1405558288097382,-3.394383430480957,-35.55991363525391,24.41061973571777,1,526823.7090070001,unknown,2,2015-02-16 17:18:44.009,null,0,0,0,0,null,0,-0.006572723,100.6674,192.168.1.3,10.191.100.224,1,0
2015-02-16 17:18:48.548,99,1424135923.241578,37.77934094843688,-122.4387503760795,55.05701,-1,-1,10,65,-9999,1424135928.539674,-5.869293212890625,-34.12919616699219,27.02630615234375,186.9344024658203,173.1534423828125,25,526828.184439,-0.5272979736328125,-0.9664459228515625,-0.1028594970703125,526828.1096000001,0.2115766970141081,-0.07641195062877151,0.5557942626484847,526828.1096000001,2.285159265341196,-1.176609561126194,1.267778612964176,0.2297851890325546,-0.08669558167457581,0.5447931289672852,-0.03367164358496666,-0.04836727306246758,0.1090797856450081,XTrueNorthZVertical,0.6113651557566805,0.262546974959441,0.4732648303884469,0.5773405953397605,-0.2755171954631805,-0.9544403553009033,-0.1146034672856331,-4.788118362426758,-34.89033889770508,25.13256645202637,1,526823.7090070001,unknown,2,2015-02-16 17:18:44.009,null,0,0,0,0,null,0,-0.006572723,100.6674,192.168.1.3,10.191.100.224,1,0
2015-02-16 17:18:48.655,100,1424135923.241578,37.77934094843688,-122.4387503760795,55.05701,-1,-1,10,65,-9999,1424135928.539674,-5.869293212890625,-34.12919616699219,27.02630615234375,186.9344024658203,173.1534423828125,25,526828.283712,-0.3445281982421875,-0.824432373046875,-0.123077392578125,526828.209535,0.3731355003310021,0.8248528949469722,-0.1063954160775376,526828.209535,2.399347025281908,-1.292209788190193,1.255232951105428,0.3913485705852509,0.8145681619644165,-0.1173943504691124,-0.2425374984741211,0.06750401109457016,-0.05573686212301254,XTrueNorthZVertical,0.6242000023150162,0.2601949386882549,0.4740588264584419,0.5638627585604602,-0.2983865737915039,-0.9506216645240784,-0.08534590154886246,-5.490718841552734,-34.12510299682617,26.02377700805664,1,526823.7090070001,unknown,2,2015-02-16 17:18:44.009,null,0,0,0,0,null,0,-0.006572723,100.6674,192.168.1.3,10.191.100.224,1,0
2015-02-16 17:18:48.746,101,1424135923.241578,37.77934094843688,-122.4387503760795,55.05701,-1,-1,10,65,-9999,1424135928.658838,-7.679244995117188,-33.8516845703125,27.49554443359375,183.5535125732422,169.7725524902344,25,526828.382966,-0.24188232421875,-1.030014038085938,-0.141754150390625,526828.309462,0.2782891486367021,1.752994362243796,0.2169634729510114,526828.309462,2.499355053929023,-1.219177596801515,1.273113192440616,0.2965018153190613,1.742709755897522,0.2059647589921951,-0.04402110725641251,0.0696965828537941,0.05289367213845253,XTrueNorthZVertical,0.5906902339831184,0.3171357769224419,0.5181877992064438,0.5310286072048928,-0.2753606140613556,-0.9560186266899109,-0.1010198965668678,-9.406150817871094,-33.10890197753906,26.21512222290039,1,526823.7090070001,unknown,2,2015-02-16 17:18:44.009,null,0,0,0,0,null,0,-0.006572723,100.6674,192.168.1.3,10.191.100.224,1,0
2015-02-16 17:18:48.845,102,1424135923.241578,37.77934094843688,-122.4387503760795,55.05701,-1,-1,10,65,-9999,1424135928.776807,-12.20412826538086,-33.01913452148438,26.691162109375,174.0917205810547,160.3107604980469,25,526828.4822310001,-0.1897735595703125,-0.962982177734375,-0.1848297119140625,526828.409387,0.6011939686993926,0.5050298848977214,0.26094557835367,526828.409387,2.694746544961032,-1.285375651019478,1.277159918297694,0.619405210018158,0.4947458505630493,0.249946728348732,0.04641741886734962,-0.01733537763357162,-0.1284978091716766,XTrueNorthZVertical,0.5750001366187671,0.3586474886550267,0.5476159127786029,0.4907786306320981,-0.2777253985404968,-0.9571977257728577,-0.08149364590644836,-13.13703727722168,-31.76099014282227,26.27861022949219,1,526823.7090070001,unknown,2,2015-02-16 17:18:44.009,null,0,0,0,0,null,0,-0.006572723,100.6674,192.168.1.3,10.191.100.224,1,0
2015-02-16 17:18:48.948,103,1424135923.241578,37.77934094843688,-122.4387503760795,55.05701,-1,-1,10,65,-9999,1424135928.895416,-14.53617858886719,-31.18057250976562,28.8697509765625,169.0912170410156,155.3102569580078,25,526828.5814960001,-0.386016845703125,-0.966064453125,-0.15863037109375,526828.509326,0.05185760537824094,0.02383742228508124,0.2428248976645529,526828.509326,2.832952190859147,-1.384961974073961,1.253945251110092,0.0700618252158165,0.01355541869997978,0.2318236380815506,0.1085185781121254,-0.005253597162663937,-0.132921889424324,XTrueNorthZVertical,0.5802847120471524,0.3667222841362379,0.5582976795089869,0.4659271947211841,-0.3062114417552948,-0.9502212405204773,-0.05756883695721626,-15.27990436553955,-30.08390617370605,27.0811882019043,1,526823.7090070001,unknown,2,2015-02-16 17:18:44.009,null,0,0,0,0,null,0,-0.006572723,100.6674,192.168.1.3,10.191.100.224,1,0
2015-02-16 17:18:49.065,104,1424135923.241578,37.77934094843688,-122.4387503760795,55.05701,-1,-1,10,65,-9999,1424135929.012405,-14.15329742431641,-31.14585876464844,28.568115234375,169.9203491210938,156.1393890380859,25,526828.68077,-0.44281005859375,-0.908935546875,-0.0425872802734375,526828.609257,-0.2508338220107482,-0.5144321751262462,-0.04136421805111073,526828.609257,2.793394093713044,-1.389624213561141,1.242100406093348,-0.2326420843601227,-0.5247125625610352,-0.05235889181494713,-0.1139164939522743,0.001502568949945271,-0.08621406555175781,XTrueNorthZVertical,0.5902447601210546,0.3500411760273668,0.550753699355317,0.4751343929090673,-0.3175257742404938,-0.9464641213417053,-0.05816459655761719,-14.71029663085938,-30.17513084411621,27.29425239562988,1,526823.7090070001,unknown,2,2015-02-16 17:18:44.009,null,0,0,0,0,null,0,-0.006572723,100.6674,192.168.1.3,10.191.100.224,1,0
2015-02-16 17:18:49.153,105,1424135923.241578,37.77934094843688,-122.4387503760795,55.05701,-1,-1,10,65,-9999,1424135929.112627,-13.45716094970703,-31.56214904785156,28.43408203125,171.0516204833984,157.2706604003906,25,526828.780009,-0.2224884033203125,-0.846221923828125,-0.03173828125,526828.709198,-0.07358793460885149,0.3989196933729312,-0.04068031828317838,526828.709198,2.734412101624015,-1.336422086470402,1.246448870531438,-0.05539657548069954,0.388639509677887,-0.05167477205395699,-0.09994998574256897,0.03387268260121346,0.05548670142889023,XTrueNorthZVertical,0.5853389507221189,0.3469479448499251,0.5510858740723951,0.4830215587046035,-0.3099773824214935,-0.9478588700294495,-0.07401087135076523,-14.18390464782715,-30.82760238647461,26.8399600982666,1,526823.7090070001,unknown,2,2015-02-16 17:18:44.009,null,0,0,0,0,null,0,0.01566696,100.6672,192.168.1.3,10.191.100.224,1,0
2015-02-16 17:18:49.245,106,1424135923.241578,37.77934094843688,-122.4387503760795,55.05701,-1,-1,10,65,-9999,1424135929.232091,-14.04887390136719,-31.45809936523438,27.260986328125,169.8665771484375,156.0856170654297,25,526828.879302,-0.31475830078125,-1.03900146484375,-0.0902252197265625,526828.80912,-0.1192968336623175,-0.1620727934072792,0.06340294133595245,526828.80912,2.7194926451248,-1.297419653828331,1.248050635839766,-0.1011025086045265,-0.1723493188619614,0.05234972387552261,0.08670454472303391,0.085483618080616,0.04876614734530449,XTrueNorthZVertical,0.5769556205715468,0.352571299598405,0.5583808091558345,0.4806522578751578,-0.3053935170173645,-0.9483681321144104,-0.08563137799501419,-14.81499862670898,-30.9344654083252,26.37199783325195,1,526823.7090070001,unknown,2,2015-02-16 17:18:44.009,null,0,0,0,0,null,0,0.01566696,100.6672,192.168.1.3,10.191.100.224,1,0
2015-02-16 17:18:49.346,107,1424135929.300108,37.77919600732429,-122.4387230468138,54.86671,-1,-1,10,65,-9999,1424135929.232091,-14.04887390136719,-31.45809936523438,27.260986328125,169.8665771484375,156.0856170654297,25,526828.978569,-0.280609130859375,-0.9239349365234375,-0.14208984375,526828.909037,-0.1507564893033145,-0.524208373171818,-0.09814227985938206,526828.909037,2.676438512220774,-1.304892052650404,1.242982708682177,-0.1325629204511642,-0.5344844460487366,-0.1091962233185768,-0.02472993917763233,-0.1087171360850334,-0.03196823596954346,XTrueNorthZVertical,0.5869504032146311,0.336429440300259,0.5471487300476985,0.4928820888572079,-0.3106582462787628,-0.9467485547065735,-0.08460891246795654,-14.00430107116699,-31.23991775512695,26.45477104187012,1,526823.7090070001,unknown,2,2015-02-16 17:18:44.009,null,0,0,0,0,null,0,0.01566696,100.6672,192.168.1.3,10.191.100.224,1,0
2015-02-16 17:18:49.443,108,1424135929.300108,37.77919600732429,-122.4387230468138,54.86671,-1,-1,10,65,-9999,1424135929.349269,-12.76102066040039,-31.63153076171875,27.2274169921875,172.4249725341797,158.6440124511719,25,526829.0778150001,-0.3359527587890625,-0.9116668701171875,-0.0362701416015625,526829.0089670001,-0.3396632938542322,-0.3703421106636179,-0.1723368825645536,526829.0089670001,2.578519014575763,-1.247521927934413,1.254219681402933,-0.3215005695819855,-0.3806106150150299,-0.1833923906087875,0.02004272677004337,0.0435684472322464,0.0184979010373354,XTrueNorthZVertical,0.5866671480817967,0.3261493936856186,0.5361423567025105,0.5118589983122022,-0.2951892018318176,-0.9503067135810852,-0.09889645874500275,-12.31502723693848,-32.10178375244141,26.2625846862793,1,526823.7090070001,unknown,2,2015-02-16 17:18:44.009,null,0,0,0,0,null,0,0.01566696,100.6672,192.168.1.3,10.191.100.224,1,0
2015-02-16 17:18:49.543,109,1424135929.300108,37.77919600732429,-122.4387230468138,54.86671,-1,-1,10,65,-9999,1424135929.466349,-10.25493621826172,-32.81097412109375,27.02639770507812,177.3108825683594,163.5299224853516,25,526829.177077,-0.3827362060546875,-0.9050445556640625,-0.07598876953125,526829.108917,-0.2529355887430387,-0.6947383009367528,-0.01346600773587666,526829.108917,2.47351769788079,-1.210117409917931,1.254712744362742,-0.2347635179758072,-0.7050096392631531,-0.02451685443520546,-0.09379757940769196,0.04108205810189247,0.07829815894365311,XTrueNorthZVertical,0.5933342804705523,0.305129574972429,0.5195807761962218,0.533747338678692,-0.2908459603786469,-0.9504601359367371,-0.1097007468342781,-10.28636932373047,-33.1475944519043,25.83283233642578,1,526823.7090070001,unknown,2,2015-02-16 17:18:44.009,null,0,0,0,0,null,0,0.01566696,100.6672,192.168.1.3,10.191.100.224,1,0
2015-02-16 17:18:49.642,110,1424135929.300108,37.77919600732429,-122.4387230468138,54.86671,-1,-1,10,65,-9999,1424135929.585275,-9.315147399902344,-33.47007751464844,27.52923583984375,179.4787445068359,165.6977844238281,25,526829.2763200001,-0.3131866455078125,-0.9136810302734375,-0.0977020263671875,526829.208844,-0.02341957231004781,-0.02858530587647451,0.01715182268454633,526829.208844,2.453622842125246,-1.221549277668948,1.251293992560912,-0.005247869528830051,-0.03885647654533386,0.006101197097450495,-0.05185232684016228,0.03558874875307083,0.01484391652047634,XTrueNorthZVertical,0.599428316370062,0.2948655305686621,0.5118694753626258,0.5401200635523747,-0.2951325476169586,-0.9493918418884277,-0.107480026781559,-9.261728286743164,-33.39975357055664,25.8956470489502,1,526823.7090070001,unknown,2,2015-02-16 17:18:44.009,null,0,0,0,0,null,0,0.01566696,100.6672,192.168.1.3,10.191.100.224,1,0
2015-02-16 17:18:49.742,111,1424135929.300108,37.77919600732429,-122.4387230468138,54.86671,-1,-1,10,65,-9999,1424135929.703927,-9.280326843261719,-33.64352416992188,27.02645874023438,179.8013916015625,166.0204315185547,25,526829.3755580001,-0.4350738525390625,-0.9501800537109375,-0.0572357177734375,526829.308769,-0.1503785867446323,-0.4305500576398024,0.03072542212846219,526829.308769,2.439665868484199,-1.232556475680317,1.242817825763129,-0.1322028934955597,-0.440827488899231,0.01970607042312622,-0.03179989755153656,0.07522024214267731,0.01451479271054268,XTrueNorthZVertical,0.6046364860428691,0.2845504683316318,0.50734987598939,0.5440973116044113,-0.3038781881332397,-0.9466954469680786,-0.1068914979696274,-8.980409622192383,-33.48734664916992,25.88160705566406,1,526823.7090070001,unknown,2,2015-02-16 17:18:44.009,null,0,0,0,0,null,0,0.01566696,100.6672,192.168.1.3,10.191.100.224,1,0
2015-02-16 17:18:49.840,112,1424135929.300108,37.77919600732429,-122.4387230468138,54.86671,-1,-1,10,65,-9999,1424135929.804073,-9.175899505615234,-33.74760437011719,28.06552124023438,180.1408233642578,166.35986328125,25,526829.474826,-0.4381103515625,-0.8585052490234375,-0.1067047119140625,526829.40871,-0.09636009245790104,0.03160000423044421,-0.1446927378173131,526829.40871,2.434725660888226,-1.259142985261448,1.232436775540766,-0.07817360758781433,0.02131016924977303,-0.1556572169065475,-0.1492295116186142,-0.06103302910923958,0.04788969084620476,XTrueNorthZVertical,0.61249064159578,0.2719620335990348,0.5010578241536509,0.5475700444110257,-0.3159499168395996,-0.9433004856109619,-0.1017837300896645,-8.412787437438965,-33.52774810791016,26.01966094970703,1,526823.7090070001,unknown,2,2015-02-16 17:18:44.009,null,0,0,0,0,null,0,0.01566696,100.6672,192.168.1.3,10.191.100.224,1,0
2015-02-16 17:18:49.941,113,1424135929.300108,37.77919600732429,-122.4387230468138,54.86671,-1,-1,10,65,-9999,1424135929.921589,-7.539985656738281,-35.79426574707031,25.41766357421875,183.5646362304688,169.7836761474609,25,526829.574061,-0.4181976318359375,-0.8918304443359375,-0.058990478515625,526829.508644,-0.3198781374838155,0.7123109030735317,-0.4452634900302721,526829.508644,2.346109837461989,-1.139215567720678,1.249719266345154,-0.3016926944255829,0.7020123600959778,-0.4561648964881897,-0.1436619758605957,0.09875262528657913,0.04647229611873627,XTrueNorthZVertical,0.5940647730742918,0.2847463997596486,0.5074777716270238,0.5554033443941399,-0.2866511344909668,-0.948896050453186,-0.1320130676031113,-8.339457511901855,-34.20325469970703,25.14952087402344,1,526823.7090070001,unknown,2,2015-02-16 17:18:44.009,null,0,0,0,0,null,0,0.01566696,100.6672,192.168.1.3,10.191.100.224,1,0
2015-02-16 17:18:50.041,114,1424135929.300108,37.77919600732429,-122.4387230468138,54.86671,-1,-1,10,65,-9999,1424135929.921589,-7.539985656738281,-35.79426574707031,25.41766357421875,183.5646362304688,169.7836761474609,25,526829.673329,-0.2957000732421875,-0.7852020263671875,-0.1535797119140625,526829.608577,-0.09006464595706273,1.010801992791248,-0.6604793966739735,526829.608577,2.19217166680017,-0.8971449882594564,1.285561912995299,-0.07187902927398682,1.000503182411194,-0.6713790893554688,-0.1471359580755234,0.05648902803659439,0.07686014473438263,XTrueNorthZVertical,0.5556260960899674,0.3217301270933106,0.5226697036295983,0.5608794683492245,-0.2199142128229141,-0.9595957398414612,-0.1755387336015701,-8.731716156005859,-35.11849975585938,23.71404647827148,1,526823.7090070001,unknown,2,2015-02-16 17:18:44.009,null,0,0,0,0,null,0,0.01566696,100.6672,192.168.1.3,10.191.100.224,1,0
2015-02-16 17:18:50.138,115,1424135929.300108,37.77919600732429,-122.4387230468138,54.86671,-1,-1,10,65,-9999,1424135930.041512,-6.391365051269531,-36.45335388183594,23.77532958984375,184.5055389404297,170.7245788574219,25,526829.772581,-0.1184234619140625,-0.7574005126953125,-0.1231689453125,526829.70849,-0.1474397884817298,0.8181529142765509,-0.9553429946708928,526829.70849,1.910784637027286,-0.5554218365117171,1.333256387630052,-0.1292545199394226,0.8078542947769165,-0.9662424921989441,-0.1425208896398544,0.2464559376239777,0.05937587842345238,XTrueNorthZVertical,0.5192164848059946,0.3611707644941372,0.5192781390645971,0.574734865406347,-0.1240806803107262,-0.9719197750091553,-0.1999398469924927,-7.572046756744385,-36.1053352355957,22.60478973388672,1,526823.7090070001,unknown,2,2015-02-16 17:18:44.009,null,0,0,0,0,null,0,0.01566696,100.6672,192.168.1.3,10.191.100.224,1,0
2015-02-16 17:18:50.237,116,1424135929.300108,37.77919600732429,-122.4387230468138,54.86671,-1,-1,10,65,-9999,1424135930.165007,-3.95489501953125,-37.00837707519531,22.76980590820312,187.3701934814453,173.5892333984375,25,526829.871819,0.2024383544921875,-0.8495330810546875,-0.2447052001953125,526829.8084400001,0.2583306204793212,1.400581717303027,-0.8047332455436416,526829.8084400001,1.489583219550381,-0.02248563014383977,1.364265961600927,0.2765202522277832,1.390291452407837,-0.8156893253326416,-0.03297176212072372,0.1374854892492294,0.08662057667970657,XTrueNorthZVertical,0.4694112377368367,0.4208875495070329,0.520898494672305,0.5754750639672226,-0.004610635340213776,-0.9787483215332031,-0.2050135284662247,-6.45050573348999,-36.86582565307617,21.70736312866211,1,526823.7090070001,unknown,2,2015-02-16 17:18:44.009,null,0,0,0,0,null,0,0.01566696,100.6672,192.168.1.3,10.191.100.224,1,0
2015-02-16 17:18:50.341,117,1424135929.300108,37.77919600732429,-122.4387230468138,54.86671,-1,-1,10,65,-9999,1424135930.280724,-0.822265625,-37.56340026855469,23.10498046875,190.3363800048828,176.555419921875,25,526829.971092,0.0795745849609375,-0.73980712890625,-0.0858306884765625,526829.908372,-0.02589977423323861,-0.8081703212464978,-0.8133890517186171,526829.908372,1.083556583264065,0.4241493335683977,1.370968294740849,-0.007710490375757217,-0.8184603452682495,-0.8243449330329895,0.04451325908303261,0.1225720420479774,-0.06344266980886459,XTrueNorthZVertical,0.4462167988056593,0.4587317069946964,0.5044032410731382,0.5796836984941798,0.08169218897819519,-0.9801007509231567,-0.180911585688591,-5.511003494262695,-36.74506759643555,22.16610908508301,1,526823.7090070001,unknown,2,2015-02-16 17:18:44.009,null,0,0,0,0,null,0,0.01566696,100.6672,192.168.1.3,10.191.100.224,1,0
2015-02-16 17:18:50.436,118,1424135929.300108,37.77919600732429,-122.4387230468138,54.86671,-1,-1,10,65,-9999,1424135930.396858,2.066703796386719,-37.80624389648438,22.40115356445312,195.2283935546875,181.4474334716797,25,526830.07034,0.2232513427734375,-0.8365936279296875,-0.083953857421875,526830.008304,-0.2342881347903039,1.388864341138897,0.3712760812579087,526830.008304,0.9827231969793815,0.5234805170033935,1.328355878536209,-0.2160992026329041,1.37857449054718,0.3603204190731049,-0.006409985944628716,0.1825469732284546,0.197852298617363,XTrueNorthZVertical,0.4288373814600768,0.4605832760844987,0.4995070748576642,0.5953606122884604,0.1200116723775864,-0.9707549810409546,-0.207923099398613,-2.327836036682129,-37.39831161499023,21.62995910644531,1,526823.7090070001,unknown,2,2015-02-16 17:18:44.009,null,0,0,0,0,null,0,-0.006572723,100.6674,192.168.1.3,10.191.100.224,1,0
2015-02-16 17:18:50.537,119,1424135929.300108,37.77919600732429,-122.4387230468138,54.86671,-1,-1,10,65,-9999,1424135930.497565,-2.098899841308594,-39.44085693359375,19.87167358398438,185.5529479980469,171.7719879150391,25,526830.169597,0.0916595458984375,-0.8341064453125,-0.0526275634765625,526830.108233,0.1088966569733401,0.2777370753427286,0.4097310621342169,526830.108233,1.097293807520666,0.5504136852716314,1.359997547785556,0.1270852088928223,0.2674474716186523,0.3987756371498108,0.1354163140058517,0.1656845211982727,0.09658139199018478,XTrueNorthZVertical,0.4061144135229486,0.4958851608361034,0.5360629050172326,0.5493683488330615,0.1094414815306664,-0.9778640866279602,-0.1783379763364792,-2.117058992385864,-36.96831512451172,22.77362442016602,1,526823.7090070001,unknown,2,2015-02-16 17:18:44.009,null,0,0,0,0,null,0,-0.006572723,100.6674,192.168.1.3,10.191.100.224,1,0
2015-02-16 17:18:50.634,120,1424135929.300108,37.77919600732429,-122.4387230468138,54.86671,-1,-1,10,65,-9999,1424135930.598479,-3.873992919921875,-39.26741027832031,20.30743408203125,183.6309661865234,169.8500061035156,25,526830.268852,-0.06622314453125,-0.9597320556640625,-0.08447265625,526830.208175,-0.2095007629443914,-0.5670344003452732,0.6470767721720407,526830.208175,1.371138865996752,0.2201895214579907,1.36905108049372,-0.1913125663995743,-0.577323853969574,0.6361215710639954,-0.0419195145368576,0.09469333291053772,0.1487124264240265,XTrueNorthZVertical,0.4325874689301737,0.4637857840529436,0.5412920414679393,0.552063206999043,0.0437658280134201,-0.9797183871269226,-0.195541650056839,-3.294342041015625,-36.89324188232422,22.7554874420166,1,526823.7090070001,unknown,2,2015-02-16 17:18:44.009,null,0,0,0,0,null,0,-0.006572723,100.6674,192.168.1.3,10.191.100.224,1,0
2015-02-16 17:18:50.742,121,1424135929.300108,37.77919600732429,-122.4387230468138,54.86671,-1,-1,10,65,-9999,1424135930.716216,-8.050682067871094,-39.33677673339844,17.69287109375,175.7639923095703,161.9830322265625,25,526830.368118,0.0998992919921875,-1.031051635742188,-0.1668853759765625,526830.308103,-0.2658002547047755,1.682063996086734,0.5181579374912669,526830.308103,1.62412218663202,0.0630624008488527,1.359136744607608,-0.2476124465465546,1.671774744987488,0.5072029829025269,0.01970417611300945,-0.02399485558271408,0.05249972641468048,XTrueNorthZVertical,0.41437034615236,0.4727204144661959,0.5778373361081623,0.520515772498317,0.01323954947292805,-0.9776836037635803,-0.2096652537584305,-6.467509269714355,-37.02886199951172,21.83600044250488,1,526823.7090070001,unknown,2,2015-02-16 17:18:44.009,null,0,0,0,0,null,0,-0.006572723,100.6674,192.168.1.3,10.191.100.224,1,0
2015-02-16 17:18:50.834,122,1424135929.300108,37.77919600732429,-122.4387230468138,54.86671,-1,-1,10,65,-9999,1424135930.716216,-8.050682067871094,-39.33677673339844,17.69287109375,175.7639923095703,161.9830322265625,25,526830.467363,-0.0997772216796875,-1.109725952148438,-0.2633209228515625,526830.40803,-1.005620812890499,0.7314523734084762,0.6854641087566609,526830.40803,1.889290424746625,-0.08459455578181231,1.292576661082617,-0.9874333739280701,0.7211633920669556,0.6745092868804932,0.0602540522813797,0.007871603593230247,0.03139837458729744,XTrueNorthZVertical,0.3799607752304212,0.4677592600282782,0.6313718602308426,0.4880580790196559,-0.02320571057498455,-0.9615459442138672,-0.2736621797084808,-10.92018890380859,-37.46807861328125,19.14859390258789,1,526823.7090070001,unknown,2,2015-02-16 17:18:44.009,null,0,0,0,0,null,0,-0.006572723,100.6674,192.168.1.3,10.191.100.224,1,0
2015-02-16 17:18:50.932,123,1424135929.300108,37.77919600732429,-122.4387230468138,54.86671,-1,-1,10,65,-9999,1424135930.834789,-12.81908416748047,-39.85710144042969,13.56988525390625,166.4335784912109,152.6526184082031,25,526830.566641,-0.13104248046875,-1.120147705078125,-0.4260101318359375,526830.507964,-0.5910758207698545,0.7329490699411008,0.5904286726249652,526830.507964,2.090671221149434,-0.1904608019516828,1.204498609481108,-0.5728887319564819,0.7226603031158447,0.5794740915298462,-0.01953730173408985,-0.1234996691346169,-0.09728992730379105,XTrueNorthZVertical,0.3506605611486268,0.4485474654189697,0.6826414513690283,0.458086259821828,-0.0678040087223053,-0.9336597323417664,-0.3516846895217896,-15.95258331298828,-37.92232894897461,14.0423698425293,1,526823.7090070001,unknown,2,2015-02-16 17:18:44.009,null,0,0,0,0,null,0,-0.006572723,100.6674,192.168.1.3,10.191.100.224,1,0
2015-02-16 17:18:51.032,124,1424135929.300108,37.77919600732429,-122.4387230468138,54.86671,-1,-1,10,65,-9999,1424135930.950707,-17.30904769897461,-38.57362365722656,9.715087890625,159.7484436035156,145.9674835205078,25,526830.665881,-0.34832763671875,-1.041656494140625,-0.534942626953125,526830.607896,-0.3173627818342356,-0.3517204893734569,0.5683143155651653,526830.607896,2.237504788392456,-0.3322717328598493,1.154228041615782,-0.2991760671138763,-0.3620090484619141,0.5573599934577942,-0.1254764944314957,-0.2565070986747742,-0.07893258333206177,XTrueNorthZVertical,0.3597113591683015,0.4235104942384926,0.7040726017372925,0.4421859351920387,-0.1319850534200668,-0.9144828915596008,-0.3824931979179382,-17.6545581817627,-37.5599479675293,12.936110496521,1,526823.7090070001,unknown,2,2015-02-16 17:18:44.009,null,0,0,0,0,null,0,-0.006572723,100.6674,192.168.1.3,10.191.100.224,1,0
2015-02-16 17:18:51.142,125,1424135929.300108,37.77919600732429,-122.4387230468138,54.86671,-1,-1,10,65,-9999,1424135931.069507,-20.19792556762695,-37.2901611328125,9.21234130859375,156.3708953857422,142.5899353027344,25,526830.7651600001,-0.2607879638671875,-1.161590576171875,-0.3726654052734375,526830.7078270001,0.02665557935060309,-0.0789014736157776,0.7823025049463402,526830.7078270001,2.3442661597171,-0.4588372387746444,1.11283537117596,0.04484193399548531,-0.08918983489274979,0.7713483572006226,-0.163404792547226,-0.138887032866478,0.01682843081653118,XTrueNorthZVertical,0.3776118282711719,0.3990161682851727,0.7154346700578013,0.4316812109874869,-0.195817619562149,-0.8969558477401733,-0.3963907957077026,-19.4428768157959,-36.80334854125977,12.54050636291504,1,526823.7090070001,unknown,2,2015-02-16 17:18:44.009,null,0,0,0,0,null,0,-0.006572723,100.6674,192.168.1.3,10.191.100.224,1,0
2015-02-16 17:18:51.233,126,1424135929.300108,37.77919600732429,-122.4387230468138,54.86671,-1,-1,10,65,-9999,1424135931.188174,-23.50448989868164,-35.24356079101562,10.989013671875,152.5836029052734,138.8026428222656,25,526830.864402,-0.3147735595703125,-0.9020538330078125,-0.4090728759765625,526830.80776,0.4209781240498395,-1.058580168011705,0.7916954741110497,526830.80776,2.522758581690644,-0.6863628098771849,1.088982884029881,0.4391700327396393,-1.068857312202454,0.7806951999664307,-0.1188601478934288,-0.1597118675708771,-0.1145666316151619,XTrueNorthZVertical,0.4226877806778436,0.3769709897432318,0.7141864098503303,0.4112975995387779,-0.2936612069606781,-0.8861560821533203,-0.3584558367729187,-21.80742263793945,-35.08508682250977,13.53695297241211,1,526823.7090070001,unknown,2,2015-02-16 17:18:44.009,null,0,0,0,0,null,0,-0.006572723,100.6674,192.168.1.3,10.191.100.224,1,0
2015-02-16 17:18:51.329,127,1424135929.300108,37.77919600732429,-122.4387230468138,54.86671,-1,-1,10,65,-9999,1424135931.306465,-26.25415420532227,-32.15628051757812,13.63714599609375,148.3883819580078,134.607421875,25,526830.963695,-0.1766510009765625,-0.8390045166015625,-0.2359161376953125,526830.907686,0.2073257592821237,-0.3808413569451463,0.5891524858305993,526830.907686,2.671752518057008,-0.8628472603828473,1.063526990909565,0.2255108654499054,-0.3911159634590149,0.5781503319740295,0.09273361414670944,-0.01343790721148252,-0.02704169973731041,XTrueNorthZVertical,0.4577322690857901,0.3640485921541066,0.7120795452015738,0.3884488951423657,-0.3690550327301025,-0.8740742802619934,-0.3158995807170868,-23.57766151428223,-32.50155258178711,16.65890502929688,1,526823.7090070001,unknown,2,2015-02-16 17:18:44.009,null,0,0,0,0,null,0,-0.006572723,100.6674,192.168.1.3,10.191.100.224,1,0
2015-02-16 17:18:51.430,128,1424135929.300108,37.77919600732429,-122.4387230468138,54.86671,-1,-1,10,65,-9999,1424135931.425532,-25.27958679199219,-32.57254028320312,16.3858642578125,149.5887451171875,135.8077850341797,25,526831.062946,-0.5293731689453125,-1.1884765625,-0.525665283203125,526831.0076230001,0.4813802154694907,0.008761267354142678,-0.6089626759152628,526831.0076230001,2.757059473469605,-0.9582771934881534,1.096234054601896,0.4995492696762085,-0.001492357230745256,-0.6200318336486816,0.5412963032722473,-0.1885101050138474,-0.09127464890480042,XTrueNorthZVertical,0.4745871569828058,0.3786951702568146,0.6975363634195934,0.3805260182985216,-0.3738768696784973,-0.8894928097724915,-0.2627139985561371,-23.5415153503418,-31.2998104095459,18.86518096923828,1,526823.7090070001,unknown,2,2015-02-16 17:18:44.009,null,0,0,0,0,null,0,-0.006572723,100.6674,192.168.1.3,10.191.100.224,1,0
2015-02-16 17:18:51.536,129,1424135929.300108,37.77919600732429,-122.4387230468138,54.86671,-1,-1,10,65,-9999,1424135931.525587,-22.00783157348633,-34.30697631835938,18.0618896484375,157.1493377685547,143.3683776855469,25,526831.162216,-0.310211181640625,-0.8036956787109375,-0.196746826171875,526831.107556,-0.02423050486197694,-0.214698987076117,-0.6487891847529617,526831.107556,2.664575615636545,-1.009124806324678,1.142795064428071,-0.006061824969947338,-0.2249523997306824,-0.6598581671714783,-0.4813698828220367,-0.003166718408465385,0.1089212074875832,XTrueNorthZVertical,0.5069656076256162,0.3639462177526369,0.6537170597714177,0.4279989012553306,-0.3512869775295258,-0.9097971320152283,-0.2210580408573151,-19.37804222106934,-32.49924087524414,21.40249443054199,1,526823.7090070001,unknown,2,2015-02-16 17:18:44.009,null,0,0,0,0,null,0,-0.006572723,100.6674,192.168.1.3,10.191.100.224,1,0
2015-02-16 17:18:51.627,130,1424135929.300108,37.77919600732429,-122.4387230468138,54.86671,-1,-1,10,65,-9999,1424135931.525587,-22.00783157348633,-34.30697631835938,18.0618896484375,157.1493377685547,143.3683776855469,25,526831.2614760001,-0.26702880859375,-0.7196807861328125,-0.1399383544921875,526831.2074910001,0.1018051916226771,0.6403392409302493,-0.6521564856352579,526831.2074910001,2.604133453407799,-0.856926305301057,1.201399406962439,0.1199735254049301,0.6300860047340393,-0.6632252335548401,0.1466448903083801,0.1271863728761673,0.08105479180812836,XTrueNorthZVertical,0.4669436492902533,0.4046743943201769,0.6610886392613272,0.4256337679887767,-0.2728961110115051,-0.9325452446937561,-0.2364045232534409,-18.78456497192383,-33.44021224975586,20.46138763427734,1,526823.7090070001,unknown,2,2015-02-16 17:18:44.009,null,0,0,0,0,null,0,-0.006572723,100.6674,192.168.1.3,10.191.100.224,1,0
2015-02-16 17:18:51.726,131,1424135929.300108,37.77919600732429,-122.4387230468138,54.86671,-1,-1,10,65,-9999,1424135931.642938,-20.75482559204102,-34.65385437011719,17.32449340820312,157.28466796875,143.5037078857422,25,526831.360738,-0.287750244140625,-1.063812255859375,-0.0961761474609375,526831.3074010001,0.01704982361479629,0.5243761523204929,-0.828710217469843,526831.3074010001,2.47134492519628,-0.6897229314918453,1.269011403388954,0.03521779552102089,0.5141231417655945,-0.83977872133255,-0.08844137936830521,-0.08230188488960266,-0.1155626103281975,XTrueNorthZVertical,0.4405987328187049,0.4372982350216606,0.6498735364900533,0.4385287074970369,-0.1891312599182129,-0.954807460308075,-0.2292860150337219,-17.02827835083008,-34.4940185546875,20.24787902832031,1,526823.7090070001,unknown,2,2015-02-16 17:18:44.009,null,0,0,0,0,null,0,-0.006572723,100.6674,192.168.1.3,10.191.100.224,1,0
2015-02-16 17:18:51.826,132,1424135929.300108,37.77919600732429,-122.4387230468138,54.86671,-1,-1,10,65,-9999,1424135931.761651,-17.79632949829102,-36.97798156738281,16.08432006835938,160.8802947998047,147.0993347167969,25,526831.459973,-0.1141815185546875,-0.916595458984375,-0.2360992431640625,526831.407352,0.3224584742639933,1.746267749962473,-0.3949361370143907,526831.407352,2.274981055957769,-0.3881417828364261,1.310612946354569,0.3406260907649994,1.73601496219635,-0.4060044586658478,0.2240883857011795,0.09457768499851227,0.1631245017051697,XTrueNorthZVertical,0.3898443120158895,0.4784983644020766,0.656732387171166,0.4333166621969152,-0.097364142537117,-0.9663428068161011,-0.2381214499473572,-16.20700263977051,-35.5850715637207,18.99505043029785,1,526823.7090070001,unknown,2,2015-02-16 17:18:44.009,null,0,0,0,0,null,0,-0.09349823,100.6685,192.168.1.3,10.191.100.224,1,0
