loggingTime,loggingSample,locationTimestamp_since1970,locationLatitude,locationLongitude,locationAltitude,locationSpeed,locationCourse,locationVerticalAccuracy,locationHorizontalAccuracy,locationFloor,locationHeadingTimestamp_since1970,locationHeadingX,locationHeadingY,locationHeadingZ,locationTrueHeading,locationMagneticHeading,locationHeadingAccuracy,accelerometerTimestamp_sinceReboot,accelerometerAccelerationX,accelerometerAccelerationY,accelerometerAccelerationZ,gyroTimestamp_sinceReboot,gyroRotationX,gyroRotationY,gyroRotationZ,motionTimestamp_sinceReboot,motionYaw,motionRoll,motionPitch,motionRotationRateX,motionRotationRateY,motionRotationRateZ,motionUserAccelerationX,motionUserAccelerationY,motionUserAccelerationZ,motionAttitudeReferenceFrame,motionQuaternionX,motionQuaternionY,motionQuaternionZ,motionQuaternionW,motionGravityX,motionGravityY,motionGravityZ,motionMagneticFieldX,motionMagneticFieldY,motionMagneticFieldZ,motionMagneticFieldCalibrationAccuracy,IP_en0,IP_pdp_ip0,deviceOrientation,state
2015-02-21 19:01:26.076,1,1424570485.123365,39.63829555315839,-106.3701797090314,2517.703,-1,-1,10,65,-9999,1424570486.067572,-30.95692825317383,0.169769287109375,-31.28903198242188,76.02332305908203,66.89726257324219,10,22353.64214383333,-0.3262176513671875,-0.2357025146484375,-0.899505615234375,22353.60502070834,-0.02528857876306542,-0.2915583487680219,-0.09534409650203582,22353.60502070834,-1.18870788006321,-0.2998885244878341,0.2406525673188641,-0.0293558444827795,-0.2828676998615265,-0.05796584859490395,-0.002390712732449174,0.003427381627261639,-0.004733195994049311,XTrueNorthZVertical,0.01528958152247325,-0.1893333597327851,-0.5645432372374009,0.803249700154136,-0.286900669336319,-0.238336443901062,-0.9278382062911987,-27.62839126586914,2.520367622375488,-35.09196090698242,2,192.168.1.118,10.97.20.126,5,0
2015-02-21 19:01:26.112,2,1424570485.123365,39.63829555315839,-106.3701797090314,2517.703,-1,-1,10,65,-9999,1424570486.067572,-30.95692825317383,0.169769287109375,-31.28903198242188,76.02332305908203,66.89726257324219,10,22353.69118391667,-0.3275909423828125,-0.257110595703125,-0.892364501953125,22353.65680445834,-0.05020458128962876,-0.2353904171654877,-0.1089493875629236,22353.65680445834,-1.190965210516018,-0.3131519552827897,0.2399970244305693,-0.05426714569330215,-0.2266999185085297,-0.07157276570796967,-0.0464584082365036,0.01574539020657539,0.00187391962390393,XTrueNorthZVertical,0.01105613482039058,-0.1944937685189492,-0.5655167815436231,0.8013992423266334,-0.2992294430732727,-0.2376997321844101,-0.924099862575531,-28.08663749694824,2.471689224243164,-34.72978210449219,2,192.168.1.118,10.97.20.126,5,0
2015-02-21 19:01:26.146,3,1424570485.123365,39.63829555315839,-106.3701797090314,2517.703,-1,-1,10,65,-9999,1424570486.13515,-31.70740127563477,-0.067962646484375,-31.12261199951172,76.46453857421875,67.33847808837891,10,22353.74020091667,-0.2836456298828125,-0.197662353515625,-0.9144287109375,22353.70858820833,0.01655234512316949,0.1135614499387228,0.0912902326907172,22353.70858820833,-1.191861118084742,-0.3160091004203273,0.2395914464242625,0.01249208673834801,0.1222503706812859,0.1286663115024567,-0.001949810422956944,-0.03452956303954124,0.01609089411795139,XTrueNorthZVertical,0.009993908903980556,-0.1955345599608156,-0.565878033107313,0.8009047691276266,-0.3018984496593475,-0.237305760383606,-0.923332691192627,-28.44509124755859,2.4305419921875,-34.43973541259766,2,192.168.1.118,10.97.20.126,5,0
2015-02-21 19:01:26.205,4,1424570485.123365,39.63829555315839,-106.3701797090314,2517.703,-1,-1,10,65,-9999,1424570486.187856,-31.4686164855957,-0.237823486328125,-30.92291259765625,77.02871704101562,67.90265655517578,10,22353.7892345,-0.2675628662109375,-0.2363433837890625,-0.8808135986328125,22353.76037329167,-0.002479136658754763,0.002616023138784835,-0.01107076065145939,22353.76037329167,-1.188155974387917,-0.3109922265496188,0.2395127564352851,-0.006534283049404621,0.01130565255880356,0.02630322799086571,0.04073738306760788,-0.009291675873100758,0.01718438416719437,XTrueNorthZVertical,0.01173945709414175,-0.1934824535276148,-0.5643631625758747,0.8024468742355818,-0.2972681522369385,-0.2372293174266815,-0.9248534440994263,-28.25297164916992,2.505879402160645,-34.59214019775391,2,192.168.1.118,10.97.20.126,5,0
2015-02-21 19:01:26.246,5,1424570485.123365,39.63829555315839,-106.3701797090314,2517.703,-1,-1,10,65,-9999,1424570486.187856,-31.4686164855957,-0.237823486328125,-30.92291259765625,77.02871704101562,67.90265655517578,10,22353.83825125,-0.280426025390625,-0.21661376953125,-0.855316162109375,22353.812156875,-0.01128354722255672,-0.1665325229687259,-0.03858840524692114,22353.812156875,-1.188149140302105,-0.3145951241893999,0.2386915500034567,-0.0153372548520565,-0.1578409373760223,-0.001215764437802136,0.02751095965504646,0.008983965963125229,0.05353900045156479,XTrueNorthZVertical,0.01038548546287021,-0.1947086518239839,-0.5643548067581533,0.8021747780905256,-0.3006585538387299,-0.2364314794540405,-0.923961341381073,-28.22478866577148,2.549995422363281,-34.61191940307617,2,192.168.1.118,10.97.20.126,5,0
2015-02-21 19:01:26.305,6,1424570485.123365,39.63829555315839,-106.3701797090314,2517.703,-1,-1,10,65,-9999,1424570486.29338,-31.34922409057617,-0.322723388671875,-31.43877410888672,76.54013061523438,67.41407012939453,10,22353.88728641667,-0.2689056396484375,-0.22967529296875,-0.8657379150390625,22353.86394079167,0.07049147720941637,-0.08670986193188991,-0.07377675273013812,22353.86394079167,-1.188555370464651,-0.3198256192128791,0.2402080930631393,0.06643714755773544,-0.0780174657702446,-0.03640452027320862,0.01672358810901642,0.01311226934194565,0.06452127546072006,XTrueNorthZVertical,0.009493436569108454,-0.1972118726491862,-0.5645921173376118,0.8014069708378952,-0.3053740859031677,-0.2379047572612762,-0.9220346808433533,-28.45924758911133,2.531070709228516,-34.42079162597656,2,192.168.1.118,10.97.20.126,5,0
2015-02-21 19:01:26.345,7,1424570485.123365,39.63829555315839,-106.3701797090314,2517.703,-1,-1,10,65,-9999,1424570486.29338,-31.34922409057617,-0.322723388671875,-31.43877410888672,76.54013061523438,67.41407012939453,10,22353.93629783333,-0.248931884765625,-0.2343902587890625,-0.8384552001953125,22353.91572558333,0.1909941902133217,-0.1138227060416596,-0.1112282545077044,22353.86394079167,-1.188555370464651,-0.3198256192128791,0.2402080930631393,0.06643714755773544,-0.0780174657702446,-0.03640452027320862,0.01672358810901642,0.01311226934194565,0.06452127546072006,XTrueNorthZVertical,0.009493436569108454,-0.1972118726491862,-0.5645921173376118,0.8014069708378952,-0.3053740859031677,-0.2379047572612762,-0.9220346808433533,-28.45924758911133,2.531070709228516,-34.42079162597656,2,192.168.1.118,10.97.20.126,5,0
2015-02-21 19:01:26.405,8,1424570485.123365,39.63829555315839,-106.3701797090314,2517.703,-1,-1,10,65,-9999,1424570486.345316,-31.86091232299805,-0.424591064453125,-31.30563354492188,76.48447418212891,67.35841369628906,10,22353.98531991667,-0.2212066650390625,-0.2716522216796875,-0.79681396484375,22353.9675095,0.4303007857617709,-0.1010520496664026,-0.2856756922361459,22353.9675095,-1.191715039660757,-0.3274878238564541,0.2647832999945576,0.4262485504150391,-0.09235540777444839,-0.2483060956001282,0.07817055284976959,0.01409575622528791,0.1047270372509956,XTrueNorthZVertical,0.01710958066577389,-0.2068328760403086,-0.5666764954606479,0.7973739480631429,-0.3104551136493683,-0.2617001235485077,-0.9138548374176025,-28.72115707397461,1.87071704864502,-34.24502182006836,2,192.168.1.118,10.97.20.126,5,0
2015-02-21 19:01:26.441,9,1424570485.123365,39.63829555315839,-106.3701797090314,2517.703,-1,-1,10,65,-9999,1424570486.421434,-31.53684616088867,-2.0379638671875,-30.59008026123047,78.32579040527344,69.19972991943359,10,22354.03433545833,-0.198150634765625,-0.246002197265625,-0.877716064453125,22354.01929304167,0.5405956023074026,-0.1039122846771477,-0.7090322854555351,22354.01929304167,-1.206337284011257,-0.3277323917115597,0.2970666280512791,0.5365434288978577,-0.09521573781967163,-0.6716630458831787,0.1044132187962532,0.03058584406971931,0.05145395547151566,XTrueNorthZVertical,0.02872202724017064,-0.215690539134837,-0.5733753878864495,0.7898691923122665,-0.3077976107597351,-0.2927165925502777,-0.9053052663803101,-28.92644882202148,0.3946971893310547,-34.12082290649414,2,192.168.1.118,10.97.20.126,5,0
2015-02-21 19:01:26.537,10,1424570485.123365,39.63829555315839,-106.3701797090314,2517.703,-1,-1,10,65,-9999,1424570486.475901,-31.5197868347168,-3.61737060546875,-30.4403076171875,79.01212310791016,69.88606262207031,10,22354.083365,-0.207427978515625,-0.374603271484375,-0.9381561279296875,22354.071078,0.4713451581659631,-0.04997022311370179,-0.9451257771488037,22354.071078,-1.239274166294782,-0.321145444832575,0.3329334541931752,0.4672926366329193,-0.04127141460776329,-0.9077574014663696,0.08738289028406143,0.02038980089128017,-0.02631083503365517,XTrueNorthZVertical,0.04159123794395481,-0.2233503170106408,-0.5869116829882711,0.7771225907850324,-0.2983203828334808,-0.3268167972564697,-0.8967695832252502,-29.05514907836914,-1.343963623046875,-33.98703002929688,2,192.168.1.118,10.97.20.126,5,0
2015-02-21 19:01:26.540,11,1424570485.123365,39.63829555315839,-106.3701797090314,2517.703,-1,-1,10,65,-9999,1424570486.475901,-31.5197868347168,-3.61737060546875,-30.4403076171875,79.01212310791016,69.88606262207031,10,22354.13237804167,-0.1354217529296875,-0.366943359375,-0.9106903076171875,22354.12286175,0.487439972213857,0.09781950473526446,-1.26325075568702,22354.071078,-1.239274166294782,-0.321145444832575,0.3329334541931752,0.4672926366329193,-0.04127141460776329,-0.9077574014663696,0.08738289028406143,0.02038980089128017,-0.02631083503365517,XTrueNorthZVertical,0.04159123794395481,-0.2233503170106408,-0.5869116829882711,0.7771225907850324,-0.2983203828334808,-0.3268167972564697,-0.8967695832252502,-29.05514907836914,-1.343963623046875,-33.98703002929688,2,192.168.1.118,10.97.20.126,5,0
2015-02-21 19:01:26.607,12,1424570485.123365,39.63829555315839,-106.3701797090314,2517.703,-1,-1,10,65,-9999,1424570486.601891,-29.81416702270508,-10.10482788085938,-29.84123229980469,87.11597442626953,77.98991394042969,10,22354.181400125,-0.1595611572265625,-0.4820709228515625,-0.8647918701171875,22354.174645625,0.444486912256405,0.07124168968849169,-1.479010746141425,22354.174645625,-1.349306852825816,-0.2747449010035009,0.4121606498678869,0.4404349625110626,0.07994215190410614,-1.441643834114075,0.08450417965650558,-0.06877037882804871,0.01459837052971125,XTrueNorthZVertical,0.07456390800582134,-0.2312874454112436,-0.6275325891949619,0.7396953633999181,-0.2485819309949875,-0.4005899727344513,-0.8818926811218262,-28.44290733337402,-6.379105567932129,-33.93278884887695,2,192.168.1.118,10.97.20.126,5,0
2015-02-21 19:01:26.639,13,1424570485.123365,39.63829555315839,-106.3701797090314,2517.703,-1,-1,10,65,-9999,1424570486.601891,-29.81416702270508,-10.10482788085938,-29.84123229980469,87.11597442626953,77.98991394042969,10,22354.23040729167,-0.1017608642578125,-0.45648193359375,-0.86920166015625,22354.174645625,0.444486912256405,0.07124168968849169,-1.479010746141425,22354.174645625,-1.349306852825816,-0.2747449010035009,0.4121606498678869,0.4404349625110626,0.07994215190410614,-1.441643834114075,0.08450417965650558,-0.06877037882804871,0.01459837052971125,XTrueNorthZVertical,0.07456390800582134,-0.2312874454112436,-0.6275325891949619,0.7396953633999181,-0.2485819309949875,-0.4005899727344513,-0.8818926811218262,-28.44290733337402,-6.379105567932129,-33.93278884887695,2,192.168.1.118,10.97.20.126,5,0
2015-02-21 19:01:26.696,14,1424570485.123365,39.63829555315839,-106.3701797090314,2517.703,-1,-1,10,65,-9999,1424570486.654552,-28.44968032836914,-13.50140380859375,-29.70810699462891,91.92664337158203,82.80058288574219,10,22354.27944008333,-0.1722412109375,-0.5012054443359375,-0.803131103515625,22354.27821433334,0.3937249313506227,-0.09734572837733937,-1.831840974741118,22354.22643045833,-1.432284968626201,-0.2333754252601941,0.4553112207287442,0.4002764225006104,-0.0094939935952425,-1.746345043182373,0.1225891560316086,-0.01822018623352051,-0.01021016016602516,XTrueNorthZVertical,0.09463590833438554,-0.2327131533957756,-0.6550133878903893,0.7126332399584682,-0.2077026814222336,-0.439741849899292,-0.8737772703170776,-27.74248123168945,-9.032389640808105,-33.91012954711914,2,192.168.1.118,10.97.20.126,5,0
2015-02-21 19:01:26.739,15,1424570485.123365,39.63829555315839,-106.3701797090314,2517.703,-1,-1,10,65,-9999,1424570486.706484,-26.62466812133789,-17.05084228515625,-29.22552490234375,98.36536407470703,89.23930358886719,10,22354.32843941667,-0.1599273681640625,-0.5171051025390625,-0.8401336669921875,22354.32999791667,0.398104766079367,0.188750743311039,-1.841517836878029,22354.27821433334,-1.523711649903367,-0.1974970472899606,0.4930475856104769,0.3896797597408295,-0.08863475173711777,-1.794479966163635,-0.008368091657757759,-0.02391021698713303,0.05055342242121696,XTrueNorthZVertical,0.1097178388871811,-0.2368052025269145,-0.6835432249803356,0.6816553318126584,-0.1728452891111374,-0.4733126759529114,-0.863770604133606,-26.92750549316406,-11.79981708526611,-33.71646499633789,2,192.168.1.118,10.97.20.126,5,0
2015-02-21 19:01:26.795,16,1424570485.123365,39.63829555315839,-106.3701797090314,2517.703,-1,-1,10,65,-9999,1424570486.758676,-24.3561897277832,-20.19268798828125,-29.10904693603516,104.1190567016602,94.99299621582031,10,22354.37746104167,-0.0550079345703125,-0.507965087890625,-0.80084228515625,22354.32999791667,0.398104766079367,0.188750743311039,-1.841517836878029,22354.32999791667,-1.62406712650308,-0.1448445817184214,0.5258260960027445,0.3940596282482147,0.1974615454673767,-1.804157137870789,-0.03508749231696129,-0.01517742872238159,0.01571890525519848,XTrueNorthZVertical,0.127639382035945,-0.2361819249618765,-0.7118528697499977,0.6489929261729331,-0.1248398795723915,-0.5019276738166809,-0.8558525443077087,-25.51891899108887,-15.38407802581787,-33.36526870727539,2,192.168.1.118,10.97.20.126,5,0
2015-02-21 19:01:26.839,17,1424570485.123365,39.63829555315839,-106.3701797090314,2517.703,-1,-1,10,65,-9999,1424570486.810603,-21.38840866088867,-23.48736572265625,-28.97590637207031,109.8551483154297,100.7290878295898,10,22354.42647029167,0.062591552734375,-0.56048583984375,-0.7662200927734375,22354.38178304167,0.676391517871088,0.6334075652449911,-2.225098255004322,22354.38178304167,-1.735209038408535,-0.06651377533259556,0.5636597351027912,0.6723466515541077,0.6421179175376892,-2.187737703323364,0.001175074372440577,0.0263182744383812,0.04259400069713593,XTrueNorthZVertical,0.1553819421060906,-0.2326764032479476,-0.7382637003206139,0.6137466025542475,-0.05618301033973694,-0.5342833399772644,-0.8434363007545471,-23.71858215332031,-18.11216735839844,-33.3242301940918,2,192.168.1.118,10.97.20.126,5,0
2015-02-21 19:01:26.894,18,1424570485.123365,39.63829555315839,-106.3701797090314,2517.703,-1,-1,10,65,-9999,1424570486.862618,-17.29492568969727,-27.22358703613281,-28.60980987548828,117.2605895996094,108.1345291137695,10,22354.4755005,0.230499267578125,-0.5277862548828125,-0.7014923095703125,22354.48535029167,1.531214828777485,0.4327690034600564,-2.184870940422567,22354.433566625,-1.86345834352197,0.03539596279867149,0.60849149543255,1.024012565612793,0.5853278636932373,-2.080516576766968,0.03355482965707779,0.01114452630281448,0.05377722904086113,XTrueNorthZVertical,0.1922040236192166,-0.2303452894813482,-0.7625071935747596,0.5732202723073485,0.02903672307729721,-0.5716303586959839,-0.8199973106384277,-20.87528991699219,-21.35726737976074,-33.30488967895508,2,192.168.1.118,10.97.20.126,1,0
2015-02-21 19:01:26.943,19,1424570485.123365,39.63829555315839,-106.3701797090314,2517.703,-1,-1,10,65,-9999,1424570486.913518,-12.86031723022461,-31.12965393066406,-27.51152038574219,123.3144378662109,114.1883773803711,10,22354.52451825,0.257781982421875,-0.5975494384765625,-0.570770263671875,22354.48535029167,1.531214828777485,0.4327690034600564,-2.184870940422567,22354.48535029167,-2.002262457001426,0.1478998815935975,0.6620809352211678,1.527169942855835,0.4414792060852051,-2.14751148223877,0.1311189830303192,0.03614616394042969,0.09826508164405823,XTrueNorthZVertical,0.2336614719611106,-0.235266405946516,-0.7812322039944698,0.5288934846591974,0.1162259951233864,-0.6147594451904297,-0.7801040410995483,-16.66207504272461,-25.89116287231445,-32.4522590637207,2,192.168.1.118,10.97.20.126,1,0
2015-02-21 19:01:26.988,20,1424570485.123365,39.63829555315839,-106.3701797090314,2517.703,-1,-1,10,65,-9999,1424570486.965605,-8.016361236572266,-35.27348327636719,-25.11526489257812,129.5928649902344,120.466796875,10,22354.57365829167,0.225250244140625,-0.69415283203125,-0.5424041748046875,22354.53713529167,2.189399912172355,0.02817358117194826,-2.402131888467339,22354.53713529167,-2.169915690773906,0.2653967672800835,0.7308078140459904,2.185355186462402,0.03688370063900948,-2.36477255821228,0.08819625526666641,0.07822272181510925,0.1641213148832321,XTrueNorthZVertical,0.2746613513094116,-0.2554971773802731,-0.7965656758078937,0.4740943982914626,0.1953120529651642,-0.6674714088439941,-0.7185646891593933,-13.45396995544434,-29.70018768310547,-30.62704277038574,2,192.168.1.118,10.97.20.126,1,0
2015-02-21 19:01:27.036,21,1424570485.123365,39.63829555315839,-106.3701797090314,2517.703,-1,-1,10,65,-9999,1424570487.017216,-3.530590057373047,-38.95878601074219,-21.00499725341797,138.5077209472656,129.3816528320312,10,22354.62257279167,-0.068328857421875,-0.6496429443359375,-0.3136444091796875,22354.588919,2.619914816085768,-0.6367080207839263,-1.962889273029519,22354.588919,-2.369132664512649,0.3900463232718055,0.8140676914473274,2.615869998931885,-0.6279979944229126,-1.925530433654785,-0.1131735444068909,0.002400172408670187,0.1437090933322906,XTrueNorthZVertical,0.3111507015831207,-0.2927365885843945,-0.8056278463710052,0.4104318989539537,0.2610464692115784,-0.7270858287811279,-0.6349810361862183,-10.15398120880127,-33.8756103515625,-27.39463424682617,2,192.168.1.118,10.97.20.126,1,0
2015-02-21 19:01:27.086,22,1424570485.123365,39.63829555315839,-106.3701797090314,2517.703,-1,-1,10,65,-9999,1424570487.0696,1.057521820068359,-42.40632629394531,-15.76316070556641,148.367431640625,139.2413787841797,10,22354.67171683333,0.1577301025390625,-0.6164093017578125,-0.2271728515625,22354.64070279167,2.89438951909315,0.9122700924643872,-1.509531637498169,22354.64070279167,-2.578647786462673,0.5520311541843709,0.8971597007461377,2.89024543762207,0.9208496809005737,-1.472111701965332,-0.3972476422786713,0.1864959448575974,0.2078199982643127,XTrueNorthZVertical,0.3518037592559314,-0.3326403686188215,-0.8000110366013502,0.3543541750474966,0.3271487653255463,-0.7815582156181335,-0.5311689972877502,-6.540366172790527,-38.69824981689453,-21.46614265441895,2,192.168.1.118,10.97.20.126,1,0
2015-02-21 19:01:27.136,23,1424570485.123365,39.63829555315839,-106.3701797090314,2517.703,-1,-1,10,65,-9999,1424570487.120873,5.185123443603516,-44.74995422363281,-9.140151977539062,150.1998901367188,141.0738220214844,10,22354.72062733334,1.7994384765625,-2.551254272460938,0.0315093994140625,22354.69248770833,3.432453786784432,2.126152499444063,-1.160723314776714,22354.69248770833,-2.83956523705062,0.8497648221883753,0.9812448111206605,3.428310394287109,2.134731531143188,-1.123303771018982,-0.06040859222412109,-0.03798102959990501,0.2148042321205139,XTrueNorthZVertical,0.4240321226539221,-0.369697412893718,-0.7652500665374784,0.3129104623382158,0.4176168441772461,-0.8311901092529297,-0.3670411705970764,-2.964041709899902,-41.57965087890625,-16.23185920715332,2,192.168.1.118,10.97.20.126,1,0
2015-02-21 19:01:27.184,24,1424570485.123365,39.63829555315839,-106.3701797090314,2517.703,-1,-1,10,65,-9999,1424570487.173377,8.34051513671875,-45.65003967285156,-3.831748962402344,150.2686767578125,141.1426239013672,10,22354.76977045833,0.0294342041015625,-1.158111572265625,-0.13336181640625,22354.7442715,-0.02162966174140556,-2.479247978888328,0.006358829734782197,22354.7442715,-3.040443675816327,1.062985173458147,0.9911153040311549,-0.02577312663197517,-2.470669031143188,0.04377803951501846,0.6420760750770569,-1.408174633979797,-1.64952278137207,XTrueNorthZVertical,0.4660047516571998,-0.3868614660653784,-0.7451968385471051,0.2790331328804659,0.4786362051963806,-0.8366374373435974,-0.2663555443286896,0.467620849609375,-43.66486740112305,-9.710156440734863,2,192.168.1.118,10.97.20.126,1,0
2015-02-21 19:01:27.233,25,1424570485.123365,39.63829555315839,-106.3701797090314,2517.703,-1,-1,10,65,-9999,1424570487.224744,8.903369903564453,-45.56512451171875,-0.7199249267578125,160.1464538574219,151.0203857421875,10,22354.81867975,-0.337799072265625,-0.3438720703125,0.2743988037109375,22354.79605516667,0.4826617285860368,-1.263052616501918,1.396120922477144,22354.79605516667,-3.023044072886284,0.909846627408008,1.056770759907014,0.4785178005695343,-1.254473924636841,1.433540105819702,-0.7224469780921936,-0.3416606187820435,0.4856680035591125,XTrueNorthZVertical,0.405631069340967,-0.4295909438223677,-0.7613023659705244,0.2670838895512477,0.3881421387195587,-0.8707722425460815,-0.3018301129341125,-0.9378833770751953,-43.94393157958984,-8.317301750183105,2,192.168.1.118,10.97.20.126,1,0
2015-02-21 19:01:27.282,26,1424570485.123365,39.63829555315839,-106.3701797090314,2517.703,-1,-1,10,65,-9999,1424570487.276767,8.391681671142578,-45.63304138183594,1.0772705078125,158.5043029785156,149.3782501220703,10,22354.867707,1.298324584960938,-0.849822998046875,-0.1266021728515625,22354.84784033334,1.024307415311258,3.142226219613123,-0.5692237850774273,22354.84784033334,-3.089846650699298,1.044992431032483,1.081961434496567,1.020163416862488,3.150804758071899,-0.5318049788475037,0.1096433848142624,0.6300424337387085,0.5320969820022583,XTrueNorthZVertical,0.4391850552027505,-0.4350505428537317,-0.7359354886970513,0.2761277038699527,0.4061647355556488,-0.8828805685043335,-0.235695019364357,-2.638645172119141,-44.08981704711914,-7.088847637176514,2,192.168.1.118,10.97.20.126,1,0
2015-02-21 19:01:27.335,27,1424570485.123365,39.63829555315839,-106.3701797090314,2517.703,-1,-1,10,65,-9999,1424570487.328531,7.760604858398438,-45.24244689941406,3.323768615722656,154.6650390625,145.5389862060547,10,22354.91671,0.742889404296875,-0.9387664794921875,-0.2246856689453125,22354.899623875,0.6541828849086991,-1.303176067801161,0.2947139283436567,22354.899623875,3.112881054836298,1.182785593742679,1.095864402899859,0.65003901720047,-1.294597506523132,0.3321322798728943,1.038796305656433,0.03110852092504501,-0.248178243637085,XTrueNorthZVertical,0.4696421329168186,-0.4392393590342938,-0.7127278936372781,0.2802214160532374,0.4232855439186096,-0.8893238306045532,-0.1730101108551025,-1.171918869018555,-44.3853874206543,-5.448866367340088,2,192.168.1.118,10.97.20.126,1,0
2015-02-21 19:01:27.380,28,1424570485.123365,39.63829555315839,-106.3701797090314,2517.703,-1,-1,10,65,-9999,1424570487.328531,7.760604858398438,-45.24244689941406,3.323768615722656,154.6650390625,145.5389862060547,10,22354.96584908334,-0.2275543212890625,-0.8626861572265625,0.0368804931640625,22354.95140758334,0.1471713418438499,-0.973365671031895,-0.06253981082665777,22354.95140758334,3.094951821476187,1.081307449226254,1.121777664976605,0.1430275291204453,-0.9647872447967529,-0.02512181922793388,-0.8105076551437378,0.01931223832070827,0.2649158537387848,XTrueNorthZVertical,0.4250828424908883,-0.4661088024945311,-0.732194956783126,0.2567834621570593,0.3831089735031128,-0.9008735418319702,-0.2040943205356598,-2.479454040527344,-44.50270080566406,-3.806293964385986,2,192.168.1.118,10.97.20.126,1,0
2015-02-21 19:01:27.437,29,1424570485.123365,39.63829555315839,-106.3701797090314,2517.703,-1,-1,10,65,-9999,1424570487.380453,7.811767578125,-45.2254638671875,4.93792724609375,158.28857421875,149.1625213623047,10,22355.01475958333,0.8216552734375,-1.007675170898438,-0.1954193115234375,22355.00319258334,-0.2034455335738782,1.112301453520784,-0.1916250930755615,22354.95140758334,3.094951821476187,1.081307449226254,1.121777664976605,0.1430275291204453,-0.9647872447967529,-0.02512181922793388,-0.8105076551437378,0.01931223832070827,0.2649158537387848,XTrueNorthZVertical,0.4250828424908883,-0.4661088024945311,-0.732194956783126,0.2567834621570593,0.3831089735031128,-0.9008735418319702,-0.2040943205356598,-2.479454040527344,-44.50270080566406,-3.806293964385986,2,192.168.1.118,10.97.20.126,1,0
2015-02-21 19:01:27.477,30,1424570485.123365,39.63829555315839,-106.3701797090314,2517.703,-1,-1,10,65,-9999,1424570487.432143,7.879997253417969,-45.15750122070312,5.071052551269531,159.0354309082031,149.9093627929688,10,22355.06378020833,0.324981689453125,-0.824951171875,-0.0123443603515625,22355.05497645833,-0.1073395066839707,-0.3035004957281552,0.172987226502751,22355.05497645833,3.117094764045152,1.111499764142421,1.111372178894588,-0.1114832311868668,-0.294922262430191,0.2104044556617737,-0.03659121319651604,0.07376771420240402,0.19345323741436,XTrueNorthZVertical,0.4426773469574418,-0.453592458976288,-0.7250422908656108,0.2694519697941385,0.3974768221378326,-0.8963080048561096,-0.1965812891721725,-1.960134506225586,-44.49467468261719,-4.184271812438965,2,192.168.1.118,10.97.20.126,1,0
2015-02-21 19:01:27.538,31,1424570485.123365,39.63829555315839,-106.3701797090314,2517.703,-1,-1,10,65,-9999,1424570487.484239,7.726493835449219,-45.14054870605469,4.455337524414062,157.43212890625,148.3060760498047,10,22355.11279166667,0.581207275390625,-0.8719024658203125,-0.20733642578125,22355.10676,-0.1454839629771756,0.2972639050874076,0.05636314131043699,22355.05497645833,3.117094764045152,1.111499764142421,1.111372178894588,-0.1114832311868668,-0.294922262430191,0.2104044556617737,-0.03659121319651604,0.07376771420240402,0.19345323741436,XTrueNorthZVertical,0.4426773469574418,-0.453592458976288,-0.7250422908656108,0.2694519697941385,0.3974768221378326,-0.8963080048561096,-0.1965812891721725,-1.960134506225586,-44.49467468261719,-4.184271812438965,2,192.168.1.118,10.97.20.126,1,0
2015-02-21 19:01:27.576,32,1424570485.123365,39.63829555315839,-106.3701797090314,2517.703,-1,-1,10,65,-9999,1424570487.53695,7.317146301269531,-45.03863525390625,3.989402770996094,157.001220703125,147.8751678466797,10,22355.161859375,0.378814697265625,-0.84759521484375,-0.039703369140625,22355.15854516667,-0.1882961417129625,-0.3365551185460007,0.005164135669772651,22355.10676,3.131103297738514,1.108266031002543,1.113120989820854,-0.1496276408433914,0.3058420419692993,0.09378000348806381,0.1376606225967407,0.02392841875553131,0.009940526448190212,XTrueNorthZVertical,0.4444275427778847,-0.4515542324896761,-0.7234666646429755,0.2741878177645195,0.3954356908798218,-0.8970820903778076,-0.1971658617258072,-2.366578102111816,-44.44663238525391,-4.47461986541748,2,192.168.1.118,10.97.20.126,1,0
2015-02-21 19:01:27.644,33,1424570485.123365,39.63829555315839,-106.3701797090314,2517.703,-1,-1,10,65,-9999,1424570487.587926,7.47064208984375,-45.02165222167969,3.839630126953125,157.2069396972656,148.0808868408203,10,22355.210825375,0.3564300537109375,-0.947662353515625,-0.055755615234375,22355.15854516667,-0.1882961417129625,-0.3365551185460007,0.005164135669772651,22355.15854516667,-3.125935185112733,1.074218213509093,1.112802986037565,-0.1924397796392441,-0.3279770314693451,0.04258066415786743,0.02403523214161396,0.05784547701478004,0.1120768412947655,XTrueNorthZVertical,0.4380159998850088,-0.4503528339608596,-0.7274541372067819,0.2759254010922607,0.38874551653862,-0.8969415426254272,-0.2106486111879349,-2.560948371887207,-44.39736938476562,-4.841609001159668,2,192.168.1.118,10.97.20.126,1,0
2015-02-21 19:01:27.674,34,1424570485.123365,39.63829555315839,-106.3701797090314,2517.703,-1,-1,10,65,-9999,1424570487.644369,7.283023834228516,-45.31036376953125,3.456901550292969,157.156982421875,148.0309295654297,10,22355.25994695833,0.2591094970703125,-0.921661376953125,-0.116851806640625,22355.26211245833,-0.01592170857703873,-0.01448413422061395,-0.07299857705961696,22355.21032875,-3.112913946690266,1.048052725872519,1.110447194175265,-0.04257488623261452,-0.3360401093959808,0.01071130763739347,-0.004254854284226894,-0.04985756054520607,0.1755062341690063,XTrueNorthZVertical,0.4317064413071694,-0.4502542080764131,-0.7318939353159535,0.27428453111712,0.3849311172962189,-0.8958974480628967,-0.2218014001846313,-2.731240272521973,-44.34910202026367,-5.179161071777344,2,192.168.1.118,10.97.20.126,1,0
2015-02-21 19:01:27.740,35,1424570485.123365,39.63829555315839,-106.3701797090314,2517.703,-1,-1,10,65,-9999,1424570487.695851,7.265972137451172,-45.32736206054688,2.708061218261719,156.6557922363281,147.5297241210938,10,22355.30885566667,0.4285125732421875,-0.890289306640625,-0.153472900390625,22355.26211245833,-0.01592170857703873,-0.01448413422061395,-0.07299857705961696,22355.26211245833,-3.110641728263732,1.034038663766872,1.110503837441138,-0.02006526850163937,-0.005906230304390192,-0.03558283299207687,-0.1226319819688797,-0.02573876827955246,0.1102961301803589,XTrueNorthZVertical,0.4270738605413275,-0.4517011731983484,-0.734579263259002,0.271969324892449,0.381741464138031,-0.8959226012229919,-0.2271479368209839,-2.866009712219238,-44.33297729492188,-5.244011878967285,2,192.168.1.118,10.97.20.126,1,0
2015-02-21 19:01:27.772,36,1424570485.123365,39.63829555315839,-106.3701797090314,2517.703,-1,-1,10,65,-9999,1424570487.695851,7.265972137451172,-45.32736206054688,2.708061218261719,156.6557922363281,147.5297241210938,10,22355.35787366667,0.42437744140625,-0.8833160400390625,-0.138824462890625,22355.36568133334,-0.02097425779713706,0.008554339737443521,-0.07112504323274621,22355.31389745833,-3.108972496109249,1.038865074243399,1.108458616014663,-0.04639377072453499,0.08472637832164764,-0.004797332920134068,0.04410085827112198,0.004722921177744865,0.07275885343551636,XTrueNorthZVertical,0.4294766323590797,-0.4499265994566096,-0.7337929161802448,0.2732469092993333,0.3844117224216461,-0.8950121998786926,-0.2262317538261414,-2.793869972229004,-44.33149337768555,-5.295190811157227,2,192.168.1.118,10.97.20.126,1,0
2015-02-21 19:01:27.837,37,1424570485.123365,39.63829555315839,-106.3701797090314,2517.703,-1,-1,10,65,-9999,1424570487.821336,7.180694580078125,-45.24244689941406,2.757987976074219,156.615478515625,147.4894256591797,10,22355.406875875,0.46820068359375,-0.8966827392578125,-0.2032470703125,22355.36568133334,-0.02097425779713706,0.008554339737443521,-0.07112504323274621,22355.36568133334,-3.107166765440191,1.037690501554557,1.106210520262848,-0.02511773817241192,0.01713208109140396,-0.03371001407504082,0.03849982470273972,0.01069118268787861,0.08888063579797745,XTrueNorthZVertical,0.4297305519578948,-0.4488642357661003,-0.7343195849231194,0.2731800462725006,0.3858776092529297,-0.8940072059631348,-0.227705106139183,-2.744515419006348,-44.32402801513672,-5.382806777954102,2,192.168.1.118,10.97.20.126,1,0
2015-02-21 19:01:27.870,38,1424570485.123365,39.63829555315839,-106.3701797090314,2517.703,-1,-1,10,65,-9999,1424570487.821336,7.180694580078125,-45.24244689941406,2.757987976074219,156.615478515625,147.4894256591797,10,22355.45599270834,0.52520751953125,-0.83404541015625,-0.274627685546875,22355.417465,0.01349556882397654,0.001247957286811131,-0.009841711808387825,22355.417465,-3.108298727339441,1.041489042899798,1.106691254949534,0.009352133609354496,0.009825604036450386,0.02757290937006474,0.1120138019323349,-0.002994283102452755,0.003532249014824629,XTrueNorthZVertical,0.4308107497185985,-0.4487669458686763,-0.7335458308868461,0.2737167881774097,0.3863687515258789,-0.8942224979400635,-0.2260206490755081,-2.676850318908691,-44.32516098022461,-5.407485008239746,2,192.168.1.118,10.97.20.126,1,0
2015-02-21 19:01:27.934,39,1424570485.123365,39.63829555315839,-106.3701797090314,2517.703,-1,-1,10,65,-9999,1424570487.925816,7.146583557128906,-45.20849609375,2.957679748535156,158.1394958496094,149.0134429931641,10,22355.50488216667,0.6513519287109375,-0.8226318359375,-0.277374267578125,22355.46925008333,0.01833346726021448,-0.1834947285836586,0.02294712753266775,22355.46925008333,-3.104708493503769,1.033187565784701,1.109131014088829,0.0141900721937418,-0.1749171763658524,0.06036137416958809,0.1363473236560822,0.04800664633512497,-0.02995426952838898,XTrueNorthZVertical,0.4282689502974231,-0.4500383542917272,-0.7342711614966619,0.2736733220299549,0.3826040923595428,-0.8953119516372681,-0.228102371096611,-2.772761344909668,-44.31904983520508,-5.409234523773193,2,192.168.1.118,10.97.20.126,1,0
2015-02-21 19:01:27.968,40,1424570485.123365,39.63829555315839,-106.3701797090314,2517.703,-1,-1,10,65,-9999,1424570487.925816,7.146583557128906,-45.20849609375,2.957679748535156,158.1394958496094,149.0134429931641,10,22355.55400404167,0.4780120849609375,-0.9249114990234375,-0.2406005859375,22355.52103370833,0.1093179690577906,-0.3863873899152364,0.1624586854492317,22355.52103370833,-3.103105973335386,1.019700092641295,1.116335320960822,0.105174608528614,-0.3778098821640015,0.1998725980520248,0.282918244600296,0.08865279704332352,-0.06573486328125,XTrueNorthZVertical,0.4227925798358609,-0.4542215721318857,-0.7352367032813003,0.2726833840057947,0.3739878833293915,-0.8984977602958679,-0.2298583984375,-2.96877384185791,-44.31525421142578,-5.335792541503906,2,192.168.1.118,10.97.20.126,1,0
2015-02-21 19:01:28.007,41,1424570485.123365,39.63829555315839,-106.3701797090314,2517.703,-1,-1,10,65,-9999,1424570487.977211,7.112464904785156,-45.10661315917969,2.75799560546875,159.1709289550781,150.0448608398438,10,22355.60289575,0.1649169921875,-0.9782257080078125,-0.140960693359375,22355.57281758334,0.03574441551882552,-1.015565855349182,0.06349268986468813,22355.57281758334,-3.105319909164159,0.9781335474988716,1.122367323948847,0.03160109743475914,-1.006988525390625,0.1009062305092812,0.007851004600524902,-0.06264631450176239,-0.001284975209273398,XTrueNorthZVertical,0.4062013051056214,-0.4625105377871657,-0.7427201178732974,0.2635362756654631,0.3596111536026001,-0.9011293053627014,-0.2421690076589584,-3.491800308227539,-44.31980133056641,-4.968770027160645,2,192.168.1.118,10.97.20.126,1,0
2015-02-21 19:01:28.066,42,1424570485.123365,39.63829555315839,-106.3701797090314,2517.703,-1,-1,10,65,-9999,1424570488.028634,6.873676300048828,-45.44627380371094,2.624862670898438,161.3884582519531,152.2623901367188,10,22355.65203225,0.4406280517578125,-0.869598388671875,-0.1144866943359375,22355.62460241667,-0.1007332692839202,-0.002904709800949425,-0.06946908966693495,22355.62460241667,-3.098325067995093,0.9488954123725012,1.123201184391881,-0.1048729345202446,0.00551238190382719,-0.03196953982114792,-0.1525940597057343,0.004029590170830488,0.1541638225317001,XTrueNorthZVertical,0.3968342993933342,-0.465244325553615,-0.7474754130844961,0.2595203327648084,0.3517670333385468,-0.9014905095100403,-0.2521405220031738,-3.827776908874512,-44.30722808837891,-4.831527233123779,2,192.168.1.118,10.97.20.126,1,0
2015-02-21 19:01:28.134,43,1424570485.123365,39.63829555315839,-106.3701797090314,2517.703,-1,-1,10,65,-9999,1424570488.081426,6.600780487060547,-45.5821533203125,2.757987976074219,162.4036865234375,153.2776184082031,10,22355.700908125,0.5838470458984375,-0.892547607421875,-0.291412353515625,22355.67638629167,-0.02021152846093836,0.2868948873831841,-0.04757257918430345,22355.67638629167,-3.091270988525312,0.9551657672032853,1.119860256017392,-0.02435115352272987,0.2953118979930878,-0.01007340662181377,0.1589114516973495,0.1010588333010674,0.06682273745536804,XTrueNorthZVertical,0.4011879914060996,-0.461751383222492,-0.7461075902421903,0.2629778685472948,0.3557980358600616,-0.9000395536422729,-0.251667708158493,-3.795001983642578,-44.28681564331055,-5.040056705474854,2,192.168.1.118,10.97.20.126,1,0
2015-02-21 19:01:28.165,44,1424570485.123365,39.63829555315839,-106.3701797090314,2517.703,-1,-1,10,65,-9999,1424570488.132202,6.310832977294922,-45.66706848144531,2.874465942382812,161.5864562988281,152.4603881835938,10,22355.74992945834,0.43682861328125,-0.8526458740234375,-0.2693023681640625,22355.728169875,0.005224323110408441,-0.04883944491485414,0.0207942281074477,22355.728169875,-3.08699345827005,0.9553862221555297,1.121709955010749,0.001084735034964979,-0.04042251408100128,0.05829306319355965,0.1760850995779037,0.05768921598792076,-0.05367827042937279,XTrueNorthZVertical,0.4020499093287382,-0.4615647203419661,-0.745052886263457,0.2649719153682528,0.3544935286045074,-0.9008440971374512,-0.2506277561187744,-3.784893035888672,-44.27194213867188,-5.176493644714355,2,192.168.1.118,10.97.20.126,1,0
2015-02-21 19:01:28.206,45,1424570485.123365,39.63829555315839,-106.3701797090314,2517.703,-1,-1,10,65,-9999,1424570488.183994,6.430225372314453,-45.81990051269531,2.857826232910156,162.5882568359375,153.4622039794922,10,22355.79893641667,0.5152740478515625,-0.8698577880859375,-0.2549285888671875,22355.77995504167,-0.02511387539555622,0.09300877054214533,0.03316993769304592,22355.728169875,-3.08699345827005,0.9553862221555297,1.121709955010749,0.001084735034964979,-0.04042251408100128,0.05829306319355965,0.1760850995779037,0.05768921598792076,-0.05367827042937279,XTrueNorthZVertical,0.4020499093287382,-0.4615647203419661,-0.745052886263457,0.2649719153682528,0.3544935286045074,-0.9008440971374512,-0.2506277561187744,-3.784893035888672,-44.27194213867188,-5.176493644714355,2,192.168.1.118,10.97.20.126,1,0
2015-02-21 19:01:28.264,46,1424570485.123365,39.63829555315839,-106.3701797090314,2517.703,-1,-1,10,65,-9999,1424570488.236044,6.651954650878906,-45.63308715820312,2.60821533203125,163.4217224121094,154.295654296875,10,22355.84806891667,0.4451141357421875,-0.84954833984375,-0.21612548828125,22355.831738625,0.06025055755362566,-0.1967772445204288,0.1528673107833113,22355.831738625,-3.072897143776562,0.9433637142103606,1.129047960066745,0.05611105635762215,-0.1883604824542999,0.190365344285965,0.1362820863723755,0.06066757068037987,0.02698483876883984,XTrueNorthZVertical,0.4000245189083477,-0.4631289810523352,-0.7437987625798781,0.2688035935125239,0.346094012260437,-0.9040055871009827,-0.250983864068985,-4.015612602233887,-44.24097442626953,-5.266616344451904,2,192.168.1.118,10.97.20.126,1,0
2015-02-21 19:01:28.338,47,1424570485.123365,39.63829555315839,-106.3701797090314,2517.703,-1,-1,10,65,-9999,1424570488.287909,6.157318115234375,-45.75198364257812,2.425163269042969,166.839111328125,157.7130432128906,10,22355.89707883334,0.36236572265625,-0.89678955078125,-0.2342681884765625,22355.8835225,0.08605232745874936,-0.4076452743684669,0.06151049906534215,22355.8835225,-3.069253925768787,0.9245501403127405,1.136015843632889,0.08191286772489548,-0.3992286026477814,0.09900821000337601,0.07354646921157837,0.03905786573886871,0.03075049631297588,XTrueNorthZVertical,0.3931198462897257,-0.4675803068256051,-0.7453265824600972,0.2670463789670264,0.3362740874290466,-0.906962513923645,-0.2536508738994598,-4.513566970825195,-44.21522521972656,-5.076177597045898,2,192.168.1.118,10.97.20.126,1,0
2015-02-21 19:01:28.360,48,1424570485.123365,39.63829555315839,-106.3701797090314,2517.703,-1,-1,10,65,-9999,1424570488.341007,5.952648162841797,-45.54817199707031,2.924392700195312,168.0904846191406,158.9644165039062,10,22355.94603975,0.22705078125,-0.9261627197265625,-0.2192230224609375,22355.935307375,0.1218271030140018,-0.6344374096385247,0.05371675813522526,22355.8835225,-3.069253925768787,0.9245501403127405,1.136015843632889,0.08191286772489548,-0.3992286026477814,0.09900821000337601,0.07354646921157837,0.03905786573886871,0.03075049631297588,XTrueNorthZVertical,0.3931198462897257,-0.4675803068256051,-0.7453265824600972,0.2670463789670264,0.3362740874290466,-0.906962513923645,-0.2536508738994598,-4.513566970825195,-44.21522521972656,-5.076177597045898,2,192.168.1.118,10.97.20.126,1,0
2015-02-21 19:01:28.404,49,1424570485.123365,39.63829555315839,-106.3701797090314,2517.703,-1,-1,10,65,-9999,1424570488.392035,5.765022277832031,-45.90481567382812,3.07415771484375,168.8894958496094,159.7634429931641,10,22355.99499066667,0.1472930908203125,-0.993255615234375,-0.1991729736328125,22355.98709125,0.1426559522156205,-0.6554779801468047,-0.2418059722314886,22355.935307375,-3.074262864319294,0.8995215645553022,1.142805872525369,0.1176876798272133,-0.6260207891464233,0.09121409058570862,-0.05124853551387787,-0.04391845688223839,0.04281861707568169,XTrueNorthZVertical,0.3818725394502768,-0.4744449810552016,-0.7491494556634247,0.2604812019389391,0.3249912261962891,-0.9098016619682312,-0.2581506371498108,-4.795936584472656,-44.21902465820312,-4.77526330947876,2,192.168.1.118,10.97.20.126,1,0
2015-02-21 19:01:28.458,50,1424570485.123365,39.63829555315839,-106.3701797090314,2517.703,-1,-1,10,65,-9999,1424570488.442924,6.072032928466797,-45.97273254394531,3.040878295898438,170.5668334960938,161.4407806396484,10,22356.04401545833,0.17218017578125,-0.908660888671875,-0.2502288818359375,22356.03887504167,0.1077626829811843,-0.1854388361794164,-0.3698148047677823,22356.03887504167,-3.120295879703759,0.8928007110260762,1.139159612214359,0.1036233454942703,-0.1770224273204803,-0.3323182761669159,-0.171319916844368,-0.04392723739147186,0.0581539012491703,XTrueNorthZVertical,0.3687235606130161,-0.4825338443431086,-0.7570829207597329,0.2408931628860938,0.3258303999900818,-0.9082822203636169,-0.262408047914505,-4.673976898193359,-44.3165168762207,-3.914925575256348,2,192.168.1.118,10.97.20.126,1,0
2015-02-21 19:01:28.508,51,1424570485.123365,39.63829555315839,-106.3701797090314,2517.703,-1,-1,10,65,-9999,1424570488.494229,6.822505950927734,-46.21049499511719,3.240570068359375,172.3330688476562,163.2070007324219,10,22356.093019125,0.266387939453125,-0.8088531494140625,-0.3219451904296875,22356.03887504167,0.1077626829811843,-0.1854388361794164,-0.3698148047677823,22356.03887504167,-3.120295879703759,0.8928007110260762,1.139159612214359,0.1036233454942703,-0.1770224273204803,-0.3323182761669159,-0.171319916844368,-0.04392723739147186,0.0581539012491703,XTrueNorthZVertical,0.3687235606130161,-0.4825338443431086,-0.7570829207597329,0.2408931628860938,0.3258303999900818,-0.9082822203636169,-0.262408047914505,-4.673976898193359,-44.3165168762207,-3.914925575256348,2,192.168.1.118,10.97.20.126,1,0
2015-02-21 19:01:28.556,52,1424570485.123365,39.63829555315839,-106.3701797090314,2517.703,-1,-1,10,65,-9999,1424570488.547396,8.442844390869141,-46.22749328613281,3.157356262207031,174.7503051757812,165.6242370605469,10,22356.14214408334,0.190093994140625,-1.0020751953125,-0.268280029296875,22356.14244379167,-0.172751803062388,0.005600627772436638,-1.280532274316653,22356.09065983333,3.106035861880464,0.9301143265618594,1.111035911303065,-0.003505465807393193,-0.4077137410640717,-1.10304057598114,-0.08539596945047379,0.09696450084447861,-0.03171300888061523,XTrueNorthZVertical,0.372595661965818,-0.4780725155563474,-0.763478230133771,0.2229802111953402,0.3557359278202057,-0.8961588144302368,-0.2652382850646973,-3.738670349121094,-44.42261505126953,-3.712156772613525,2,192.168.1.118,10.97.20.126,1,0
2015-02-21 19:01:28.639,53,1424570485.123365,39.63829555315839,-106.3701797090314,2517.703,-1,-1,10,65,-9999,1424570488.598297,11.32533645629883,-45.83685302734375,3.140708923339844,179.0296325683594,169.903564453125,10,22356.19104791667,0.28253173828125,-1.04693603515625,-0.271942138671875,22356.1942275,0.0318921530020259,0.4885260093063913,-1.200126913633308,22356.14244379167,3.03965627431746,0.9693460252221086,1.057099460973616,-0.1768910586833954,0.01401687785983086,-1.243036389350891,-0.2150734066963196,-0.1311413794755936,0.009773404337465763,XTrueNorthZVertical,0.37908467290651,-0.4661202567450277,-0.7750610292699517,0.1957221444940531,0.4051674008369446,-0.8709338307380676,-0.2780534327030182,-1.55034351348877,-44.55098724365234,-3.732605457305908,2,192.168.1.118,10.97.20.126,1,0
2015-02-21 19:01:28.654,54,1424570485.123365,39.63829555315839,-106.3701797090314,2517.703,-1,-1,10,65,-9999,1424570488.65083,14.29311370849609,-45.36134338378906,3.340400695800781,181.5709533691406,172.4449005126953,10,22356.24007620833,0.621978759765625,-0.7908477783203125,-0.1264801025390625,22356.1942275,0.0318921530020259,0.4885260093063913,-1.200126913633308,22356.1942275,2.97757748149083,1.035069030386098,1.001239718159021,0.02775294333696365,0.4969421923160553,-1.162631511688232,-0.1811755746603012,-0.2047958672046661,0.003331432351842523,XTrueNorthZVertical,0.3984004453300179,-0.4512652209759873,-0.7792868338613209,0.1742092304895715,0.46370729804039,-0.8421401381492615,-0.2752735614776611,1.884090423583984,-44.51061248779297,-4.047426700592041,2,192.168.1.118,10.97.20.126,1,0
2015-02-21 19:01:28.705,55,1424570485.123365,39.63829555315839,-106.3701797090314,2517.703,-1,-1,10,65,-9999,1424570488.701408,16.71509170532227,-44.74995422363281,3.773056030273438,183.8355407714844,174.70947265625,10,22356.28918770833,0.811370849609375,-0.54931640625,-0.141754150390625,22356.246012375,0.02552000746179331,0.765928591616206,-0.7997896196121275,22356.246012375,2.930022911936732,1.113816842741316,0.962194299205771,0.02138083428144455,0.7743446826934814,-0.7622945308685303,0.1089223176240921,0.02960029058158398,0.1257858574390411,XTrueNorthZVertical,0.4244687838438025,-0.4401059768309123,-0.7741529901070553,0.1637686432966062,0.5130564570426941,-0.8204480409622192,-0.2522659599781036,4.166749954223633,-44.37457275390625,-3.829094886779785,2,192.168.1.118,10.97.20.126,1,0
2015-02-21 19:01:28.752,56,1424570485.123365,39.63829555315839,-106.3701797090314,2517.703,-1,-1,10,65,-9999,1424570488.701408,16.71509170532227,-44.74995422363281,3.773056030273438,183.8355407714844,174.70947265625,10,22356.33811658333,0.904876708984375,-0.53082275390625,-0.1534576416015625,22356.34958008333,0.335224070633179,-0.07233491731596921,-0.8342282872484872,22356.297796125,2.901876863498477,1.17136329704981,0.9314254287273512,0.1365921646356583,0.6247934699058533,-0.6376286149024963,0.2616505920886993,0.2531549036502838,0.09029654413461685,XTrueNorthZVertical,0.4456097572432579,-0.4305886632852348,-0.7689254311568676,0.1574136859967976,0.5497202277183533,-0.8024712800979614,-0.2320507019758224,5.813417434692383,-44.21102905273438,-3.565865993499756,2,192.168.1.118,10.97.20.126,1,0
2015-02-21 19:01:28.791,57,1424570485.123365,39.63829555315839,-106.3701797090314,2517.703,-1,-1,10,65,-9999,1424570488.753915,18.81299591064453,-44.29141235351562,4.68829345703125,185.5047912597656,176.3787231445312,10,22356.38723304167,0.8481292724609375,-0.6367950439453125,-0.2514190673828125,22356.34958008333,0.335224070633179,-0.07233491731596921,-0.8342282872484872,22356.34958008333,2.859501566168992,1.216656455409516,0.9031351929449987,0.3310849666595459,-0.06391900032758713,-0.7967339754104614,0.2825820446014404,0.2635891735553741,0.04552207514643669,XTrueNorthZVertical,0.4587655389474221,-0.4268236350643958,-0.7660769647301738,0.1431149497904891,0.5807297229766846,-0.785271942615509,-0.214711531996727,7.699052810668945,-43.97054290771484,-2.905581474304199,2,192.168.1.118,10.97.20.126,1,0
2015-02-21 19:01:28.851,58,1424570485.123365,39.63829555315839,-106.3701797090314,2517.703,-1,-1,10,65,-9999,1424570488.806531,20.51861953735352,-43.40830993652344,5.520332336425781,188.5188598632812,179.3928070068359,10,22356.43614733333,0.8587493896484375,-0.6242218017578125,-0.1868896484375,22356.40136491667,0.3838459352869737,0.02643986330230668,-0.6667825663419731,22356.40136491667,2.814092344475793,1.251633783214385,0.8759202810977484,0.3797068893909454,0.03485568985342979,-0.6292886137962341,0.2527020573616028,0.1256312429904938,-0.05759429931640625,XTrueNorthZVertical,0.467345361497556,-0.4256006225083927,-0.7646682740016474,0.1254388052460726,0.6079546809196472,-0.7681331038475037,-0.2009048461914062,9.187106132507324,-43.72277450561523,-2.245537281036377,2,192.168.1.118,10.97.20.126,1,0
2015-02-21 19:01:28.890,59,1424570485.123365,39.63829555315839,-106.3701797090314,2517.703,-1,-1,10,65,-9999,1424570488.858475,22.10484313964844,-42.67805480957031,6.435577392578125,190.9720458984375,181.8459930419922,10,22356.48525445833,0.6818389892578125,-0.6072235107421875,-0.0806121826171875,22356.45314879167,0.2496593679700232,-0.2974226294883763,-0.4161705856500285,22356.45314879167,2.783081438051954,1.268082260262666,0.8583121736312448,0.2455203533172607,-0.2890068590641022,-0.3786770105361938,0.2074290663003922,0.1415822058916092,0.02564523927867413,XTrueNorthZVertical,0.4702823076758152,-0.4259041172181075,-0.7647946651958201,0.1119347757884999,0.623991847038269,-0.7567402720451355,-0.1948804706335068,10.58333587646484,-43.43923187255859,-1.467135429382324,2,192.168.1.118,10.97.20.126,1,0
2015-02-21 19:01:28.950,60,1424570485.123365,39.63829555315839,-106.3701797090314,2517.703,-1,-1,10,65,-9999,1424570488.909191,23.34994506835938,-42.08364868164062,6.818328857421875,193.7453308105469,184.6192779541016,10,22356.53429433333,0.68585205078125,-0.6663055419921875,-0.125946044921875,22356.504932375,0.1860564232362058,-0.3508957083838594,-0.5272417136534182,22356.504932375,2.757115296358597,1.266721526026651,0.8403009103054946,0.1819174587726593,-0.3424800336360931,-0.4897485375404358,0.05268701910972595,0.1257338225841522,0.1673076301813126,XTrueNorthZVertical,0.4676111200503661,-0.4259702771303045,-0.7685071432014416,0.0963637596514746,0.6366288065910339,-0.7448439598083496,-0.1997783333063126,11.37474727630615,-43.24696350097656,-1.20068883895874,2,192.168.1.118,10.97.20.126,1,0
2015-02-21 19:01:28.988,61,1424570485.123365,39.63829555315839,-106.3701797090314,2517.703,-1,-1,10,65,-9999,1424570488.961753,24.66326904296875,-41.89682006835938,6.868247985839844,195.4730529785156,186.3470001220703,10,22356.58328170834,0.7451324462890625,-0.750244140625,-0.167816162109375,22356.55671758333,0.1419603345388918,-0.172048462218498,-0.5488029321548088,22356.55671758333,2.734212735396429,1.272945830376135,0.8174398709248175,0.1378214210271835,-0.1636328846216202,-0.5113101005554199,0.08290746062994003,0.02972034737467766,0.09394589811563492,XTrueNorthZVertical,0.4694765974782181,-0.4233355803880249,-0.7704835343915212,0.08206018491566565,0.6539700031280518,-0.7293968796730042,-0.2007574290037155,12.35604858398438,-42.98153686523438,-1.020655632019043,2,192.168.1.118,10.97.20.126,1,0
2015-02-21 19:01:29.046,62,1424570485.123365,39.63829555315839,-106.3701797090314,2517.703,-1,-1,10,65,-9999,1424570489.016239,25.7548656463623,-41.96475219726562,7.167770385742188,196.586181640625,187.4601135253906,10,22356.63220558333,0.5891571044921875,-0.7864227294921875,-0.1269989013671875,22356.60850120833,0.09614384377738661,-0.2984570012557631,-0.4207618753693251,22356.60850120833,2.715678154907077,1.274639272307838,0.7978836845945096,0.09192866832017899,-0.290141373872757,-0.3832129240036011,0.04172268882393837,-0.07234323024749756,0.07793496549129486,XTrueNorthZVertical,0.469948115027639,-0.4210245479777762,-0.7727038731224788,0.06939642326973806,0.667826235294342,-0.7158800363540649,-0.2037741988897324,13.5935115814209,-42.61077499389648,-0.8150801658630371,2,192.168.1.118,10.97.20.126,1,0
2015-02-21 19:01:29.085,63,1424570485.123365,39.63829555315839,-106.3701797090314,2517.703,-1,-1,10,65,-9999,1424570489.016239,25.7548656463623,-41.96475219726562,7.167770385742188,196.586181640625,187.4601135253906,10,22356.68131516667,0.719146728515625,-0.6887664794921875,-0.180328369140625,22356.66028508333,-0.08999886587813778,0.02817038537864017,-0.2818881445338351,22356.66028508333,2.711175520215078,1.268558924538638,0.7829399659504329,-0.09421399235725403,0.03648592159152031,-0.2443395555019379,-0.08912765234708786,-0.07336585968732834,0.0581904910504818,XTrueNorthZVertical,0.4694988453479021,-0.4172227601577436,-0.7756714216980584,0.06188608973984042,0.6767131090164185,-0.7053664326667786,-0.2109920084476471,14.23666667938232,-42.39770126342773,-0.9373621940612793,2,192.168.1.118,10.97.20.126,1,0
2015-02-21 19:01:29.144,64,1424570485.123365,39.63829555315839,-106.3701797090314,2517.703,-1,-1,10,65,-9999,1424570489.091498,27.22170257568359,-41.523193359375,7.3009033203125,199.4996948242188,190.3736267089844,10,22356.73023633334,0.8682403564453125,-0.5728607177734375,-0.0936431884765625,22356.71206995834,0.02278307680951887,0.2769458501828661,-0.1330232985528039,22356.71206995834,2.711225196043432,1.281156535724043,0.7751826734022103,0.01856799237430096,0.2852613031864166,-0.09547510743141174,0.1517935693264008,0.08407813310623169,0.05779746174812317,XTrueNorthZVertical,0.4758599275191284,-0.4141904633095619,-0.7733929589828858,0.06218488883668224,0.6845406293869019,-0.6998465657234192,-0.2040071785449982,14.62394523620605,-42.26415252685547,-1.003949642181396,2,192.168.1.118,10.97.20.126,1,0
2015-02-21 19:01:29.183,65,1424570485.123365,39.63829555315839,-106.3701797090314,2517.703,-1,-1,10,65,-9999,1424570489.144016,28.00628662109375,-40.47027587890625,7.43402099609375,201.2021484375,192.0760955810547,10,22356.77924833334,0.85760498046875,-0.5581207275390625,-0.0994415283203125,22356.763853875,0.3571418864045312,0.03117389845603153,-0.09806185239446168,22356.71206995834,2.711225196043432,1.281156535724043,0.7751826734022103,0.01856799237430096,0.2852613031864166,-0.09547510743141174,0.1517935693264008,0.08407813310623169,0.05779746174812317,XTrueNorthZVertical,0.4758599275191284,-0.4141904633095619,-0.7733929589828858,0.06218488883668224,0.6845406293869019,-0.6998465657234192,-0.2040071785449982,14.62394523620605,-42.26415252685547,-1.003949642181396,2,192.168.1.118,10.97.20.126,1,0
2015-02-21 19:01:29.242,66,1424570485.123365,39.63829555315839,-106.3701797090314,2517.703,-1,-1,10,65,-9999,1424570489.194559,28.46680450439453,-40.11361694335938,8.282691955566406,202.136962890625,193.0109100341797,10,22356.82827470834,0.77850341796875,-0.710235595703125,-0.1178436279296875,22356.81563745833,0.4737665042290632,-0.1570460768497547,-0.05926944900804047,22356.81563745833,2.664817647308269,1.314959952306916,0.7779653280652068,0.4695515036582947,-0.1487307995557785,-0.02172197587788105,0.1141259893774986,0.05874982476234436,0.08716785162687302,XTrueNorthZVertical,0.4785937301235116,-0.425226034744752,-0.7664197134928421,0.0522658928011538,0.6891577243804932,-0.7018314599990845,-0.1802617162466049,14.96001625061035,-42.15775299072266,0.2199892997741699,2,192.168.1.118,10.97.20.126,1,0
2015-02-21 19:01:29.282,67,1424570485.123365,39.63829555315839,-106.3701797090314,2517.703,-1,-1,10,65,-9999,1424570489.246293,28.55208969116211,-40.06268310546875,8.732002258300781,201.837646484375,192.7115936279297,10,22356.87738541667,0.7559661865234375,-0.685943603515625,-0.1412353515625,22356.867422625,0.4544559231648986,0.006238188537401607,0.1274634171450455,22356.81563745833,2.664817647308269,1.314959952306916,0.7779653280652068,0.4695515036582947,-0.1487307995557785,-0.02172197587788105,0.1141259893774986,0.05874982476234436,0.08716785162687302,XTrueNorthZVertical,0.4785937301235116,-0.425226034744752,-0.7664197134928421,0.0522658928011538,0.6891577243804932,-0.7018314599990845,-0.1802617162466049,14.96001625061035,-42.15775299072266,0.2199892997741699,2,192.168.1.118,10.97.20.126,1,0
2015-02-21 19:01:29.341,68,1424570485.123365,39.63829555315839,-106.3701797090314,2517.703,-1,-1,10,65,-9999,1424570489.297733,28.62031364440918,-39.9947509765625,9.597320556640625,202.5318908691406,193.4058227539062,10,22356.92641916667,0.7981414794921875,-0.5868988037109375,-0.0153656005859375,22356.91920625,0.3536962885861867,0.02172047553457726,0.2006460186359869,22356.91920625,2.609620201451373,1.351733907657503,0.8027008520445138,0.3494813740253448,0.0300355851650238,0.238192692399025,0.08436451107263565,0.1278045028448105,0.1221285462379456,XTrueNorthZVertical,0.4754963727311496,-0.4454343273280815,-0.7571532711439426,0.04701514088418618,0.6781629323959351,-0.7192351818084717,-0.1509829163551331,14.460280418396,-42.27846527099609,2.134904384613037,2,192.168.1.118,10.97.20.126,1,0
2015-02-21 19:01:29.380,69,1424570485.123365,39.63829555315839,-106.3701797090314,2517.703,-1,-1,10,65,-9999,1424570489.350187,28.53503227233887,-39.5701904296875,10.34615325927734,203.8302612304688,194.7041931152344,10,22356.97530816667,0.7719879150390625,-0.6273956298828125,0.0164794921875,22356.970990125,0.4496739511115523,-0.01966930886299823,0.08164399690634119,22356.91920625,2.609620201451373,1.351733907657503,0.8027008520445138,0.3494813740253448,0.0300355851650238,0.238192692399025,0.08436451107263565,0.1278045028448105,0.1221285462379456,XTrueNorthZVertical,0.4754963727311496,-0.4454343273280815,-0.7571532711439426,0.04701514088418618,0.6781629323959351,-0.7192351818084717,-0.1509829163551331,14.460280418396,-42.27846527099609,2.134904384613037,2,192.168.1.118,10.97.20.126,1,0
2015-02-21 19:01:29.441,70,1424570485.123365,39.63829555315839,-106.3701797090314,2517.703,-1,-1,10,65,-9999,1424570489.401665,27.75045013427734,-39.33242797851562,11.24475860595703,203.535400390625,194.4093475341797,10,22357.02433179167,0.77569580078125,-0.6928558349609375,-0.0676727294921875,22357.022775,0.5159416548321031,-0.01375735755913133,0.05446537271764653,22356.970990125,2.586719738242787,1.369102049288508,0.815476643630643,0.4454590678215027,-0.01135427225381136,0.1191903427243233,0.1044827923178673,0.1063635870814323,0.09369007498025894,XTrueNorthZVertical,0.4741515399479892,-0.4544394464513947,-0.7526724376699578,0.04636106302596981,0.671625018119812,-0.7280524373054504,-0.1373302191495895,14.04862785339355,-42.37813949584961,2.802789211273193,2,192.168.1.118,10.97.20.126,1,0
2015-02-21 19:01:29.478,71,1424570485.123365,39.63829555315839,-106.3701797090314,2517.703,-1,-1,10,65,-9999,1424570489.45386,27.40932273864746,-39.19656372070312,12.04351043701172,203.0968017578125,193.9707489013672,10,22357.073443875,0.6907501220703125,-0.7380218505859375,-0.0147857666015625,22357.022775,0.5159416548321031,-0.01375735755913133,0.05446537271764653,22357.022775,2.553593914004954,1.392741783114389,0.8245229267245415,0.5117268562316895,-0.005442403722554445,0.09201133996248245,0.08785329014062881,0.04293979704380035,0.0570276603102684,XTrueNorthZVertical,0.4734024689111342,-0.4645080097586183,-0.7472170947027366,0.04229733563672486,0.6681739091873169,-0.7342239618301392,-0.1202448233962059,13.84417724609375,-42.38091278076172,3.650079727172852,2,192.168.1.118,10.97.20.126,1,0
2015-02-21 19:01:29.536,72,1424570485.123365,39.63829555315839,-106.3701797090314,2517.703,-1,-1,10,65,-9999,1424570489.506843,27.05114364624023,-39.48527526855469,12.92548370361328,203.1242370605469,193.9981842041016,10,22357.12235216667,0.648681640625,-0.6888427734375,-0.039886474609375,22357.12634254167,0.2645248668587366,0.1331074544432504,0.1001372538319604,22357.074558875,2.524613100575931,1.410818890318863,0.8355206284182848,0.3794239461421967,-0.05068294331431389,0.1912472397089005,0.02852383814752102,0.003623994765803218,0.0920686200261116,XTrueNorthZVertical,0.4708287135616057,-0.4742289824953478,-0.7428857018538227,0.03934550225296293,0.6622262597084045,-0.741645872592926,-0.1068543866276741,13.54383087158203,-42.36737442016602,4.764098167419434,2,192.168.1.118,10.97.20.126,1,0
2015-02-21 19:01:29.576,73,1424570485.123365,39.63829555315839,-106.3701797090314,2517.703,-1,-1,10,65,-9999,1424570489.558215,26.96586227416992,-39.09466552734375,13.84071350097656,204.4375915527344,195.3115234375,10,22357.171355625,0.7448577880859375,-0.6244049072265625,-0.0582733154296875,22357.12634254167,0.2645248668587366,0.1331074544432504,0.1001372538319604,22357.12634254167,2.504564518863247,1.428146104606545,0.8470460324235104,0.2603101432323456,0.141422227025032,0.1376824378967285,-0.006791774649173021,0.06048478931188583,0.05425639450550079,XTrueNorthZVertical,0.4697644314258583,-0.4819231722220486,-0.7385672525470648,0.03987340500499116,0.6554734110832214,-0.749327540397644,-0.09414286911487579,13.16530990600586,-42.41215515136719,5.386090278625488,2,192.168.1.118,10.97.20.126,1,0
2015-02-21 19:01:29.635,74,1424570485.123365,39.63829555315839,-106.3701797090314,2517.703,-1,-1,10,65,-9999,1424570489.608921,26.77824401855469,-38.80593872070312,14.48970031738281,205.0016174316406,195.8755645751953,10,22357.22036529167,0.683441162109375,-0.71771240234375,0.0438690185546875,22357.178127625,0.09919769059938047,0.04531155541882617,-0.007438208924591312,22357.178127625,2.492552971666743,1.44736640178529,0.8524486871946713,0.09498298168182373,0.05362625792622566,0.03010663390159607,0.09172322601079941,0.1284893304109573,0.02275493927299976,XTrueNorthZVertical,0.4726530133635147,-0.4858857903764298,-0.7340014928135169,0.04190436892764671,0.6531345844268799,-0.7528942227363586,-0.08102825284004211,12.8739652633667,-42.42719268798828,5.943110466003418,2,192.168.1.118,10.97.20.126,1,0
2015-02-21 19:01:29.674,75,1424570485.123365,39.63829555315839,-106.3701797090314,2517.703,-1,-1,10,65,-9999,1424570489.660433,26.89763832092285,-38.82293701171875,14.70602416992188,205.4053344726562,196.2792663574219,10,22357.269468625,0.6557769775390625,-0.7709197998046875,-0.02191162109375,22357.22991125,0.01846209794086531,-0.01464552178267275,-0.08161869687598544,22357.22991125,2.490541399546057,1.445873857083868,0.8517046760344388,0.01424743141978979,-0.006330900825560093,-0.04407422989606857,0.02987265214323997,0.03469196707010269,0.1259417831897736,XTrueNorthZVertical,0.4717937560302636,-0.486183367715811,-0.7344329815935915,0.04055391712215035,0.6535685062408447,-0.7524043917655945,-0.08207277208566666,12.85259628295898,-42.41276550292969,6.090524673461914,2,192.168.1.118,10.97.20.126,1,0
2015-02-21 19:01:29.736,76,1424570485.123365,39.63829555315839,-106.3701797090314,2517.703,-1,-1,10,65,-9999,1424570489.712754,26.99997711181641,-38.92483520507812,14.57291412353516,204.9673461914062,195.8412933349609,10,22357.31838808333,0.6890106201171875,-0.7544403076171875,-0.0029296875,22357.28169520833,0.009248625833627178,0.08703609916542462,-0.06949066127176459,22357.28169520833,2.488025055670984,1.452467093046868,0.8503910767963109,0.005034005735069513,0.09535062313079834,-0.03194661065936089,-0.01080445665866137,0.002255614846944809,0.06622078269720078,XTrueNorthZVertical,0.4739145196984449,-0.4862774716437755,-0.7329905980894657,0.04079303399124544,0.6550763249397278,-0.7515384554862976,-0.07787849754095078,12.89717483520508,-42.38496780395508,6.188999652862549,2,192.168.1.118,10.97.20.126,1,0
2015-02-21 19:01:29.772,77,1424570485.123365,39.63829555315839,-106.3701797090314,2517.703,-1,-1,10,65,-9999,1424570489.764815,26.88058662414551,-38.83992004394531,14.72267913818359,204.6672973632812,195.5412292480469,10,22357.3675045,0.7573394775390625,-0.6516876220703125,0.0458984375,22357.33348004167,-0.1660278539421559,0.2303152310761237,-0.06912367767355167,22357.33348004167,2.496642220365645,1.454767642632442,0.8476108976701885,-0.1702424436807632,0.2386296838521957,-0.03157996013760567,0.05251230299472809,0.01439570914953947,0.08584441989660263,XTrueNorthZVertical,0.4775088014027915,-0.48340347520064,-0.7323986780297101,0.04357339883669015,0.6573265790939331,-0.7497014999389648,-0.07661285251379013,12.93570709228516,-42.37792205810547,6.156759262084961,2,192.168.1.118,10.97.20.126,1,0
2015-02-21 19:01:29.835,78,1424570485.123365,39.63829555315839,-106.3701797090314,2517.703,-1,-1,10,65,-9999,1424570489.816056,26.81236267089844,-38.87388610839844,14.68939208984375,204.0394897460938,194.9134216308594,10,22357.41643179167,0.7614898681640625,-0.687225341796875,0.0223846435546875,22357.38526391667,-0.1237525684821291,0.144185938261871,-0.08659614495334353,22357.38526391667,2.507886935293801,1.455264101831141,0.8451580354947004,-0.1279671043157578,0.1525003015995026,-0.04905280470848083,0.09349635243415833,0.07498029619455338,0.1563322395086288,XTrueNorthZVertical,0.4809793254110422,-0.4800101670610902,-0.7321485450227984,0.04698591262450526,0.6591892242431641,-0.7480760216712952,-0.07649825513362885,12.94237899780273,-42.41165542602539,5.905295372009277,2,192.168.1.118,10.97.20.126,1,0
2015-02-21 19:01:29.869,79,1424570485.123365,39.63829555315839,-106.3701797090314,2517.703,-1,-1,10,65,-9999,1424570489.816056,26.81236267089844,-38.87388610839844,14.68939208984375,204.0394897460938,194.9134216308594,10,22357.465451125,0.741790771484375,-0.7227630615234375,-0.0190582275390625,22357.43704754167,-0.09525860903104427,0.1070990232375366,-0.05513116299016634,22357.43704754167,2.514741306316473,1.458363564937153,0.842704138539929,-0.09947310388088226,0.1154133006930351,-0.01758823543787003,0.07236680388450623,0.022812495008111,0.1011802703142166,XTrueNorthZVertical,0.4843312210524237,-0.4775908517071145,-0.7313609407054074,0.04941114255992966,0.6612452268600464,-0.7464452981948853,-0.07466049492359161,12.98359870910645,-42.41316604614258,5.80309009552002,2,192.168.1.118,10.97.20.126,1,0
2015-02-21 19:01:29.939,80,1424570485.123365,39.63829555315839,-106.3701797090314,2517.703,-1,-1,10,65,-9999,1424570489.919698,26.94881057739258,-39.14561462402344,14.68939208984375,203.1074829101562,193.9814147949219,10,22357.51448983333,0.7703704833984375,-0.6763916015625,-0.0198211669921875,22357.48883270834,-0.05243551133478814,0.1417904248613447,0.02831765818692155,22357.48883270834,2.520840455910171,1.460580215212768,0.8439210240210337,-0.05664996057748795,0.1501046121120453,0.06586021184921265,0.09633012861013412,0.04992786794900894,0.05260204151272774,XTrueNorthZVertical,0.4863110393355713,-0.4763971817187562,-0.7306044558771532,0.05257820120797684,0.6605058312416077,-0.7472545504570007,-0.07309459894895554,12.94249153137207,-42.43869018554688,5.707510948181152,2,192.168.1.118,10.97.20.126,1,0
2015-02-21 19:01:29.968,81,1424570485.123365,39.63829555315839,-106.3701797090314,2517.703,-1,-1,10,65,-9999,1424570489.919698,26.94881057739258,-39.14561462402344,14.68939208984375,203.1074829101562,193.9814147949219,10,22357.56360554167,0.7340240478515625,-0.6619110107421875,-0.00286865234375,22357.54061629167,-0.03921584599974381,-0.008929046502817671,0.05044692894882597,22357.54061629167,2.525768238488444,1.460379607897825,0.8480587143709508,-0.04343025758862495,-0.0006149248220026493,0.08798914402723312,0.1061068773269653,0.08682028204202652,0.06324221193790436,XTrueNorthZVertical,0.4864442903261869,-0.4763707265977165,-0.7302999713862718,0.05572140488233872,0.6574124097824097,-0.7499977946281433,-0.07288576662540436,12.70759391784668,-42.51924896240234,5.635341644287109,2,192.168.1.118,10.97.20.126,1,0
2015-02-21 19:01:30.035,82,1424570485.123365,39.63829555315839,-106.3701797090314,2517.703,-1,-1,10,65,-9999,1424570490.026789,26.11305618286133,-39.46826171875,14.20681762695312,200.6018981933594,191.475830078125,10,22357.612541375,0.7558746337890625,-0.7054290771484375,-0.0097198486328125,22357.59240020833,0.03172970017553107,0.03355769394776146,0.006434729825849455,22357.59240020833,2.512638231693098,1.479034019968229,0.8285470821722131,0.02758627757430077,0.04191450774669647,0.04389349371194839,0.04824058711528778,0.05839170515537262,0.04201149195432663,XTrueNorthZVertical,0.494681278399582,-0.4736250608674246,-0.7270422803292769,0.04877803862317241,0.673103392124176,-0.7369500398635864,-0.06193947046995163,13.17185974121094,-42.35145568847656,5.829468727111816,2,192.168.1.118,10.97.20.126,1,0
2015-02-21 19:01:30.067,83,1424570485.123365,39.63829555315839,-106.3701797090314,2517.703,-1,-1,10,65,-9999,1424570490.026789,26.11305618286133,-39.46826171875,14.20681762695312,200.6018981933594,191.475830078125,10,22357.66168425,0.777191162109375,-0.6879425048828125,-0.0173187255859375,22357.64418516667,0.03160053686266222,-0.1331897461209338,0.1317420517523668,22357.59240020833,2.512638231693098,1.479034019968229,0.8285470821722131,0.02758627757430077,0.04191450774669647,0.04389349371194839,0.04824058711528778,0.05839170515537262,0.04201149195432663,XTrueNorthZVertical,0.494681278399582,-0.4736250608674246,-0.7270422803292769,0.04877803862317241,0.673103392124176,-0.7369500398635864,-0.06193947046995163,13.17185974121094,-42.35145568847656,5.829468727111816,2,192.168.1.118,10.97.20.126,1,0
2015-02-21 19:01:30.140,84,1424570485.123365,39.63829555315839,-106.3701797090314,2517.703,-1,-1,10,65,-9999,1424570490.101247,25.36258316040039,-39.63807678222656,14.73931884765625,200.1756286621094,191.049560546875,10,22357.71059329167,0.6588134765625,-0.73345947265625,0.0519256591796875,22357.69596879167,0.08332258734141813,-0.3523540553967868,0.1702087505374713,22357.69596879167,2.497319295648852,1.483259876169884,0.8305485271281968,0.07924553751945496,-0.3441042006015778,0.2077057957649231,0.02543818205595016,0.05681341141462326,0.07115719467401505,XTrueNorthZVertical,0.4921027201495515,-0.4778621171491578,-0.726269209188606,0.04489750013896827,0.6718884706497192,-0.7383014559745789,-0.05896541848778725,13.36051940917969,-42.24798965454102,6.142505168914795,2,192.168.1.118,10.97.20.126,1,0
2015-02-21 19:01:30.165,85,1424570485.123365,39.63829555315839,-106.3701797090314,2517.703,-1,-1,10,65,-9999,1424570490.154201,25.22613525390625,-39.46826171875,14.63947296142578,200.8738403320312,191.7477722167969,10,22357.759607,0.7074127197265625,-0.7606964111328125,-0.0163421630859375,22357.74775258333,0.0424185635266731,-0.09350545008544511,0.1453992744545111,22357.74775258333,2.494402873296909,1.474065619920586,0.839620131884798,0.03834155574440956,-0.08525567501783371,0.1828959882259369,-0.01138012483716011,-0.009120003320276737,0.06667283922433853,XTrueNorthZVertical,0.4859128894026518,-0.4812933075524478,-0.7281800699519867,0.04471288026224868,0.6646241545677185,-0.744389533996582,-0.06449083238840103,13.27829456329346,-42.24654006958008,6.327958583831787,2,192.168.1.118,10.97.20.126,1,0
2015-02-21 19:01:30.236,86,1424570485.123365,39.63829555315839,-106.3701797090314,2517.703,-1,-1,10,65,-9999,1424570490.204976,25.10673713684082,-39.4512939453125,14.52299499511719,201.4757995605469,192.3497314453125,10,22357.80863295833,0.623260498046875,-0.730316162109375,-0.0042724609375,22357.79953754167,0.07009093778146845,-0.1950824088027024,0.1943961121897889,22357.74775258333,2.494402873296909,1.474065619920586,0.839620131884798,0.03834155574440956,-0.08525567501783371,0.1828959882259369,-0.01138012483716011,-0.009120003320276737,0.06667283922433853,XTrueNorthZVertical,0.4859128894026518,-0.4812933075524478,-0.7281800699519867,0.04471288026224868,0.6646241545677185,-0.744389533996582,-0.06449083238840103,13.27829456329346,-42.24654006958008,6.327958583831787,2,192.168.1.118,10.97.20.126,1,0
2015-02-21 19:01:30.262,87,1424570485.123365,39.63829555315839,-106.3701797090314,2517.703,-1,-1,10,65,-9999,1424570490.25716,24.66327857971191,-39.92680358886719,14.42314147949219,200.8996276855469,191.7735748291016,10,22357.85777591667,0.683197021484375,-0.814605712890625,0.0219879150390625,22357.85132145834,-0.08819350897517306,-0.0286084753779582,0.09629031763734097,22357.79953754167,2.492986038830515,1.469080537813753,0.8513208886574337,0.06601396948099136,-0.1868327260017395,0.2318924069404602,-0.003713489510118961,0.01675417460501194,0.06522046774625778,XTrueNorthZVertical,0.4809686566288063,-0.4849866546889647,-0.7288707008773013,0.04695356680759347,0.6555842161178589,-0.7521514892578125,-0.06691419333219528,12.90695190429688,-42.35945892333984,6.341368675231934,2,192.168.1.118,10.97.20.126,1,0
2015-02-21 19:01:30.338,88,1424570485.123365,39.63829555315839,-106.3701797090314,2517.703,-1,-1,10,65,-9999,1424570490.309518,24.44154739379883,-40.48722839355469,14.20681762695312,199.9570617675781,190.8310089111328,10,22357.906683125,0.6642608642578125,-0.7161102294921875,0.0118865966796875,22357.90310504167,-0.2403638705012107,-0.03644056582777223,0.2166356378208227,22357.90310504167,2.510956951615187,1.448109064311177,0.8686456066141054,-0.2444407492876053,-0.02819104120135307,0.2541312277317047,0.04289242252707481,0.02839324250817299,0.09385659545660019,XTrueNorthZVertical,0.473539132716817,-0.4860458167385303,-0.7325138373145743,0.05425561610093478,0.6410065293312073,-0.7634549140930176,-0.07904031127691269,12.14052963256836,-42.63425827026367,6.00447416305542,2,192.168.1.118,10.97.20.126,1,0
2015-02-21 19:01:30.360,89,1424570485.123365,39.63829555315839,-106.3701797090314,2517.703,-1,-1,10,65,-9999,1424570490.309518,24.44154739379883,-40.48722839355469,14.20681762695312,199.9570617675781,190.8310089111328,10,22357.95570016667,0.702789306640625,-0.6934356689453125,-0.029022216796875,22357.90310504167,-0.2403638705012107,-0.03644056582777223,0.2166356378208227,22357.90310504167,2.510956951615187,1.448109064311177,0.8686456066141054,-0.2444407492876053,-0.02819104120135307,0.2541312277317047,0.04289242252707481,0.02839324250817299,0.09385659545660019,XTrueNorthZVertical,0.473539132716817,-0.4860458167385303,-0.7325138373145743,0.05425561610093478,0.6410065293312073,-0.7634549140930176,-0.07904031127691269,12.14052963256836,-42.63425827026367,6.00447416305542,2,192.168.1.118,10.97.20.126,1,0
2015-02-21 19:01:30.439,90,1424570485.123365,39.63829555315839,-106.3701797090314,2517.703,-1,-1,10,65,-9999,1424570490.412526,23.82752990722656,-40.82687377929688,13.17508697509766,198.0189514160156,188.8928833007812,10,22358.00471833333,0.75787353515625,-0.6801910400390625,-0.035400390625,22358.006673875,-0.4312957427450245,0.04980856923553398,0.152417502875197,22357.95489004167,2.531599076189119,1.4406981993573,0.8761289884987798,-0.2994267344474792,0.3146365284919739,0.1354859620332718,0.037429329007864,0.07443429529666901,0.07489679008722305,XTrueNorthZVertical,0.4740549307548811,-0.4834764021876903,-0.7332214821535612,0.06252031015759316,0.6347203254699707,-0.7682666778564453,-0.08304498344659805,11.69685173034668,-42.81569671630859,5.579061508178711,2,192.168.1.118,10.97.20.126,1,0
2015-02-21 19:01:30.458,91,1424570485.123365,39.63829555315839,-106.3701797090314,2517.703,-1,-1,10,65,-9999,1424570490.412526,23.82752990722656,-40.82687377929688,13.17508697509766,198.0189514160156,188.8928833007812,10,22358.05373320833,0.67083740234375,-0.7076416015625,0.0060577392578125,22358.006673875,-0.4312957427450245,0.04980856923553398,0.152417502875197,22358.006673875,2.564156060889007,1.42455332992303,0.8813763193054305,-0.4353725612163544,0.05805791914463043,0.1899122893810272,0.1285736411809921,0.09142403304576874,0.05729206278920174,XTrueNorthZVertical,0.474725616816579,-0.4777963610950873,-0.7356046554072148,0.07233295877177864,0.6292998790740967,-0.7716150879859924,-0.09269244968891144,11.23765659332275,-43.02769470214844,4.843441486358643,2,192.168.1.118,10.97.20.126,1,0
2015-02-21 19:01:30.538,92,1424570485.123365,39.63829555315839,-106.3701797090314,2517.703,-1,-1,10,65,-9999,1424570490.516932,23.41818237304688,-41.57411193847656,11.44445037841797,195.1327209472656,186.0066680908203,10,22358.10276391667,0.7540740966796875,-0.72723388671875,-0.0526885986328125,22358.05845779167,-0.3887687885619852,0.1172400743524493,0.07846950888696674,22358.05845779167,2.59768348130441,1.400590338594699,0.8850770054904037,-0.3928455412387848,0.1254893392324448,0.1159639284014702,0.04675767943263054,0.06632214784622192,0.1133176237344742,XTrueNorthZVertical,0.4730013570141387,-0.4718471919108558,-0.7397261183025307,0.08022003221595748,0.624079704284668,-0.7739637494087219,-0.1072598844766617,10.91739940643311,-43.192626953125,4.041478633880615,2,192.168.1.118,10.97.20.126,1,0
2015-02-21 19:01:30.557,93,1424570485.123365,39.63829555315839,-106.3701797090314,2517.703,-1,-1,10,65,-9999,1424570490.516932,23.41818237304688,-41.57411193847656,11.44445037841797,195.1327209472656,186.0066680908203,10,22358.151889875,0.6724090576171875,-0.7521514892578125,-0.0382080078125,22358.110242625,-0.432119192154077,-0.02303128342311426,0.08331140206483981,22358.110242625,2.631471086532215,1.378854928121231,0.8861582970539137,-0.4361959099769592,-0.01478208880871534,0.120805487036705,0.1332948207855225,0.04741412028670311,0.06794979423284531,XTrueNorthZVertical,0.4726155946990934,-0.4650970890231412,-0.7433534709342429,0.08800485553917867,0.620779275894165,-0.7746480107307434,-0.1206383928656578,10.7070198059082,-43.30674743652344,3.318384170532227,2,192.168.1.118,10.97.20.126,1,0
2015-02-21 19:01:30.636,94,1424570485.123365,39.63829555315839,-106.3701797090314,2517.703,-1,-1,10,65,-9999,1424570490.619754,22.36069869995117,-42.28741455078125,9.547393798828125,193.8265075683594,184.700439453125,10,22358.20079229167,0.704254150390625,-0.7350921630859375,-0.0598907470703125,22358.213810125,-0.4115566590614662,0.04455974504309681,0.2454782050585988,22358.16202645834,2.666325978264029,1.350783386489335,0.8884871485334475,-0.4232867360115051,0.08953037858009338,0.1854250878095627,0.05465752631425858,0.01642931997776031,0.0744340717792511,XTrueNorthZVertical,0.469694506487174,-0.458886382688926,-0.7481556130365622,0.09525532509715408,0.615386426448822,-0.7761186361312866,-0.1376207172870636,10.39808082580566,-43.45296096801758,2.201425552368164,2,192.168.1.118,10.97.20.126,1,0
2015-02-21 19:01:30.654,95,1424570485.123365,39.63829555315839,-106.3701797090314,2517.703,-1,-1,10,65,-9999,1424570490.619754,22.36069869995117,-42.28741455078125,9.547393798828125,193.8265075683594,184.700439453125,10,22358.249927375,0.6430511474609375,-0.7248077392578125,-0.1041107177734375,22358.213810125,-0.4115566590614662,0.04455974504309681,0.2454782050585988,22358.213810125,2.702656240710453,1.328684552261235,0.8955873700654613,-0.4156332910060883,0.05280876532196999,0.2829715013504028,0.09170223027467728,0.05059588700532913,0.08130260556936264,XTrueNorthZVertical,0.4682065452221819,-0.4537096651347727,-0.7507904733918211,0.1060371432919738,0.6068298816680908,-0.7805763483047485,-0.1498603373765945,9.965158462524414,-43.58579254150391,1.449305534362793,2,192.168.1.118,10.97.20.126,1,0
2015-02-21 19:01:30.740,96,1424570485.123365,39.63829555315839,-106.3701797090314,2517.703,-1,-1,10,65,-9999,1424570490.723445,21.16676330566406,-43.00068664550781,7.816757202148438,192.7953491210938,183.6692810058594,10,22358.29884366667,0.667938232421875,-0.738128662109375,-0.1243896484375,22358.26559525,-0.3885301693283141,0.09520215001593459,0.2490513682931581,22358.26559525,2.740871516380456,1.301298567214173,0.9048417074813604,-0.3926067650318146,0.10345109552145,0.2865443229675293,0.0392707884311676,0.06476975232362747,0.04933222755789757,XTrueNorthZVertical,0.4646398140713365,-0.4492935433688803,-0.7540181965350202,0.1170544927796516,0.5955100655555725,-0.7863273620605469,-0.1644903123378754,9.384869575500488,-43.73366546630859,0.6457948684692383,2,192.168.1.118,10.97.20.126,1,0
2015-02-21 19:01:30.752,97,1424570485.123365,39.63829555315839,-106.3701797090314,2517.703,-1,-1,10,65,-9999,1424570490.723445,21.16676330566406,-43.00068664550781,7.816757202148438,192.7953491210938,183.6692810058594,10,22358.34785720833,0.6708526611328125,-0.742919921875,-0.1335906982421875,22358.317378875,-0.444855760067381,0.07196766740164728,0.2937746314271858,22358.317378875,2.779625066475922,1.275923313899752,0.9128369835555555,-0.4489323198795319,0.08021653443574905,0.3312672078609467,0.1047393977642059,0.03579435870051384,0.04734304919838905,XTrueNorthZVertical,0.4621365933693521,-0.4444915040486978,-0.7565510007730373,0.1284044198843956,0.5851104855537415,-0.7912417650222778,-0.1777141392230988,8.642316818237305,-43.88971710205078,-0.3594093322753906,2,192.168.1.118,10.97.20.126,1,0
2015-02-21 19:01:30.836,98,1424570485.123365,39.63829555315839,-106.3701797090314,2517.703,-1,-1,10,65,-9999,1424570490.827463,19.76815795898438,-44.08760070800781,5.98626708984375,184.8466186523438,175.7205657958984,10,22358.39693058333,0.636566162109375,-0.74560546875,-0.1477813720703125,22358.36916279167,-0.4612291407652971,-0.05813654028032076,0.3313382522866444,22358.36916279167,2.825058202267754,1.238593277693856,0.9225547461458483,-0.4653056561946869,-0.0498877689242363,0.3688304424285889,0.07183424383401871,0.05234998464584351,0.06890447437763214,XTrueNorthZVertical,0.4561767763862659,-0.439826691987364,-0.7607874422572779,0.1402060530931256,0.5707743763923645,-0.797146737575531,-0.1969104558229446,7.962356567382812,-44.00139999389648,-1.266472816467285,2,192.168.1.118,10.97.20.126,1,0
2015-02-21 19:01:30.850,99,1424570485.123365,39.63829555315839,-106.3701797090314,2517.703,-1,-1,10,65,-9999,1424570490.827463,19.76815795898438,-44.08760070800781,5.98626708984375,184.8466186523438,175.7205657958984,10,22358.445900625,0.669891357421875,-0.7492523193359375,-0.199920654296875,22358.42094766667,-0.4180433205285722,0.1140506726309704,0.3782887170403054,22358.42094766667,2.871134036636236,1.204662684142686,0.9332615174678861,-0.4221197962760925,0.1222993656992912,0.4157805144786835,0.09233727306127548,0.05564071610569954,0.04465046152472496,XTrueNorthZVertical,0.4513955773924099,-0.4355409450220885,-0.7635651418909416,0.1533441617015195,0.5557645559310913,-0.803565502166748,-0.2130922377109528,7.221940040588379,-44.09336853027344,-2.17826509475708,2,192.168.1.118,10.97.20.126,1,0
2015-02-21 19:01:30.934,100,1424570485.123365,39.63829555315839,-106.3701797090314,2517.703,-1,-1,10,65,-9999,1424570490.879289,18.6936149597168,-44.34233093261719,5.204154968261719,182.8634033203125,173.7373352050781,10,22358.49493733333,0.6682586669921875,-0.7977752685546875,-0.221893310546875,22358.47273158333,-0.4148067808557989,-0.003779025586822439,0.4729984485706843,22358.47273158333,2.915098385900091,1.174103307926648,0.9415901421474481,-0.4188774526119232,0.004476758651435375,0.5104650855064392,0.1344285905361176,0.0457538366317749,0.02643715776503086,XTrueNorthZVertical,0.4478089529341779,-0.4310186381700973,-0.7656392596491155,0.1657909503711879,0.5428022742271423,-0.8084949254989624,-0.2273801565170288,6.332703590393066,-44.16360473632812,-3.255601406097412,2,192.168.1.118,10.97.20.126,1,0
2015-02-21 19:01:30.948,101,1424570485.123365,39.63829555315839,-106.3701797090314,2517.703,-1,-1,10,65,-9999,1424570490.932241,17.15856170654297,-44.68199157714844,3.606643676757812,178.7533874511719,169.6273345947266,10,22358.5439595,0.61175537109375,-0.898406982421875,-0.2194671630859375,22358.52451520833,-0.3658237915581895,-0.1496451521804245,0.7872876761908595,22358.52451520833,2.969261177436495,1.126530676491034,0.9643109227959322,-0.369894415140152,-0.1413894593715668,0.8247538805007935,0.1197464168071747,-0.01714980415999889,0.02222810871899128,XTrueNorthZVertical,0.4375830770816829,-0.4313155395186447,-0.7676531154262773,0.1821995892334392,0.5146529674530029,-0.821656346321106,-0.2449759095907211,5.146045684814453,-44.2509765625,-4.061495780944824,2,192.168.1.118,10.97.20.126,1,0
2015-02-21 19:01:31.039,102,1424570485.123365,39.63829555315839,-106.3701797090314,2517.703,-1,-1,10,65,-9999,1424570490.982955,15.45294189453125,-45.49717712402344,2.907737731933594,176.0488586425781,166.9228057861328,10,22358.59309208333,0.673095703125,-0.8695831298828125,-0.3754730224609375,22358.576300375,-0.482632433814046,-0.1060156493060923,1.007797148133311,22358.576300375,3.040875617384911,1.060313814528259,0.9994311417638109,-0.4867028295993805,-0.09775989502668381,1.045262694358826,0.1833304613828659,-0.09278120845556259,0.005069379694759846,XTrueNorthZVertical,0.4224629843468387,-0.4352156940389142,-0.7684694402321318,0.2038800771712135,0.4718361794948578,-0.8411635160446167,-0.264224648475647,3.32703971862793,-44.34973907470703,-4.812268257141113,2,192.168.1.118,10.97.20.126,1,0
2015-02-21 19:01:31.046,103,1424570485.123365,39.63829555315839,-106.3701797090314,2517.703,-1,-1,10,65,-9999,1424570491.036419,12.8262939453125,-45.83682250976562,1.543182373046875,172.8058471679688,163.6797790527344,10,22358.642032875,0.51885986328125,-0.78192138671875,-0.335845947265625,22358.628084,-0.46223235354793,-0.444218199302416,0.8474958894831529,22358.576300375,3.040875617384911,1.060313814528259,0.9994311417638109,-0.4867028295993805,-0.09775989502668381,1.045262694358826,0.1833304613828659,-0.09278120845556259,0.005069379694759846,XTrueNorthZVertical,0.4224629843468387,-0.4352156940389142,-0.7684694402321318,0.2038800771712135,0.4718361794948578,-0.8411635160446167,-0.264224648475647,3.32703971862793,-44.34973907470703,-4.812268257141113,2,192.168.1.118,10.97.20.126,1,0
2015-02-21 19:01:31.135,104,1424570485.123365,39.63829555315839,-106.3701797090314,2517.703,-1,-1,10,65,-9999,1424570491.086449,9.892627716064453,-46.6180419921875,0.7777252197265625,169.4088745117188,160.2828216552734,10,22358.69107479167,0.208526611328125,-0.7856903076171875,-0.2696990966796875,22358.679867875,-0.2998354534359881,-1.014912049301567,1.612662018079269,22358.679867875,-3.044756726411371,0.8402637912222994,1.065185647448237,-0.3039697110652924,-1.00673508644104,1.65018630027771,-0.02622866444289684,0.07870576530694962,0.0529366210103035,XTrueNorthZVertical,0.3734132044708123,-0.446060603331228,-0.7756281228412054,0.244935852539976,0.3607470989227295,-0.8748788833618164,-0.3231850266456604,-1.745832443237305,-44.15421676635742,-6.963003635406494,2,192.168.1.118,10.97.20.126,1,0
2015-02-21 19:01:31.144,105,1424570485.123365,39.63829555315839,-106.3701797090314,2517.703,-1,-1,10,65,-9999,1424570491.138778,6.259654998779297,-46.97468566894531,0.0288848876953125,167.9607238769531,158.8346710205078,10,22358.74011079167,-0.095184326171875,-0.9041748046875,-0.3433074951171875,22358.73165291667,-0.3934093467614483,-1.126284913456463,2.125720002083034,22358.679867875,-3.044756726411371,0.8402637912222994,1.065185647448237,-0.3039697110652924,-1.00673508644104,1.65018630027771,-0.02622866444289684,0.07870576530694962,0.0529366210103035,XTrueNorthZVertical,0.3734132044708123,-0.446060603331228,-0.7756281228412054,0.244935852539976,0.3607470989227295,-0.8748788833618164,-0.3231850266456604,-1.745832443237305,-44.15421676635742,-6.963003635406494,2,192.168.1.118,10.97.20.126,1,0
2015-02-21 19:01:31.206,106,1424570485.123365,39.63829555315839,-106.3701797090314,2517.703,-1,-1,10,65,-9999,1424570491.190219,1.705657958984375,-46.85581970214844,-1.352294921875,165.630615234375,156.5045623779297,10,22358.78917408333,-0.1318206787109375,-0.943389892578125,-0.4186553955078125,22358.78343670833,-0.4426205689644775,0.1250519247779787,2.494208552627957,22358.73165291667,-2.863944864393162,0.6194996153685877,1.118584175217022,-0.3975435495376587,-1.118108034133911,2.163244009017944,-0.3111889362335205,0.02101894468069077,0.02822653204202652,XTrueNorthZVertical,0.3258169862678461,-0.4647204229620746,-0.7771450656841704,0.2718893281154518,0.253709077835083,-0.8994826674461365,-0.3557564318180084,-5.59607982635498,-43.76809310913086,-7.359634399414062,2,192.168.1.118,10.97.20.126,1,0
2015-02-21 19:01:31.243,107,1424570485.123365,39.63829555315839,-106.3701797090314,2517.703,-1,-1,10,65,-9999,1424570491.190219,1.705657958984375,-46.85581970214844,-1.352294921875,165.630615234375,156.5045623779297,10,22358.838265625,-0.1808013916015625,-1.041549682617188,-0.243865966796875,22358.83522029167,-0.1856697322459263,0.7150712695433988,2.828690400265331,22358.78343670833,-2.587446619803939,0.3466778394231525,1.152734978521879,-0.4467547535896301,0.1332287341356277,2.531732082366943,-0.2809505462646484,-0.03097700700163841,-0.03779603540897369,XTrueNorthZVertical,0.2859347388141391,-0.4767843999164268,-0.7686728843104104,0.3163226169286251,0.1379451900720596,-0.9138777256011963,-0.3818359076976776,-11.79451751708984,-42.38047027587891,-8.118593215942383,2,192.168.1.118,10.97.20.126,1,0
2015-02-21 19:01:31.339,108,1424570485.123365,39.63829555315839,-106.3701797090314,2517.703,-1,-1,10,65,-9999,1424570491.293898,-10.62595748901367,-44.93672180175781,-3.39910888671875,146.7919006347656,137.6658477783203,10,22358.88726925,-0.122222900390625,-1.014633178710938,-0.35992431640625,22358.8870055,-0.3913086452935938,0.8070302219838349,2.873219785272001,22358.83522029167,-2.245707380848966,0.06013749491017151,1.167794605314845,-0.1898038685321808,0.7232480049133301,2.86621356010437,-0.1682544350624084,-0.07632789760828018,0.107338547706604,XTrueNorthZVertical,0.2612664597997572,-0.4858020232680723,-0.7444882784744109,0.3761295977526808,0.0235705953091383,-0.919887900352478,-0.3914724588394165,-16.5629711151123,-40.57077789306641,-8.989225387573242,2,192.168.1.118,10.97.20.126,1,0
2015-02-21 19:01:31.343,109,1424570485.123365,39.63829555315839,-106.3701797090314,2517.703,-1,-1,10,65,-9999,1424570491.293898,-10.62595748901367,-44.93672180175781,-3.39910888671875,146.7919006347656,137.6658477783203,10,22358.93630179167,-0.1735992431640625,-0.9579620361328125,-0.329986572265625,22358.8870055,-0.3913086452935938,0.8070302219838349,2.873219785272001,22358.8870055,-1.892964132286092,-0.2220341842840881,1.138445721206812,-0.3954427242279053,0.8152068257331848,2.910742521286011,-0.04841484129428864,-0.1373199969530106,0.08991847187280655,XTrueNorthZVertical,0.2373985692205033,-0.4891643310901461,-0.7141257370695943,0.4408907439434772,-0.09227119386196136,-0.9079833626747131,-0.4087203443050385,-21.30976676940918,-38.00927352905273,-10.11509227752686,2,192.168.1.118,10.97.20.126,1,0
2015-02-21 19:01:31.406,110,1424570485.123365,39.63829555315839,-106.3701797090314,2517.703,-1,-1,10,65,-9999,1424570491.397345,-23.00875473022461,-37.76994323730469,-5.795372009277344,125.5139465332031,116.3878860473633,10,22358.985354375,-0.312408447265625,-0.88153076171875,-0.315093994140625,22358.99057304167,0.05468401824314204,0.5674487882108895,2.75981626078592,22358.938789125,-1.596250403215073,-0.4568344758897799,1.078673366134691,-0.09257473051548004,0.4928974807262421,2.897540092468262,0.03482408449053764,-0.07663028687238693,0.09405836462974548,XTrueNorthZVertical,0.2100605017475211,-0.4938138496798947,-0.6796230111212775,0.50013505190437,-0.2084233313798904,-0.881331741809845,-0.4240449368953705,-27.0573902130127,-33.60293197631836,-11.82652950286865,2,192.168.1.118,10.97.20.126,1,0
2015-02-21 19:01:31.440,111,1424570485.123365,39.63829555315839,-106.3701797090314,2517.703,-1,-1,10,65,-9999,1424570491.397345,-23.00875473022461,-37.76994323730469,-5.795372009277344,125.5139465332031,116.3878860473633,10,22359.03438483334,-0.3348236083984375,-0.80194091796875,-0.3839111328125,22358.99057304167,0.05468401824314204,0.5674487882108895,2.75981626078592,22358.99057304167,-1.353308494864871,-0.6400511551300465,1.003431383932662,0.05055294185876846,0.57562655210495,2.797337770462036,0.008553458377718925,-0.03821074962615967,0.1159452795982361,XTrueNorthZVertical,0.1832146841255151,-0.5009119094477853,-0.6391022941562011,0.5541371094029692,-0.3209618926048279,-0.8433200120925903,-0.4310392737388611,-30.90912055969238,-29.80742454528809,-12.54073429107666,2,192.168.1.118,10.97.20.126,1,0
2015-02-21 19:01:31.507,112,1424570485.123365,39.63829555315839,-106.3701797090314,2517.703,-1,-1,10,65,-9999,1424570491.500301,-33.25951766967773,-28.5482177734375,-6.710617065429688,104.6950988769531,95.56903839111328,10,22359.08343625,-0.5107879638671875,-0.943359375,-0.2675018310546875,22359.04235808333,0.3889986193640591,0.5236927851847787,2.739526169072824,22359.04235808333,-1.156636417644259,-0.7720392407951993,0.9231426946613019,0.3848686218261719,0.53187096118927,2.777046918869019,0.0860489085316658,-0.004439322277903557,0.04835912585258484,XTrueNorthZVertical,0.1612242706996067,-0.5078105992013513,-0.5938122935648306,0.6029279640275919,-0.4208725094795227,-0.7975016236305237,-0.4322702586650848,-34.03486633300781,-25.83110809326172,-13.24794960021973,2,192.168.1.118,10.97.20.126,1,0
2015-02-21 19:01:31.544,113,1424570485.123365,39.63829555315839,-106.3701797090314,2517.703,-1,-1,10,65,-9999,1424570491.500301,-33.25951766967773,-28.5482177734375,-6.710617065429688,104.6950988769531,95.56903839111328,10,22359.13245558333,-0.5966644287109375,-0.90863037109375,-0.260345458984375,22359.094141625,0.7423899760054317,-0.005862949139809443,2.9345190956629,22359.094141625,-0.9714181137087469,-0.9054673101601456,0.8339262023942728,0.7382604479789734,0.002315368037670851,2.972039222717285,-0.04285204410552979,-0.195002019405365,0.1796985566616058,XTrueNorthZVertical,0.1353550779128206,-0.5237063903297789,-0.5404989539544051,0.6444156580222108,-0.5286506414413452,-0.74057537317276,-0.4148212373256683,-37.66964721679688,-20.09078216552734,-13.3598051071167,2,192.168.1.118,10.97.20.126,1,0
2015-02-21 19:01:31.605,114,1424570485.123365,39.63829555315839,-106.3701797090314,2517.703,-1,-1,10,65,-9999,1424570491.553504,-37.72823715209961,-23.52127075195312,-6.64404296875,94.85111236572266,85.72505187988281,10,22359.181492375,-0.35955810546875,-0.8887786865234375,-0.458404541015625,22359.14592545834,1.15132874771535,0.1688524025942939,2.616232463246516,22359.14592545834,-0.7956291979665735,-1.025318580077489,0.7444186307618067,1.147199153900146,0.1770306378602982,2.653752088546753,0.04618316143751144,-0.2434914261102676,0.1007190495729446,XTrueNorthZVertical,0.1151640117511628,-0.5440068563652081,-0.4789353521822013,0.6792751717633801,-0.6287484765052795,-0.6775443553924561,-0.3815875947475433,-39.99368667602539,-15.46822738647461,-12.74225902557373,2,192.168.1.118,10.97.20.126,1,0
2015-02-21 19:01:31.641,115,1424570485.123365,39.63829555315839,-106.3701797090314,2517.703,-1,-1,10,65,-9999,1424570491.604978,-40.79834365844727,-18.29052734375,-5.612319946289062,86.58087921142578,77.45481872558594,10,22359.23051783333,-0.493408203125,-0.6416473388671875,-0.289459228515625,22359.19771041667,0.7619721995007843,0.2708362923261153,1.569735589732718,22359.19771041667,-0.6742040581479142,-1.092747343220003,0.6750409941973181,0.7578427195549011,0.2790144681930542,1.607254862785339,0.3822798728942871,-0.2576695680618286,-0.06762236356735229,XTrueNorthZVertical,0.104852864254019,-0.5562647944181495,-0.4290339677173371,0.7039213378016166,-0.6931624412536621,-0.6249293088912964,-0.3591507077217102,-41.37577056884766,-11.54466152191162,-12.48569297790527,2,192.168.1.118,10.97.20.126,1,0
2015-02-21 19:01:31.705,116,1424570485.123365,39.63829555315839,-106.3701797090314,2517.703,-1,-1,10,65,-9999,1424570491.657293,-42.46985244750977,-14.3165283203125,-5.845298767089844,78.20571136474609,69.07965087890625,10,22359.27965695833,-0.512786865234375,-0.599151611328125,-0.4401092529296875,22359.249494375,0.8386158451443927,1.328213244157323,0.936192469588242,22359.249494375,-0.6041334720544396,-1.092203099248425,0.637246671825364,0.8344864249229431,1.33639132976532,0.9737114310264587,0.1589124202728271,-0.005616448819637299,0.1546916514635086,XTrueNorthZVertical,0.1088475982472506,-0.5505264078155414,-0.3967575796803987,0.7263995715435886,-0.7134320735931396,-0.594984769821167,-0.3701457381248474,-41.77336120605469,-8.53691577911377,-13.53637886047363,2,192.168.1.118,10.97.20.126,1,0
2015-02-21 19:01:31.738,117,1424570485.123365,39.63829555315839,-106.3701797090314,2517.703,-1,-1,10,65,-9999,1424570491.708509,-42.72571182250977,-11.7181396484375,-7.326332092285156,73.24301147460938,64.11695098876953,10,22359.32856579167,0.2269439697265625,-0.912353515625,-0.5366973876953125,22359.30127795833,0.08657404071629587,1.119881608931476,0.1746258695214767,22359.30127795833,-0.5380144645124852,-1.043440202313161,0.6263166132537746,0.08244465291500092,1.12805962562561,0.2121444344520569,0.7543191313743591,-0.08152960240840912,-0.3917394876480103,XTrueNorthZVertical,0.1314626850626924,-0.5280651515839437,-0.367219714664399,0.7543304840715155,-0.7001199126243591,-0.5861644744873047,-0.4077295064926147,-40.91534423828125,-7.587793350219727,-16.41603469848633,2,192.168.1.118,10.97.20.126,1,0
2015-02-21 19:01:31.792,118,1424570485.123365,39.63829555315839,-106.3701797090314,2517.703,-1,-1,10,65,-9999,1424570491.760877,-43.04977035522461,-10.7161865234375,-8.208290100097656,71.39678955078125,62.27072906494141,10,22359.37764358334,-1.283554077148438,-0.796630859375,-0.05181884765625,22359.35306320833,-0.8408872552381212,-2.629522169718229,0.3822549628517604,22359.35306320833,-0.5675694278842827,-1.100542809116331,0.6120690754248383,-0.8450165987014771,-2.621344089508057,0.419773131608963,0.2706202268600464,-0.1925582140684128,-0.06473790854215622,XTrueNorthZVertical,0.1069245815441097,-0.5505812961218548,-0.3788137452679764,0.7361572906230568,-0.7296198606491089,-0.574562132358551,-0.3708547353744507,-40.98133087158203,-7.389612197875977,-16.34166717529297,2,192.168.1.118,10.97.20.126,1,0
2015-02-21 19:01:31.836,119,1424570485.123365,39.63829555315839,-106.3701797090314,2517.703,-1,-1,10,65,-9999,1424570491.812306,-43.88552474975586,-9.612274169921875,-6.294601440429688,73.88945007324219,64.76338958740234,10,22359.426612875,-1.045028686523438,-0.643829345703125,-0.136993408203125,22359.40484683333,-0.2730381939153928,-0.8688576372188965,0.6976355538866501,22359.40484683333,-0.5819810969109974,-1.198300549159906,0.5692853802248647,-0.2771674990653992,-0.8606798052787781,0.7351533770561218,-0.6487340331077576,-0.1951158493757248,0.3310635983943939,XTrueNorthZVertical,0.06686675213983231,-0.5850277580321772,-0.3790991944600569,0.7138313529601275,-0.7845240235328674,-0.5390302538871765,-0.3065427243709564,-43.12206268310547,-5.492397308349609,-10.55686569213867,2,192.168.1.118,10.97.20.126,1,0
2015-02-21 19:01:31.890,120,1424570485.123365,39.63829555315839,-106.3701797090314,2517.703,-1,-1,10,65,-9999,1424570491.864792,-44.27782821655273,-7.761138916015625,-4.247787475585938,74.30860900878906,65.18254852294922,10,22359.47574666667,-0.5306854248046875,-0.77008056640625,-0.4195404052734375,22359.45663075,0.1218436146127603,1.425715033774541,0.6720276621088841,22359.45663075,-0.566617958651725,-1.16315681436438,0.5388694807131499,0.1177143529057503,1.433892726898193,0.7095450758934021,0.1076626181602478,-0.1779350638389587,-0.03427909314632416,XTrueNorthZVertical,0.06553773541484174,-0.5705902509434577,-0.3655493445878498,0.7324652123858205,-0.7879604697227478,-0.5131660103797913,-0.3402631282806396,-43.14761734008789,-4.136205673217773,-11.05897521972656,2,192.168.1.118,10.97.20.126,1,0
2015-02-21 19:01:31.934,121,1424570485.123365,39.63829555315839,-106.3701797090314,2517.703,-1,-1,10,65,-9999,1424570491.916336,-44.43133926391602,-5.842041015625,-5.029899597167969,72.90415954589844,63.77810287475586,10,22359.52465675,-0.5572509765625,-0.4699859619140625,-0.40679931640625,22359.508415625,-0.3703618180556845,0.3917661763688694,0.8066552489023517,22359.45663075,-0.566617958651725,-1.16315681436438,0.5388694807131499,0.1177143529057503,1.433892726898193,0.7095450758934021,0.1076626181602478,-0.1779350638389587,-0.03427909314632416,XTrueNorthZVertical,0.06553773541484174,-0.5705902509434577,-0.3655493445878498,0.7324652123858205,-0.7879604697227478,-0.5131660103797913,-0.3402631282806396,-43.14761734008789,-4.136205673217773,-11.05897521972656,2,192.168.1.118,10.97.20.126,1,0
2015-02-21 19:01:31.988,122,1424570485.123365,39.63829555315839,-106.3701797090314,2517.703,-1,-1,10,65,-9999,1424570491.968908,-44.51662063598633,-4.228668212890625,-6.41107177734375,70.39283752441406,61.26677703857422,10,22359.5737915,-0.8013458251953125,-0.4994049072265625,-0.2671051025390625,22359.56019954167,-0.4314557987265383,-0.2303743532523234,1.106255012581868,22359.56019954167,-0.5528306335976549,-1.127654114601177,0.4447136289274255,-0.4355849623680115,-0.2221967577934265,1.143771767616272,0.05398687720298767,0.01851725205779076,0.04216483607888222,XTrueNorthZVertical,0.03706063214887223,-0.5523488544633823,-0.3383703099260063,0.760948635452702,-0.8155377507209778,-0.4301993846893311,-0.3870745003223419,-42.5132942199707,-0.0211944580078125,-13.91924953460693,2,192.168.1.118,10.97.20.126,1,0
2015-02-21 19:01:32.036,123,1424570485.123365,39.63829555315839,-106.3701797090314,2517.703,-1,-1,10,65,-9999,1424570492.020537,-44.94301986694336,-1.9019775390625,-6.793815612792969,67.95901489257812,58.83295822143555,10,22359.62269675,-0.543365478515625,-0.0774993896484375,-0.5710296630859375,22359.61198316667,0.07026510851675963,0.04815634409524882,0.9185117431112059,22359.56019954167,-0.5528306335976549,-1.127654114601177,0.4447136289274255,-0.4355849623680115,-0.2221967577934265,1.143771767616272,0.05398687720298767,0.01851725205779076,0.04216483607888222,XTrueNorthZVertical,0.03706063214887223,-0.5523488544633823,-0.3383703099260063,0.760948635452702,-0.8155377507209778,-0.4301993846893311,-0.3870745003223419,-42.5132942199707,-0.0211944580078125,-13.91924953460693,2,192.168.1.118,10.97.20.126,1,0
2015-02-21 19:01:32.086,124,1424570485.123365,39.63829555315839,-106.3701797090314,2517.703,-1,-1,10,65,-9999,1424570492.071825,-45.47176742553711,0.4586181640625,-6.477630615234375,65.17326354980469,56.04719924926758,10,22359.671734625,-0.7017822265625,-0.277801513671875,-0.4926300048828125,22359.663768375,0.4959359887234278,-1.279926937800878,0.8362930360416256,22359.61198316667,-0.5354877941645845,-1.130048772366753,0.3916501216305249,0.06613688170909882,0.05633433163166046,0.9560266733169556,0.1325195729732513,0.0648806095123291,-0.08614093065261841,XTrueNorthZVertical,0.01953308415271275,-0.549965617216677,-0.3196383894244918,0.7713544052043227,-0.8359497785568237,-0.3817141056060791,-0.3943125605583191,-42.45138549804688,2.330619812011719,-13.9131031036377,2,192.168.1.118,10.97.20.126,1,0
2015-02-21 19:01:32.136,125,1424570485.123365,39.63829555315839,-106.3701797090314,2517.703,-1,-1,10,65,-9999,1424570492.123368,-45.74466323852539,2.870208740234375,-4.946685791015625,61.08969116210938,51.96363067626953,10,22359.720752,-0.862396240234375,-0.1340484619140625,-0.2892303466796875,22359.715552,0.4106559779808014,-1.014004177685959,0.6144477224963899,22359.663768375,-0.4994492338869586,-1.177588392723985,0.3589458510784611,0.4918362498283386,-1.271858215332031,0.8738888502120972,0.2835173010826111,0.1484676450490952,-0.1754301935434341,XTrueNorthZVertical,0.008801572927721827,-0.5661761320039983,-0.2982832498081341,0.7683711750618458,-0.8648161292076111,-0.351287454366684,-0.3587342500686646,-42.46086883544922,3.968140602111816,-13.5075740814209,2,192.168.1.118,10.97.20.126,1,0
2015-02-21 19:01:32.184,126,1424570485.123365,39.63829555315839,-106.3701797090314,2517.703,-1,-1,10,65,-9999,1424570492.175437,-46.08578872680664,5.010040283203125,-2.517135620117188,59.61044311523438,50.48438262939453,10,22359.76979541667,-0.9693450927734375,-0.1102294921875,-0.2062530517578125,22359.76733591667,0.4784289003494649,-0.4289713357456034,0.8282974275008806,22359.76733591667,-0.4299719367236456,-1.297899339596229,0.3006649981106311,0.4743292331695557,-0.4209030270576477,0.8658934831619263,-0.02443511039018631,0.2000098079442978,0.0348668172955513,XTrueNorthZVertical,-0.01089881432918886,-0.6092335002445097,-0.2564779984059454,0.7502898335168585,-0.9197940230369568,-0.2961554527282715,-0.2574315071105957,-43.28701019287109,6.921022415161133,-8.914066314697266,2,192.168.1.118,10.97.20.126,3,0
2015-02-21 19:01:32.242,127,1424570485.123365,39.63829555315839,-106.3701797090314,2517.703,-1,-1,10,65,-9999,1424570492.226857,-46.00050735473633,6.45355224609375,-1.269081115722656,57.51705932617188,48.39099884033203,10,22359.818807625,-0.9256134033203125,-0.2209014892578125,-0.169403076171875,22359.76733591667,0.4784289003494649,-0.4289713357456034,0.8282974275008806,22359.76733591667,-0.4299719367236456,-1.297899339596229,0.3006649981106311,0.4743292331695557,-0.4209030270576477,0.8658934831619263,-0.02443511039018631,0.2000098079442978,0.0348668172955513,XTrueNorthZVertical,-0.01089881432918886,-0.6092335002445097,-0.2564779984059454,0.7502898335168585,-0.9197940230369568,-0.2961554527282715,-0.2574315071105957,-43.28701019287109,6.921022415161133,-8.914066314697266,2,192.168.1.118,10.97.20.126,3,0
2015-02-21 19:01:32.282,128,1424570485.123365,39.63829555315839,-106.3701797090314,2517.703,-1,-1,10,65,-9999,1424570492.278488,-45.53998947143555,7.8631591796875,-0.3205642700195312,54.10461807250977,44.97855758666992,10,22359.86783216667,-0.950897216796875,-0.109100341796875,-0.2429046630859375,22359.87090475,0.5508501040847527,-0.4265404023025791,0.787740413576173,22359.81912079167,-0.3923869346619336,-1.325592294897877,0.2650400467116616,0.5313975214958191,-0.3219266533851624,0.7813458442687988,0.01060092821717262,0.04104642570018768,0.06487470120191574,XTrueNorthZVertical,-0.01673919611361617,-0.6185312533145914,-0.232061239636491,0.7505241561495281,-0.9362143278121948,-0.2619479298591614,-0.2342777699232101,-43.12905883789062,8.485568046569824,-8.306958198547363,2,192.168.1.118,10.97.20.126,3,0
2015-02-21 19:01:32.335,129,1424570485.123365,39.63829555315839,-106.3701797090314,2517.703,-1,-1,10,65,-9999,1424570492.278488,-45.53998947143555,7.8631591796875,-0.3205642700195312,54.10461807250977,44.97855758666992,10,22359.91684520834,-1.072372436523438,-0.1221160888671875,-0.19879150390625,22359.87090475,0.5508501040847527,-0.4265404023025791,0.787740413576173,22359.87090475,-0.357621210841041,-1.354172614533366,0.2308642789589541,0.5467539429664612,-0.4184736609458923,0.8253464102745056,-0.0001794339768821374,0.1197186186909676,-0.03367358073592186,XTrueNorthZVertical,-0.02235460382972472,-0.6283985449318972,-0.2087113130462368,0.7490361594346709,-0.9507178068161011,-0.228818953037262,-0.2092310786247253,-42.84694671630859,10.33950614929199,-7.639382362365723,2,192.168.1.118,10.97.20.126,3,0
2015-02-21 19:01:32.380,130,1424570485.123365,39.63829555315839,-106.3701797090314,2517.703,-1,-1,10,65,-9999,1424570492.330145,-45.48881912231445,9.476531982421875,0.1287307739257812,51.12700653076172,42.00094604492188,10,22359.96598108334,-1.11297607421875,-0.0858612060546875,-0.1981201171875,22359.922688375,0.6326408411671572,-0.3512443161705507,0.7318715549640546,22359.922688375,-0.3175105759577097,-1.380733557819983,0.1969825710868938,0.6285446882247925,-0.3431777656078339,0.7694780230522156,-0.1093702018260956,0.07359506189823151,-0.01352438703179359,XTrueNorthZVertical,-0.02532459671340116,-0.6377500344438432,-0.183130494347624,0.7477277715366807,-0.9630022644996643,-0.195711150765419,-0.1852671205997467,-42.5590934753418,11.74314308166504,-7.207530498504639,2,192.168.1.118,10.97.20.126,3,0
2015-02-21 19:01:32.437,131,1424570485.123365,39.63829555315839,-106.3701797090314,2517.703,-1,-1,10,65,-9999,1424570492.38259,-45.3864860534668,11.20880126953125,0.9274978637695312,47.14864349365234,38.0225830078125,10,22360.01489379167,-1.061782836914062,-0.1161346435546875,-0.18792724609375,22359.97447354167,0.3173262965273015,-0.217822608718671,0.5859537630453051,22359.97447354167,-0.2886247064690169,-1.401273801501586,0.1673815705225334,0.3132302165031433,-0.2097561657428741,0.6235598921775818,-0.1410858929157257,0.08073987811803818,-0.03176622465252876,XTrueNorthZVertical,-0.02915475038636661,-0.6449597307350885,-0.1628823156530647,0.7460873524102668,-0.9718902111053467,-0.1666010916233063,-0.1663538962602615,-42.25594329833984,12.97404193878174,-6.872817039489746,2,192.168.1.118,10.97.20.126,3,0
2015-02-21 19:01:32.479,132,1424570485.123365,39.63829555315839,-106.3701797090314,2517.703,-1,-1,10,65,-9999,1424570492.434055,-45.23298263549805,12.95803833007812,1.410072326660156,44.201171875,35.07511138916016,10,22360.06403895834,-0.8612518310546875,-0.1546783447265625,-0.204986572265625,22360.07804108334,0.05222671950532592,-0.06283915013318268,0.4283923645246202,22360.02625716667,-0.2729152695537287,-1.400907204114384,0.1383433760942072,0.1559508740901947,0.1961110383272171,0.5597758293151855,-0.03843101114034653,-0.004355181939899921,-0.03655229136347771,XTrueNorthZVertical,-0.03512153389628693,-0.644234133529494,-0.1478924100837925,0.7495710333323433,-0.9761869311332703,-0.1379025131464005,-0.167457714676857,-41.76968002319336,14.46546745300293,-6.86806058883667,2,192.168.1.118,10.97.20.126,3,0
2015-02-21 19:01:32.538,133,1424570485.123365,39.63829555315839,-106.3701797090314,2517.703,-1,-1,10,65,-9999,1424570492.485882,-44.82362747192383,14.38455200195312,1.243667602539062,38.33016204833984,29.2041015625,10,22360.11294525,-0.869415283203125,-0.168426513671875,-0.134796142578125,22360.07804108334,0.05222671950532592,-0.06283915013318268,0.4283923645246202,22360.07804108334,-0.2650131460896228,-1.399035573881147,0.1160963067280067,0.04812724515795708,-0.05477345734834671,0.4659991860389709,0.1101530715823174,-0.02015064284205437,-0.01980828121304512,XTrueNorthZVertical,-0.0409198509237663,-0.6429946416687834,-0.137946865905165,0.7522327822500077,-0.9786528348922729,-0.1158356815576553,-0.1697669178247452,-42.77507400512695,14.89767646789551,-1.610237598419189,2,192.168.1.118,10.97.20.126,3,0
2015-02-21 19:01:32.576,134,1424570485.123365,39.63829555315839,-106.3701797090314,2517.703,-1,-1,10,65,-9999,1424570492.537426,-44.36311721801758,15.65829467773438,0.8609237670898438,35.84346771240234,26.71740913391113,10,22360.1620925,-0.837738037109375,-0.1159820556640625,-0.086639404296875,22360.129826,0.02584438048256496,-0.1647095892025667,0.4481365082142496,22360.129826,-0.2579471187204327,-1.403058725586898,0.09548057712553377,0.02174416929483414,-0.1566420942544937,0.4857311546802521,0.1285230964422226,-0.08676282316446304,0.0369650200009346,XTrueNorthZVertical,-0.04676256644655453,-0.6439855673616433,-0.1286758364121286,0.7526874653213701,-0.9814741611480713,-0.09533556550741196,-0.1661916971206665,-42.49556350708008,15.68038368225098,-1.578971862792969,2,192.168.1.118,10.97.20.126,3,0
2015-02-21 19:01:32.634,135,1424570485.123365,39.63829555315839,-106.3701797090314,2517.703,-1,-1,10,65,-9999,1424570492.589794,-43.9025993347168,16.62628173828125,1.676322937011719,34.84440612792969,25.71834564208984,10,22360.21101383333,-0.9883880615234375,-0.1318206787109375,-0.01300048828125,22360.18160991667,0.01001188780204389,-0.3884643892493891,0.4293495046203946,22360.18160991667,-0.2557796555374325,-1.420829310576901,0.07127474883021437,0.005911722779273987,-0.3803969919681549,0.466943770647049,0.06889191269874573,-0.04809405282139778,0.1052487194538116,XTrueNorthZVertical,-0.0563330502100084,-0.6498565176006303,-0.1196728964264685,0.7484594389584204,-0.9862655401229858,-0.07121441513299942,-0.1490261852741241,-42.03620147705078,16.92302513122559,-0.8998427391052246,2,192.168.1.118,10.97.20.126,3,0
2015-02-21 19:01:32.674,136,1424570485.123365,39.63829555315839,-106.3701797090314,2517.703,-1,-1,10,65,-9999,1424570492.641582,-43.52737045288086,17.84906005859375,2.341941833496094,33.74148178100586,24.61542129516602,10,22360.26015508334,-1.051727294921875,-0.0917816162109375,-0.018218994140625,22360.23339354167,0.1109153330796201,-0.4060974451429128,0.5727287713880806,22360.23339354167,-0.2486256792789361,-1.452296620966034,0.05240602228640264,0.1068515703082085,-0.398022323846817,0.6102824211120605,-0.01917931996285915,-0.05972428619861603,0.1150542870163918,XTrueNorthZVertical,-0.06286279216043698,-0.6610734724687691,-0.1099447266375452,0.7395554951208924,-0.9916238784790039,-0.05238203704357147,-0.1180602684617043,-41.77971267700195,17.56778144836426,0.2636137008666992,2,192.168.1.118,10.97.20.126,3,0
2015-02-21 19:01:32.735,137,1424570485.123365,39.63829555315839,-106.3701797090314,2517.703,-1,-1,10,65,-9999,1424570492.693911,-43.33974838256836,18.74917602539062,3.39031982421875,31.79841423034668,22.67235374450684,10,22360.30906879167,-0.998077392578125,-0.0973358154296875,-0.02215576171875,22360.28517854167,0.2744089229284566,-0.4168973623115111,0.7097076631079793,22360.28517854167,-0.2339911592856465,-1.475209755130835,0.01955415728356557,0.2703472971916199,-0.4088219404220581,0.7472589612007141,-0.04953973367810249,-0.07929352670907974,0.07175645232200623,XTrueNorthZVertical,-0.07131216092816613,-0.6687325007109962,-0.09291493179923473,0.7342194995805765,-0.9952448010444641,-0.01955291070044041,-0.09542283415794373,-41.24948883056641,18.75706672668457,0.9448051452636719,2,192.168.1.118,10.97.20.126,3,0
2015-02-21 19:01:32.772,138,1424570485.123365,39.63829555315839,-106.3701797090314,2517.703,-1,-1,10,65,-9999,1424570492.744476,-42.74277877807617,19.98892211914062,3.606643676757812,28.30967712402344,19.18361663818359,10,22360.35811341667,-0.85260009765625,-0.0193939208984375,-0.158843994140625,22360.33696254167,0.1673221502319344,0.007959123233810811,0.5658442336541168,22360.33696254167,-0.2183720419187173,-1.485342353119849,-0.0117954939008452,0.1632618755102158,0.01603533141314983,0.6033880114555359,0.05051149055361748,-0.08697527647018433,0.03146529197692871,XTrueNorthZVertical,-0.07800878670959681,-0.6717459281663876,-0.07630775430416017,0.7326999411355701,-0.9962817430496216,0.0117952199652791,-0.08534407615661621,-40.39331817626953,20.51160621643066,1.376430511474609,2,192.168.1.118,10.97.20.126,3,0
2015-02-21 19:01:32.836,139,1424570485.123365,39.63829555315839,-106.3701797090314,2517.703,-1,-1,10,65,-9999,1424570492.796146,-41.90702438354492,21.39852905273438,3.922821044921875,26.95210838317871,17.82604789733887,10,22360.40712791667,-0.73614501953125,-0.061065673828125,-0.196533203125,22360.38874629167,-0.1031173310917591,0.2457586359213842,0.5407553919728073,22360.38874629167,-0.2156348580133351,-1.479104464001246,-0.04216090080305544,-0.1071775630116463,0.2538347542285919,0.5782987475395203,0.2286485135555267,-0.0555151104927063,-0.08196458220481873,XTrueNorthZVertical,-0.08798954885921889,-0.6682191283470792,-0.06535665442847148,0.7358461683283909,-0.9949143528938293,0.0421484112739563,-0.09148207306861877,-39.84138870239258,21.57452201843262,1.201836824417114,2,192.168.1.118,10.97.20.126,3,0
2015-02-21 19:01:32.870,140,1424570485.123365,39.63829555315839,-106.3701797090314,2517.703,-1,-1,10,65,-9999,1424570492.848085,-41.44651412963867,22.43450927734375,3.639938354492188,25.52563095092773,16.39957046508789,10,22360.456274625,-0.6757965087890625,0.105316162109375,-0.2473907470703125,22360.44053116667,-0.4591646582882677,0.1892498196993198,0.162402492750231,22360.44053116667,-0.2311242850537736,-1.465232465764832,-0.06301557368060672,-0.4632248282432556,0.1973258554935455,0.199945479631424,0.2550480663776398,0.01191626023501158,-0.2105150520801544,XTrueNorthZVertical,-0.1003433818738296,-0.6613258034829247,-0.06474947543645397,0.7405315204037758,-0.9924595952033997,0.06297387927770615,-0.1051587760448456,-39.34663772583008,22.47880935668945,0.886375904083252,2,192.168.1.118,10.97.20.126,3,0
2015-02-21 19:01:32.936,141,1424570485.123365,39.63829555315839,-106.3701797090314,2517.703,-1,-1,10,65,-9999,1424570492.900158,-40.91776657104492,23.57235717773438,3.656570434570312,25.6420726776123,16.51601219177246,10,22360.50520220834,-0.8080902099609375,0.002227783203125,-0.042694091796875,22360.49231491667,-0.1470200742939334,0.3931041485005252,0.5187662034842411,22360.44053116667,-0.2311242850537736,-1.465232465764832,-0.06301557368060672,-0.4632248282432556,0.1973258554935455,0.199945479631424,0.2550480663776398,0.01191626023501158,-0.2105150520801544,XTrueNorthZVertical,-0.1003433818738296,-0.6613258034829247,-0.06474947543645397,0.7405315204037758,-0.9924595952033997,0.06297387927770615,-0.1051587760448456,-39.34663772583008,22.47880935668945,0.886375904083252,2,192.168.1.118,10.97.20.126,3,0
2015-02-21 19:01:32.968,142,1424570485.123365,39.63829555315839,-106.3701797090314,2517.703,-1,-1,10,65,-9999,1424570492.952853,-40.18435287475586,23.89501953125,3.173988342285156,25.04336929321289,15.91730976104736,10,22360.55436683333,-0.795806884765625,0.2390899658203125,0.0417938232421875,22360.54409891667,-0.1127302773625091,-0.5598374738154431,0.8424478676369077,22360.54409891667,-0.2437614770891149,-1.451085288938152,-0.1186689937997626,-0.1167903915047646,-0.5517615675926208,0.8799901604652405,0.1557520031929016,0.07019270956516266,0.1265657693147659,XTrueNorthZVertical,-0.1245662115736757,-0.652066370272353,-0.05174222706607896,0.746066679024938,-0.9858606457710266,0.1183906644582748,-0.1185854151844978,-38.29775238037109,24.23360252380371,0.5052652359008789,2,192.168.1.118,10.97.20.126,3,0
2015-02-21 19:01:33.034,143,1424570485.123365,39.63829555315839,-106.3701797090314,2517.703,-1,-1,10,65,-9999,1424570493.007506,-38.97336959838867,25.30459594726562,3.956108093261719,22.86179351806641,13.73573303222656,10,22360.60329345833,-1.128799438476562,0.22381591796875,0.1344146728515625,22360.59588370833,-0.4741755657724994,-1.884961451108274,1.004985648970515,22360.54409891667,-0.2437614770891149,-1.451085288938152,-0.1186689937997626,-0.1167903915047646,-0.5517615675926208,0.8799901604652405,0.1557520031929016,0.07019270956516266,0.1265657693147659,XTrueNorthZVertical,-0.1245662115736757,-0.652066370272353,-0.05174222706607896,0.746066679024938,-0.9858606457710266,0.1183906644582748,-0.1185854151844978,-38.29775238037109,24.23360252380371,0.5052652359008789,2,192.168.1.118,10.97.20.126,3,0
2015-02-21 19:01:33.068,144,1424570485.123365,39.63829555315839,-106.3701797090314,2517.703,-1,-1,10,65,-9999,1424570493.007506,-38.97336959838867,25.30459594726562,3.956108093261719,22.86179351806641,13.73573303222656,10,22360.65247891667,-1.491012573242188,0.4097747802734375,0.127349853515625,22360.64766766667,-0.6804091626915815,-1.54739779345746,0.528345061293038,22360.59588370833,-0.2518602172967631,-1.518330691325029,-0.1687955351401473,-0.4782356321811676,-1.876885652542114,1.042527556419373,-0.03902134299278259,-0.009273200295865536,0.1717066317796707,XTrueNorthZVertical,-0.1468092633428878,-0.6727547168738043,-0.03322156941301067,0.7243925029744158,-0.9844313859939575,0.1679951250553131,-0.05169626325368881,-37.21156692504883,25.79147911071777,2.083114624023438,2,192.168.1.118,10.97.20.126,3,0
2015-02-21 19:01:33.136,145,1424570485.123365,39.63829555315839,-106.3701797090314,2517.703,-1,-1,10,65,-9999,1424570493.083551,-36.10792922973633,27.17269897460938,8.449104309082031,19.76729011535645,10.6412296295166,10,22360.70138995834,-1.41705322265625,0.3551788330078125,0.17596435546875,22360.69945129167,-0.7469599604360077,-0.3157656841285151,0.4582293561134319,22360.64766766667,-0.2862374338134898,-1.61559059356938,-0.206728639479562,-0.6844392418861389,-1.539419651031494,0.5659658312797546,-0.4691887497901917,0.2167530357837677,0.1015599071979523,XTrueNorthZVertical,-0.1731164854920056,-0.7013869109355,-0.02423229170523694,0.691013689862221,-0.9777259230613708,0.2052592933177948,0.04382583126425743,-35.30432891845703,27.55266189575195,6.978248596191406,2,192.168.1.118,10.97.20.126,3,0
2015-02-21 19:01:33.164,146,1424570485.123365,39.63829555315839,-106.3701797090314,2517.703,-1,-1,10,65,-9999,1424570493.13463,-34.48759078979492,27.66525268554688,11.59421539306641,18.79314041137695,9.667080879211426,10,22360.75042891667,-1.063186645507812,0.3527984619140625,0.1721343994140625,22360.7512365,-0.8295967837967304,0.5815329156357736,0.8577333470295265,22360.69945129167,-0.3211783975902999,-1.668436827180848,-0.2303233157069728,-0.750990092754364,-0.3077876567840576,0.4958498179912567,-0.4964224100112915,0.1049443781375885,0.06553506851196289,XTrueNorthZVertical,-0.1938612697630259,-0.7140541703068559,-0.02267750154389815,0.6723319275447337,-0.968955397605896,0.228292316198349,0.09491109848022461,-34.17319869995117,28.1605224609375,9.665317535400391,2,192.168.1.118,10.97.20.126,3,0
2015-02-21 19:01:33.234,147,1424570485.123365,39.63829555315839,-106.3701797090314,2517.703,-1,-1,10,65,-9999,1424570493.186453,-33.15720748901367,28.34454345703125,13.42469024658203,20.89360427856445,11.76754379272461,10,22360.79944029167,-0.82373046875,0.247955322265625,0.20849609375,22360.7512365,-0.8295967837967304,0.5815329156357736,0.8577333470295265,22360.7512365,-0.3674477450550425,-1.666475773664807,-0.2585302533707033,-0.8336268067359924,0.5895107984542847,0.8953534364700317,-0.100841611623764,0.09713853895664215,0.07977575063705444,XTrueNorthZVertical,-0.2193123674510754,-0.7057488285782274,-0.02803335228651267,0.673078633981261,-0.9623450636863708,0.2556599378585815,0.09235864877700806,-33.45330429077148,28.60498809814453,10.8107271194458,2,192.168.1.118,10.97.20.126,3,0
