loggingTime,loggingSample,locationTimestamp_since1970,locationLatitude,locationLongitude,locationAltitude,locationSpeed,locationCourse,locationVerticalAccuracy,locationHorizontalAccuracy,locationFloor,locationHeadingTimestamp_since1970,locationHeadingX,locationHeadingY,locationHeadingZ,locationTrueHeading,locationMagneticHeading,locationHeadingAccuracy,accelerometerTimestamp_sinceReboot,accelerometerAccelerationX,accelerometerAccelerationY,accelerometerAccelerationZ,gyroTimestamp_sinceReboot,gyroRotationX,gyroRotationY,gyroRotationZ,motionTimestamp_sinceReboot,motionYaw,motionRoll,motionPitch,motionRotationRateX,motionRotationRateY,motionRotationRateZ,motionUserAccelerationX,motionUserAccelerationY,motionUserAccelerationZ,motionAttitudeReferenceFrame,motionQuaternionX,motionQuaternionY,motionQuaternionZ,motionQuaternionW,motionGravityX,motionGravityY,motionGravityZ,motionMagneticFieldX,motionMagneticFieldY,motionMagneticFieldZ,motionMagneticFieldCalibrationAccuracy,activityTimestamp_sinceReboot,activity,activityActivityConfidence,activityActivityStartDate,pedometerStartDate,pedometerNumberofSteps,pedometerDistance,pedometerFloorAscended,pedometerFloorDescended,pedometerEndDate,altimeterTimestamp_sinceReboot,altimeterReset,altimeterRelativeAltitude,altimeterPressure,IP_en0,IP_pdp_ip0,deviceOrientation,state
2015-02-11 00:14:38.213,1,1423642478.064168,37.77937271635773,-122.4387669191905,63.29776,0.49,240.8203125,4,10,-9999,1423642478.18881,26.99536895751953,-18.57759094238281,-36.3331298828125,267.8484497070312,254.0657348632812,25,321258.8136636667,0.127960205078125,-0.311767578125,-0.991973876953125,321258.7768026667,-0.4319460866832219,-0.1301127297974563,-0.01669322634483468,321258.7768026667,-2.229534578288977,0.1538964754741119,0.3017835890966873,-0.4115966260433197,-0.1378773003816605,-0.0262458547949791,0.01010139845311642,-0.03204574435949326,-0.03793728351593018,XTrueNorthZVertical,-0.134235343069568,0.1010902010335936,0.8798915761064309,-0.4444687520043543,0.146362230181694,-0.2972236573696136,-0.9435232877731323,25.53046035766602,-15.95532989501953,-36.63172912597656,1,321256.9318126667,walking,0,2015-02-11 00:14:36.241,2015-02-11 00:12:28.580,55,35.85,0,0,2015-02-11 00:13:40.429,0,0.2064571,101.1209,192.168.1.3,10.42.194.158,5,0
2015-02-11 00:14:38.307,2,1423642478.064168,37.77937271635773,-122.4387669191905,63.29776,0.49,240.8203125,4,10,-9999,1423642478.18881,26.99536895751953,-18.57759094238281,-36.3331298828125,267.8484497070312,254.0657348632812,25,321258.9128686667,0.08502197265625,-0.284088134765625,-0.983184814453125,321258.8767506667,-0.0864808300781431,-0.5823734092758026,0.01469905132058335,321258.8767506667,-2.228876430724438,0.09943042693162708,0.2858907480455759,-0.06613008677959442,-0.5901386141777039,0.005146973766386509,-0.004401950165629387,-0.007019826211035252,-0.05275885760784149,XTrueNorthZVertical,-0.1068557176996198,0.1060460687729058,0.8842902376820887,-0.4420032530629738,0.09523752331733704,-0.2820121645927429,-0.9546721577644348,23.95527648925781,-15.23211860656738,-37.97878265380859,1,321256.9318126667,walking,0,2015-02-11 00:14:36.241,2015-02-11 00:12:28.580,55,35.85,0,0,2015-02-11 00:13:40.429,0,0.2064571,101.1209,192.168.1.3,10.42.194.158,5,0
2015-02-11 00:14:38.397,3,1423642478.064168,37.77937271635773,-122.4387669191905,63.29776,0.49,240.8203125,4,10,-9999,1423642478.307715,24.10756683349609,-17.84901428222656,-37.10394287109375,267.1739807128906,253.3912658691406,25,321259.0120506667,0.042327880859375,-0.26507568359375,-0.9427490234375,321258.9767006667,-0.03296407534078279,-0.2046231834079112,0.05252872197294091,321258.9767006667,-2.219348624488057,0.06225174877592208,0.2837628150356359,-0.01261687185615301,-0.2123892307281494,0.04297657310962677,-0.01730419881641865,0.000886705529410392,-0.00933430902659893,XTrueNorthZVertical,-0.09047886318210259,0.1128670434719293,0.8841675194030457,-0.4442098791486185,0.0597236342728138,-0.2799699604511261,-0.9581491947174072,22.17474746704102,-15.26019287109375,-39.03418350219727,1,321256.9318126667,walking,0,2015-02-11 00:14:36.241,2015-02-11 00:12:28.580,55,35.85,0,0,2015-02-11 00:13:40.429,0,0.2064571,101.1209,192.168.1.3,10.42.194.158,5,0
2015-02-11 00:14:38.496,4,1423642478.064168,37.77937271635773,-122.4387669191905,63.29776,0.49,240.8203125,4,10,-9999,1423642478.428848,22.82022094726562,-18.64697265625,-37.87469482421875,265.8036499023438,252.0209350585938,25,321259.1112306667,0.0263671875,-0.2621917724609375,-0.9409332275390625,321259.0766486667,-0.1298384242051781,-0.02724280637096557,0.09527352273314872,321259.0766486667,-2.208382391226751,0.04043113219308525,0.2900473677767346,-0.1094936802983284,-0.03501130640506744,0.08572171628475189,-0.02448007464408875,0.001192316762171686,0.02396029978990555,XTrueNorthZVertical,-0.08286196936038599,0.1200428039376795,0.8822305785296034,-0.4476525872249655,0.03873178362846375,-0.2859976291656494,-0.9574472308158875,21.21625709533691,-15.72768402099609,-39.37982559204102,1,321256.9318126667,walking,0,2015-02-11 00:14:36.241,2015-02-11 00:12:28.580,55,35.85,0,0,2015-02-11 00:13:40.429,0,0.2064571,101.1209,192.168.1.3,10.42.194.158,5,0
2015-02-11 00:14:38.657,5,1423642478.064168,37.77937271635773,-122.4387669191905,63.29776,0.49,240.8203125,4,10,-9999,1423642478.52887,22.61146545410156,-18.92451477050781,-38.0758056640625,265.5813293457031,251.7985992431641,25,321259.2104106667,0.0456390380859375,-0.277069091796875,-0.9604949951171875,321259.1766026667,0.05346136098668666,0.005369199073708752,0.05205894035665094,321259.1766026667,-2.198878008375972,0.04008612429058311,0.2869038609522345,0.07379879057407379,-0.002397803822532296,0.04250669106841087,0.01222188677638769,0.001077875029295683,-0.01010595727711916,XTrueNorthZVertical,-0.08257753773820353,0.1183380224741641,0.8803230733261892,-0.4518941939800934,0.03843729197978973,-0.2829839885234833,-0.958354115486145,21.02340698242188,-15.63064956665039,-39.52163314819336,1,321256.9318126667,walking,0,2015-02-11 00:14:36.241,2015-02-11 00:12:28.580,55,35.85,0,0,2015-02-11 00:13:40.429,0,0.2064571,101.1209,192.168.1.3,10.42.194.158,5,0
2015-02-11 00:14:38.736,6,1423642478.064168,37.77937271635773,-122.4387669191905,63.29776,0.49,240.8203125,4,10,-9999,1423642478.629978,21.42848968505859,-19.06329345703125,-38.2769775390625,265.1907653808594,251.4080352783203,25,321259.3095966667,0.0417633056640625,-0.30419921875,-0.94964599609375,321259.2765506667,0.1485055855499796,-0.00521819783990126,0.1040092237408266,321259.2765506667,-2.193904425088081,0.03857388580026434,0.2955537795035477,0.1688420027494431,-0.0129750482738018,0.09445583075284958,0.01282092463225126,-0.005742666311562061,-0.02521077170968056,XTrueNorthZVertical,-0.08414826622298723,0.122288131698172,0.8786630316307729,-0.4537796516683422,0.03689220920205116,-0.2912696599960327,-0.9559293389320374,20.98421859741211,-16.08831024169922,-39.35847091674805,1,321256.9318126667,walking,0,2015-02-11 00:14:36.241,2015-02-11 00:12:28.580,55,35.85,0,0,2015-02-11 00:13:40.429,0,0.2064571,101.1209,192.168.1.3,10.42.194.158,5,0
2015-02-11 00:14:38.815,7,1423642478.064168,37.77937271635773,-122.4387669191905,63.29776,0.49,240.8203125,4,10,-9999,1423642478.748288,22.4027099609375,-18.85511779785156,-38.2099609375,266.6703186035156,252.8876037597656,25,321259.4087886667,0.0012359619140625,-0.299560546875,-0.953521728515625,321259.3765046667,0.2307863442729587,-0.07304864448811045,0.1731081340162406,321259.3765046667,-2.185145930298258,0.03553956134586529,0.3105634653449074,0.2511241436004639,-0.08080241829156876,0.1635546982288361,-0.003497807309031487,0.0006788131431676447,-0.02671121060848236,XTrueNorthZVertical,-0.08674859862443771,0.1292073669223213,0.8757285974130635,-0.4570334494629825,0.03383228182792664,-0.305595189332962,-0.9515602588653564,20.9320240020752,-16.70685195922852,-39.12789154052734,1,321256.9318126667,walking,0,2015-02-11 00:14:36.241,2015-02-11 00:12:28.580,55,35.85,0,0,2015-02-11 00:13:40.429,0,0.2064571,101.1209,192.168.1.3,10.42.194.158,5,0
2015-02-11 00:14:38.890,8,1423642478.064168,37.77937271635773,-122.4387669191905,63.29776,0.49,240.8203125,4,10,-9999,1423642478.86184,21.53289794921875,-20.76324462890625,-37.5062255859375,264.7900390625,251.00732421875,25,321259.5079786667,-0.0105438232421875,-0.3318023681640625,-0.92376708984375,321259.4764506667,0.1644278267592363,-0.108189854020033,0.0870118643995049,321259.4764506667,-2.172441416993636,0.01519464344562634,0.3379182684133822,0.1847578287124634,-0.1159537434577942,0.07745938748121262,-0.0234442837536335,0.002849492477253079,0.0193724911659956,XTrueNorthZVertical,-0.08495738798195161,0.1453040585513374,0.8716521399603092,-0.4603167746061343,0.014334786683321,-0.3315238058567047,-0.9433379173278809,19.9737720489502,-18.24594116210938,-38.94091033935547,1,321256.9318126667,walking,0,2015-02-11 00:14:36.241,2015-02-11 00:12:28.580,55,35.85,0,0,2015-02-11 00:13:40.429,0,0.2064571,101.1209,192.168.1.3,10.42.194.158,5,0
2015-02-11 00:14:39.001,9,1423642478.064168,37.77937271635773,-122.4387669191905,63.29776,0.49,240.8203125,4,10,-9999,1423642478.962464,21.46332550048828,-21.1795654296875,-37.5732421875,265.0857543945312,251.3030395507812,25,321259.6071816667,0.019805908203125,-0.338470458984375,-0.9572601318359375,321259.5763926667,-0.08629174564074747,0.1826076296245532,0.01286519859395478,321259.5763926667,-2.166214784786579,0.0212517215778865,0.3358929747432299,-0.06596122682094574,0.1748398989439011,0.003313551191240549,-0.01574435085058212,-0.01259648893028498,-0.004110144451260567,XTrueNorthZVertical,-0.08757826180090239,0.1427531699274371,0.8701070970710645,-0.4635355794839844,0.02006258815526962,-0.3296123743057251,-0.9439031481742859,19.89565467834473,-18.4466495513916,-38.88629913330078,1,321256.9318126667,walking,0,2015-02-11 00:14:36.241,2015-02-11 00:12:28.580,55,35.85,0,0,2015-02-11 00:13:40.429,0,0.2064571,101.1209,192.168.1.3,10.42.194.158,5,0
2015-02-11 00:14:39.093,10,1423642479.056031,37.77936479545923,-122.4387897179671,63.29776,0.81,238.7109375,4,10,-9999,1423642478.962464,21.46332550048828,-21.1795654296875,-37.5732421875,265.0857543945312,251.3030395507812,25,321259.7063536667,0.0127105712890625,-0.3287811279296875,-0.9524993896484375,321259.6763516667,0.04588440136930222,-1.944107595757844e-05,0.01158634863849873,321259.6763516667,-2.164777861031852,0.02611861648094759,0.3379943667326707,0.06621669977903366,-0.007792661432176828,0.002036058576777577,-0.007899174466729164,-0.0003135771257802844,-0.006881841458380222,XTrueNorthZVertical,-0.09028104369497678,0.1424759947289057,0.8693959863089794,-0.4644357397429479,0.02463806606829166,-0.3315955996513367,-0.9430998563766479,20.35938262939453,-18.36239624023438,-38.68563461303711,1,321256.9318126667,walking,0,2015-02-11 00:14:36.241,2015-02-11 00:12:28.580,55,35.85,0,0,2015-02-11 00:13:40.429,0,0.210989,101.1208,192.168.1.3,10.42.194.158,5,0
2015-02-11 00:14:39.187,11,1423642479.056031,37.77936479545923,-122.4387897179671,63.29776,0.81,238.7109375,4,10,-9999,1423642479.081242,21.67208099365234,-21.17955017089844,-37.03717041015625,263.9958801269531,250.2131652832031,25,321259.8055386667,0.0263214111328125,-0.339324951171875,-0.957366943359375,321259.7763006667,-0.06290066915436351,0.03932237244334698,0.001214934089294148,321259.7763006667,-2.164265928469694,0.02585051325626736,0.3402483670735227,-0.0426180362701416,0.03151476010680199,-0.008325698785483837,-0.00269835558719933,-0.005756307858973742,0.009114059619605541,XTrueNorthZVertical,-0.09072024553489193,0.143497066648985,0.8691145292902452,-0.4645625654044986,0.02436583675444126,-0.3337212204933167,-0.9423568844795227,20.29870796203613,-18.52928733825684,-38.63791275024414,1,321256.9318126667,walking,0,2015-02-11 00:14:36.241,2015-02-11 00:12:28.580,55,35.85,0,0,2015-02-11 00:13:40.429,0,0.210989,101.1208,192.168.1.3,10.42.194.158,5,0
2015-02-11 00:14:39.287,12,1423642479.056031,37.77936479545923,-122.4387897179671,63.29776,0.81,238.7109375,4,10,-9999,1423642479.200325,22.08959197998047,-21.45709228515625,-37.64031982421875,264.9128112792969,251.1300964355469,25,321259.9047306667,0.0235137939453125,-0.3345947265625,-0.9639129638671875,321259.8762566667,-0.03306394388166076,0.02760712680808841,-0.005257612624034432,321259.8762566667,-2.165248075019548,0.02714305108959571,0.3398013732843701,-0.01277846936136484,0.01979763619601727,-0.01479775458574295,-0.004256105981767178,-0.01061801705509424,-0.004761508200317621,XTrueNorthZVertical,-0.09110872831306671,0.1430468457053592,0.8693185894760556,-0.4642434736597537,0.02558789402246475,-0.3332998156547546,-0.9424735903739929,20.34567642211914,-18.47431945800781,-38.63953399658203,1,321256.9318126667,walking,0,2015-02-11 00:14:36.241,2015-02-11 00:12:28.580,55,35.85,0,0,2015-02-11 00:13:40.429,0,0.210989,101.1208,192.168.1.3,10.42.194.158,5,0
2015-02-11 00:14:39.410,13,1423642479.056031,37.77936479545923,-122.4387897179671,63.29776,0.81,238.7109375,4,10,-9999,1423642479.319855,21.77646636962891,-20.86729431152344,-36.60162353515625,264.7911987304688,251.0084838867188,25,321260.0039136667,0.0311431884765625,-0.3338165283203125,-0.9451904296875,321259.9762016667,-0.02882046300072851,0.0456183515764033,-0.01488067890692675,321259.9762016667,-2.1672112965756,0.03081699379168776,0.3383174763139838,-0.008535763248801231,0.03780695050954819,-0.02442001923918724,-0.004147911444306374,-0.002602759981527925,-0.005741858389228582,XTrueNorthZVertical,-0.09222524811552964,0.1416376838341975,0.8697211814741078,-0.4637007115681249,0.02906551398336887,-0.331900417804718,-0.9428665637969971,20.50909614562988,-18.40731811523438,-38.58507537841797,1,321256.9318126667,walking,0,2015-02-11 00:14:36.241,2015-02-11 00:12:28.580,55,35.85,0,0,2015-02-11 00:13:40.429,0,0.210989,101.1208,192.168.1.3,10.42.194.158,5,0
2015-02-11 00:14:39.491,14,1423642479.056031,37.77936479545923,-122.4387897179671,63.29776,0.81,238.7109375,4,10,-9999,1423642479.436715,22.61149597167969,-21.63053894042969,-36.6685791015625,264.7019653320312,250.9192352294922,25,321260.1031056667,0.0444488525390625,-0.33441162109375,-0.957305908203125,321260.0761506667,-0.06925044414143944,0.06800941107346252,0.01612650566486582,321260.0761506667,-2.168082905598,0.03448249902115068,0.3365575626862877,-0.04896630719304085,0.06019959598779678,0.006586925592273474,0.002767357276752591,-6.725809362251312e-05,-0.01566365920007229,XTrueNorthZVertical,-0.09335425904695512,0.1400606824669987,0.8698903841287382,-0.4636364097333376,0.03254147991538048,-0.3302397429943085,-0.9433359503746033,20.63230323791504,-18.3516960144043,-38.54586410522461,1,321256.9318126667,walking,0,2015-02-11 00:14:36.241,2015-02-11 00:12:28.580,55,35.85,0,0,2015-02-11 00:13:40.429,0,0.210989,101.1208,192.168.1.3,10.42.194.158,5,0
2015-02-11 00:14:39.588,15,1423642479.056031,37.77936479545923,-122.4387897179671,63.29776,0.81,238.7109375,4,10,-9999,1423642479.5558,22.36793518066406,-21.59584045410156,-37.037353515625,263.057373046875,249.274658203125,25,321260.202388875,0.056915283203125,-0.331024169921875,-0.9620513916015625,321260.176194875,-0.1470512332786873,0.1041876555338619,0.02804734733627851,321260.176194875,-2.167188502376002,0.04725560100594085,0.3313527474479951,-0.1267631500959396,0.09638305753469467,0.01850631088018417,0.00287797162309289,-0.01006569527089596,-0.01419271714985371,XTrueNorthZVertical,-0.09777719603746164,0.134780789155882,0.8694790920084957,-0.4650590077130446,0.04466841369867325,-0.3253224790096283,-0.9445475339889526,21.10475921630859,-18.17654228210449,-38.37268447875977,1,321256.9318126667,walking,0,2015-02-11 00:14:36.241,2015-02-11 00:12:28.580,55,35.85,0,0,2015-02-11 00:13:40.429,0,0.210989,101.1208,192.168.1.3,10.42.194.158,5,0
2015-02-11 00:14:39.684,16,1423642479.056031,37.77936479545923,-122.4387897179671,63.29776,0.81,238.7109375,4,10,-9999,1423642479.67605,22.61149597167969,-20.03465270996094,-36.46759033203125,264.8428039550781,251.0600738525391,25,321260.301573875,0.0435028076171875,-0.3094635009765625,-0.9669342041015625,321260.276142875,-0.07788760818878443,0.02868171230793538,-0.01897981645677671,321260.276142875,-2.165364951716029,0.05117230690022997,0.3241041152819726,-0.05759913474321365,0.02087586745619774,-0.02852013148367405,-0.01612303406000137,0.01636616699397564,-0.01140381954610348,XTrueNorthZVertical,-0.09793878734759649,0.13061478069726,0.8694262371384311,-0.4663108453134957,0.04848692566156387,-0.3184596598148346,-0.9466955661773682,21.31145286560059,-17.9153995513916,-38.38125610351562,1,321256.9318126667,walking,0,2015-02-11 00:14:36.241,2015-02-11 00:12:28.580,55,35.85,0,0,2015-02-11 00:13:40.429,0,0.210989,101.1208,192.168.1.3,10.42.194.158,5,0
2015-02-11 00:14:39.783,17,1423642479.056031,37.77936479545923,-122.4387897179671,63.29776,0.81,238.7109375,4,10,-9999,1423642479.67605,22.61149597167969,-20.03465270996094,-36.46759033203125,264.8428039550781,251.0600738525391,25,321260.400760875,0.0569610595703125,-0.329925537109375,-0.99884033203125,321260.376106875,-0.2284576762157934,-0.2779131102907829,-0.06937960745430828,321260.376106875,-2.170504376577175,0.04875061123383918,0.318950937902204,-0.2081781327724457,-0.2857286632061005,-0.07891648262739182,-0.03354770317673683,0.008532128296792507,-0.02325820550322533,XTrueNorthZVertical,-0.09537084184661263,0.1291744242881692,0.8711327859108956,-0.4640539335376861,0.04627353325486183,-0.3135705888271332,-0.9484367370605469,21.46995735168457,-17.7550048828125,-38.36744689941406,1,321256.9318126667,walking,0,2015-02-11 00:14:36.241,2015-02-11 00:12:28.580,55,35.85,0,0,2015-02-11 00:13:40.429,0,0.210989,101.1208,192.168.1.3,10.42.194.158,5,0
2015-02-11 00:14:39.902,18,1423642479.056031,37.77936479545923,-122.4387897179671,63.29776,0.81,238.7109375,4,10,-9999,1423642479.795812,23.09859466552734,-20.24281311035156,-36.80279541015625,264.6593017578125,250.8765869140625,25,321260.499926875,0.00213623046875,-0.2834320068359375,-0.9355316162109375,321260.476045875,-0.3374765722831681,0.1484240928206231,-0.2005749122348818,321260.476045875,-2.173423057021445,0.02703516582146759,0.3097558632171035,-0.3171989023685455,0.140605702996254,-0.2101106494665146,-0.05815504118800163,0.03897224739193916,0.08473515510559082,XTrueNorthZVertical,-0.08360643891930059,0.1303072233946302,0.8734565981628521,-0.461631427995953,0.02574537135660648,-0.3048261404037476,-0.9520599842071533,20.31911277770996,-17.36993408203125,-39.16222381591797,1,321256.9318126667,walking,0,2015-02-11 00:14:36.241,2015-02-11 00:12:28.580,55,35.85,0,0,2015-02-11 00:13:40.429,0,0.210989,101.1208,192.168.1.3,10.42.194.158,5,0
2015-02-11 00:14:39.984,19,1423642479.056031,37.77936479545923,-122.4387897179671,63.29776,0.81,238.7109375,4,10,-9999,1423642479.914271,22.75065612792969,-19.96525573730469,-38.34442138671875,265.1254272460938,251.3427124023438,25,321260.599103875,0.073150634765625,-0.2590789794921875,-1.002685546875,321260.575993875,-0.2914646054976511,-0.03182450871033789,-0.1259254416155247,321260.575993875,-2.200263310413602,0.05991554564401507,0.2700337441832095,-0.2711878418922424,-0.03964448720216751,-0.1354604661464691,0.03752032667398453,-0.04593440517783165,-0.106403149664402,XTrueNorthZVertical,-0.08746746358740271,0.1064574179929864,0.8809310420573964,-0.4527436066836421,0.05770977586507797,-0.2667639553546906,-0.9620324969291687,21.82966804504395,-15.21072864532471,-39.24741744995117,1,321256.9318126667,walking,0,2015-02-11 00:14:36.241,2015-02-11 00:12:28.580,55,35.85,0,0,2015-02-11 00:13:40.429,0,0.210989,101.1208,192.168.1.3,10.42.194.158,5,0
2015-02-11 00:14:40.082,20,1423642479.056031,37.77936479545923,-122.4387897179671,63.29776,0.81,238.7109375,4,10,-9999,1423642480.032998,23.86402130126953,-17.8836669921875,-38.143310546875,265.8271484375,252.04443359375,25,321260.698285875,0.1963653564453125,-0.3804779052734375,-0.9434051513671875,321260.675945875,-0.04271364177545388,-0.03164314744010349,-0.406978951463729,321260.575993875,-2.200263310413602,0.05991554564401507,0.2700337441832095,-0.2711878418922424,-0.03964448720216751,-0.1354604661464691,0.03752032667398453,-0.04593440517783165,-0.106403149664402,XTrueNorthZVertical,-0.08746746358740271,0.1064574179929864,0.8809310420573964,-0.4527436066836421,0.05770977586507797,-0.2667639553546906,-0.9620324969291687,21.82966804504395,-15.21072864532471,-39.24741744995117,1,321256.9318126667,walking,0,2015-02-11 00:14:36.241,2015-02-11 00:12:28.580,55,35.85,0,0,2015-02-11 00:13:40.429,0,0.210989,101.1208,192.168.1.3,10.42.194.158,5,0
2015-02-11 00:14:40.180,21,1423642480.071568,37.77936479545923,-122.4387897179671,63.2291,0,232.03125,4,10,-9999,1423642480.151466,23.6552734375,-17.12039184570312,-37.875244140625,267.1136474609375,253.3309326171875,25,321260.797495875,0.066802978515625,-0.2593994140625,-1.011703491210938,321260.775894875,0.1099051960781531,-0.08173028332565976,0.0338583648348314,321260.675945875,-2.219734421636613,0.05212120660029754,0.2618545947960806,-0.02244117483496666,-0.03946588933467865,-0.4165128469467163,-0.04931460320949554,0.028083186596632,0.04228232055902481,XTrueNorthZVertical,-0.08118647486513542,0.1053984969279939,0.8861594605086865,-0.4438708561965238,0.05032168328762054,-0.2588723599910736,-0.9645998477935791,21.66074371337891,-14.53215026855469,-39.59658050537109,1,321256.9318126667,walking,0,2015-02-11 00:14:36.241,2015-02-11 00:12:28.580,55,35.85,0,0,2015-02-11 00:13:40.429,0,0.210989,101.1208,192.168.1.3,10.42.194.158,5,0
2015-02-11 00:14:40.300,22,1423642480.071568,37.77936479545923,-122.4387897179671,63.2291,0,232.03125,4,10,-9999,1423642480.251595,22.85504913330078,-17.5714111328125,-37.97589111328125,266.7533264160156,252.9705963134766,25,321260.896669875,0.0386810302734375,-0.28533935546875,-0.928009033203125,321260.875844875,-0.008973254976912984,-0.1997812902300382,-0.1425909710850226,321260.875844875,-2.226443804229443,0.02970316849713243,0.2712453192570219,0.01122371666133404,-0.2076427340507507,-0.1521195918321609,-0.005968909710645676,0.0109123894944787,0.0009921309538185596,XTrueNorthZVertical,-0.0729253066347626,0.1147841330099955,0.8879035840878352,-0.4394698409569601,0.02861295267939568,-0.2679314315319061,-0.9630129933357239,20.81623268127441,-14.65354537963867,-40.00273132324219,1,321256.9318126667,walking,0,2015-02-11 00:14:36.241,2015-02-11 00:12:28.580,55,35.85,0,0,2015-02-11 00:13:40.429,0,0.210989,101.1208,192.168.1.3,10.42.194.158,5,0
2015-02-11 00:14:40.386,23,1423642480.071568,37.77936479545923,-122.4387897179671,63.2291,0,232.03125,4,10,-9999,1423642480.370466,23.02900695800781,-17.46733093261719,-38.21044921875,267.3111572265625,253.5284271240234,25,321260.995855875,0.0618438720703125,-0.3204193115234375,-0.946868896484375,321260.975793875,0.09915587897026623,0.1473396536247429,-0.01856383069450634,321260.975793875,-2.221852994999664,0.03460747031083139,0.2713465252026891,0.1193523705005646,0.13947793841362,-0.0280921459197998,0.01909464225172997,0.005409917794167995,0.01851331442594528,XTrueNorthZVertical,-0.07538530571813699,0.1135784280510823,0.886703832643655,-0.4417842491801512,0.03333455696702003,-0.2680289447307587,-0.9628340005874634,20.81503868103027,-14.6112117767334,-40.01883316040039,1,321256.9318126667,walking,0,2015-02-11 00:14:36.241,2015-02-11 00:12:28.580,55,35.85,0,0,2015-02-11 00:13:40.429,0,0.210989,101.1208,192.168.1.3,10.42.194.158,5,0
2015-02-11 00:14:40.486,24,1423642480.071568,37.77936479545923,-122.4387897179671,63.2291,0,232.03125,4,10,-9999,1423642480.370466,23.02900695800781,-17.46733093261719,-38.21044921875,267.3111572265625,253.5284271240234,25,321261.095041875,0.0263519287109375,-0.23931884765625,-0.97393798828125,321261.075762875,-0.04604578893136102,-0.199540274151386,-0.0518863675180138,321261.075762875,-2.224922835373537,0.0293686987094363,0.2594368146016883,-0.02585655823349953,-0.2074043899774551,-0.06141361221671104,0.003478568280115724,-0.01789306662976742,-0.01256566029042006,XTrueNorthZVertical,-0.07028529946498051,0.1095493997970857,0.8883196763307334,-0.4403942229551444,0.02838178351521492,-0.2565362453460693,-0.966117799282074,20.78580284118652,-14.32529544830322,-40.13722610473633,1,321256.9318126667,walking,0,2015-02-11 00:14:36.241,2015-02-11 00:12:28.580,55,35.85,0,0,2015-02-11 00:13:40.429,0,0.2316341,101.1206,192.168.1.3,10.42.194.158,5,0
2015-02-11 00:14:40.581,25,1423642480.071568,37.77936479545923,-122.4387897179671,63.2291,0,232.03125,4,10,-9999,1423642480.489699,22.75065612792969,-17.18975830078125,-38.2774658203125,267.0188598632812,253.2361450195312,25,321261.194226875,-0.00799560546875,-0.2747802734375,-0.9792633056640625,321261.175695875,0.02780020598711915,-0.1771169904051368,0.04379248833304498,321261.075762875,-2.224922835373537,0.0293686987094363,0.2594368146016883,-0.02585655823349953,-0.2074043899774551,-0.06141361221671104,0.003478568280115724,-0.01789306662976742,-0.01256566029042006,XTrueNorthZVertical,-0.07028529946498051,0.1095493997970857,0.8883196763307334,-0.4403942229551444,0.02838178351521492,-0.2565362453460693,-0.966117799282074,20.78580284118652,-14.32529544830322,-40.13722610473633,1,321256.9318126667,walking,0,2015-02-11 00:14:36.241,2015-02-11 00:12:28.580,55,35.85,0,0,2015-02-11 00:13:40.429,0,0.2316341,101.1206,192.168.1.3,10.42.194.158,5,0
2015-02-11 00:14:40.724,26,1423642480.071568,37.77936479545923,-122.4387897179671,63.2291,0,232.03125,4,10,-9999,1423642480.607049,21.70687103271484,-17.32853698730469,-38.34442138671875,267.37255859375,253.5898284912109,25,321261.293412875,-0.0382537841796875,-0.2930145263671875,-0.995941162109375,321261.275643875,0.1313862534307322,-0.2364998900756147,0.1042925840808111,321261.275643875,-2.225073543801861,-0.02210283579719545,0.276872017631175,0.151575580239296,-0.2443653643131256,0.09476609528064728,0.006183638237416744,0.007204337976872921,-0.03470345214009285,XTrueNorthZVertical,-0.05122710712275536,0.128591117097937,0.8888643242028196,-0.4367611870853362,-0.02125932276248932,-0.2733481228351593,-0.9616802334785461,18.87020111083984,-14.75742244720459,-40.91936492919922,1,321256.9318126667,walking,0,2015-02-11 00:14:36.241,2015-02-11 00:12:28.580,55,35.85,0,0,2015-02-11 00:13:40.429,0,0.2316341,101.1206,192.168.1.3,10.42.194.158,5,0
2015-02-11 00:14:40.793,27,1423642480.071568,37.77936479545923,-122.4387897179671,63.2291,0,232.03125,4,10,-9999,1423642480.728738,20.97621917724609,-17.77960205078125,-39.4503173828125,268.504638671875,254.721923828125,25,321261.392583875,-0.025726318359375,-0.261016845703125,-0.96728515625,321261.375594875,0.08139046397056565,0.02672455522283615,0.1244287450829002,321261.275643875,-2.225073543801861,-0.02210283579719545,0.276872017631175,0.151575580239296,-0.2443653643131256,0.09476609528064728,0.006183638237416744,0.007204337976872921,-0.03470345214009285,XTrueNorthZVertical,-0.05122710712275536,0.128591117097937,0.8888643242028196,-0.4367611870853362,-0.02125932276248932,-0.2733481228351593,-0.9616802334785461,18.87020111083984,-14.75742244720459,-40.91936492919922,1,321256.9318126667,walking,0,2015-02-11 00:14:36.241,2015-02-11 00:12:28.580,55,35.85,0,0,2015-02-11 00:13:40.429,0,0.2316341,101.1206,192.168.1.3,10.42.194.158,5,0
2015-02-11 00:14:40.875,28,1423642480.071568,37.77936479545923,-122.4387897179671,63.2291,0,232.03125,4,10,-9999,1423642480.728738,20.97621917724609,-17.77960205078125,-39.4503173828125,268.504638671875,254.721923828125,25,321261.491788875,-0.0325927734375,-0.28631591796875,-0.98687744140625,321261.475542875,0.2071337453675289,-0.03817747949072191,0.09960329003339954,321261.375594875,-2.211457660016752,-0.03403553986370005,0.2904148492723603,0.1015766486525536,0.01885588467121124,0.114903450012207,0.004756721667945385,0.02971215359866619,-0.03505973890423775,XTrueNorthZVertical,-0.04983553647286045,0.1368622905889789,0.8853612109812156,-0.4414982130138974,-0.03260401263833046,-0.2863497138023376,-0.9575702548027039,18.18441772460938,-15.62505340576172,-40.90776443481445,1,321256.9318126667,walking,0,2015-02-11 00:14:36.241,2015-02-11 00:12:28.580,55,35.85,0,0,2015-02-11 00:13:40.429,0,0.2316341,101.1206,192.168.1.3,10.42.194.158,5,0
2015-02-11 00:14:40.973,29,1423642480.071568,37.77936479545923,-122.4387897179671,63.2291,0,232.03125,4,10,-9999,1423642480.963795,19.65409851074219,-20.34689331054688,-38.981201171875,265.2093200683594,251.4266052246094,25,321261.590956875,-0.0989532470703125,-0.3162078857421875,-0.89599609375,321261.575500875,0.1768392227034416,-0.5901138869841179,-0.00846459120870785,321261.475542875,-2.19285965801743,-0.03783450391517627,0.2943836291886483,0.2273209244012833,-0.04604631662368774,0.0900782123208046,0.01018203515559435,-0.007472630590200424,-0.03526557981967926,XTrueNorthZVertical,-0.05033355193690135,0.1389905677909954,0.8810728285798409,-0.4492870347987561,-0.03619826957583427,-0.2901500463485718,-0.9562963247299194,17.9846305847168,-16.02063369750977,-40.84302520751953,1,321256.9318126667,walking,0,2015-02-11 00:14:36.241,2015-02-11 00:12:28.580,55,35.85,0,0,2015-02-11 00:13:40.429,0,0.2316341,101.1206,192.168.1.3,10.42.194.158,5,0
2015-02-11 00:14:41.103,30,1423642480.071568,37.77936479545923,-122.4387897179671,63.2291,0,232.03125,4,10,-9999,1423642481.088645,17.87964630126953,-19.34078979492188,-40.087158203125,268.54248046875,254.759765625,25,321261.690134875,-0.067901611328125,-0.3412933349609375,-0.92291259765625,321261.675453875,-0.1786744070106152,0.105767709008606,-0.2265876044983398,321261.575500875,-2.190900487403317,-0.07779915236786482,0.3205929808079794,0.1970242112874985,-0.5979841351509094,-0.0179890263825655,0.004287458024919033,0.03021727502346039,0.05375247448682785,XTrueNorthZVertical,-0.03885512765355757,0.1593777699750373,0.8799124096827491,-0.445918344615352,-0.07376072555780411,-0.3151293694972992,-0.9461780190467834,19.22617530822754,-19.52519607543945,-38.59277725219727,1,321256.9318126667,walking,0,2015-02-11 00:14:36.241,2015-02-11 00:12:28.580,55,35.85,0,0,2015-02-11 00:13:40.429,0,0.2316341,101.1206,192.168.1.3,10.42.194.158,5,0
2015-02-11 00:14:41.206,31,1423642481.072596,37.77936479545923,-122.4387897179671,63.27209,0,243.28125,4,5,-9999,1423642481.088645,17.87964630126953,-19.34078979492188,-40.087158203125,268.54248046875,254.759765625,25,321261.789302875,-0.06756591796875,-0.2995452880859375,-0.9775848388671875,321261.775395875,0.0392760334403796,-0.009732255887585568,-0.0640564810674579,321261.675453875,-2.207407844626196,-0.1066460578694385,0.3173454442894715,-0.1584875285625458,0.0978926420211792,-0.2361107021570206,0.01870098151266575,-0.02396813780069351,0.02572417631745338,XTrueNorthZVertical,-0.02405774007276633,0.1645797096460742,0.8842038173198656,-0.4364840971189792,-0.1011289581656456,-0.3120456635951996,-0.9446694850921631,17.59878730773926,-19.36479187011719,-39.44070053100586,1,321256.9318126667,walking,0,2015-02-11 00:14:36.241,2015-02-11 00:12:28.580,55,35.85,0,0,2015-02-11 00:13:40.429,0,0.2316341,101.1206,192.168.1.3,10.42.194.158,1,0
2015-02-11 00:14:41.273,32,1423642481.072596,37.77936479545923,-122.4387897179671,63.27209,0,243.28125,4,5,-9999,1423642481.201677,17.74046325683594,-18.78569030761719,-39.55096435546875,267.1891479492188,253.4064331054688,25,321261.888489875,-0.0680999755859375,-0.29193115234375,-0.9459381103515625,321261.875334875,0.01998116502664651,-0.06177415201326,-0.09592067087803798,321261.775395875,-2.222817246686428,-0.09263622677765554,0.2949858238407863,0.05947443097829819,-0.01759476587176323,-0.07358361035585403,0.004554349463433027,-0.007750886492431164,-0.01598516851663589,XTrueNorthZVertical,-0.02404091721534661,0.1518885635731998,0.8886586444652297,-0.4320158856543638,-0.08850820362567902,-0.2907262742519379,-0.9527037739753723,18.29295921325684,-18.05875015258789,-39.74330902099609,1,321256.9318126667,walking,0,2015-02-11 00:14:36.241,2015-02-11 00:12:28.580,55,35.85,0,0,2015-02-11 00:13:40.429,0,0.2316341,101.1206,192.168.1.3,10.42.194.158,1,0
2015-02-11 00:14:41.371,33,1423642481.072596,37.77936479545923,-122.4387897179671,63.27209,0,243.28125,4,5,-9999,1423642481.319285,18.33193969726562,-18.47344970703125,-39.7855224609375,269.3782958984375,255.5955810546875,25,321261.987656875,-0.1250457763671875,-0.28814697265625,-0.915252685546875,321261.975275875,0.07012475992731246,-0.1095382124799401,-0.08216757437665077,321261.875334875,-2.230480947458053,-0.08431619576160326,0.3098676008860223,0.04012187570333481,-0.06966245174407959,-0.1054465919733047,0.002950187539681792,-0.002913523698225617,0.007889564149081707,XTrueNorthZVertical,-0.03043809530719157,0.1567743701062838,0.8893329710075312,-0.4284649334498161,-0.08020543307065964,-0.3049325346946716,-0.9489906430244446,18.66794967651367,-18.43128776550293,-39.39640426635742,1,321256.9318126667,walking,0,2015-02-11 00:14:36.241,2015-02-11 00:12:28.580,55,35.85,0,0,2015-02-11 00:13:40.429,0,0.2316341,101.1206,192.168.1.3,10.42.194.158,1,0
2015-02-11 00:14:41.517,34,1423642481.072596,37.77936479545923,-122.4387897179671,63.27209,0,243.28125,4,5,-9999,1423642481.419535,18.08839416503906,-19.41015625,-40.891357421875,269.5731201171875,255.7903900146484,25,321262.086845875,-0.13714599609375,-0.254638671875,-0.8988800048828125,321262.075239875,0.09358321438927543,-0.03106417621912027,-0.08977729087544319,321261.975275875,-2.229096990875932,-0.103728373498262,0.3180241446701961,0.090265192091465,-0.1174256131052971,-0.09169355034828186,-0.01068897172808647,-0.03148685023188591,-0.01937692239880562,XTrueNorthZVertical,-0.02371821196992957,0.1645071851931637,0.8888113106890408,-0.4270706027314344,-0.09835033863782883,-0.312690407037735,-0.944749653339386,17.97687911987305,-18.77054595947266,-39.55729675292969,1,321261.999960875,unknown,2,2015-02-11 00:14:41.319,2015-02-11 00:12:28.580,55,35.85,0,0,2015-02-11 00:13:40.429,0,0.2316341,101.1206,192.168.1.3,10.42.194.158,1,0
2015-02-11 00:14:41.588,35,1423642481.072596,37.77936479545923,-122.4387897179671,63.27209,0,243.28125,4,5,-9999,1423642481.536855,18.71466827392578,-20.10403442382812,-39.34979248046875,268.1579284667969,254.3752136230469,25,321262.186006875,-0.213043212890625,-0.2247467041015625,-0.86273193359375,321262.175194875,0.7519504580027071,1.119966830086359,-0.8133922475119252,321262.075239875,-2.232981911380116,-0.0930454473631544,0.3249093157317094,0.1137136146426201,-0.03895804286003113,-0.09930071234703064,-0.02806928195059299,0.02835980989038944,0.001609565922990441,XTrueNorthZVertical,-0.02966291186116261,0.1653176218925776,0.889076343208528,-0.4258326722834231,-0.08805010467767715,-0.3192228376865387,-0.9435803890228271,18.37319946289062,-18.95490646362305,-39.28636169433594,1,321261.999960875,unknown,2,2015-02-11 00:14:41.319,2015-02-11 00:12:28.580,55,35.85,0,0,2015-02-11 00:13:40.429,0,0.2316341,101.1206,192.168.1.3,10.42.194.158,1,0
2015-02-11 00:14:41.670,36,1423642481.072596,37.77936479545923,-122.4387897179671,63.27209,0,243.28125,4,5,-9999,1423642481.655682,23.75965118408203,-19.23667907714844,-36.836181640625,274.76806640625,260.9853515625,25,321262.285209875,-0.020538330078125,-0.39459228515625,-1.201492309570312,321262.275144875,1.232036909814637,1.00443117883156,-1.493635495267595,321262.175194875,-2.26946275173187,-0.04092204354881892,0.3679724250404677,0.7720728516578674,1.112063646316528,-0.8229122757911682,-0.1601312160491943,0.1430495232343674,0.1305349320173264,XTrueNorthZVertical,-0.05902547972096642,0.1742907065676426,0.8925168467068301,-0.411767451333575,-0.03817201033234596,-0.3597243130207062,-0.932277500629425,19.57179641723633,-19.55296516418457,-38.40452575683594,1,321261.999960875,unknown,2,2015-02-11 00:14:41.319,2015-02-11 00:12:28.580,55,35.85,0,0,2015-02-11 00:13:40.429,0,0.2316341,101.1206,192.168.1.3,10.42.194.158,1,0
2015-02-11 00:14:42.097,37,1423642481.072596,37.77936479545923,-122.4387897179671,63.27209,0,243.28125,4,5,-9999,1423642481.781062,27.51728820800781,-19.30606079101562,-33.41790771484375,279.74609375,265.96337890625,25,321262.384394875,0.3011016845703125,-0.5150299072265625,-0.749847412109375,321262.375094875,1.351975565299664,0.6421275536022375,-1.663095098590427,321262.275144875,-2.417063949736686,0.09532735291577966,0.4294586857177611,1.252158999443054,0.9965280294418335,-1.50315535068512,-0.1850808560848236,0.08405753970146179,-0.2277186214923859,XTrueNorthZVertical,-0.1189593280911777,0.1825294523984676,0.9089858621735961,-0.3553538981369488,0.08653958886861801,-0.4163787066936493,-0.9050633311271667,24.2767162322998,-19.18885040283203,-35.81494903564453,1,321261.999960875,unknown,2,2015-02-11 00:14:41.319,2015-02-11 00:12:28.580,55,35.85,0,0,2015-02-11 00:13:40.429,0,0.2346554,101.1205,192.168.1.3,10.42.194.158,1,0
2015-02-11 00:14:42.850,38,1423642481.072596,37.77936479545923,-122.4387897179671,63.27209,0,243.28125,4,5,-9999,1423642481.895343,34.33671569824219,-16.94692993164062,-29.06109619140625,293.3102416992188,279.5275268554688,25,321262.483566875,0.347686767578125,-0.46923828125,-0.729461669921875,321262.475043875,-0.3778407733449541,-0.2115127811479462,-1.274427510149865,321262.375094875,-2.609408078287119,0.2192807219605893,0.5458103059081302,1.372097134590149,0.6342246532440186,-1.672614812850952,0.004186883103102446,0.002967036096379161,0.0238001998513937,XTrueNorthZVertical,-0.1721138862919846,0.2307740847850578,0.9157661142370563,-0.2801652534445352,0.1859223693609238,-0.5191108584403992,-0.8342402577400208,29.60361480712891,-19.52260589599609,-31.34924125671387,1,321261.999960875,unknown,2,2015-02-11 00:14:41.319,2015-02-11 00:12:28.580,55,35.85,0,0,2015-02-11 00:13:40.429,0,0.2346554,101.1205,192.168.1.3,10.42.194.158,1,0
2015-02-11 00:14:42.858,39,1423642481.072596,37.77936479545923,-122.4387897179671,63.27209,0,243.28125,4,5,-9999,1423642482.137659,29.22214508056641,-21.76930236816406,-29.4298095703125,304.5163879394531,290.7336730957031,25,321262.582749875,0.5754852294921875,-0.65081787109375,-0.7197113037109375,321262.475043875,-0.3778407733449541,-0.2115127811479462,-1.274427510149865,321262.475043875,-2.741663230207193,0.3620531362124196,0.5497855898827696,-0.3577195405960083,-0.2194155156612396,-1.283946990966797,0.09895557910203934,0.02334365993738174,0.03585636988282204,XTrueNorthZVertical,-0.2228640159598114,0.2272683037514734,0.9181549451472497,-0.2359496948233522,0.3019996285438538,-0.522504448890686,-0.7973614931106567,34.14082717895508,-17.33837127685547,-27.82204818725586,1,321261.999960875,unknown,2,2015-02-11 00:14:41.319,2015-02-11 00:12:28.580,55,35.85,0,0,2015-02-11 00:13:40.429,0,0.2346554,101.1205,192.168.1.3,10.42.194.158,1,0
2015-02-11 00:14:42.955,40,1423642481.072596,37.77936479545923,-122.4387897179671,63.27209,0,243.28125,4,5,-9999,1423642482.277442,27.90000915527344,-27.52839660644531,-25.34124755859375,304.956787109375,291.174072265625,25,321262.681937875,0.5152587890625,-0.845947265625,-0.5684051513671875,321262.674929875,1.748814530912916,-0.8130329870808736,-0.3060510051041241,321262.574989875,-2.829062981091117,0.2911500017381524,0.6082658243933396,1.491610288619995,-1.5569087266922,-0.2756313979625702,0.3110170066356659,-0.04916028305888176,0.05662617087364197,XTrueNorthZVertical,-0.1828305006286917,0.2711484048252695,0.9257519926835145,-0.1898283749297383,0.2355680763721466,-0.5714451670646667,-0.7861031293869019,32.31242370605469,-17.10606002807617,-30.05946159362793,1,321261.999960875,unknown,2,2015-02-11 00:14:41.319,2015-02-11 00:12:28.580,55,35.85,0,0,2015-02-11 00:13:40.429,0,0.2346554,101.1205,192.168.1.3,10.42.194.158,1,0
2015-02-11 00:14:43.136,41,1423642481.072596,37.77936479545923,-122.4387897179671,63.27209,0,243.28125,4,5,-9999,1423642482.277442,27.90000915527344,-27.52839660644531,-25.34124755859375,304.956787109375,291.174072265625,25,321262.781123875,-0.0291595458984375,-0.9268798828125,-0.5975189208984375,321262.674929875,1.748814530912916,-0.8130329870808736,-0.3060510051041241,321262.674929875,-2.910849859479388,0.2473774052339929,0.7575467834803333,1.768934845924377,-0.8209354281425476,-0.3155700862407684,0.2910197079181671,-0.2450334876775742,0.08993557840585709,XTrueNorthZVertical,-0.1561090438114272,0.3513210200746566,0.9106395132715557,-0.1514569161442247,0.1778981238603592,-0.6871411800384521,-0.7044070363044739,29.36226272583008,-21.50446701049805,-30.26048278808594,1,321261.999960875,unknown,2,2015-02-11 00:14:41.319,2015-02-11 00:12:28.580,55,35.85,0,0,2015-02-11 00:13:40.429,0,0.2346554,101.1205,192.168.1.3,10.42.194.158,1,0
2015-02-11 00:14:43.246,42,1423642482.362386,37.77935511436107,-122.4388173782476,63.3662,0.29,300.9375,4,5,-9999,1423642482.381489,27.13455963134766,-34.32830810546875,-8.71875,307.6180419921875,293.8353271484375,25,321262.880305875,0.07916259765625,-0.9210205078125,-0.0232696533203125,321262.874844875,2.826256271028999,0.02939543948007662,0.1641583148569203,321262.774877875,-3.002869992188019,0.3138220478819767,0.9966883949460552,2.508051156997681,-0.7107298970222473,0.8907302618026733,-0.3426669239997864,-0.0319049246609211,-0.04216906428337097,XTrueNorthZVertical,-0.1696510382125831,0.461451534215048,0.8603214089215478,-0.1346406084381846,0.1676486134529114,-0.839677095413208,-0.5165619850158691,29.46872520446777,-25.90714263916016,-26.47065925598145,1,321261.999960875,unknown,2,2015-02-11 00:14:41.319,2015-02-11 00:12:28.580,55,35.85,0,0,2015-02-11 00:13:40.429,0,0.2346554,101.1205,192.168.1.3,10.42.194.158,1,0
2015-02-11 00:14:43.332,43,1423642482.362386,37.77935511436107,-122.4388173782476,63.3662,0.29,300.9375,4,5,-9999,1423642482.618822,35.10214233398438,-27.91004943847656,3.7147216796875,318.5791015625,304.79638671875,25,321262.979470875,0.2881011962890625,-0.855194091796875,0.316162109375,321262.874844875,2.826256271028999,0.02939543948007662,0.1641583148569203,321262.874844875,-3.070805290783656,0.3195079434598198,1.21828256363301,2.846317052841187,0.02146306820213795,0.1546408385038376,-0.04045221582055092,0.1670081466436386,0.2414961755275726,XTrueNorthZVertical,-0.1503711915852814,0.559907306649616,0.8059685124051976,-0.1196122192685137,0.1084453836083412,-0.9385077953338623,-0.3277846276760101,26.44001388549805,-33.87765502929688,-19.83712768554688,1,321261.999960875,unknown,2,2015-02-11 00:14:41.319,2015-02-11 00:12:28.580,55,35.85,0,0,2015-02-11 00:13:40.429,0,0.2346554,101.1205,192.168.1.3,10.42.194.158,1,0
2015-02-11 00:14:43.419,44,1423642482.362386,37.77935511436107,-122.4388173782476,63.3662,0.29,300.9375,4,5,-9999,1423642482.618822,35.10214233398438,-27.91004943847656,3.7147216796875,318.5791015625,304.79638671875,25,321263.078671875,0.043975830078125,-0.4747467041015625,0.4179840087890625,321263.074742875,-1.419629178051492,-0.6353351612419904,-0.06225245574503822,321262.974795875,1.630770969331261,1.822572671465314,1.37921317573048,3.764322757720947,-2.69789457321167,-2.739052295684814,-0.06101210042834282,-0.1273505538702011,-0.1837892234325409,XTrueNorthZVertical,-0.1765920999547892,0.7018073588065794,0.6888554240402415,-0.04195091672681578,0.1844099313020706,-0.9817039966583252,0.0474366769194603,27.58797454833984,-36.26849746704102,-7.225455284118652,1,321261.999960875,unknown,2,2015-02-11 00:14:41.319,2015-02-11 00:12:28.580,55,35.85,0,0,2015-02-11 00:13:40.429,0,0.2346554,101.1205,192.168.1.3,10.42.194.158,1,0
2015-02-11 00:14:43.509,45,1423642482.362386,37.77935511436107,-122.4388173782476,63.3662,0.29,300.9375,4,5,-9999,1423642482.618822,35.10214233398438,-27.91004943847656,3.7147216796875,318.5791015625,304.79638671875,25,321263.177857875,0.457244873046875,-0.8912506103515625,0.2716217041015625,321263.074742875,-1.419629178051492,-0.6353351612419904,-0.06225245574503822,321263.074742875,1.377407069236465,2.247013201386093,1.125654657833854,-1.399569272994995,-0.6432672142982483,-0.07176956534385681,-0.3596373498439789,0.6796950697898865,0.3273057341575623,XTrueNorthZVertical,-0.3064439676132598,0.7354131353295366,0.6039170479716012,-0.0233201104817494,0.3358336389064789,-0.902549684047699,0.2694807648658752,34.65012741088867,-29.79643821716309,6.344143867492676,1,321261.999960875,unknown,2,2015-02-11 00:14:41.319,2015-02-11 00:12:28.580,55,35.85,0,0,2015-02-11 00:13:40.429,0,0.2346554,101.1205,192.168.1.3,10.42.194.158,1,0
2015-02-11 00:14:43.587,46,1423642482.362386,37.77935511436107,-122.4388173782476,63.3662,0.29,300.9375,4,5,-9999,1423642482.725506,35.55445098876953,-28.36106872558594,0.12872314453125,319.2765197753906,305.4938049316406,25,321263.277044875,0.375762939453125,-0.8634033203125,0.21331787109375,321263.174693875,-0.1911316093255698,0.6152346865985083,-0.1503231929939586,321263.174693875,1.549728828205552,2.060186749475518,1.151800452188472,-0.1710720360279083,0.6073027849197388,-0.1598401218652725,0.1215028464794159,-0.0759735107421875,0.1114211454987526,XTrueNorthZVertical,-0.3027732406702967,0.7098975010783664,0.6356438429755326,-0.01818848177784865,0.3590879738330841,-0.9134979248046875,0.191252201795578,35.21199798583984,-29.77205657958984,1.56433629989624,1,321261.999960875,unknown,2,2015-02-11 00:14:41.319,2015-02-11 00:12:28.580,55,35.85,0,0,2015-02-11 00:13:40.429,0,0.2346554,101.1205,192.168.1.3,10.42.194.158,1,0
2015-02-11 00:14:43.666,47,1423642482.362386,37.77935511436107,-122.4388173782476,63.3662,0.29,300.9375,4,5,-9999,1423642482.844463,35.76320648193359,-28.91615295410156,-0.54156494140625,320.3226928710938,306.5399780273438,25,321263.376231875,0.391876220703125,-0.8037109375,0.230224609375,321263.274642875,-0.2791147285746266,0.05883801691144763,0.09137145910396462,321263.274642875,1.617418343821459,2.005565363477556,1.169320513143902,-0.2590555548667908,0.05090627446770668,0.08185473084449768,0.02832923829555511,0.05325200408697128,0.03082355856895447,XTrueNorthZVertical,-0.3035189945229184,0.7001243434932941,0.6457416917458898,-0.02682917140773355,0.3544222116470337,-0.920485258102417,0.164595752954483,35.28154373168945,-29.69445037841797,1.469573974609375,1,321261.999960875,unknown,2,2015-02-11 00:14:41.319,2015-02-11 00:12:28.580,55,35.85,0,0,2015-02-11 00:13:40.429,0,0.2346554,101.1205,192.168.1.3,10.42.194.158,1,0
2015-02-11 00:14:43.765,48,1423642483.064583,37.77935490481349,-122.438823832313,63.3662,0.28,318.8671875,4,10,-9999,1423642483.06628,35.55445098876953,-29.19367980957031,-2.418212890625,327.9880676269531,314.2053527832031,25,321263.475404875,0.4927520751953125,-0.7888031005859375,0.3069305419921875,321263.474544875,-0.05304297837943521,-0.21718398268927,0.1197474405187589,321263.374598875,1.66278303783926,1.960542164885585,1.183116474838049,-0.1587035059928894,-0.06472323089838028,0.1349604874849319,0.04946412891149521,0.1208875402808189,0.08789873868227005,XTrueNorthZVertical,-0.3002190901488203,0.6940371475016099,0.6536293941136776,-0.03081500014634576,0.3496905267238617,-0.9257886409759521,0.1436381340026855,35.1236572265625,-29.90904235839844,0.696619987487793,1,321261.999960875,unknown,2,2015-02-11 00:14:41.319,2015-02-11 00:12:28.580,55,35.85,0,0,2015-02-11 00:13:40.429,0,0.2346554,101.1205,192.168.1.3,10.42.194.158,1,0
2015-02-11 00:14:43.843,49,1423642483.064583,37.77935490481349,-122.438823832313,63.3662,0.28,318.8671875,4,10,-9999,1423642483.06628,35.55445098876953,-29.19367980957031,-2.418212890625,327.9880676269531,314.2053527832031,25,321263.574591875,0.417083740234375,-0.8391571044921875,0.3367462158203125,321263.474544875,-0.05304297837943521,-0.21718398268927,0.1197474405187589,321263.474544875,1.633896759196798,1.971023266038396,1.181988572533541,-0.03289943933486938,-0.2250955551862717,0.1102071031928062,0.1231474503874779,0.1348495930433273,0.1636687815189362,XTrueNorthZVertical,-0.2939554794558605,0.6981699007591977,0.6523361625970477,-0.02462742425254409,0.349127322435379,-0.925361692905426,0.1477020680904388,35.02278900146484,-30.03223609924316,0.4202628135681152,1,321261.999960875,unknown,2,2015-02-11 00:14:41.319,2015-02-11 00:12:28.580,55,35.85,0,0,2015-02-11 00:13:40.429,0,0.2346554,101.1205,192.168.1.3,10.42.194.158,1,0
2015-02-11 00:14:43.940,50,1423642483.064583,37.77935490481349,-122.438823832313,63.3662,0.28,318.8671875,4,10,-9999,1423642483.180879,36.07634735107422,-28.81205749511719,-4.0604248046875,330.76611328125,316.9833984375,25,321263.673777875,0.3642120361328125,-1.031784057617188,0.0739898681640625,321263.574493875,0.1879861497620772,-0.2502774876590306,0.1361109675206418,321263.574493875,1.618322612272576,1.971257831346734,1.192662842137733,0.2081292867660522,-0.2581889033317566,0.1265708208084106,0.06023062020540237,0.08818408101797104,0.1814840286970139,XTrueNorthZVertical,-0.2850989652145901,0.7004862848729552,0.6538259012046846,-0.02343606062729314,0.3399769067764282,-0.9293553233146667,0.1439249068498611,34.70933532714844,-30.39665603637695,-0.1125121116638184,1,321261.999960875,unknown,2,2015-02-11 00:14:41.319,2015-02-11 00:12:28.580,55,35.85,0,0,2015-02-11 00:13:40.429,0,0.2346554,101.1205,192.168.1.3,10.42.194.158,1,0
2015-02-11 00:14:44.048,51,1423642483.064583,37.77935490481349,-122.438823832313,63.3662,0.28,318.8671875,4,10,-9999,1423642483.399364,34.64984130859375,-30.51203918457031,-0.07232666015625,326.4892883300781,312.7065734863281,25,321263.772956875,0.343536376953125,-0.94256591796875,0.0497589111328125,321263.674443875,-0.09441465328159816,-0.9009857462935035,-0.1267100088726621,321263.674443875,1.635221980611558,1.909800667365539,1.183507561069955,-0.07427193969488144,-0.9088969826698303,-0.1362499594688416,0.008027777075767517,-0.1058476194739342,-0.05160676687955856,XTrueNorthZVertical,-0.2738135999778503,0.6984442923391654,0.6611987745618008,-0.004228092876670241,0.3561842441558838,-0.9259364604949951,0.1255966275930405,34.82263946533203,-30.24308395385742,-1.202868938446045,1,321261.999960875,unknown,2,2015-02-11 00:14:41.319,2015-02-11 00:12:28.580,55,35.85,0,0,2015-02-11 00:13:40.429,0,0.2346554,101.1205,192.168.1.3,10.42.194.158,1,0
2015-02-11 00:14:44.167,52,1423642483.064583,37.77935490481349,-122.438823832313,63.3662,0.28,318.8671875,4,10,-9999,1423642483.637515,34.44108581542969,-28.98553466796875,3.81500244140625,325.6921081542969,311.9093933105469,25,321263.872154875,0.341217041015625,-0.9542694091796875,0.0953369140625,321263.774389875,0.424150481540342,0.01210193662553807,-0.09294325677932938,321263.774389875,1.640499600282882,1.858569723434578,1.172971087516874,0.4442927837371826,0.004190836101770401,-0.1024830117821693,-0.02794682048261166,-0.02066021040081978,-0.06019621714949608,XTrueNorthZVertical,-0.262133369270135,0.6973260798090047,0.6669161798361503,0.01566069894470469,0.3714832067489624,-0.9219056963920593,0.1099551320075989,34.99542999267578,-29.84030532836914,-3.685588836669922,1,321261.999960875,unknown,2,2015-02-11 00:14:41.319,2015-02-11 00:12:28.580,55,35.85,0,0,2015-02-11 00:13:40.429,0,0.2346554,101.1205,192.168.1.3,10.42.194.158,1,0
2015-02-11 00:14:44.274,53,1423642483.064583,37.77935490481349,-122.438823832313,63.3662,0.28,318.8671875,4,10,-9999,1423642483.754594,33.43207550048828,-28.81205749511719,3.91558837890625,324.82568359375,311.04296875,25,321263.971339875,0.236480712890625,-0.8324737548828125,0.159576416015625,321263.874349875,0.3067596722701941,0.231537089384252,0.2407865141662062,321263.874349875,1.558782413524253,1.952622524573842,1.167581007902497,0.3268381059169769,0.2235947102308273,0.2312484085559845,-0.02290401421487331,-0.03446527943015099,-0.05086927115917206,XTrueNorthZVertical,-0.2662293688274882,0.7086783578531037,0.6532725182235927,0.01148644869139528,0.3641210496425629,-0.9198041558265686,0.1462061852216721,35.09781265258789,-29.86432647705078,-2.230045795440674,1,321261.999960875,unknown,2,2015-02-11 00:14:41.319,2015-02-11 00:12:28.580,55,35.85,0,0,2015-02-11 00:13:40.429,0,0.2346554,101.1205,192.168.1.3,10.42.194.158,1,0
2015-02-11 00:14:44.350,54,1423642483.064583,37.77935490481349,-122.438823832313,63.3662,0.28,318.8671875,4,10,-9999,1423642483.873695,30.927001953125,-32.28140258789062,1.4356689453125,321.414306640625,307.631591796875,25,321264.070539875,0.288909912109375,-0.717010498046875,0.3362884521484375,321263.974293875,0.6487564278715537,0.2233409448134242,0.5211428084410278,321263.974293875,1.406753653882428,2.116621942983296,1.187368102713669,0.6688345074653625,0.2153987139463425,0.5116048455238342,-0.08326388150453568,0.09491382539272308,-0.03462887927889824,XTrueNorthZVertical,-0.2580398203203543,0.7283667336433576,0.63471926108251,-0.005368924194479925,0.3197445869445801,-0.9273875951766968,0.1942052990198135,33.97756195068359,-31.2120475769043,-0.2020010948181152,1,321261.999960875,unknown,2,2015-02-11 00:14:41.319,2015-02-11 00:12:28.580,55,35.85,0,0,2015-02-11 00:13:40.429,0,0.2346554,101.1205,192.168.1.3,10.42.194.158,1,0
2015-02-11 00:14:44.425,55,1423642484.059921,37.77935515627058,-122.4388281070836,63.24522,0.27,326.25,4,10,-9999,1423642483.99272,31.72723388671875,-32.66302490234375,-1.54705810546875,319.3059387207031,305.5232238769531,25,321264.169729875,0.4108734130859375,-0.8752288818359375,0.501953125,321264.074226875,0.1942738730957543,0.09225962332750604,0.06433930877522431,321264.074226875,1.258131728973916,2.271384357910438,1.170387252360501,0.2143515199422836,0.08431755751371384,0.05480159446597099,-0.009074137546122074,0.2038911134004593,0.08500026166439056,XTrueNorthZVertical,-0.2565290825145262,0.7482225094375552,0.6117542708686725,-0.01061280144689366,0.2979840636253357,-0.9209015965461731,0.2512881755828857,33.08219528198242,-32.08192443847656,2.241867542266846,1,321261.999960875,unknown,2,2015-02-11 00:14:41.319,2015-02-11 00:12:28.580,55,35.85,0,0,2015-02-11 00:13:40.429,0,0.2346554,101.1205,192.168.1.3,10.42.194.158,1,0
2015-02-11 00:14:44.498,56,1423642484.059921,37.77935515627058,-122.4388281070836,63.24522,0.27,326.25,4,10,-9999,1423642484.111173,33.18854522705078,-30.16510009765625,-4.1610107421875,321.98046875,308.19775390625,25,321264.268925875,0.415374755859375,-0.8364715576171875,0.6658935546875,321264.174194875,0.1368332168082713,0.4204026149382734,-0.3024557376325171,321264.174194875,1.242645526232478,2.31096166506885,1.148444503711639,0.1569104641675949,0.4124607145786285,-0.3119932413101196,0.1082158386707306,0.03689855337142944,0.2255078852176666,XTrueNorthZVertical,-0.2689973985063406,0.7522386709614547,0.6013196706446003,-0.01385815601815909,0.3026575744152069,-0.9121274352073669,0.2764452397823334,33.12002944946289,-31.91485977172852,3.634945869445801,1,321261.999960875,unknown,2,2015-02-11 00:14:41.319,2015-02-11 00:12:28.580,55,35.85,0,0,2015-02-11 00:13:40.429,0,0.2346554,101.1205,192.168.1.3,10.42.194.158,1,0
2015-02-11 00:14:44.514,57,1423642484.059921,37.77935515627058,-122.4388281070836,63.24522,0.27,326.25,4,10,-9999,1423642484.211268,34.47588348388672,-28.74264526367188,-2.65301513671875,322.86279296875,309.080078125,25,321264.368097875,0.209075927734375,-1.121963500976562,0.055084228515625,321264.274132875,-0.05689896932176094,0.455880448031982,-0.1814741882646155,321264.274132875,1.2867382322364,2.309705472237674,1.13790239988408,-0.03682210296392441,0.4479386806488037,-0.1910115331411362,0.1052791327238083,0.07128399610519409,0.3833681643009186,XTrueNorthZVertical,-0.2881352053200044,0.7471551370613525,0.5984939522266117,-0.02328748701748888,0.3100956380367279,-0.9077555537223816,0.2825253903865814,33.66722106933594,-31.19077682495117,4.72874641418457,1,321261.999960875,unknown,2,2015-02-11 00:14:41.319,2015-02-11 00:12:28.580,55,35.85,0,0,2015-02-11 00:13:40.429,0,0.2346554,101.1205,192.168.1.3,10.42.194.158,1,0
2015-02-11 00:14:44.659,58,1423642484.059921,37.77935515627058,-122.4388281070836,63.24522,0.27,326.25,4,10,-9999,1423642484.449632,34.30191802978516,-28.91612243652344,-7.24432373046875,327.7967529296875,314.0140380859375,25,321264.467298875,0.164154052734375,-1.014404296875,0.053253173828125,321264.374093875,-0.1601420016169718,-0.4959463750516791,1.140326696620015,321264.374093875,1.236025027200281,2.337852370176045,1.193215646094925,-0.140065535902977,-0.503887951374054,1.130789637565613,-0.05635254085063934,-0.1924042105674744,-0.200781524181366,XTrueNorthZVertical,-0.262023423094832,0.7478479812322051,0.6089166083039105,-0.03588453892183606,0.2654284536838531,-0.9295592904090881,0.255865752696991,32.63535308837891,-32.3361701965332,4.244218349456787,1,321261.999960875,unknown,2,2015-02-11 00:14:41.319,2015-02-11 00:12:28.580,55,35.85,0,0,2015-02-11 00:13:40.429,0,0.2346554,101.1205,192.168.1.3,10.42.194.158,1,0
2015-02-11 00:14:44.736,59,1423642484.059921,37.77935515627058,-122.4388281070836,63.24522,0.27,326.25,4,10,-9999,1423642484.571197,29.08297729492188,-32.52424621582031,-8.718994140625,319.6806030273438,305.8978881835938,25,321264.566484875,0.15692138671875,-0.8433837890625,0.0594482421875,321264.474045875,-0.8742414836786007,-0.222830416832456,0.07745111608612043,321264.474045875,1.217790837660712,2.336041785352473,1.257209203244039,-0.8541654348373413,-0.2307718545198441,0.06791415810585022,-0.05832038074731827,-0.0631711333990097,-0.1604303121566772,XTrueNorthZVertical,-0.2365455627439564,0.742218254504835,0.6250789180036781,-0.04934185828158619,0.2224744260311127,-0.9512331485748291,0.2136834859848022,30.49054336547852,-34.54900741577148,2.323901176452637,1,321261.999960875,unknown,2,2015-02-11 00:14:41.319,2015-02-11 00:12:28.580,55,35.85,0,0,2015-02-11 00:13:40.429,0,0.2346554,101.1205,192.168.1.3,10.42.194.158,1,0
2015-02-11 00:14:44.739,60,1423642484.059921,37.77935515627058,-122.4388281070836,63.24522,0.27,326.25,4,10,-9999,1423642484.571197,29.08297729492188,-32.52424621582031,-8.718994140625,319.6806030273438,305.8978881835938,25,321264.665677875,0.29931640625,-0.8446502685546875,-0.0483856201171875,321264.573974875,-0.3377689873708588,-0.3864510394652892,-0.2575910606446062,321264.573974875,1.434840184439599,2.122789803770218,1.295150795455602,-0.3176933228969574,-0.3943923115730286,-0.2671278417110443,-0.07482463866472244,0.1188659146428108,-0.08327286690473557,XTrueNorthZVertical,-0.236104566290876,0.7180634998353487,0.6525412697547185,-0.05319162089179093,0.2317460179328918,-0.9622496962547302,0.1427211165428162,30.52709770202637,-34.5948486328125,0.009192466735839844,1,321261.999960875,unknown,2,2015-02-11 00:14:41.319,2015-02-11 00:12:28.580,55,35.85,0,0,2015-02-11 00:13:40.429,0,0.2346554,101.1205,192.168.1.3,10.42.194.158,1,0
2015-02-11 00:14:44.813,61,1423642484.059921,37.77935515627058,-122.4388281070836,63.24522,0.27,326.25,4,10,-9999,1423642484.68709,18.15800476074219,-38.69969177246094,-9.3892822265625,302.0693359375,288.28662109375,25,321264.764860875,0.4003143310546875,-1.022354125976562,0.1106414794921875,321264.673943875,-0.2900933438523693,0.1903153504514605,-0.4235129207753769,321264.673943875,1.689080503188315,1.874446515134304,1.280157546543753,-0.270018070936203,0.1823742389678955,-0.4330494999885559,0.02586199156939983,0.1134107485413551,-0.1340698897838593,XTrueNorthZVertical,-0.2484670427612011,0.6936182431236722,0.6746648414924697,-0.04455587959926596,0.2734544277191162,-0.9580610394477844,0.08568427711725235,31.97921752929688,-33.14583969116211,-2.718569278717041,1,321261.999960875,unknown,2,2015-02-11 00:14:41.319,2015-02-11 00:12:28.580,55,35.85,0,0,2015-02-11 00:13:40.429,0,0.2346554,101.1205,192.168.1.3,10.42.194.158,1,0
2015-02-11 00:14:44.818,62,1423642484.059921,37.77935515627058,-122.4388281070836,63.24522,0.27,326.25,4,10,-9999,1423642484.804742,13.14780426025391,-39.87925720214844,-8.31689453125,298.0278015136719,284.2450866699219,25,321264.864054875,0.4382781982421875,-0.8759002685546875,0.47113037109375,321264.773880875,0.2571106263839559,0.08913893116215119,-0.3515111649117766,321264.773880875,1.643103356421203,1.931151345955824,1.236723054574216,0.277185469865799,0.08119796961545944,-0.3610475361347198,0.09348053485155106,-0.07763954252004623,-0.00497601879760623,XTrueNorthZVertical,-0.2660133339031323,0.6978865633575955,0.6641393637898819,-0.03331920798617401,0.306833803653717,-0.9447146058082581,0.115617498755455,33.30198287963867,-31.89202308654785,-1.60758638381958,1,321261.999960875,unknown,2,2015-02-11 00:14:41.319,2015-02-11 00:12:28.580,55,35.85,0,0,2015-02-11 00:13:40.429,0,0.2346554,101.1205,192.168.1.3,10.42.194.158,1,0
2015-02-11 00:14:44.821,63,1423642484.059921,37.77935515627058,-122.4388281070836,63.24522,0.27,326.25,4,10,-9999,1423642484.804742,13.14780426025391,-39.87925720214844,-8.31689453125,298.0278015136719,284.2450866699219,25,321264.963248875,0.4422760009765625,-1.119293212890625,0.186920166015625,321264.873836875,0.301611515566962,-0.2635070066901082,-0.03474573011004581,321264.873836875,1.537810239301684,2.044415402211211,1.187935779762064,0.321622222661972,-0.2714794278144836,-0.04428133368492126,0.1058246269822121,0.05169953405857086,0.3007388710975647,XTrueNorthZVertical,-0.2819506222989114,0.7111255837796782,0.6436952440941012,-0.02146384623720732,0.332453578710556,-0.9275997877120972,0.1703914999961853,34.29145431518555,-30.86315536499023,0.5189647674560547,1,321261.999960875,unknown,2,2015-02-11 00:14:41.319,2015-02-11 00:12:28.580,55,35.85,0,0,2015-02-11 00:13:40.429,0,0.2346554,101.1205,192.168.1.3,10.42.194.158,1,0
2015-02-11 00:14:44.896,64,1423642484.059921,37.77935515627058,-122.4388281070836,63.24522,0.27,326.25,4,10,-9999,1423642484.804742,13.14780426025391,-39.87925720214844,-8.31689453125,298.0278015136719,284.2450866699219,25,321265.062420875,0.212432861328125,-1.241348266601562,-0.4532012939453125,321264.973793875,-0.425935065786804,-0.4340076396830522,0.2585721691901914,321264.973793875,1.596931349742603,1.948958837971485,1.227725185591692,-0.4059247672557831,-0.4419798851013184,0.2490367591381073,0.1065451577305794,-0.165238082408905,0.06547040492296219,XTrueNorthZVertical,-0.2587207808710631,0.7036772907789794,0.6614066209729649,-0.02105048707127087,0.3126137852668762,-0.94172602891922,0.1241963431239128,35.57608413696289,-27.02786064147949,-2.539611339569092,1,321261.999960875,unknown,2,2015-02-11 00:14:41.319,2015-02-11 00:12:28.580,55,35.85,0,0,2015-02-11 00:13:40.429,0,0.2346554,101.1205,192.168.1.3,10.42.194.158,1,0
2015-02-11 00:14:44.900,65,1423642484.059921,37.77935515627058,-122.4388281070836,63.24522,0.27,326.25,4,10,-9999,1423642484.804742,13.14780426025391,-39.87925720214844,-8.31689453125,298.0278015136719,284.2450866699219,25,321265.161686875,0.0112457275390625,-1.066864013671875,-0.1024932861328125,321265.073743875,-0.4429827588727283,-0.3664637491681356,1.033398115692243,321265.073743875,1.831192304190905,1.649132787253199,1.323311806204235,-0.4229728877544403,-0.3744358420372009,1.023862957954407,-0.08015221357345581,-0.2698939740657806,-0.4597371518611908,XTrueNorthZVertical,-0.2051914139682441,0.6837262290159023,0.6995936987464154,-0.03136235560518309,0.2442147135734558,-0.9695317149162292,0.01917014457285404,33.185302734375,-29.01465606689453,-7.713505268096924,1,321261.999960875,unknown,2,2015-02-11 00:14:41.319,2015-02-11 00:12:28.580,55,35.85,0,0,2015-02-11 00:13:40.429,0,0.2346554,101.1205,192.168.1.3,10.42.194.158,1,0
2015-02-11 00:14:45.078,66,1423642484.059921,37.77935515627058,-122.4388281070836,63.24522,0.27,326.25,4,10,-9999,1423642484.923687,11.40814971923828,-39.87924194335938,-5.50177001953125,293.9403076171875,280.1575927734375,25,321265.260873875,-0.3792572021484375,-0.883026123046875,-0.108978271484375,321265.173764875,-0.09481785587063615,0.33424935367421,2.328739962514718,321265.173764875,1.460407397713905,2.047346886751172,1.479701899050663,-0.07480837404727936,0.3262774050235748,2.319204807281494,-0.07875795662403107,-0.08967173844575882,-0.1226767227053642,XTrueNorthZVertical,-0.1594212496920732,0.7038815866917364,0.6852547635817181,-0.09778291945372325,0.08083315193653107,-0.9958537817001343,0.04172884672880173,29.25889587402344,-33.19048690795898,-6.702341079711914,1,321261.999960875,unknown,2,2015-02-11 00:14:41.319,2015-02-11 00:12:28.580,55,35.85,0,0,2015-02-11 00:13:40.429,0,0.2346554,101.1205,192.168.1.3,10.42.194.158,1,0
2015-02-11 00:14:45.157,67,1423642485.056216,37.77935561727526,-122.4388323818542,63.33274,0.27,321.6796875,6,10,-9999,1423642485.044735,12.76507568359375,-39.35884094238281,-3.32342529296875,292.1605224609375,278.3778076171875,25,321265.360082875,-0.227325439453125,-0.7006988525390625,0.0767059326171875,321265.273715875,0.1380750488245752,-0.7654758542308926,2.199116455409509,321265.273715875,-1.131559458776688,-1.680857706720728,1.386724881364976,0.1580841392278671,-0.7734476327896118,2.189581632614136,-0.2171215116977692,0.1115093380212784,-0.1207818016409874,XTrueNorthZVertical,-0.05281451074976289,0.7122238282863471,0.6769735329652378,-0.1779176630505101,-0.1819263398647308,-0.9831066131591797,0.0201043076813221,20.75788307189941,-38.9025764465332,-7.636253833770752,1,321261.999960875,unknown,2,2015-02-11 00:14:41.319,2015-02-11 00:12:28.580,55,35.85,0,0,2015-02-11 00:13:40.429,0,0.2346554,101.1205,192.168.1.3,10.42.194.158,1,0
2015-02-11 00:14:45.236,68,1423642485.056216,37.77935561727526,-122.4388323818542,63.33274,0.27,321.6796875,6,10,-9999,1423642485.162606,16.76626586914062,-38.14457702636719,-3.82611083984375,292.26611328125,278.4833984375,25,321265.459277875,-0.2662811279296875,-0.9514007568359375,0.17803955078125,321265.373665875,0.5113852525230864,-0.05410850913157592,0.2266041160970982,321265.373665875,-1.001487968053202,-1.84169527919203,1.30104093951641,0.5313939452171326,-0.06208011880517006,0.2170694768428802,0.03599740564823151,0.2325739115476608,0.01497480366379023,XTrueNorthZVertical,-0.01734184682675706,0.7316803157657021,0.654119294170073,-0.190974181892403,-0.2567768394947052,-0.963836133480072,0.07131364941596985,14.22605037689209,-41.84780120849609,-6.999541282653809,1,321261.999960875,unknown,2,2015-02-11 00:14:41.319,2015-02-11 00:12:28.580,55,35.85,0,0,2015-02-11 00:13:40.429,0,0.2346554,101.1205,192.168.1.3,10.42.194.158,1,0
2015-02-11 00:14:45.313,69,1423642485.056216,37.77935561727526,-122.4388323818542,63.33274,0.27,321.6796875,6,10,-9999,1423642485.162606,16.76626586914062,-38.14457702636719,-3.82611083984375,292.26611328125,278.4833984375,25,321265.558464875,-0.328948974609375,-0.96722412109375,0.4694366455078125,321265.473614875,0.3514091658420266,0.1550042312419909,0.1980971071566721,321265.473614875,-0.9189262274517375,-1.908548980033242,1.263201746458498,0.3714174330234528,0.1470327824354172,0.1885626614093781,-0.004789816681295633,-0.03951961919665337,0.1042626723647118,XTrueNorthZVertical,-0.01396534173227639,0.7415986492394095,0.6387209963180163,-0.2046262808744033,-0.2856612205505371,-0.9530646204948425,0.1003271713852882,13.15544319152832,-42.41851806640625,-5.496941566467285,1,321261.999960875,unknown,2,2015-02-11 00:14:41.319,2015-02-11 00:12:28.580,55,35.85,0,0,2015-02-11 00:13:40.429,0,0.2346554,101.1205,192.168.1.3,10.42.194.158,1,0
2015-02-11 00:14:45.390,70,1423642485.056216,37.77935561727526,-122.4388323818542,63.33274,0.27,321.6796875,6,10,-9999,1423642485.281077,19.68885803222656,-36.75685119628906,-1.54718017578125,293.3307800292969,279.5480651855469,25,321265.657659875,-0.1899261474609375,-0.8713531494140625,-0.0858306884765625,321265.573565875,0.4385118440347032,0.330919337047175,-0.3288497945640744,321265.573565875,-0.7010225267756556,-2.09924941524269,1.233345889152615,0.4585205912590027,0.3229479491710663,-0.3383834958076477,-0.004516946151852608,-0.06057906150817871,0.2421875298023224,XTrueNorthZVertical,-0.02749858460905764,0.7633540395883185,0.6105243945625676,-0.209271151901284,-0.2859188318252563,-0.9436018466949463,0.1669311225414276,12.73290061950684,-42.81076049804688,-2.779253005981445,1,321261.999960875,unknown,2,2015-02-11 00:14:41.319,2015-02-11 00:12:28.580,55,35.85,0,0,2015-02-11 00:13:40.429,0,0.2346554,101.1205,192.168.1.3,10.42.194.158,1,0
2015-02-11 00:14:45.469,71,1423642485.056216,37.77935561727526,-122.4388323818542,63.33274,0.27,321.6796875,6,10,-9999,1423642485.399924,21.46331024169922,-35.75074005126953,-0.77630615234375,293.0837707519531,279.3010559082031,25,321265.756843875,-0.164947509765625,-1.142776489257812,-0.2554168701171875,321265.673505875,-0.55721292856117,0.8851439325491671,-1.070354802139273,321265.673505875,-0.7212587547675137,-2.038462278193458,1.284274702019879,-0.5372045636177063,0.8771727085113525,-1.079888343811035,0.08010587096214294,0.1429485529661179,-0.2486819475889206,XTrueNorthZVertical,-0.05297868609702723,0.7489297723752891,0.6253590462550619,-0.2126582503023928,-0.2522707879543304,-0.9592327475547791,0.1274050921201706,13.98658466339111,-42.45384216308594,-2.158576965332031,1,321261.999960875,unknown,2,2015-02-11 00:14:41.319,2015-02-11 00:12:28.580,55,35.85,0,0,2015-02-11 00:13:40.429,0,0.2346554,101.1205,192.168.1.3,10.42.194.158,1,0
2015-02-11 00:14:45.540,72,1423642485.056216,37.77935561727526,-122.4388323818542,63.33274,0.27,321.6796875,6,10,-9999,1423642485.399924,21.46331024169922,-35.75074005126953,-0.77630615234375,293.0837707519531,279.3010559082031,25,321265.856047875,-0.1291046142578125,-0.9272613525390625,0.0216827392578125,321265.773477875,0.3566899479675448,0.6390500046465419,-0.6411954472207098,321265.773477875,-0.7147273021759696,-1.947795068088062,1.392767338780433,0.3766979277133942,0.6310789585113525,-0.6507287621498108,0.01240155287086964,-0.1206027120351791,-0.3252022564411163,XTrueNorthZVertical,-0.1158112451413758,0.7205442368042166,0.6478519502799148,-0.2183841159767106,-0.1646537482738495,-0.9841946363449097,0.06519248336553574,19.20055770874023,-40.33100128173828,-2.713196516036987,1,321261.999960875,unknown,2,2015-02-11 00:14:41.319,2015-02-11 00:12:28.580,55,35.85,0,0,2015-02-11 00:13:40.429,0,0.2346554,101.1205,192.168.1.3,10.42.194.158,1,0
2015-02-11 00:14:45.613,73,1423642485.056216,37.77935561727526,-122.4388323818542,63.33274,0.27,321.6796875,6,10,-9999,1423642485.519575,22.43751525878906,-35.40379333496094,-1.9827880859375,298.0473022460938,284.2645874023438,25,321265.955230875,-0.1487884521484375,-0.7415924072265625,-0.0404815673828125,321265.873415875,0.0911757167638438,0.4833813147125763,-0.6253219418594015,321265.873415875,-0.2477412329902239,-2.357987240251436,1.430375046701153,0.1111197471618652,0.4753787815570831,-0.6348552703857422,-0.008708828128874302,0.074828140437603,-0.07697317004203796,XTrueNorthZVertical,-0.1622751821908139,0.7233525134440812,0.6370425214539613,-0.2111983562531525,-0.09878934174776077,-0.9901571273803711,0.09914419054985046,21.83186340332031,-39.06360626220703,-0.1307287216186523,1,321261.999960875,unknown,2,2015-02-11 00:14:41.319,2015-02-11 00:12:28.580,55,35.85,0,0,2015-02-11 00:13:40.429,0,0.2346554,101.1205,192.168.1.3,10.42.194.158,1,0
2015-02-11 00:14:45.618,74,1423642485.056216,37.77935561727526,-122.4388323818542,63.33274,0.27,321.6796875,6,10,-9999,1423642485.519575,22.43751525878906,-35.40379333496094,-1.9827880859375,298.0473022460938,284.2645874023438,25,321266.054422875,0.052886962890625,-0.972564697265625,0.181732177734375,321265.973373875,-0.06760487690387948,-0.1456091315484094,-0.1414037338710653,321265.973373875,-0.1071728471863446,-2.476772423338525,1.457881324226906,-0.04766124486923218,-0.1536114811897278,-0.1509369015693665,-0.08473969250917435,0.2640481293201447,-0.1070501953363419,XTrueNorthZVertical,-0.1792816126950689,0.715679685009284,0.6417504824275931,-0.2093251618984312,-0.06951140612363815,-0.993631899356842,0.08867861330509186,23.31774711608887,-38.19323348999023,0.4148209095001221,1,321261.999960875,unknown,2,2015-02-11 00:14:41.319,2015-02-11 00:12:28.580,55,35.85,0,0,2015-02-11 00:13:40.429,0,0.2346554,101.1205,192.168.1.3,10.42.194.158,1,0
2015-02-11 00:14:45.622,75,1423642485.056216,37.77935561727526,-122.4388323818542,63.33274,0.27,321.6796875,6,10,-9999,1423642485.619593,21.60248565673828,-35.40379333496094,-3.25634765625,301.52392578125,287.7412109375,25,321266.153599875,-0.0347137451171875,-1.10479736328125,0.28594970703125,321266.073313875,-0.2425732289415404,-0.2834104074129244,-0.1609912836885981,321266.073313875,0.08637243599720283,-2.694583656316113,1.480537647855609,-0.2226299941539764,-0.2914125919342041,-0.1705242544412613,0.08954615145921707,-0.04720714688301086,0.09639343619346619,XTrueNorthZVertical,-0.1804405022417562,0.7127981330300743,0.6500315939809455,-0.1918827423494878,-0.03896326571702957,-0.995929479598999,0.08127990365028381,24.46118927001953,-37.46853637695312,-0.6097073554992676,1,321261.999960875,unknown,2,2015-02-11 00:14:41.319,2015-02-11 00:12:28.580,55,35.85,0,0,2015-02-11 00:13:40.429,0,0.2346554,101.1205,192.168.1.3,10.42.194.158,1,0
2015-02-11 00:14:45.696,76,1423642485.056216,37.77935561727526,-122.4388323818542,63.33274,0.27,321.6796875,6,10,-9999,1423642485.619593,21.60248565673828,-35.40379333496094,-3.25634765625,301.52392578125,287.7412109375,25,321266.252779875,-0.111297607421875,-1.077713012695312,-0.1674346923828125,321266.173265875,0.1061205778530415,-0.3486506635849226,0.2334436464086397,321266.173265875,0.04827004116452895,-2.68975463355143,1.468699005677401,0.1260634213685989,-0.356652706861496,0.2239108681678772,0.01405908912420273,-0.1205638498067856,0.2227762937545776,XTrueNorthZVertical,-0.1675188009507733,0.719571746508615,0.648873431630136,-0.1819814165360654,-0.04450037330389023,-0.9947925806045532,0.09169209748506546,24.28083419799805,-37.57407379150391,-1.114733457565308,1,321261.999960875,unknown,2,2015-02-11 00:14:41.319,2015-02-11 00:12:28.580,55,35.85,0,0,2015-02-11 00:13:40.429,0,0.2346554,101.1205,192.168.1.3,10.42.194.158,1,0
2015-02-11 00:14:45.771,77,1423642485.056216,37.77935561727526,-122.4388323818542,63.33274,0.27,321.6796875,6,10,-9999,1423642485.619593,21.60248565673828,-35.40379333496094,-3.25634765625,301.52392578125,287.7412109375,25,321266.351967875,-0.094390869140625,-0.9932861328125,-0.13348388671875,321266.273214875,-0.03650288379728009,-0.2506990660595901,0.3211692379802859,321266.273214875,-0.3427354650505138,-2.313734937191254,1.485375514320441,-0.01656046509742737,-0.2587009370326996,0.3116366565227509,-0.113007590174675,0.2406165599822998,-0.2150618433952332,XTrueNorthZVertical,-0.1530055418681651,0.7109471905447632,0.6606147265758952,-0.1863641401412264,-0.06283469498157501,-0.9963538646697998,0.05771320685744286,23.69637298583984,-37.87306213378906,-2.593378782272339,1,321261.999960875,unknown,2,2015-02-11 00:14:41.319,2015-02-11 00:12:28.580,55,35.85,0,0,2015-02-11 00:13:40.429,0,0.2462387,101.1204,192.168.1.3,10.42.194.158,1,0
2015-02-11 00:14:45.852,78,1423642485.056216,37.77935561727526,-122.4388323818542,63.33274,0.27,321.6796875,6,10,-9999,1423642485.738759,20.31514739990234,-35.5772705078125,-4.2952880859375,299.5490112304688,285.7662963867188,25,321266.451134875,-0.17486572265625,-1.12896728515625,0.063018798828125,321266.373164875,0.2179286025300561,-0.06247855812158595,0.1496882953900837,321266.373164875,-0.3767641489443594,-2.292619910810072,1.462211991287619,0.2378706187009811,-0.07048026472330093,0.1401558965444565,-0.05932712182402611,-0.04446370899677277,-0.224927082657814,XTrueNorthZVertical,-0.1430885423926821,0.7178642321651603,0.6550882760179391,-0.1872324147232344,-0.08134365081787109,-0.9941105246543884,0.07160677015781403,22.69554710388184,-38.47247314453125,-2.719058513641357,1,321261.999960875,unknown,2,2015-02-11 00:14:41.319,2015-02-11 00:12:28.580,55,35.85,0,0,2015-02-11 00:13:40.429,0,0.2462387,101.1204,192.168.1.3,10.42.194.158,1,0
2015-02-11 00:14:45.935,79,1423642485.056216,37.77935561727526,-122.4388323818542,63.33274,0.27,321.6796875,6,10,-9999,1423642485.857152,18.64508819580078,-36.61805725097656,-3.15576171875,295.7386474609375,281.9559326171875,25,321266.550315875,-0.16693115234375,-0.8920745849609375,0.074127197265625,321266.473118875,0.2170681351818515,-0.2449514317949811,0.6294876584365034,321266.473118875,-0.3453430270460577,-2.345877314598702,1.404191099216638,0.2370097488164902,-0.2529529631137848,0.6199554204940796,-0.0564749501645565,-0.04486769437789917,-0.0628705769777298,XTrueNorthZVertical,-0.1255649844356305,0.7363811252143845,0.6373469594273121,-0.1891167356576987,-0.1184670701622963,-0.9861534237861633,0.1160474568605423,21.69655227661133,-39.10280609130859,-1.686066865921021,1,321261.999960875,unknown,2,2015-02-11 00:14:41.319,2015-02-11 00:12:28.580,55,35.85,0,0,2015-02-11 00:13:40.429,0,0.2462387,101.1204,192.168.1.3,10.42.194.158,1,0
2015-02-11 00:14:46.115,80,1423642485.056216,37.77935561727526,-122.4388323818542,63.33274,0.27,321.6796875,6,10,-9999,1423642485.957158,16.17478942871094,-36.444580078125,-1.84881591796875,292.3692016601562,278.5864868164062,25,321266.649492875,-0.104034423828125,-0.7222137451171875,0.1816864013671875,321266.573065875,0.1120490407556669,-0.03629675512890795,0.4217605607781048,321266.573065875,-0.4880495844614784,-2.232306951127322,1.349932263080621,0.1319902688264847,-0.04429814219474792,0.4122285544872284,0.05800984054803848,0.1746526062488556,-0.04761869832873344,XTrueNorthZVertical,-0.09680678733896149,0.746938896707091,0.6275990019927933,-0.1970538923597794,-0.1728627532720566,-0.975708544254303,0.1345785409212112,18.79381942749023,-40.58991241455078,-1.365179061889648,1,321261.999960875,unknown,2,2015-02-11 00:14:41.319,2015-02-11 00:12:28.580,55,35.85,0,0,2015-02-11 00:13:40.429,0,0.2462387,101.1204,192.168.1.3,10.42.194.158,1,0
2015-02-11 00:14:46.181,81,1423642486.060038,37.77934928893836,-122.4388436974235,63.38915,0.83,249.609375,6,10,-9999,1423642485.957158,16.17478942871094,-36.444580078125,-1.84881591796875,292.3692016601562,278.5864868164062,25,321266.748681875,-0.181549072265625,-0.791229248046875,0.298431396484375,321266.673013875,0.1794003847237708,0.2544325515917722,0.4575044436647123,321266.673013875,-0.5285035516023416,-2.179053112040061,1.303666987306292,0.199341207742691,0.2464313358068466,0.4479726254940033,0.1014625504612923,0.229318380355835,0.04886817932128906,XTrueNorthZVertical,-0.08702057643623627,0.7535561323261958,0.6151851911447166,-0.2147737614139948,-0.2166206240653992,-0.9645326137542725,0.1508388519287109,17.53497695922852,-41.16636657714844,-0.6836891174316406,1,321261.999960875,unknown,2,2015-02-11 00:14:41.319,2015-02-11 00:12:28.580,55,35.85,0,0,2015-02-11 00:13:40.429,0,0.2462387,101.1204,192.168.1.3,10.42.194.158,1,0
2015-02-11 00:14:46.260,82,1423642486.060038,37.77934928893836,-122.4388436974235,63.38915,0.83,249.609375,6,10,-9999,1423642486.074188,13.14779663085938,-37.38128662109375,-2.08331298828125,290.6412353515625,276.8585205078125,25,321266.847857875,-0.20849609375,-1.087051391601562,0.2372589111328125,321266.772963875,0.3802456078092956,0.3130697661570279,0.1999836904728842,321266.772963875,-0.4792354395017226,-2.19918942181949,1.258001835725588,0.4001860320568085,0.305068701505661,0.190452054142952,0.0814405083656311,0.07432588189840317,0.1708239614963531,XTrueNorthZVertical,-0.08845301534582584,0.7632965516230291,0.5963633903823197,-0.2321748441449134,-0.2489362359046936,-0.9514773488044739,0.1808911263942719,15.7744312286377,-41.85456848144531,1.405403137207031,1,321261.999960875,unknown,2,2015-02-11 00:14:41.319,2015-02-11 00:12:28.580,55,35.85,0,0,2015-02-11 00:13:40.429,0,0.2462387,101.1204,192.168.1.3,10.42.194.158,1,0
2015-02-11 00:14:46.332,83,1423642486.060038,37.77934928893836,-122.4388436974235,63.38915,0.83,249.609375,6,10,-9999,1423642486.310709,9.355361938476562,-38.17924499511719,2.03875732421875,277.0170593261719,263.2343444824219,25,321266.947054875,-0.152008056640625,-0.8329315185546875,-0.01080322265625,321266.872908875,-0.3776604773391557,0.4294736079271923,0.6721605538472791,321266.872908875,-0.5053968001697434,-2.118501902172282,1.242811534441789,-0.3577838540077209,0.4214410781860352,0.6626282334327698,-0.03029871173202991,-0.2226180881261826,0.006540100555866957,XTrueNorthZVertical,-0.0986828162256741,0.7577166990042079,0.5910415065442819,-0.2584512655399224,-0.2750144004821777,-0.9466934204101562,0.1677457839250565,15.31987476348877,-41.95539474487305,2.767520427703857,1,321261.999960875,unknown,2,2015-02-11 00:14:41.319,2015-02-11 00:12:28.580,55,35.85,0,0,2015-02-11 00:13:40.429,0,0.2462387,101.1204,192.168.1.3,10.42.194.158,1,0
2015-02-11 00:14:46.432,84,1423642486.060038,37.77934928893836,-122.4388436974235,63.38915,0.83,249.609375,6,10,-9999,1423642486.427514,11.16458892822266,-37.90170288085938,1.9716796875,273.5661926269531,259.7834777832031,25,321267.046232875,-0.29150390625,-1.018905639648438,-0.22064208984375,321266.972845875,-0.3807814358206196,1.016904093796946,-0.9058156552464711,321266.972845875,-0.5221597261496557,-2.043425674487576,1.258262802396668,-0.3609052002429962,1.008871793746948,-0.9153478145599365,0.1619626879692078,0.08452273160219193,-0.1582647413015366,XTrueNorthZVertical,-0.1186795520757331,0.745586945848747,0.5938569495922192,-0.2781172536996786,-0.2737638354301453,-0.9515576362609863,0.1399694532155991,13.64426040649414,-42.54229354858398,2.569072246551514,1,321261.999960875,unknown,2,2015-02-11 00:14:41.319,2015-02-11 00:12:28.580,55,35.85,0,0,2015-02-11 00:13:40.429,0,0.2462387,101.1204,192.168.1.3,10.42.194.158,1,0
2015-02-11 00:14:46.573,85,1423642486.060038,37.77934928893836,-122.4388436974235,63.38915,0.83,249.609375,6,10,-9999,1423642486.527658,12.86943054199219,-37.9364013671875,2.94354248046875,270.2120971679688,256.4293823242188,25,321267.145425875,-0.152801513671875,-1.007095336914062,0.0240478515625,321267.072790875,0.1385986262948848,1.12764392456073,-0.5014109152924127,321267.072790875,-0.5839586200428577,-1.872550430128374,1.322872800489753,0.1584744602441788,1.119611740112305,-0.5109428763389587,-0.03159570693969727,-0.01366920117288828,-0.2688673734664917,XTrueNorthZVertical,-0.1657800019469993,0.7134294825066329,0.6084024491428744,-0.3055844197715404,-0.2343039512634277,-0.9694240689277649,0.0729292705655098,16.72626876831055,-41.41378021240234,2.782711267471313,1,321261.999960875,unknown,2,2015-02-11 00:14:41.319,2015-02-11 00:12:28.580,55,35.85,0,0,2015-02-11 00:13:40.429,0,0.2462387,101.1204,192.168.1.3,10.42.194.158,1,0
2015-02-11 00:14:46.652,86,1423642486.060038,37.77934928893836,-122.4388436974235,63.38915,0.83,249.609375,6,10,-9999,1423642486.527658,12.86943054199219,-37.9364013671875,2.94354248046875,270.2120971679688,256.4293823242188,25,321267.244607875,-0.0543975830078125,-0.766845703125,-0.029876708984375,321267.172755875,-0.249114485210993,1.163577424516951,-0.7347624163273357,321267.172755875,-0.5064467395672322,-1.829003523673974,1.403633133916804,-0.2292390316724777,1.155545353889465,-0.7442942261695862,0.02743192762136459,-0.002495169872418046,-0.03038600459694862,XTrueNorthZVertical,-0.2298022918531419,0.6844223978604902,0.6119157614164913,-0.3229798789110586,-0.1608700305223465,-0.9860607385635376,0.04248622432351112,19.5617504119873,-39.94614028930664,4.925101280212402,1,321261.999960875,unknown,2,2015-02-11 00:14:41.319,2015-02-11 00:12:28.580,55,35.85,0,0,2015-02-11 00:13:40.429,0,0.2462387,101.1204,192.168.1.3,10.42.194.158,1,0
2015-02-11 00:14:46.736,87,1423642486.060038,37.77934928893836,-122.4388436974235,63.38915,0.83,249.609375,6,10,-9999,1423642486.646392,14.15676116943359,-37.34658813476562,5.25592041015625,264.6874389648438,250.9047241210938,25,321267.343779875,-0.002349853515625,-0.8522186279296875,0.064910888671875,321267.272714875,-0.0212245949396045,0.7789085724531432,-0.4227778883145151,321267.272714875,-0.4976349892241366,-1.735732418408259,1.463740410949361,-0.001349543919786811,0.7708766460418701,-0.432309478521347,0.05797724798321724,0.2452668100595474,-0.04023372009396553,XTrueNorthZVertical,-0.2789273082231279,0.6564842010904484,0.6125794137529086,-0.3405503275252632,-0.1054015681147575,-0.9942749738693237,0.01754389889538288,14.64597702026367,-35.71908569335938,6.287369251251221,1,321261.999960875,unknown,2,2015-02-11 00:14:41.319,2015-02-11 00:12:28.580,55,35.85,0,0,2015-02-11 00:13:40.429,0,0.2462387,101.1204,192.168.1.3,10.42.194.158,1,0
2015-02-11 00:14:46.833,88,1423642486.060038,37.77934928893836,-122.4388436974235,63.38915,0.83,249.609375,6,10,-9999,1423642486.765326,15.02659606933594,-36.54863739013672,6.227783203125,262.6973571777344,248.9146423339844,25,321267.442973875,0.049346923828125,-1.07470703125,0.1846466064453125,321267.372662875,-0.1103960166670547,0.5300409622752006,-0.2538631677507133,321267.372662875,-0.4775081558886902,-1.693619913300597,1.501851325189915,-0.09052135795354843,0.5220092535018921,-0.2633945643901825,0.09124453365802765,0.0968216210603714,0.03123272024095058,XTrueNorthZVertical,-0.3096058114201969,0.6390338856493628,0.6111889280438053,-0.3496112727712988,-0.06837160885334015,-0.9976242184638977,0.008440131321549416,15.57865715026855,-35.1481819152832,7.197188377380371,1,321261.999960875,unknown,2,2015-02-11 00:14:41.319,2015-02-11 00:12:28.580,55,35.85,0,0,2015-02-11 00:13:40.429,0,0.2462387,101.1204,192.168.1.3,10.42.194.158,1,0
2015-02-11 00:14:46.978,89,1423642486.060038,37.77934928893836,-122.4388436974235,63.38915,0.83,249.609375,6,10,-9999,1423642486.884077,15.16576385498047,-36.75679016113281,7.233154296875,261.5893859863281,247.8066711425781,25,321267.542161875,0.104827880859375,-1.373550415039062,0.011871337890625,321267.472613875,-0.0175947063738265,0.06940517380077305,0.1875653703098447,321267.472613875,0.1292751607196353,-2.272337543250491,1.516789025067878,0.00232836208306253,0.06138799339532852,0.177906408905983,0.09900330752134323,-0.1312950700521469,0.1793635785579681,XTrueNorthZVertical,-0.3315216955072576,0.6383674622869953,0.602766907083377,-0.3453294333122762,-0.04123353213071823,-0.9985419511795044,0.03483930230140686,16.68450736999512,-34.29475784301758,8.682466506958008,1,321261.999960875,unknown,2,2015-02-11 00:14:41.319,2015-02-11 00:12:28.580,55,35.85,0,0,2015-02-11 00:13:40.429,0,0.2462387,101.1204,192.168.1.3,10.42.194.158,1,0
2015-02-11 00:14:47.100,90,1423642486.060038,37.77934928893836,-122.4388436974235,63.38915,0.83,249.609375,6,10,-9999,1423642487.002705,14.12198638916016,-37.24250030517578,7.9034423828125,254.9212951660156,241.1385803222656,25,321267.641331875,-0.1264190673828125,-1.069625854492188,-0.226806640625,321267.572563875,0.08853013253695907,0.1928075365995567,0.3789688883827116,321267.572563875,-0.3645474052511011,-1.75119211021432,1.498980018980955,0.108452782034874,0.1847905218601227,0.3693101406097412,0.05427874997258186,-0.1649769693613052,-0.1653552502393723,XTrueNorthZVertical,-0.3272497284247425,0.6319372584904935,0.5994897061991971,-0.3662990882107604,-0.07059039920568466,-0.9974223375320435,0.01287416648119688,15.56893348693848,-34.88013458251953,8.418621063232422,1,321261.999960875,unknown,2,2015-02-11 00:14:41.319,2015-02-11 00:12:28.580,55,35.85,0,0,2015-02-11 00:13:40.429,0,0.2462387,101.1204,192.168.1.3,10.42.194.158,1,0
2015-02-11 00:14:47.264,91,1423642487.054353,37.77934111658277,-122.4388515764125,63.76819,0.81,213.75,6,10,-9999,1423642487.121451,11.30374908447266,-36.93025207519531,10.6180419921875,244.8345489501953,231.0518341064453,25,321267.740517875,-0.257171630859375,-1.119430541992188,-0.0662841796875,321267.672509875,0.2638574786895627,0.3830682922486706,0.1363139003957058,321267.672509875,-0.2565801313638333,-1.831767644639228,1.464529125856983,0.2837797403335571,0.3750514388084412,0.126655325293541,-0.06993308663368225,-0.04619890823960304,-0.3272178769111633,XTrueNorthZVertical,-0.3284058941398036,0.637050453941151,0.5838253137924231,-0.3813978291602758,-0.1024759709835052,-0.9943589568138123,0.02736742421984673,14.07289981842041,-35.29594039916992,9.275704383850098,1,321261.999960875,unknown,2,2015-02-11 00:14:41.319,2015-02-11 00:12:28.580,55,35.85,0,0,2015-02-11 00:13:40.429,0,0.2462387,101.1204,192.168.1.3,10.42.194.158,1,0
2015-02-11 00:14:47.347,92,1423642487.054353,37.77934111658277,-122.4388515764125,63.76819,0.81,213.75,6,10,-9999,1423642487.222051,10.46871948242188,-36.58332824707031,12.09271240234375,242.4359893798828,228.6532745361328,25,321267.839688875,-0.230377197265625,-1.047012329101562,-0.0325927734375,321267.772464875,0.2352431443572063,0.5614534799649031,0.1841820904610081,321267.772464875,0.1371154583282467,-2.184002462567396,1.432847114883769,0.2551649808883667,0.5534367561340332,0.1745237112045288,-0.08677554875612259,-0.1873716115951538,-0.08402004092931747,XTrueNorthZVertical,-0.3476872463591518,0.6470565614849095,0.5576762545145154,-0.3865599479958567,-0.1124584600329399,-0.9905000925064087,0.07913722842931747,13.48530006408691,-34.87398529052734,11.482177734375,1,321261.999960875,unknown,2,2015-02-11 00:14:41.319,2015-02-11 00:12:28.580,55,35.85,0,0,2015-02-11 00:13:40.429,0,0.2462387,101.1204,192.168.1.3,10.42.194.158,1,0
2015-02-11 00:14:47.483,93,1423642487.054353,37.77934111658277,-122.4388515764125,63.76819,0.81,213.75,6,10,-9999,1423642487.341667,6.711105346679688,-36.44455718994141,15.5780029296875,231.24560546875,217.462890625,25,321267.938874875,-0.04302978515625,-0.766571044921875,0.1005859375,321267.872412875,0.4678359107975657,0.705596807649333,0.2185118348087835,321267.872412875,0.1143011810931564,-2.113262700086835,1.380670623840484,0.4876923859119415,0.6975481510162354,0.2088580578565598,-0.01028267666697502,0.01443593110889196,-0.1094639971852303,XTrueNorthZVertical,-0.351016555978332,0.6523560751169477,0.5318954430978049,-0.4102513614654967,-0.1618517190217972,-0.9819805026054382,0.09756214171648026,11.40686988830566,-35.08922576904297,12.98146057128906,1,321261.999960875,unknown,2,2015-02-11 00:14:41.319,2015-02-11 00:12:28.580,55,35.85,0,0,2015-02-11 00:13:40.429,0,0.2462387,101.1204,192.168.1.3,10.42.194.158,1,0
2015-02-11 00:14:47.564,94,1423642487.054353,37.77934111658277,-122.4388515764125,63.76819,0.81,213.75,6,10,-9999,1423642487.46169,2.188018798828125,-36.23640441894531,18.05792236328125,219.5119476318359,205.7292327880859,25,321268.038034875,-0.1488800048828125,-0.871917724609375,0.1349029541015625,321267.972367875,0.4051941009011579,0.85526539564735,0.6917683436890965,321267.972367875,0.2700886666968184,-2.173612251919825,1.326550609440284,0.4250501990318298,0.8472168445587158,0.6821147799491882,0.07565071433782578,0.2863447964191437,0.007394836284220219,XTrueNorthZVertical,-0.377790593844865,0.6525543773270767,0.4906581297624982,-0.4366940173816965,-0.1992011368274689,-0.9703199863433838,0.1371058970689774,9.250357627868652,-34.47602081298828,15.99135589599609,1,321261.999960875,unknown,2,2015-02-11 00:14:41.319,2015-02-11 00:12:28.580,55,35.85,0,0,2015-02-11 00:13:40.429,0,0.2462387,101.1204,192.168.1.3,10.42.194.158,1,0
2015-02-11 00:14:47.702,95,1423642487.054353,37.77934111658277,-122.4388515764125,63.76819,0.81,213.75,6,10,-9999,1423642487.579915,-2.056728363037109,-34.57110595703125,21.208251953125,207.1614379882812,193.3787231445312,25,321268.137247875,-0.194091796875,-0.9237060546875,0.5323638916015625,321268.072314875,0.491538044499271,0.9156203491157069,0.6754618083345413,321268.072314875,0.2496758645791528,-2.046340336569951,1.2598655393109,0.5113933682441711,0.9075719714164734,0.6658079028129578,0.09763629734516144,-0.08135227859020233,0.01424374431371689,XTrueNorthZVertical,-0.3902319639875936,0.6463383086184495,0.4466428341142546,-0.4800791571339011,-0.2719984948635101,-0.952049195766449,0.1400683969259262,5.76447582244873,-34.43545532226562,17.63118934631348,1,321261.999960875,unknown,2,2015-02-11 00:14:41.319,2015-02-11 00:12:28.580,55,35.85,0,0,2015-02-11 00:13:40.429,0,0.2462387,101.1204,192.168.1.3,10.42.194.158,1,0
2015-02-11 00:14:47.769,96,1423642487.054353,37.77934111658277,-122.4388515764125,63.76819,0.81,213.75,6,10,-9999,1423642487.579915,-2.056728363037109,-34.57110595703125,21.208251953125,207.1614379882812,193.3787231445312,25,321268.236429875,-0.4703216552734375,-1.016281127929688,-0.2364654541015625,321268.172263875,0.1275046961419417,1.676601852690982,-0.3207410016770011,321268.172263875,0.4220376747029136,-2.089488678217922,1.203250020600553,0.1473596394062042,1.668553709983826,-0.3303947150707245,0.3295198976993561,-0.03038069792091846,0.1323361694812775,XTrueNorthZVertical,-0.4272214785335907,0.6376119591620255,0.3918964134413461,-0.5072967693868436,-0.3120638430118561,-0.9332118034362793,0.17813441157341,-1.426713943481445,-33.80858612060547,21.8100471496582,1,321261.999960875,unknown,2,2015-02-11 00:14:41.319,2015-02-11 00:12:28.580,55,35.85,0,0,2015-02-11 00:13:40.429,0,0.2462387,101.1204,192.168.1.3,10.42.194.158,1,0
2015-02-11 00:14:47.774,97,1423642487.054353,37.77934111658277,-122.4388515764125,63.76819,0.81,213.75,6,10,-9999,1423642487.579915,-2.056728363037109,-34.57110595703125,21.208251953125,207.1614379882812,193.3787231445312,25,321268.335611875,-0.336761474609375,-1.092376708984375,-0.2870941162109375,321268.272214875,-0.3984840002185943,1.801003167214654,-0.4354619919543445,321268.272214875,0.1845586763237465,-1.744515870430048,1.212087393857301,-0.3786294460296631,1.792955040931702,-0.4451155066490173,-0.1082893759012222,0.07323744893074036,-0.4932826161384583,XTrueNorthZVertical,-0.42276215740948,0.5929692229906696,0.385642767220747,-0.5665150732540405,-0.345781683921814,-0.9363508820533752,0.06068068370223045,-4.759493827819824,-35.08475875854492,19.16091918945312,1,321261.999960875,unknown,2,2015-02-11 00:14:41.319,2015-02-11 00:12:28.580,55,35.85,0,0,2015-02-11 00:13:40.429,0,0.2462387,101.1204,192.168.1.3,10.42.194.158,1,0
2015-02-11 00:14:47.848,98,1423642487.054353,37.77934111658277,-122.4388515764125,63.76819,0.81,213.75,6,10,-9999,1423642487.697699,-4.527027130126953,-36.27109527587891,18.89569091796875,196.6791381835938,182.8964233398438,25,321268.434793875,-0.23248291015625,-0.8743438720703125,-0.0251617431640625,321268.372157875,0.6491103619804253,0.627290816853297,-0.551466625877106,321268.372157875,0.3244700894231242,-1.761296053400052,1.275851561641963,0.6689645051956177,0.6192429065704346,-0.5611199736595154,-0.03073366545140743,-0.02880802005529404,-0.271685779094696,XTrueNorthZVertical,-0.4742296222190601,0.5501154464049706,0.3706032952275564,-0.5789062721101634,-0.2854284346103668,-0.9568182229995728,0.05504147708415985,-4.939404487609863,-35.24354553222656,18.82096862792969,1,321261.999960875,unknown,2,2015-02-11 00:14:41.319,2015-02-11 00:12:28.580,55,35.85,0,0,2015-02-11 00:13:40.429,0,0.2462387,101.1204,192.168.1.3,10.42.194.158,1,0
2015-02-11 00:14:47.932,99,1423642487.054353,37.77934111658277,-122.4388515764125,63.76819,0.81,213.75,6,10,-9999,1423642487.816568,-4.500247955322266,-37.35428619384766,22.12200927734375,191.7696990966797,177.9869842529297,25,321268.533991875,-0.043182373046875,-0.77178955078125,-0.0313262939453125,321268.472117875,0.05682599870789277,0.896062360386274,-1.134023526952015,321268.472117875,0.5541033755257355,-1.900599835454091,1.349385384067881,0.07667975127696991,0.8880146741867065,-1.14367663860321,0.0526043102145195,0.1350429207086563,-0.1057280376553535,XTrueNorthZVertical,-0.5231264445273555,0.511760953465726,0.3646437960992152,-0.575738104345853,-0.2077709436416626,-0.9755885601043701,0.07112110406160355,-3.839678287506104,-34.55587005615234,20.29489517211914,1,321261.999960875,unknown,2,2015-02-11 00:14:41.319,2015-02-11 00:12:28.580,55,35.85,0,0,2015-02-11 00:13:40.429,0,0.2462387,101.1204,192.168.1.3,10.42.194.158,1,0
2015-02-11 00:14:48.019,100,1423642487.054353,37.77934111658277,-122.4388515764125,63.76819,0.81,213.75,6,10,-9999,1423642487.935477,-1.786880493164062,-38.25642395019531,23.12689208984375,193.8371429443359,180.0544281005859,25,321268.633188875,0.0068511962890625,-0.9500274658203125,-0.0052490234375,321268.572062875,-0.00342615674238694,0.365975591740324,-0.5044842031903641,321268.572062875,0.7332368645395976,-2.018842454277432,1.420400922070472,0.01642719842493534,0.3579280376434326,-0.5141371488571167,0.09152226150035858,0.1886478215456009,-0.08042498677968979,XTrueNorthZVertical,-0.5541013595880665,0.4747895156643626,0.3705526340358785,-0.5746628209761897,-0.1350403279066086,-0.9887118935585022,0.06490679830312729,-2.097763061523438,-34.71907806396484,20.27114105224609,1,321261.999960875,unknown,2,2015-02-11 00:14:41.319,2015-02-11 00:12:28.580,55,35.85,0,0,2015-02-11 00:13:40.429,0,0.2462387,101.1204,192.168.1.3,10.42.194.158,1,0
2015-02-11 00:14:48.174,101,1423642487.054353,37.77934111658277,-122.4388515764125,63.76819,0.81,213.75,6,10,-9999,1423642488.054411,-0.4997634887695312,-38.01355743408203,23.9642333984375,193.9730987548828,180.1903839111328,25,321268.732376875,-0.0031890869140625,-1.105606079101562,0.1744232177734375,321268.672013875,0.3256609254748135,0.2197970763508557,-0.2527275958619035,321268.672013875,1.032155566229064,-2.283994755411296,1.462123607982085,0.345465749502182,0.2117485404014587,-0.2623989582061768,0.08873855322599411,0.006567359901964664,0.001885457546450198,XTrueNorthZVertical,-0.5755585573035352,0.4518986034914067,0.3753854577761051,-0.5688635782442024,-0.08202468603849411,-0.9941009283065796,0.07096000015735626,-0.6942610740661621,-34.67235565185547,20.44700241088867,1,321261.999960875,unknown,2,2015-02-11 00:14:41.319,2015-02-11 00:12:28.580,55,35.85,0,0,2015-02-11 00:13:40.429,0,0.2462387,101.1204,192.168.1.3,10.42.194.158,1,0
2015-02-11 00:14:48.257,102,1423642488.064276,37.77932996865155,-122.4388504867651,64.02569,0.71,189.140625,6,10,-9999,1423642488.173839,-0.4301986694335938,-37.11143493652344,24.43310546875,193.7052001953125,179.9224853515625,25,321268.831552875,0.0391693115234375,-1.246017456054688,-0.098876953125,321268.771961875,0.1518039105600427,0.1338227795120457,0.1273076222212758,321268.771961875,1.309958051518517,-2.547622471434368,1.448623663420236,0.17159104347229,0.1257757693529129,0.1175815090537071,0.04908545315265656,-0.2255171537399292,0.1240558922290802,XTrueNorthZVertical,-0.5900298603317443,0.4498474836797104,0.3689855318748116,-0.5597782560053411,-0.06820471584796906,-0.9925462007522583,0.1009959876537323,-0.253394603729248,-34.03096389770508,21.50728988647461,1,321261.999960875,unknown,2,2015-02-11 00:14:41.319,2015-02-11 00:12:28.580,55,35.85,0,0,2015-02-11 00:13:40.429,0,0.2462387,101.1204,192.168.1.3,10.42.194.158,1,0
2015-02-11 00:14:48.337,103,1423642488.064276,37.77932996865155,-122.4388504867651,64.02569,0.71,189.140625,6,10,-9999,1423642488.173839,-0.4301986694335938,-37.11143493652344,24.43310546875,193.7052001953125,179.9224853515625,25,321268.930733875,-0.3413848876953125,-1.063613891601562,-0.1544189453125,321268.871912875,0.008407865877489163,0.2001922159862374,0.3248454655490313,321268.871912875,1.164946911233719,-2.368091305406586,1.457448776160882,0.02813348919153214,0.19211345911026,0.3151264786720276,-0.1427356898784637,0.05132229998707771,-0.285680890083313,XTrueNorthZVertical,-0.5898253150534086,0.4388253584473427,0.3602487856388503,-0.5742466614938454,-0.07902028411626816,-0.9935830235481262,0.08092319220304489,-1.170832872390747,-34.32483291625977,21.0040283203125,1,321261.999960875,unknown,2,2015-02-11 00:14:41.319,2015-02-11 00:12:28.580,55,35.85,0,0,2015-02-11 00:13:40.429,0,0.2462387,101.1204,192.168.1.3,10.42.194.158,1,0
2015-02-11 00:14:48.421,104,1423642488.064276,37.77932996865155,-122.4388504867651,64.02569,0.71,189.140625,6,10,-9999,1423642488.409751,-1.439010620117188,-36.66036987304688,24.19873046875,192.2312622070312,178.4485473632812,25,321269.029929875,-0.10174560546875,-1.18292236328125,0.058807373046875,321268.971862875,0.3402385366496893,-0.06922594305941071,0.0342210873753002,321268.971862875,1.107514382933633,-2.326958585680178,1.411575055717746,0.3599637746810913,-0.07730453461408615,0.02450229413807392,-0.0385441817343235,0.1015478298068047,-0.223150908946991,XTrueNorthZVertical,-0.5860606727735899,0.4592668392622399,0.3480029916639787,-0.5696497075050112,-0.1153407096862793,-0.9873510599136353,0.1087862849235535,-2.377021789550781,-33.76121520996094,21.80055046081543,1,321261.999960875,unknown,2,2015-02-11 00:14:41.319,2015-02-11 00:12:28.580,55,35.85,0,0,2015-02-11 00:13:40.429,0,0.6626911,101.1154,192.168.1.3,10.42.194.158,1,0
2015-02-11 00:14:48.578,105,1423642488.064276,37.77932996865155,-122.4388504867651,64.02569,0.71,189.140625,6,10,-9999,1423642488.528477,-3.577159881591797,-36.22792053222656,25.42120361328125,190.2915802001953,176.5088653564453,25,321269.129110875,-0.194671630859375,-0.7614288330078125,0.1324615478515625,321269.071810875,0.2551276366362829,-0.2221084338609355,0.8958027021799913,321269.071810875,1.14883993204198,-2.375308711356944,1.358987029427289,0.2748524844646454,-0.230186864733696,0.8860840797424316,0.01048639882355928,0.07390458881855011,-0.1122687384486198,XTrueNorthZVertical,-0.5892358762304567,0.4780537256495487,0.3312881252802662,-0.5608153964444841,-0.1457860767841339,-0.9776521325111389,0.1514685600996017,-2.467790126800537,-33.03084564208984,22.8824634552002,1,321261.999960875,unknown,2,2015-02-11 00:14:41.319,2015-02-11 00:12:28.580,55,35.85,0,0,2015-02-11 00:13:40.429,0,0.6626911,101.1154,192.168.1.3,10.42.194.158,1,0
2015-02-11 00:14:48.654,106,1423642488.064276,37.77932996865155,-122.4388504867651,64.02569,0.71,189.140625,6,10,-9999,1423642488.528477,-3.577159881591797,-36.22792053222656,25.42120361328125,190.2915802001953,176.5088653564453,25,321269.228291875,-0.1567230224609375,-0.7954559326171875,0.17620849609375,321269.171765875,-0.07897124843633767,0.1939638811448691,0.3474956506201552,321269.171765875,0.9819834731859737,-2.226663772820872,1.30716709892871,-0.05924680456519127,0.1858856081962585,0.3377772271633148,0.08168738335371017,0.1986506879329681,-0.03808332234621048,XTrueNorthZVertical,-0.5726672083456963,0.5015088280092168,0.3157385944660446,-0.566436507619663,-0.2065195441246033,-0.9654505848884583,0.1589176654815674,-4.58928918838501,-32.27040481567383,23.62823867797852,1,321261.999960875,unknown,2,2015-02-11 00:14:41.319,2015-02-11 00:12:28.580,55,35.85,0,0,2015-02-11 00:13:40.429,0,0.6626911,101.1154,192.168.1.3,10.42.194.158,1,0
2015-02-11 00:14:48.737,107,1423642488.064276,37.77932996865155,-122.4388504867651,64.02569,0.71,189.140625,6,10,-9999,1423642488.647424,-6.220981597900391,-35.95036315917969,25.01934814453125,185.7682037353516,171.9854888916016,25,321269.327479875,-0.150482177734375,-0.9107208251953125,0.2776947021484375,321269.271712875,0.06910050817206798,0.397365472560761,0.2743727039376315,321269.271712875,0.9078942890066113,-2.127266915351444,1.269897738665831,0.0888245478272438,0.3892873823642731,0.2646544873714447,0.08984290063381195,0.0150681110098958,0.04830426722764969,XTrueNorthZVertical,-0.5675199662341213,0.5061556829346167,0.2944900401882081,-0.5787945594716204,-0.2516623437404633,-0.9550705552101135,0.1565449684858322,-6.87964391708374,-31.9188060760498,23.54982757568359,1,321261.999960875,unknown,2,2015-02-11 00:14:41.319,2015-02-11 00:12:28.580,55,35.85,0,0,2015-02-11 00:13:40.429,0,0.6626911,101.1154,192.168.1.3,10.42.194.158,1,0
2015-02-11 00:14:48.812,108,1423642488.064276,37.77932996865155,-122.4388504867651,64.02569,0.71,189.140625,6,10,-9999,1423642488.766701,-8.899593353271484,-35.22172546386719,26.12469482421875,179.8774719238281,166.0947570800781,25,321269.426644875,-0.4065704345703125,-1.09375,0.142333984375,321269.371660875,0.4531155541882618,0.4259220162974626,-0.06786586669070724,321269.371660875,1.06166372999303,-2.238363607494927,1.241203846036416,0.4728187918663025,0.4178426861763,-0.07762398570775986,0.08059398829936981,-0.09780151396989822,0.2185305058956146,XTrueNorthZVertical,-0.5894226654545217,0.5027578330919485,0.2714817562320156,-0.5710631769180553,-0.2541779577732086,-0.9461743235588074,0.2003690302371979,-7.622584342956543,-30.82219123840332,24.75121688842773,1,321261.999960875,unknown,2,2015-02-11 00:14:41.319,2015-02-11 00:12:28.580,55,35.85,0,0,2015-02-11 00:13:40.429,0,0.6626911,101.1154,192.168.1.3,10.42.194.158,1,0
2015-02-11 00:14:48.914,109,1423642488.064276,37.77932996865155,-122.4388504867651,64.02569,0.71,189.140625,6,10,-9999,1423642488.885697,-9.317031860351562,-34.80537414550781,25.85675048828125,178.6455688476562,164.8628540039062,25,321269.525846875,-0.147857666015625,-0.864532470703125,-0.0900726318359375,321269.471605875,-0.3327595813604197,0.05756183011708167,-0.02783695761016225,321269.471605875,0.9762633620897283,-2.141206730371534,1.238712952321178,-0.3130567371845245,0.04948266223073006,-0.03759489208459854,-0.1616974771022797,-0.2216117382049561,-0.1400138735771179,XTrueNorthZVertical,-0.580977792634673,0.5004845054011621,0.2667605705265837,-0.5837969472482835,-0.2743987143039703,-0.9453651905059814,0.1760398745536804,-8.689600944519043,-30.82267189025879,24.3964729309082,1,321261.999960875,unknown,2,2015-02-11 00:14:41.319,2015-02-11 00:12:28.580,55,35.85,0,0,2015-02-11 00:13:40.429,0,0.6626911,101.1154,192.168.1.3,10.42.194.158,1,0
2015-02-11 00:14:49.074,110,1423642488.064276,37.77932996865155,-122.4388504867651,64.02569,0.71,189.140625,6,10,-9999,1423642489.003077,-7.368953704833984,-36.60960388183594,23.3109130859375,181.3101348876953,167.5274200439453,25,321269.625009875,-0.23052978515625,-0.9982452392578125,-0.15155029296875,321269.571547875,-0.6006296448644048,0.6571792074511473,-0.5509473094645406,321269.571547875,1.033724607252198,-2.143826701662929,1.325522035644377,-0.5809271335601807,0.6491001844406128,-0.5607050657272339,0.02834476158022881,-0.1241522654891014,-0.2527627050876617,XTrueNorthZVertical,-0.5979930220999985,0.4563235620609309,0.2833507834684431,-0.5948827607360467,-0.2040344625711441,-0.9700707793235779,0.1316536962985992,-7.589676856994629,-31.88730621337891,23.37371826171875,1,321261.999960875,unknown,2,2015-02-11 00:14:41.319,2015-02-11 00:12:28.580,62,41.00502,0,0,2015-02-11 00:14:48.989,0,0.6626911,101.1154,192.168.1.3,10.42.194.158,1,0
2015-02-11 00:14:49.223,111,1423642489.074314,37.77932259257676,-122.4388509896793,64.19183,0.72,170.5078125,6,10,-9999,1423642489.003077,-7.368953704833984,-36.60960388183594,23.3109130859375,181.3101348876953,167.5274200439453,25,321269.724219875,-0.110748291015625,-0.9423370361328125,0.0629425048828125,321269.671510875,0.3068310449874083,0.6532891280468686,-0.9362891423358118,321269.671510875,1.18990812370001,-2.243433766261404,1.372004407241306,0.3265331089496613,0.6452102661132812,-0.9460466504096985,-0.04355932027101517,0.03418465703725815,-0.1720699071884155,XTrueNorthZVertical,-0.6184332054743455,0.42315727105044,0.2843119361167499,-0.598034305530044,-0.1544692516326904,-0.9803058505058289,0.1230434104800224,-7.025335788726807,-32.77628707885742,22.29560089111328,1,321261.999960875,unknown,2,2015-02-11 00:14:41.319,2015-02-11 00:12:28.580,62,41.00502,0,0,2015-02-11 00:14:48.989,0,0.6626911,101.1154,192.168.1.3,10.42.194.158,1,0
2015-02-11 00:14:49.313,112,1423642489.074314,37.77932259257676,-122.4388509896793,64.19183,0.72,170.5078125,6,10,-9999,1423642489.122106,-5.664386749267578,-36.01974487304688,23.344482421875,182.2509613037109,168.4682464599609,25,321269.823407875,-0.092437744140625,-0.8387298583984375,0.0189971923828125,321269.771461875,-0.1421539463501406,0.3098065948733538,-0.5370520001609431,321269.771461875,1.602839640428258,-2.600280038197133,1.408547424970867,-0.1224522665143013,0.3017278909683228,-0.5468093156814575,0.05389168113470078,0.17325259745121,-0.0781865119934082,XTrueNorthZVertical,-0.6479408547874183,0.3865156978559358,0.287680922565923,-0.5899304739418834,-0.08323433250188828,-0.9868664741516113,0.1384434700012207,-5.412586688995361,-32.67478561401367,22.88659858703613,1,321261.999960875,unknown,2,2015-02-11 00:14:41.319,2015-02-11 00:12:28.580,62,41.00502,0,0,2015-02-11 00:14:48.989,0,0.6626911,101.1154,192.168.1.3,10.42.194.158,1,0
2015-02-11 00:14:49.508,113,1423642489.074314,37.77932259257676,-122.4388509896793,64.19183,0.72,170.5078125,6,10,-9999,1423642489.36021,-2.846626281738281,-38.06686401367188,22.6409912109375,185.7154388427734,171.9327239990234,25,321269.922572875,0.07562255859375,-1.151229858398438,0.19110107421875,321269.871407875,-0.1552005062143297,-0.1159479085915428,-0.2008561420459942,321269.871407875,1.71271184496149,-2.703367037881411,1.440889968238417,-0.1355589330196381,-0.1240580752491951,-0.2106055319309235,0.009451779536902905,0.134930357336998,-0.09456492960453033,XTrueNorthZVertical,-0.6481175157128519,0.3722820798047015,0.2985043209103538,-0.5935022515254035,-0.05496874824166298,-0.9915740489959717,0.1173005253076553,-4.593729019165039,-33.26877975463867,22.19955253601074,1,321261.999960875,unknown,2,2015-02-11 00:14:41.319,2015-02-11 00:12:28.580,62,41.00502,0,0,2015-02-11 00:14:48.989,0,0.6626911,101.1154,192.168.1.3,10.42.194.158,1,0
2015-02-11 00:14:49.591,114,1423642489.074314,37.77932259257676,-122.4388509896793,64.19183,0.72,170.5078125,6,10,-9999,1423642489.479202,-1.559501647949219,-38.44850921630859,22.8084716796875,188.8554382324219,175.0727233886719,25,321270.021759875,0.0402679443359375,-1.044967651367188,0.282867431640625,321269.971350875,0.08321712616225099,-0.2005360300829666,0.03405756928436933,321269.971350875,1.967871700289232,-2.970736951461901,1.458654324937951,0.1028438955545425,-0.2086486220359802,0.02427941374480724,0.07981811463832855,-0.1807045489549637,0.04981739073991776,XTrueNorthZVertical,-0.6500882639171861,0.3640386814534281,0.3146804633185789,-0.5880793371763551,-0.0190271008759737,-0.993718683719635,0.1102778241038322,-3.032432079315186,-33.6436767578125,21.90071487426758,1,321261.999960875,unknown,2,2015-02-11 00:14:41.319,2015-02-11 00:12:28.580,62,41.00502,0,0,2015-02-11 00:14:48.989,0,0.6626911,101.1154,192.168.1.3,10.42.194.158,1,0
2015-02-11 00:14:49.748,115,1423642489.074314,37.77932259257676,-122.4388509896793,64.19183,0.72,170.5078125,6,10,-9999,1423642489.598034,-2.150882720947266,-38.13623809814453,22.90899658203125,189.1302947998047,175.3475799560547,25,321270.1209965,-0.2783660888671875,-0.882965087890625,-0.1648712158203125,321270.071310875,-0.5668714148865603,0.0592502742481919,0.1476557708461353,321270.071310875,1.86851288754933,-2.896733658679451,1.446667713336656,-0.5472450256347656,0.05113783478736877,0.1378778070211411,0.1115417256951332,-0.0927007868885994,-0.1009063348174095,XTrueNorthZVertical,-0.646334961446721,0.3772395677033073,0.3168757427493323,-0.5826930608074331,-0.03001401387155056,-0.9923059344291687,0.120117150247097,-2.776572704315186,-33.24514770507812,22.53408050537109,1,321261.999960875,unknown,2,2015-02-11 00:14:41.319,2015-02-11 00:12:28.580,62,41.00502,0,0,2015-02-11 00:14:48.989,0,0.6626911,101.1154,192.168.1.3,10.42.194.158,1,0
2015-02-11 00:14:49.831,116,1423642489.074314,37.77932259257676,-122.4388509896793,64.19183,0.72,170.5078125,6,10,-9999,1423642489.717092,-1.837799072265625,-36.71364593505859,23.9473876953125,190.4620056152344,176.6792907714844,25,321270.2201925,-0.0827789306640625,-1.034515380859375,-0.086212158203125,321270.1713205,0.3521503235733957,-0.4520321802568175,0.1358212155940411,321270.1713205,1.667241073522828,-2.722664219022945,1.428146126185773,0.371776282787323,-0.4601444602012634,0.1260434538125992,-0.1769407838582993,-0.03699750825762749,-0.2183741331100464,XTrueNorthZVertical,-0.638809458986754,0.3960543574432539,0.3142729411681893,-0.5799102971961668,-0.05783094465732574,-0.9898427128791809,0.1298731565475464,-3.35814094543457,-33.34333419799805,22.30871963500977,1,321261.999960875,unknown,2,2015-02-11 00:14:41.319,2015-02-11 00:12:28.580,62,41.00502,0,0,2015-02-11 00:14:48.989,0,0.6626911,101.1154,192.168.1.3,10.42.194.158,1,0
2015-02-11 00:14:49.970,117,1423642489.074314,37.77932259257676,-122.4388509896793,64.19183,0.72,170.5078125,6,10,-9999,1423642489.8361,-3.403217315673828,-36.74834442138672,24.181884765625,189.3209228515625,175.5382080078125,25,321270.3193765,-0.161376953125,-0.8919219970703125,0.061279296875,321270.2712695,0.320163628352672,-0.3450455424172823,0.5152375150398861,321270.2712695,1.736123822674782,-2.827631990418923,1.383931866588913,0.3397892117500305,-0.353157639503479,0.5054599642753601,-0.0882866382598877,-0.2106609791517258,-0.1000527739524841,XTrueNorthZVertical,-0.6448094701662256,0.415414952899816,0.3154489902171962,-0.5586976928067044,-0.05737375840544701,-0.9825915694236755,0.1766976714134216,-2.642538547515869,-32.42824554443359,23.70991516113281,1,321261.999960875,unknown,2,2015-02-11 00:14:41.319,2015-02-11 00:12:28.580,62,41.00502,0,0,2015-02-11 00:14:48.989,0,1.003117,101.1113,192.168.1.3,10.42.194.158,1,0
2015-02-11 00:14:50.145,118,1423642489.074314,37.77932259257676,-122.4388509896793,64.19183,0.72,170.5078125,6,10,-9999,1423642489.936327,-5.803516387939453,-36.22789001464844,23.6124267578125,185.9339294433594,172.1512145996094,25,321270.4185545,-0.0680999755859375,-0.7994232177734375,0.1004638671875,321270.3712205,-0.2077635829653327,-0.1939636148287601,0.4687072971062397,321270.3712205,1.454276318202007,-2.587275121189069,1.353256952456892,-0.188138410449028,-0.2020755559206009,0.4589299261569977,0.01382653601467609,0.1330476850271225,-0.1221998333930969,XTrueNorthZVertical,-0.6265066807120274,0.4463677885976779,0.3081293390194098,-0.5597334187329411,-0.1136037558317184,-0.9764314889907837,0.1835096478462219,-1.676698446273804,-34.59586715698242,22.61921691894531,1,321261.999960875,unknown,2,2015-02-11 00:14:41.319,2015-02-11 00:12:28.580,62,41.00502,0,0,2015-02-11 00:14:48.989,0,1.003117,101.1113,192.168.1.3,10.42.194.158,1,0
2015-02-11 00:14:50.229,119,1423642490.060812,37.77931701861115,-122.438852917517,64.25699,0.83,155.0390625,6,10,-9999,1423642490.058194,-7.542877197265625,-35.18698120117188,24.4833984375,181.5336456298828,167.7509307861328,25,321270.5177375,-0.1230621337890625,-0.949859619140625,0.230377197265625,321270.4711695,-0.04501408032506432,-0.1140205789106525,0.703682793773893,321270.4711695,1.209463910564937,-2.370709825503255,1.32048403608989,-0.0253892969340086,-0.1221323609352112,0.6939055919647217,0.004457618575543165,0.2927334308624268,-0.01003058906644583,XTrueNorthZVertical,-0.605803980406341,0.4709999887013727,0.2986918278660684,-0.5674008752359794,-0.1725942194461823,-0.9688351154327393,0.1776788979768753,-3.792218208312988,-34.67374420166016,22.24105644226074,1,321261.999960875,unknown,2,2015-02-11 00:14:41.319,2015-02-11 00:12:28.580,62,41.00502,0,0,2015-02-11 00:14:48.989,0,1.003117,101.1113,192.168.1.3,10.42.194.158,1,0
2015-02-11 00:14:50.375,120,1423642490.060812,37.77931701861115,-122.438852917517,64.25699,0.83,155.0390625,6,10,-9999,1423642490.174828,-7.960315704345703,-36.36666870117188,23.5455322265625,180.7615814208984,166.9788665771484,25,321270.6169205,-0.1620330810546875,-1.076889038085938,0.4915924072265625,321270.5711155,0.6063053737795817,0.327693183702653,0.1971596744529642,321270.5711155,1.142448130945978,-2.285877854464985,1.283570368024015,0.6259297728538513,0.3195815682411194,0.1873827129602432,0.0883328914642334,-0.04906898736953735,0.1000478714704514,XTrueNorthZVertical,-0.6029960663978745,0.4788218541368433,0.2784963464855563,-0.5740776726099268,-0.2138974666595459,-0.9590334296226501,0.1857492476701736,-5.532414436340332,-34.4427375793457,22.23519897460938,1,321261.999960875,unknown,2,2015-02-11 00:14:41.319,2015-02-11 00:12:28.580,62,41.00502,0,0,2015-02-11 00:14:48.989,0,1.003117,101.1113,192.168.1.3,10.42.194.158,1,0
2015-02-11 00:14:50.460,121,1423642490.060812,37.77931701861115,-122.438852917517,64.25699,0.83,155.0390625,6,10,-9999,1423642490.293873,-5.281703948974609,-37.30349731445312,23.2440185546875,183.2177429199219,169.4350280761719,25,321270.7161025,-0.3888702392578125,-0.975494384765625,-0.0781097412109375,321270.6710685,-0.625507031555162,0.1558505838364181,0.1434714121414028,321270.6710685,1.214675005244539,-2.309530957121467,1.268019591306259,-0.605883002281189,0.1477391272783279,0.1336946338415146,-0.04160968959331512,-0.09581126272678375,-0.144729346036911,XTrueNorthZVertical,-0.6171455032197011,0.4685284067246817,0.2591406665153819,-0.576592306739419,-0.2204447537660599,-0.9545122385025024,0.2007748782634735,-6.537697792053223,-33.33013534545898,23.61513328552246,1,321261.999960875,unknown,2,2015-02-11 00:14:41.319,2015-02-11 00:12:28.580,62,41.00502,0,0,2015-02-11 00:14:48.989,0,1.003117,101.1113,192.168.1.3,10.42.194.158,1,0
2015-02-11 00:14:50.601,122,1423642490.060812,37.77931701861115,-122.438852917517,64.25699,0.83,155.0390625,6,10,-9999,1423642490.411777,-2.324798583984375,-37.47695922851562,22.94256591796875,188.4702758789062,174.6875610351562,25,321270.8152845,-0.1871337890625,-1.038681030273438,-0.0413665771484375,321270.7710195,0.1536582696270649,0.6560612124255321,-1.186297650724744,321270.7710195,1.228511693615386,-2.294134647629799,1.295332632007753,0.1732818931341171,0.6479499340057373,-1.196074247360229,0.04154795780777931,0.1059454157948494,-0.2364110350608826,XTrueNorthZVertical,-0.6217065153565364,0.4511052140745749,0.2604517165337952,-0.5849359035295677,-0.2038862109184265,-0.9622991681098938,0.1800298094749451,-6.898105621337891,-34.0706672668457,22.42587280273438,1,321261.999960875,unknown,2,2015-02-11 00:14:41.319,2015-02-11 00:12:28.580,62,41.00502,0,0,2015-02-11 00:14:48.989,0,1.003117,101.1113,192.168.1.3,10.42.194.158,1,0
2015-02-11 00:14:50.701,123,1423642490.060812,37.77931701861115,-122.438852917517,64.25699,0.83,155.0390625,6,10,-9999,1423642490.530107,-0.6550064086914062,-37.54634094238281,23.2774658203125,191.4939575195312,177.7112426757812,25,321270.9144815,-0.131134033203125,-0.9153594970703125,-0.013031005859375,321270.8709675,0.149765527061696,0.2392943450074348,-0.6241869026028097,321270.8709675,1.453163074913391,-2.459680601144652,1.358443301333986,0.1693887561559677,0.2311832159757614,-0.6339632868766785,-0.05524185299873352,-0.04747145995497704,-0.229057788848877,XTrueNorthZVertical,-0.6441350056833378,0.4085390344932325,0.2696709654378945,-0.587761461337715,-0.1328379809856415,-0.9775376915931702,0.163628101348877,-5.248026847839355,-34.74517440795898,21.82991409301758,1,321261.999960875,unknown,2,2015-02-11 00:14:41.319,2015-02-11 00:12:28.580,62,41.00502,0,0,2015-02-11 00:14:48.989,0,1.003117,101.1113,192.168.1.3,10.42.194.158,1,0
2015-02-11 00:14:50.842,124,1423642490.060812,37.77931701861115,-122.438852917517,64.25699,0.83,155.0390625,6,10,-9999,1423642490.648894,-0.1679916381835938,-38.24030303955078,22.54058837890625,191.5171051025391,177.7343902587891,25,321271.0136515,-0.0708465576171875,-0.8065643310546875,0.0180816650390625,321270.9709025,-0.02133990981480494,0.1902655493390761,-0.7984172927024097,321270.9709025,1.963006862774029,-2.915364969470097,1.390959962499665,-0.001775158452801406,0.1821234375238419,-0.8081853985786438,0.07097403705120087,0.03216704353690147,-0.1176551133394241,XTrueNorthZVertical,-0.6743702560479398,0.363840977011481,0.2817967758937749,-0.5774383876972765,-0.04012076556682587,-0.9838729500770569,0.1743109971284866,-2.781227350234985,-34.77850723266602,22.22687339782715,1,321261.999960875,unknown,2,2015-02-11 00:14:41.319,2015-02-11 00:12:28.580,62,41.00502,0,0,2015-02-11 00:14:48.989,0,1.003117,101.1113,192.168.1.3,10.42.194.158,1,0
2015-02-11 00:14:51.002,125,1423642490.060812,37.77931701861115,-122.438852917517,64.25699,0.83,155.0390625,6,10,-9999,1423642490.768334,-2.290016174316406,-39.24649047851562,21.23419189453125,187.4705657958984,173.6878509521484,25,321271.1128595,0.054290771484375,-0.9071502685546875,0.0605621337890625,321271.0708685,-0.04245078777586306,-0.04627908184285196,-0.3099765045509009,321271.0708685,2.146663570690003,-3.102589414711198,1.400513995815568,-0.02288642525672913,-0.05442102625966072,-0.3197444081306458,0.03527910634875298,0.1346916258335114,-0.09288528561592102,XTrueNorthZVertical,-0.6778630755817363,0.353790274531649,0.2943511644844885,-0.5733162283257861,-0.006607840303331614,-0.9855369329452515,0.169331818819046,-1.227424144744873,-34.97310638427734,22.0610408782959,1,321261.999960875,unknown,2,2015-02-11 00:14:41.319,2015-02-11 00:12:28.580,62,41.00502,0,0,2015-02-11 00:14:48.989,0,1.003117,101.1113,192.168.1.3,10.42.194.158,1,0
