loggingTime,loggingSample,locationTimestamp_since1970,locationLatitude,locationLongitude,locationAltitude,locationSpeed,locationCourse,locationVerticalAccuracy,locationHorizontalAccuracy,locationFloor,locationHeadingTimestamp_since1970,locationHeadingX,locationHeadingY,locationHeadingZ,locationTrueHeading,locationMagneticHeading,locationHeadingAccuracy,accelerometerTimestamp_sinceReboot,accelerometerAccelerationX,accelerometerAccelerationY,accelerometerAccelerationZ,gyroTimestamp_sinceReboot,gyroRotationX,gyroRotationY,gyroRotationZ,motionTimestamp_sinceReboot,motionYaw,motionRoll,motionPitch,motionRotationRateX,motionRotationRateY,motionRotationRateZ,motionUserAccelerationX,motionUserAccelerationY,motionUserAccelerationZ,motionAttitudeReferenceFrame,motionQuaternionX,motionQuaternionY,motionQuaternionZ,motionQuaternionW,motionGravityX,motionGravityY,motionGravityZ,motionMagneticFieldX,motionMagneticFieldY,motionMagneticFieldZ,motionMagneticFieldCalibrationAccuracy,IP_en0,IP_pdp_ip0,deviceOrientation,state
2015-02-21 18:59:09.068,1,1424570342.518955,39.63855101420258,-106.3705747117341,2515.276,-1,-1,32.09537027312117,135.3608572515517,-9999,1424570349.010444,5.867267608642578,-42.6787109375,6.235580444335938,226.0357666015625,216.9096984863281,10,22216.584938375,-0.2237701416015625,-0.9470062255859375,-0.1760101318359375,22216.58841345834,-0.0504948658484474,0.01814411650670985,-0.04807298715312934,22216.53663191667,2.652150490655786,-0.9658019474783136,1.272423707508627,-0.07238483428955078,-0.1007544100284576,0.006841991096735001,0.002362301340326667,-0.02042591758072376,-0.00718252407386899,XTrueNorthZVertical,0.4898665039791795,0.4200397001092705,0.6243052086475558,0.440273216293987,-0.2417879551649094,-0.9558161497116089,-0.1671949177980423,7.362063407897949,-45.25995635986328,4.61816930770874,2,192.168.1.118,10.97.20.126,1,0
2015-02-21 18:59:09.084,2,1424570342.518955,39.63855101420258,-106.3705747117341,2515.276,-1,-1,32.09537027312117,135.3608572515517,-9999,1424570349.061934,5.833160400390625,-42.54287719726562,6.002601623535156,226.1623229980469,217.0362548828125,10,22216.63402891667,-0.24359130859375,-0.9587860107421875,-0.162506103515625,22216.58841345834,-0.0504948658484474,0.01814411650670985,-0.04807298715312934,22216.58841345834,2.637746734245058,-0.951306659226262,1.27168321575158,-0.05844477191567421,0.02673760987818241,-0.01720072887837887,0.01614514924585819,0.00859198160469532,-0.004917215555906296,XTrueNorthZVertical,0.4883958276434454,0.419431826880583,0.6248974573215786,0.4416442752851059,-0.2399152964353561,-0.9555982351303101,-0.1710929125547409,7.418540000915527,-45.27519989013672,4.371797561645508,2,192.168.1.118,10.97.20.126,1,0
2015-02-21 18:59:09.109,3,1424570342.518955,39.63855101420258,-106.3705747117341,2515.276,-1,-1,32.09537027312117,135.3608572515517,-9999,1424570349.061934,5.833160400390625,-42.54287719726562,6.002601623535156,226.1623229980469,217.0362548828125,10,22216.68317183333,-0.2489471435546875,-0.978912353515625,-0.18310546875,22216.69197583334,-0.05031856458428415,-0.02032391385893971,-0.1461819774988854,22216.64019466667,2.635869920858999,-0.9514679341343604,1.270695387818225,-0.01010716985911131,-0.04718848690390587,-0.04355208948254585,-0.002879902720451355,-0.003479355946183205,0.009095995686948299,XTrueNorthZVertical,0.4888811912907661,0.4185619798646103,0.6247412305483734,0.4421532365434331,-0.2407114058732986,-0.9553066492080688,-0.1716021001338959,7.457083702087402,-45.27751159667969,4.281360149383545,2,192.168.1.118,10.97.20.126,1,0
2015-02-21 18:59:09.138,4,1424570342.518955,39.63855101420258,-106.3705747117341,2515.276,-1,-1,32.09537027312117,135.3608572515517,-9999,1424570349.112318,6.1572265625,-42.15223693847656,5.985969543457031,226.1852416992188,217.0591888427734,10,22216.73225395833,-0.229095458984375,-0.968353271484375,-0.17523193359375,22216.69197583334,-0.05031856458428415,-0.02032391385893971,-0.1461819774988854,22216.69197583334,2.621332561237414,-0.9389822008956623,1.2721279956226,-0.05826731398701668,-0.01173100527375937,-0.1153048723936081,-0.01150165218859911,-0.02318317629396915,-0.009319839999079704,XTrueNorthZVertical,0.4879673335034507,0.4183241170178334,0.6241360904338161,0.4442375435414742,-0.2374454885721207,-0.9557291865348816,-0.1737856268882751,7.480823516845703,-45.27569961547852,4.259056091308594,2,192.168.1.118,10.97.20.126,1,0
2015-02-21 18:59:09.203,5,1424570342.518955,39.63855101420258,-106.3705747117341,2515.276,-1,-1,32.09537027312117,135.3608572515517,-9999,1424570349.163425,6.378959655761719,-42.20317077636719,5.470100402832031,226.2509460449219,217.1248779296875,10,22216.78139708333,-0.2029571533203125,-0.9669342041015625,-0.1753997802734375,22216.743757375,-0.08513833057263416,0.05337187877405999,-0.1125068381470515,22216.743757375,2.602547054001954,-0.9197044293952932,1.275109989212086,-0.09308455139398575,0.06196418032050133,-0.081633061170578,-0.0008673511911183596,0.0002425080165266991,0.0028811264783144,XTrueNorthZVertical,0.4857834742677502,0.4191815789262792,0.623740785083116,0.4463728183481984,-0.2317834049463272,-0.9566023945808411,-0.1766024380922318,7.831097602844238,-45.23384094238281,4.069971084594727,2,192.168.1.118,10.97.20.126,1,0
2015-02-21 18:59:09.234,6,1424570342.518955,39.63855101420258,-106.3705747117341,2515.276,-1,-1,32.09537027312117,135.3608572515517,-9999,1424570349.216196,6.174278259277344,-42.10128784179688,5.004158020019531,226.3319091796875,217.2058563232422,10,22216.830488125,-0.18927001953125,-0.9423980712890625,-0.187896728515625,22216.79553858333,-0.04453098290332395,0.03982224777995485,-0.1207999217815582,22216.79553858333,2.578494015632313,-0.8930494768552714,1.278545985437497,-0.05247581377625465,0.04841452464461327,-0.08993471413850784,0.02078872546553612,-0.009549867361783981,-0.001580645563080907,XTrueNorthZVertical,0.4824264671182166,0.4206389992720801,0.6237607873582577,0.4486090237483146,-0.2244325280189514,-0.9575979709625244,-0.1806550770998001,7.979550361633301,-45.21630859375,3.975339889526367,2,192.168.1.118,10.97.20.126,1,0
2015-02-21 18:59:09.303,7,1424570342.518955,39.63855101420258,-106.3705747117341,2515.276,-1,-1,32.09537027312117,135.3608572515517,-9999,1424570349.268383,6.396011352539062,-42.22015380859375,4.954238891601562,226.4136352539062,217.2875823974609,10,22216.87964470833,-0.227020263671875,-0.9669342041015625,-0.1794586181640625,22216.84731975,0.01519200243835701,-0.08453033089576907,-0.1055360139937691,22216.84731975,2.564250357352617,-0.881637097022404,1.281645550595999,0.007246877066791058,-0.07593788951635361,-0.07467455416917801,0.01434544008225203,0.009710121899843216,0.004390621557831764,XTrueNorthZVertical,0.4818025160956565,0.4209610375149882,0.6223563530300437,0.4509221109463735,-0.2200644314289093,-0.9584863781929016,-0.1813162863254547,8.253376960754395,-45.17485046386719,3.886604309082031,2,192.168.1.118,10.97.20.126,1,0
2015-02-21 18:59:09.332,8,1424570342.518955,39.63855101420258,-106.3705747117341,2515.276,-1,-1,32.09537027312117,135.3608572515517,-9999,1424570349.319907,6.276618957519531,-42.27110290527344,5.237129211425781,226.4575805664062,217.3315277099609,10,22216.92874558334,-0.2000732421875,-0.9498138427734375,-0.188201904296875,22216.89910133334,0.004666657178145849,0.02635091372189803,-0.1388966340208647,22216.89910133334,2.553156732554031,-0.8710139545728205,1.285543226982978,-0.003278164891526103,0.03494321927428246,-0.1080353781580925,0.003459130879491568,-0.008335564285516739,-0.001731837051920593,XTrueNorthZVertical,0.4807703315003046,0.422186850904288,0.6212050756590136,0.4524626450515854,-0.2152663767337799,-0.9595904350280762,-0.1812362968921661,8.58599853515625,-45.11511611938477,3.85981273651123,2,192.168.1.118,10.97.20.126,1,0
2015-02-21 18:59:09.391,9,1424570342.518955,39.63855101420258,-106.3705747117341,2515.276,-1,-1,32.09537027312117,135.3608572515517,-9999,1424570349.37193,6.464237213134766,-42.25411987304688,5.187202453613281,226.5059814453125,217.3799133300781,10,22216.97789333334,-0.2066192626953125,-0.959197998046875,-0.19158935546875,22216.95088254167,0.02534290724930304,0.05579961642377623,-0.1739270560514399,22216.95088254167,2.53402639923133,-0.8503323524768209,1.289783797839809,0.01739512011408806,0.06439249962568283,-0.1430686563253403,-0.01728029549121857,0.01643919013440609,0.002955090720206499,XTrueNorthZVertical,0.4783432277558549,0.4239177323558463,0.6205132873945458,0.454361984259457,-0.2084124535322189,-0.9607751369476318,-0.182963028550148,8.784914970397949,-45.08027648925781,3.819032192230225,2,192.168.1.118,10.97.20.126,1,0
2015-02-21 18:59:09.435,10,1424570342.518955,39.63855101420258,-106.3705747117341,2515.276,-1,-1,32.09537027312117,135.3608572515517,-9999,1424570349.423295,6.788307189941406,-42.10128784179688,4.871040344238281,226.5802917480469,217.4542388916016,10,22217.026989125,-0.1719512939453125,-0.9629669189453125,-0.19061279296875,22217.00266375,0.06543519956379192,-0.08139392607998275,-0.257383600395689,22217.00266375,2.513139769877486,-0.8303197944766668,1.297815445938272,0.05753882601857185,-0.07274994999170303,-0.2263280749320984,0.007509072776883841,-0.01317899208515882,-0.009811097756028175,XTrueNorthZVertical,0.4765367594617261,0.4265796316623789,0.618028237125586,0.457147320638475,-0.1990068703889847,-0.9629715085029602,-0.1818850636482239,9.026812553405762,-45.03081130981445,3.83850622177124,2,192.168.1.118,10.97.20.126,1,0
2015-02-21 18:59:09.490,11,1424570342.518955,39.63855101420258,-106.3705747117341,2515.276,-1,-1,32.09537027312117,135.3608572515517,-9999,1424570349.475064,7.624057769775391,-41.94844055175781,5.1539306640625,229.5720825195312,220.4460296630859,10,22217.07612758334,-0.14013671875,-0.9848175048828125,-0.165313720703125,22217.05444533334,0.1897749950662835,-0.1234313912546655,-0.194161754013862,22217.05444533334,2.495978310790267,-0.8184279183702599,1.310118847852525,0.1818757802248001,-0.1147860959172249,-0.1631138026714325,0.006601124536246061,-0.005647203419357538,-0.01008972525596619,XTrueNorthZVertical,0.4765344484631808,0.4299426138184481,0.6130623526085579,0.4606721827763241,-0.1881654560565948,-0.9662156105041504,-0.1761285364627838,9.866970062255859,-44.8385124206543,4.017685413360596,2,192.168.1.118,10.97.20.126,1,0
2015-02-21 18:59:09.532,12,1424570342.518955,39.63855101420258,-106.3705747117341,2515.276,-1,-1,32.09537027312117,135.3608572515517,-9999,1424570349.526941,8.493923187255859,-42.30506896972656,5.6697998046875,230.7016296386719,221.5755615234375,10,22217.12521433333,-0.116180419921875,-1.029556274414062,-0.1587677001953125,22217.10622658334,0.07358340723499836,0.007025951587847046,-0.1030592741799954,22217.10622658334,2.49793005822237,-0.8229855837923046,1.319186910458286,0.06568460911512375,0.01567141897976398,-0.07201389968395233,0.01093431375920773,-0.01973774097859859,0.0006178138428367674,XTrueNorthZVertical,0.4775008659508341,0.4328291343619005,0.6095622577064777,0.4616121286995211,-0.1825346499681473,-0.968513011932373,-0.1693037301301956,10.08227634429932,-44.77143859863281,4.225777626037598,2,192.168.1.118,10.97.20.126,1,0
2015-02-21 18:59:09.588,13,1424570342.518955,39.63855101420258,-106.3705747117341,2515.276,-1,-1,32.09537027312117,135.3608572515517,-9999,1424570349.578993,8.869159698486328,-42.44094848632812,6.268852233886719,230.40185546875,221.2758026123047,10,22217.17435658333,-0.1671142578125,-0.9802398681640625,-0.1589813232421875,22217.15800779167,0.02114762958410122,-0.05325256915722445,-0.09410412869849492,22217.15800779167,2.484401394586648,-0.8103527725780676,1.325830017139722,0.01324942894279957,-0.044607013463974,-0.06306082010269165,0.01009694486856461,-0.00391456251963973,-0.003298145486041903,XTrueNorthZVertical,0.4765941844776173,0.4350621676553065,0.6073404334595143,0.4633751519032722,-0.175715833902359,-0.9701455235481262,-0.1671577841043472,10.35502624511719,-44.69344711303711,4.388668537139893,2,192.168.1.118,10.97.20.126,1,0
2015-02-21 18:59:09.633,14,1424570342.518955,39.63855101420258,-106.3705747117341,2515.276,-1,-1,32.09537027312117,135.3608572515517,-9999,1424570349.578993,8.869159698486328,-42.44094848632812,6.268852233886719,230.40185546875,221.2758026123047,10,22217.223459,-0.170318603515625,-0.962799072265625,-0.1668548583984375,22217.20978941667,0.05885852325184125,0.003705256024627244,-0.1151809181976,22217.15800779167,2.484401394586648,-0.8103527725780676,1.325830017139722,0.01324942894279957,-0.044607013463974,-0.06306082010269165,0.01009694486856461,-0.00391456251963973,-0.003298145486041903,XTrueNorthZVertical,0.4765941844776173,0.4350621676553065,0.6073404334595143,0.4633751519032722,-0.175715833902359,-0.9701455235481262,-0.1671577841043472,10.35502624511719,-44.69344711303711,4.388668537139893,2,192.168.1.118,10.97.20.126,1,0
2015-02-21 18:59:09.687,15,1424570342.518955,39.63855101420258,-106.3705747117341,2515.276,-1,-1,32.09537027312117,135.3608572515517,-9999,1424570349.682699,9.022670745849609,-42.32205200195312,6.052528381347656,231.3181762695312,222.1921234130859,10,22217.27272375,-0.161102294921875,-0.9777374267578125,-0.15966796875,22217.26157066667,0.0389972004742483,0.04098072285413932,-0.0855061131191741,22217.26157066667,2.477153674966156,-0.8027917590102817,1.334148725756779,0.03109985962510109,0.04962613061070442,-0.0544641986489296,-0.002781247952952981,-0.004692510236054659,0.002713087247684598,XTrueNorthZVertical,0.4759092638860845,0.4382644224232677,0.6048101889039623,0.4643698352631759,-0.1686359941959381,-0.9721294045448303,-0.1628693342208862,10.77243995666504,-44.57694625854492,4.565290927886963,2,192.168.1.118,10.97.20.126,1,0
2015-02-21 18:59:09.741,16,1424570342.518955,39.63855101420258,-106.3705747117341,2515.276,-1,-1,32.09537027312117,135.3608572515517,-9999,1424570349.682699,9.022670745849609,-42.32205200195312,6.052528381347656,231.3181762695312,222.1921234130859,10,22217.32171216667,-0.154449462890625,-0.992889404296875,-0.1555328369140625,22217.31335191667,0.03792581076770942,0.01553235442566914,-0.08486189445148393,22217.26157066667,2.477153674966156,-0.8027917590102817,1.334148725756779,0.03109985962510109,0.04962613061070442,-0.0544641986489296,-0.002781247952952981,-0.004692510236054659,0.002713087247684598,XTrueNorthZVertical,0.4759092638860845,0.4382644224232677,0.6048101889039623,0.4643698352631759,-0.1686359941959381,-0.9721294045448303,-0.1628693342208862,10.77243995666504,-44.57694625854492,4.565290927886963,2,192.168.1.118,10.97.20.126,1,0
2015-02-21 18:59:09.785,17,1424570342.518955,39.63855101420258,-106.3705747117341,2515.276,-1,-1,32.09537027312117,135.3608572515517,-9999,1424570349.734895,8.8179931640625,-42.15223693847656,6.352073669433594,230.9262390136719,221.8001708984375,10,22217.37098908333,-0.1336822509765625,-0.971343994140625,-0.162628173828125,22217.3651335,0.04909084732175762,-0.003788612966746724,-0.09540321867823558,22217.31335191667,2.469058359900774,-0.7924578569992446,1.337674323131427,0.03002903982996941,0.0241782795637846,-0.05382538214325905,0.00924418680369854,-0.005382615141570568,0.0006663964595645666,XTrueNorthZVertical,0.4745811438662572,0.4400849567494581,0.6042586329022746,0.464725201825216,-0.1645023673772812,-0.9729499220848083,-0.1621959358453751,10.89356327056885,-44.53814315795898,4.65570068359375,2,192.168.1.118,10.97.20.126,1,0
2015-02-21 18:59:09.844,18,1424570342.518955,39.63855101420258,-106.3705747117341,2515.276,-1,-1,32.09537027312117,135.3608572515517,-9999,1424570349.787007,8.715656280517578,-42.22015380859375,7.050979614257812,230.8596801757812,221.7336120605469,10,22217.41995133333,-0.1608734130859375,-0.9972991943359375,-0.15509033203125,22217.41691483333,0.01339490133477154,0.005572398264881798,-0.1322717544931835,22217.3651335,2.463490751100405,-0.7862853542065563,1.343285621379066,0.0411970429122448,0.004857727792114019,-0.0643731877207756,0.02132598683238029,-0.009411697275936604,-0.001967263408005238,XTrueNorthZVertical,0.4739870973580916,0.4423368673646585,0.6026298318410176,0.4653081269463603,-0.1596316546201706,-0.9742308855056763,-0.159348651766777,11.17800521850586,-44.44943237304688,4.826077938079834,2,192.168.1.118,10.97.20.126,1,0
2015-02-21 18:59:09.884,19,1424570342.518955,39.63855101420258,-106.3705747117341,2515.276,-1,-1,32.09537027312117,135.3608572515517,-9999,1424570349.838531,9.107948303222656,-42.20317077636719,7.20074462890625,230.7935485839844,221.66748046875,10,22217.469102625,-0.1178741455078125,-0.9963836669921875,-0.1808929443359375,22217.46869620834,-0.09725704511303973,0.02890701573615608,-0.09107291874576673,22217.41691483333,2.452243231634858,-0.7751856530623529,1.347383563753423,0.005499964579939842,0.01421919092535973,-0.1012457385659218,-0.00654805451631546,-0.01186776906251907,-0.0014866340206936,XTrueNorthZVertical,0.4731771312469888,0.4438181926708609,0.6013214884578039,0.4664132521242553,-0.1550577878952026,-0.975147008895874,-0.1582576334476471,11.32850742340088,-44.40641021728516,4.871004581451416,2,192.168.1.118,10.97.20.126,1,0
2015-02-21 18:59:09.936,20,1424570342.518955,39.63855101420258,-106.3705747117341,2515.276,-1,-1,32.09537027312117,135.3608572515517,-9999,1424570349.890928,9.670799255371094,-42.55982971191406,7.417068481445312,230.7505493164062,221.6244812011719,10,22217.51819941667,-0.132293701171875,-0.9894256591796875,-0.2022247314453125,22217.46869620834,-0.09725704511303973,0.02890701573615608,-0.09107291874576673,22217.46869620834,2.428599314897284,-0.7497800833099831,1.348255292511871,-0.1051515936851501,0.03755437210202217,-0.06005260720849037,0.02617113292217255,-0.01927387714385986,-0.01158766727894545,XTrueNorthZVertical,0.4708017389918709,0.4445043028223751,0.6015136262431828,0.46791350129847,-0.1504081934690475,-0.9753397703170776,-0.1615232974290848,11.47946739196777,-44.36574554443359,4.888111591339111,2,192.168.1.118,10.97.20.126,1,0
2015-02-21 18:59:09.982,21,1424570342.518955,39.63855101420258,-106.3705747117341,2515.276,-1,-1,32.09537027312117,135.3608572515517,-9999,1424570349.942694,9.687854766845703,-42.57679748535156,7.067611694335938,230.7203369140625,221.5942687988281,10,22217.567435875,-0.1739044189453125,-0.9700775146484375,-0.182220458984375,22217.57225908334,-0.1581052160152792,-0.0678541487819109,-0.1472349913939028,22217.52047770833,2.384217609298583,-0.7056978766555942,1.344823032362301,-0.1880834102630615,-0.0586397759616375,-0.06237867474555969,0.01302067842334509,-0.01484916172921658,-0.03168309852480888,XTrueNorthZVertical,0.4672855036900591,0.4431404312282147,0.6025348249429965,0.471404964867686,-0.1453143805265427,-0.974576473236084,-0.1705416291952133,11.80755519866943,-44.32742309570312,4.433095932006836,2,192.168.1.118,10.97.20.126,1,0
2015-02-21 18:59:10.039,22,1424570342.518955,39.63855101420258,-106.3705747117341,2515.276,-1,-1,32.09537027312117,135.3608572515517,-9999,1424570349.996033,10.30187225341797,-42.47491455078125,6.701515197753906,230.7468872070312,221.6208190917969,10,22217.616415,-0.1784515380859375,-0.9051513671875,-0.222625732421875,22217.57225908334,-0.1581052160152792,-0.0678541487819109,-0.1472349913939028,22217.57225908334,2.342710411237848,-0.6687270617150838,1.340369146497063,-0.1660065203905106,-0.05920549482107162,-0.1162256449460983,-0.03230320289731026,0.003491404000669718,-0.003020229982212186,XTrueNorthZVertical,0.4651235391137894,0.4405223931638681,0.6027547590425502,0.4756961791458819,-0.1416012197732925,-0.9735689163208008,-0.1792002320289612,11.91656303405762,-44.32611846923828,4.145111083984375,2,192.168.1.118,10.97.20.126,1,0
2015-02-21 18:59:10.080,23,1424570342.518955,39.63855101420258,-106.3705747117341,2515.276,-1,-1,32.09537027312117,135.3608572515517,-9999,1424570350.046653,10.62594604492188,-42.38998413085938,6.152374267578125,231.7092895507812,222.5832214355469,10,22217.66565645834,-0.154388427734375,-1.051376342773438,-0.2288360595703125,22217.62404025,-0.2391563932629687,0.1189655364227116,-0.2716802480755614,22217.62404025,2.291933941093013,-0.6173680248491545,1.336023190165898,-0.2470621168613434,0.1276128888130188,-0.2406640499830246,-0.04378846287727356,0.06741577386856079,-0.0329442135989666,XTrueNorthZVertical,0.4605416259550655,0.4393866755850263,0.6038995859007166,0.4797354376621956,-0.1346630752086639,-0.9725671410560608,-0.1896815150976181,12.12115478515625,-44.30382537841797,3.773592948913574,2,192.168.1.118,10.97.20.126,1,0
2015-02-21 18:59:10.141,24,1424570342.518955,39.63855101420258,-106.3705747117341,2515.276,-1,-1,32.09537027312117,135.3608572515517,-9999,1424570350.097537,11.103515625,-42.55982971191406,5.752983093261719,232.1568908691406,223.0308227539062,10,22217.71463920833,-0.2256317138671875,-0.859344482421875,-0.176300048828125,22217.67582204167,-0.3293664478155498,0.2135924436431891,-0.2286488911820611,22217.67582204167,2.21176454714856,-0.5321143542944877,1.329271895353505,-0.337273895740509,0.2222397923469543,-0.1976330876350403,-0.06057938188314438,-0.06247277930378914,-0.01770306192338467,XTrueNorthZVertical,0.4517935342121515,0.4391197727856257,0.6061311955985875,0.4854497309032243,-0.1213511601090431,-0.9709745049476624,-0.2061128616333008,12.8015832901001,-44.17562866210938,2.936760902404785,2,192.168.1.118,10.97.20.126,1,0
2015-02-21 18:59:10.178,25,1424570342.518955,39.63855101420258,-106.3705747117341,2515.276,-1,-1,32.09537027312117,135.3608572515517,-9999,1424570350.149414,10.93295669555664,-42.52583312988281,4.887664794921875,231.8646850585938,222.7386169433594,10,22217.76377895834,-0.1709136962890625,-0.902923583984375,-0.04534912109375,22217.72760320834,0.002963299344931168,0.5038482403220532,-0.141162185160195,22217.72760320834,2.170115660955863,-0.4733530669806931,1.323038310740435,-0.004944717977195978,0.5124937891960144,-0.1101386696100235,-0.1069251522421837,0.1240209341049194,0.06865429133176804,XTrueNorthZVertical,0.4424183075987484,0.4417382509013016,0.6110901151783599,0.4854917814365231,-0.1117943301796913,-0.9694646596908569,-0.2182667106389999,12.93161773681641,-44.15678024291992,2.634987831115723,2,192.168.1.118,10.97.20.126,1,0
2015-02-21 18:59:10.236,26,1424570342.518955,39.63855101420258,-106.3705747117341,2515.276,-1,-1,32.09537027312117,135.3608572515517,-9999,1424570350.20114,11.2229118347168,-42.64469909667969,5.270401000976562,231.5133056640625,222.3872375488281,10,22217.81285741667,-0.2029266357421875,-0.934356689453125,0.02606201171875,22217.77938458333,0.4678492266030161,0.6201591377701738,0.07157538377307861,22217.77938458333,2.195509245578416,-0.4661274683344359,1.33690582353948,0.4599412679672241,0.628804624080658,0.1025986149907112,-0.06554650515317917,0.04789109900593758,0.1779855936765671,XTrueNorthZVertical,0.4360804949505452,0.4542187083761396,0.6144990425035812,0.4753000458299718,-0.1041617467999458,-0.9727720618247986,-0.2070383280515671,13.08805084228516,-44.09066390991211,2.950873374938965,2,192.168.1.118,10.97.20.126,1,0
2015-02-21 18:59:10.276,27,1424570342.518955,39.63855101420258,-106.3705747117341,2515.276,-1,-1,32.09537027312117,135.3608572515517,-9999,1424570350.253221,10.71122741699219,-42.95039367675781,6.302139282226562,229.9836730957031,220.8576049804688,10,22217.86209591667,-0.2261505126953125,-1.01068115234375,0.075042724609375,22217.83116629167,0.5451903541361163,0.6527668821571041,0.3482818157739466,22217.83116629167,2.300820472221101,-0.5383307150461392,1.352552790247401,0.5372836589813232,0.6614120602607727,0.3793051242828369,-0.09422255307435989,0.03005122952163219,0.2196145504713058,XTrueNorthZVertical,0.4355785807705352,0.4661812825610855,0.6184391730035959,0.4587802752704698,-0.1110081598162651,-0.9762792587280273,-0.1858926266431808,12.36939430236816,-44.10542297363281,5.069602012634277,2,192.168.1.118,10.97.20.126,1,0
2015-02-21 18:59:10.340,28,1424570342.518955,39.63855101420258,-106.3705747117341,2515.276,-1,-1,32.09537027312117,135.3608572515517,-9999,1424570350.304738,9.841358184814453,-43.2730712890625,7.816444396972656,227.7980041503906,218.6719360351562,10,22217.91106104167,-0.187164306640625,-1.068603515625,0.087615966796875,22217.882947625,0.6262260850494834,1.096600520998113,0.7515999860032527,22217.882947625,2.497893361796582,-0.6874895022642951,1.358779665512962,0.6183195114135742,1.105245590209961,0.7826229333877563,-0.09274791926145554,-0.04833140969276428,0.2535424530506134,XTrueNorthZVertical,0.435844164947421,0.4782515707280879,0.6278536233398203,0.4325681062624159,-0.1335399299860001,-0.9776085615158081,-0.1626306027173996,11.59963893890381,-44.18727111816406,6.076577186584473,2,192.168.1.118,10.97.20.126,1,0
2015-02-21 18:59:10.374,29,1424570342.518955,39.63855101420258,-106.3705747117341,2515.276,-1,-1,32.09537027312117,135.3608572515517,-9999,1424570350.357122,7.811676025390625,-43.62969970703125,9.43060302734375,223.1988220214844,214.07275390625,10,22217.96032579167,-0.139862060546875,-1.179244995117188,0.0572967529296875,22217.93472875,0.7308036273669329,1.274966533954497,0.8349806302564345,22217.93472875,2.750967477256674,-0.8703978736026168,1.353985777601894,0.7228971123695374,1.283611536026001,0.8660032749176025,0.02134719677269459,-0.124714583158493,0.2126980423927307,XTrueNorthZVertical,0.4326100959303545,0.4934824546398199,0.6421093092451814,0.3962565416008361,-0.1644746363162994,-0.9765884876251221,-0.1386471390724182,9.744009017944336,-44.35517883300781,7.852636337280273,2,192.168.1.118,10.97.20.126,1,0
2015-02-21 18:59:10.437,30,1424570342.518955,39.63855101420258,-106.3705747117341,2515.276,-1,-1,32.09537027312117,135.3608572515517,-9999,1424570350.408364,5.696708679199219,-43.59574890136719,11.39422607421875,217.8620300292969,208.7359619140625,10,22218.009280125,-0.143707275390625,-1.160842895507812,-0.084808349609375,22217.986510625,0.635892827174253,0.9178613991730086,0.7071664747958256,22217.986510625,2.986798630052265,-1.046315311339463,1.339313719336615,0.6280427575111389,0.9265562891960144,0.7383899092674255,0.0009970677783712745,-0.2150576859712601,0.1696342676877975,XTrueNorthZVertical,0.4321194537882724,0.5057963112367261,0.6531552225643291,0.3617059086509084,-0.1985831260681152,-0.9733273386955261,-0.1148857399821281,6.078658580780029,-44.36558151245117,10.89662551879883,2,192.168.1.118,10.97.20.126,1,0
2015-02-21 18:59:10.472,31,1424570342.518955,39.63855101420258,-106.3705747117341,2515.276,-1,-1,32.09537027312117,135.3608572515517,-9999,1424570350.460267,4.042259216308594,-43.13723754882812,12.64227294921875,214.147216796875,205.0211486816406,10,22218.05841925,-0.069732666015625,-1.194137573242188,-0.105377197265625,22218.03829175,-0.0676525474873919,0.4163684585190214,-0.009167133104270754,22218.03829175,3.073328452058109,-1.091971789155572,1.330513880599665,-0.07550252228975296,0.425063282251358,0.0220559760928154,0.2308210730552673,-0.3211181163787842,-0.08160898089408875,XTrueNorthZVertical,0.4262967316658126,0.5132725952130748,0.6610465553569154,0.3432780667972107,-0.2112135291099548,-0.9712707996368408,-0.1096446812152863,5.030491828918457,-44.28990936279297,11.70851516723633,2,192.168.1.118,10.97.20.126,1,0
2015-02-21 18:59:10.542,32,1424570342.518955,39.63855101420258,-106.3705747117341,2515.276,-1,-1,32.09537027312117,135.3608572515517,-9999,1424570350.512703,3.223564147949219,-43.06930541992188,12.20960998535156,211.9505615234375,202.8245086669922,10,22218.107509125,-0.537261962890625,-0.9823455810546875,0.183990478515625,22218.09007304167,-0.7910115743431173,0.4536662959016901,0.4083038741060435,22218.09007304167,2.988656794065646,-0.9970642379491427,1.313275538633483,-0.7988614439964294,0.4623610377311707,0.4395266175270081,-0.3545771539211273,-0.09629961103200912,0.2413996011018753,XTrueNorthZVertical,0.418559979464396,0.5056580664220495,0.6713145730780213,0.3441718282270433,-0.2139043062925339,-0.9670243859291077,-0.1382349282503128,4.650359153747559,-44.36080169677734,11.59676170349121,2,192.168.1.118,10.97.20.126,1,0
2015-02-21 18:59:10.570,33,1424570342.518955,39.63855101420258,-106.3705747117341,2515.276,-1,-1,32.09537027312117,135.3608572515517,-9999,1424570350.563566,2.029628753662109,-43.61274719238281,10.94491577148438,209.5975341796875,200.4714660644531,10,22218.15663716667,-0.11431884765625,-0.8383941650390625,0.037017822265625,22218.14185479167,-0.582687395968323,1.151297056098378,0.6288447713493583,22218.14185479167,2.941221540672184,-0.8944659031488301,1.266364660571371,-0.5905371904373169,1.15999174118042,0.6600672006607056,0.07352057844400406,0.04973584786057472,0.2854336798191071,XTrueNorthZVertical,0.4002499926292736,0.4959712855151862,0.6976223529812143,0.3273156273150233,-0.2337683737277985,-0.9540174603462219,-0.1876248568296432,2.580893516540527,-45.05765533447266,9.334770202636719,2,192.168.1.118,10.97.20.126,1,0
2015-02-21 18:59:10.633,34,1424570342.518955,39.63855101420258,-106.3705747117341,2515.276,-1,-1,32.09537027312117,135.3608572515517,-9999,1424570350.613831,0.2557830810546875,-43.85047912597656,8.981300354003906,206.8839416503906,197.7578735351562,10,22218.20573183334,-0.3450775146484375,-0.793701171875,-0.01971435546875,22218.19363604167,-0.5005097015795299,0.1668182801536914,0.6156306986526031,22218.14185479167,2.941221540672184,-0.8944659031488301,1.266364660571371,-0.5905371904373169,1.15999174118042,0.6600672006607056,0.07352057844400406,0.04973584786057472,0.2854336798191071,XTrueNorthZVertical,0.4002499926292736,0.4959712855151862,0.6976223529812143,0.3273156273150233,-0.2337683737277985,-0.9540174603462219,-0.1876248568296432,2.580893516540527,-45.05765533447266,9.334770202636719,2,192.168.1.118,10.97.20.126,1,0
2015-02-21 18:59:10.668,35,1424570342.518955,39.63855101420258,-106.3705747117341,2515.276,-1,-1,32.09537027312117,135.3608572515517,-9999,1424570350.666429,-1.893299102783203,-44.36000061035156,7.417076110839844,204.3545227050781,195.2284545898438,10,22218.25487229167,-0.4239349365234375,-0.9172515869140625,-0.0139617919921875,22218.245417375,-0.3859546262380985,0.5134364191946655,0.6274692486463324,22218.245417375,2.955833700001214,-0.8679694653343889,1.185143073103655,-0.3938042819499969,0.5221309065818787,0.6586910486221313,-0.1258672326803207,0.0369807556271553,0.2131912112236023,XTrueNorthZVertical,0.3942920848996577,0.4721881490449071,0.7275853005866428,0.3036309832284314,-0.287020355463028,-0.9265528917312622,-0.2431442141532898,-0.01578426361083984,-45.44126510620117,7.686511039733887,2,192.168.1.118,10.97.20.126,1,0
2015-02-21 18:59:10.729,36,1424570342.518955,39.63855101420258,-106.3705747117341,2515.276,-1,-1,32.09537027312117,135.3608572515517,-9999,1424570350.718878,-4.042385101318359,-44.22416687011719,6.352073669433594,201.07421875,191.9481658935547,10,22218.30396375,-0.2915191650390625,-0.8014373779296875,-0.1459197998046875,22218.297199125,-0.0354818278353437,0.6411906535307477,0.6346240972309393,22218.245417375,2.955833700001214,-0.8679694653343889,1.185143073103655,-0.3938042819499969,0.5221309065818787,0.6586910486221313,-0.1258672326803207,0.0369807556271553,0.2131912112236023,XTrueNorthZVertical,0.3942920848996577,0.4721881490449071,0.7275853005866428,0.3036309832284314,-0.287020355463028,-0.9265528917312622,-0.2431442141532898,-0.01578426361083984,-45.44126510620117,7.686511039733887,2,192.168.1.118,10.97.20.126,1,0
2015-02-21 18:59:10.766,37,1424570342.518955,39.63855101420258,-106.3705747117341,2515.276,-1,-1,32.09537027312117,135.3608572515517,-9999,1424570350.718878,-4.042385101318359,-44.22416687011719,6.352073669433594,201.07421875,191.9481658935547,10,22218.35310641667,-0.32452392578125,-0.7928924560546875,-0.354888916015625,22218.3489805,0.4194824927816511,0.3272865190041979,0.3860811263898772,22218.297199125,2.996863236523001,-0.8733699966966216,1.150627801094856,-0.04333140328526497,0.6498849987983704,0.6658455729484558,-0.03105405159294605,0.08442218601703644,0.1576117277145386,XTrueNorthZVertical,0.3895727802146415,0.4660924031452419,0.7416588845858209,0.2844873626016408,-0.3126654326915741,-0.9130201935768127,-0.2619818449020386,-2.655329704284668,-45.53720092773438,6.580560684204102,2,192.168.1.118,10.97.20.126,1,0
2015-02-21 18:59:10.830,38,1424570342.518955,39.63855101420258,-106.3705747117341,2515.276,-1,-1,32.09537027312117,135.3608572515517,-9999,1424570350.822808,-6.447296142578125,-43.93547058105469,7.034339904785156,196.0191040039062,186.8930358886719,10,22218.40219095834,-0.209259033203125,-0.928497314453125,-0.4800567626953125,22218.40076179167,0.7568791702321167,0.5470724100784753,0.01418745807517913,22218.3489805,3.04475625979691,-0.8920219247076498,1.137546902745731,0.4116329848766327,0.3359808027744293,0.4173023700714111,0.06236134469509125,0.1314070224761963,-0.0682823657989502,XTrueNorthZVertical,0.3865479745369255,0.467750088183066,0.7480029456883599,0.2688534015902803,-0.3267656564712524,-0.9076063632965088,-0.2635810375213623,-3.513019561767578,-45.48618698120117,6.531205177307129,2,192.168.1.118,10.97.20.126,1,0
2015-02-21 18:59:10.865,39,1424570342.518955,39.63855101420258,-106.3705747117341,2515.276,-1,-1,32.09537027312117,135.3608572515517,-9999,1424570350.822808,-6.447296142578125,-43.93547058105469,7.034339904785156,196.0191040039062,186.8930358886719,10,22218.45132354167,-0.392974853515625,-1.175537109375,-0.359954833984375,22218.45254358333,0.6410106238410582,1.038910859148707,0.244174587705005,22218.40076179167,3.137764632196003,-0.9530206202209414,1.14873471263514,0.7490297555923462,0.5557666420936584,0.04540837928652763,0.0891154557466507,-0.006302228197455406,-0.2369078397750854,XTrueNorthZVertical,0.3860026557484209,0.4820423234844852,0.7455343914793816,0.2506305232115736,-0.3339274823665619,-0.9122463464736938,-0.2372742891311646,-4.482595443725586,-45.2749137878418,7.353882789611816,2,192.168.1.118,10.97.20.126,1,0
2015-02-21 18:59:10.930,40,1424570342.518955,39.63855101420258,-106.3705747117341,2515.276,-1,-1,32.09537027312117,135.3608572515517,-9999,1424570350.926289,-8.238193511962891,-43.47695922851562,9.047866821289062,190.1566772460938,181.0306243896484,10,22218.50040829167,-0.073577880859375,-0.92816162109375,-0.3450927734375,22218.45254358333,0.6410106238410582,1.038910859148707,0.244174587705005,22218.45254358333,-3.062684221173658,-0.9848203172834737,1.161601119476714,0.6331613063812256,1.047605037689209,0.2753951549530029,-0.06147943064570427,-0.258095771074295,-0.1399269700050354,XTrueNorthZVertical,0.3758520809247014,0.4987196388917055,0.7463590407232831,0.230135084891273,-0.3314954340457916,-0.9174413084983826,-0.2200278639793396,-5.514937877655029,-44.73594284057617,9.605843544006348,2,192.168.1.118,10.97.20.126,1,0
2015-02-21 18:59:10.963,41,1424570342.518955,39.63855101420258,-106.3705747117341,2515.276,-1,-1,32.09537027312117,135.3608572515517,-9999,1424570350.926289,-8.238193511962891,-43.47695922851562,9.047866821289062,190.1566772460938,181.0306243896484,10,22218.54954,-0.044921875,-0.9309539794921875,-0.441436767578125,22218.55610629167,0.3615560759113375,-0.4750299078501968,0.03458354359965998,22218.50432491667,-2.977857437831409,-1.017395952017745,1.164004107761692,0.6820263266563416,0.7064752578735352,0.4441593587398529,0.2630314230918884,-0.009766867384314537,-0.137137696146965,XTrueNorthZVertical,0.3662330194060868,0.5117575993744579,0.7490395007576749,0.2071651544128025,-0.3366093039512634,-0.9183947443962097,-0.207955077290535,-6.172335147857666,-44.51976013183594,10.19238758087158,2,192.168.1.118,10.97.20.126,1,0
2015-02-21 18:59:11.003,42,1424570342.518955,39.63855101420258,-106.3705747117341,2515.276,-1,-1,32.09537027312117,135.3608572515517,-9999,1424570350.978461,-8.715770721435547,-43.20523071289062,10.21272277832031,188.4127197265625,179.2866516113281,10,22218.59861833333,-0.0774688720703125,-0.9369354248046875,-0.4801025390625,22218.55610629167,0.3615560759113375,-0.4750299078501968,0.03458354359965998,22218.55610629167,-2.902582239994401,-1.085772991282715,1.165833281471921,0.3537060618400574,-0.4663356840610504,0.06580283492803574,0.3036223948001862,-0.01183702237904072,-0.2577495872974396,XTrueNorthZVertical,0.3720301283443139,0.5193746192435845,0.7436303466026297,0.197123149377087,-0.3485442698001862,-0.9191169738769531,-0.1836871802806854,-7.251410007476807,-44.09376907348633,11.27597999572754,2,192.168.1.118,10.97.20.126,1,0
2015-02-21 18:59:11.061,43,1424570342.518955,39.63855101420258,-106.3705747117341,2515.276,-1,-1,32.09537027312117,135.3608572515517,-9999,1424570351.030508,-8.869274139404297,-43.29014587402344,10.99483489990234,187.9826354980469,178.8565826416016,10,22218.647764625,-0.0703887939453125,-0.6532135009765625,-0.291351318359375,22218.60788804167,-0.2090259213220302,-0.6004096677583642,-0.3942434488148611,22218.60788804167,-2.904341759113448,-1.10821135147364,1.172734353003244,-0.2168758660554886,-0.5917155742645264,-0.3630244731903076,0.2694243192672729,-0.01512145809829235,-0.3071164786815643,XTrueNorthZVertical,0.379519686547851,0.51910670553974,0.7378020984943257,0.2052830708136004,-0.3468931913375854,-0.92181396484375,-0.1729860752820969,-6.93995189666748,-43.88712310791016,12.23717880249023,2,192.168.1.118,10.97.20.126,1,0
2015-02-21 18:59:11.104,44,1424570342.518955,39.63855101420258,-106.3705747117341,2515.276,-1,-1,32.09537027312117,135.3608572515517,-9999,1424570351.081489,-7.777675628662109,-43.49395751953125,11.62718963623047,188.751953125,179.6259002685547,10,22218.696836625,-0.2636566162109375,-0.61737060546875,-0.143798828125,22218.65966941667,-0.2612177534170761,-1.719373551378199,-0.5689545394912203,22218.65966941667,-2.971954485381672,-1.107557843413505,1.189471717017123,-0.2690676152706146,-1.710679531097412,-0.5377358794212341,0.2104776799678802,0.3121141493320465,-0.09147222340106964,XTrueNorthZVertical,0.3936672097291627,0.5117410259748651,0.7269321794299674,0.2339164311168389,-0.3329294621944427,-0.9281724691390991,-0.1662945002317429,-5.990906238555908,-44.08755493164062,12.01615238189697,2,192.168.1.118,10.97.20.126,1,0
2015-02-21 18:59:11.161,45,1424570342.518955,39.63855101420258,-106.3705747117341,2515.276,-1,-1,32.09537027312117,135.3608572515517,-9999,1424570351.134151,-5.696823120117188,-43.45997619628906,11.36093139648438,194.1270446777344,185.0009765625,10,22218.74607441667,-0.45758056640625,-0.8397674560546875,-0.2993011474609375,22218.71145079167,-0.5583077540853015,-1.949203554503711,-0.665368960435359,22218.71145079167,-3.056447594299215,-1.122686828525824,1.205084841309334,-0.5661575198173523,-1.940509557723999,-0.6341506242752075,0.003137813182547688,0.2622997462749481,0.005221446044743061,XTrueNorthZVertical,0.4177641473547313,0.4979987700442133,0.7096705907213654,0.2717315491502713,-0.3223059177398682,-0.9338695406913757,-0.1549406796693802,-4.032194137573242,-44.37273025512695,11.78105449676514,2,192.168.1.118,10.97.20.126,1,0
2015-02-21 18:59:11.206,46,1424570342.518955,39.63855101420258,-106.3705747117341,2515.276,-1,-1,32.09537027312117,135.3608572515517,-9999,1424570351.186605,-2.251472473144531,-43.90155029296875,11.16123199462891,201.2955932617188,192.1695251464844,10,22218.79504695833,-0.358489990234375,-0.7487945556640625,-0.094390869140625,22218.76323279167,-0.7316353325753646,-1.744448278305731,-0.87939576565234,22218.76323279167,3.083800677357034,-1.082758787527396,1.221579634069007,-0.7394850254058838,-1.735754370689392,-0.8481777310371399,-0.1593011468648911,0.1176042780280113,-0.1469813138246536,XTrueNorthZVertical,0.436170792109042,0.4790994527533437,0.6932174568528674,0.3157029488551755,-0.3022162020206451,-0.939640998840332,-0.1604375094175339,-0.2101249694824219,-45.00334167480469,9.932088851928711,2,192.168.1.118,10.97.20.126,1,0
2015-02-21 18:59:11.262,47,1424570342.518955,39.63855101420258,-106.3705747117341,2515.276,-1,-1,32.09537027312117,135.3608572515517,-9999,1424570351.251041,1.193874359130859,-44.81863403320312,10.76185607910156,208.2161865234375,199.0901184082031,10,22218.84418208334,-0.3726806640625,-0.7746734619140625,0.0348968505859375,22218.81501404167,-0.0922953096861131,-1.699785202612339,-1.300008237684512,22218.81501404167,2.955853474491591,-1.031109271440293,1.264895087324179,-0.1001449376344681,-1.691091418266296,-1.268790483474731,-0.08240945637226105,0.1658104211091995,0.09159652888774872,XTrueNorthZVertical,0.4436388843235886,0.4751928154921479,0.6716926843966434,0.3552538614396628,-0.2583498060703278,-0.9535759091377258,-0.1547526568174362,1.565961837768555,-45.12623977661133,9.228286743164062,2,192.168.1.118,10.97.20.126,1,0
2015-02-21 18:59:11.307,48,1424570342.518955,39.63855101420258,-106.3705747117341,2515.276,-1,-1,32.09537027312117,135.3608572515517,-9999,1424570351.251041,1.193874359130859,-44.81863403320312,10.76185607910156,208.2161865234375,199.0901184082031,10,22218.89327354167,-0.3905181884765625,-0.9975128173828125,0.0372314453125,22218.86679541667,0.7306576861391966,-1.297449206193054,-1.131830147478226,22218.86679541667,2.881320626314253,-1.044184806089949,1.322639391415226,0.7228081226348877,-1.288755536079407,-1.100612759590149,-0.1542214900255203,0.1022860705852509,0.240194246172905,XTrueNorthZVertical,0.4593144877543209,0.4767657489498766,0.6385162349659891,0.392455958766204,-0.2123403996229172,-0.969366729259491,-0.1234492436051369,4.776747703552246,-44.98223876953125,8.818851470947266,2,192.168.1.118,10.97.20.126,1,0
2015-02-21 18:59:11.356,49,1424570342.518955,39.63855101420258,-106.3705747117341,2515.276,-1,-1,32.09537027312117,135.3608572515517,-9999,1424570351.31544,6.157222747802734,-44.8016357421875,11.07803344726562,218.9453125,209.8192443847656,10,22218.94238995833,-0.2971649169921875,-0.99591064453125,0.18597412109375,22218.91857729167,2.117249551919929,-1.221989868286204,-0.3582622782751275,22218.91857729167,-3.102288345191679,-1.390063786429786,1.382387457900153,2.109400033950806,-1.213296294212341,-0.3270451724529266,-0.2628978192806244,0.1046484634280205,0.1135310679674149,XTrueNorthZVertical,0.4837105012776634,0.4991902128001608,0.599666599955434,0.3965265328009266,-0.1842457354068756,-0.9823035001754761,-0.03366656601428986,8.675895690917969,-43.68429565429688,11.84914970397949,2,192.168.1.118,10.97.20.126,1,0
2015-02-21 18:59:11.405,50,1424570342.518955,39.63855101420258,-106.3705747117341,2515.276,-1,-1,32.09537027312117,135.3608572515517,-9999,1424570351.367566,8.869159698486328,-43.42601013183594,13.02499389648438,224.4847717285156,215.3587188720703,10,22218.9914765,-0.072357177734375,-1.290267944335938,0.2023468017578125,22218.970358875,2.046969529701064,-0.6028741570311236,-0.6245232598484867,22218.970358875,-2.520874154980308,-2.008443493322273,1.394830430316999,2.039119958877563,-0.5941806435585022,-0.5933064818382263,-0.02878708764910698,-0.2571565806865692,0.1701166033744812,XTrueNorthZVertical,0.5105585216279934,0.5257622362049199,0.5572539799164833,0.3903487014965887,-0.1585603207349777,-0.9845579266548157,0.0741918683052063,9.651634216308594,-42.77254104614258,14.18968296051025,2,192.168.1.118,10.97.20.126,1,0
2015-02-21 18:59:11.454,51,1424570342.518955,39.63855101420258,-106.3705747117341,2515.276,-1,-1,32.09537027312117,135.3608572515517,-9999,1424570351.41935,10.81356811523438,-41.82962036132812,16.91893005371094,226.9671936035156,217.8411254882812,10,22219.040615375,0.159881591796875,-1.306549072265625,0.1739654541015625,22219.022140125,1.286212530605683,0.3505273932051014,0.04877952379032736,22219.022140125,-2.119671581661983,-2.408602006031213,1.35564435292829,1.278488636016846,0.359233021736145,0.08021273463964462,0.2933314144611359,-0.2205810695886612,0.03371747210621834,XTrueNorthZVertical,0.5244367650381639,0.5516328031854939,0.5297730939509747,0.3741762135286322,-0.1428492218255997,-0.9769439697265625,0.158665344119072,11.12753486633301,-41.07710266113281,17.68730545043945,2,192.168.1.118,10.97.20.126,1,0
2015-02-21 18:59:11.503,52,1424570342.518955,39.63855101420258,-106.3705747117341,2515.276,-1,-1,32.09537027312117,135.3608572515517,-9999,1424570351.471327,11.56403350830078,-39.92756652832031,20.31364440917969,228.263916015625,219.1378631591797,10,22219.089704875,-0.167266845703125,-1.248672485351562,0.177764892578125,22219.073922125,0.7739465707101075,-0.5736699325173147,0.6185817474565199,22219.022140125,-2.119671581661983,-2.408602006031213,1.35564435292829,1.278488636016846,0.359233021736145,0.08021273463964462,0.2933314144611359,-0.2205810695886612,0.03371747210621834,XTrueNorthZVertical,0.5244367650381639,0.5516328031854939,0.5297730939509747,0.3741762135286322,-0.1428492218255997,-0.9769439697265625,0.158665344119072,11.12753486633301,-41.07710266113281,17.68730545043945,2,192.168.1.118,10.97.20.126,1,0
2015-02-21 18:59:11.552,53,1424570342.518955,39.63855101420258,-106.3705747117341,2515.276,-1,-1,32.09537027312117,135.3608572515517,-9999,1424570351.524715,11.12056732177734,-39.04444885253906,22.44366455078125,226.1524047851562,217.0263519287109,10,22219.13882516667,-0.1978302001953125,-1.185867309570312,0.2978363037109375,22219.125703375,0.457493791020352,-0.4977288287692692,0.03865418532584609,22219.125703375,-2.039888018852399,-2.516312020907074,1.269302649163068,0.4497699439525604,-0.489023357629776,0.07008679956197739,-0.1085686907172203,-0.2993021607398987,-0.0173908919095993,XTrueNorthZVertical,0.5574499600224924,0.5564455897351065,0.5063308090762315,0.3510655201447053,-0.1738104522228241,-0.9548940062522888,0.2407643049955368,10.21996116638184,-39.17953491210938,22.01153182983398,2,192.168.1.118,10.97.20.126,1,0
2015-02-21 18:59:11.593,54,1424570342.518955,39.63855101420258,-106.3705747117341,2515.276,-1,-1,32.09537027312117,135.3608572515517,-9999,1424570351.524715,11.12056732177734,-39.04444885253906,22.44366455078125,226.1524047851562,217.0263519287109,10,22219.18791179167,0.100372314453125,-0.8520355224609375,0.242340087890625,22219.17748483333,-0.3770788429570824,-0.02259772079764936,-0.287430715394508,22219.125703375,-2.039888018852399,-2.516312020907074,1.269302649163068,0.4497699439525604,-0.489023357629776,0.07008679956197739,-0.1085686907172203,-0.2993021607398987,-0.0173908919095993,XTrueNorthZVertical,0.5574499600224924,0.5564455897351065,0.5063308090762315,0.3510655201447053,-0.1738104522228241,-0.9548940062522888,0.2407643049955368,10.21996116638184,-39.17953491210938,22.01153182983398,2,192.168.1.118,10.97.20.126,1,0
2015-02-21 18:59:11.651,55,1424570342.518955,39.63855101420258,-106.3705747117341,2515.276,-1,-1,32.09537027312117,135.3608572515517,-9999,1424570351.600606,11.61519622802734,-38.78971862792969,23.05937194824219,228.2969360351562,219.1708831787109,10,22219.23704295834,0.2532806396484375,-0.885986328125,0.3197021484375,22219.22926670833,-0.2141807359279876,-0.3929411630418124,-0.719952311189296,22219.17748483333,-2.03324108708311,-2.534832753644902,1.271672042159378,-0.3848025798797607,-0.01389234233647585,-0.2559984028339386,0.1734480559825897,-0.05171404406428337,0.06991387903690338,XTrueNorthZVertical,0.5595528777848655,0.5549251023552376,0.5026283677137642,0.3554201339641508,-0.1680311858654022,-0.9555948972702026,0.2420825809240341,10.56572723388672,-38.80357360839844,22.5086555480957,2,192.168.1.118,10.97.20.126,1,0
2015-02-21 18:59:11.690,56,1424570342.518955,39.63855101420258,-106.3705747117341,2515.276,-1,-1,32.09537027312117,135.3608572515517,-9999,1424570351.652689,12.86029815673828,-38.67085266113281,22.80976104736328,229.5316162109375,220.4055633544922,10,22219.28612466667,-0.0618743896484375,-0.8512420654296875,0.335113525390625,22219.281048125,-0.3644916783809319,-1.286927056726151,-0.4231153108246281,22219.22926670833,-1.982519600688202,-2.58968740286441,1.301886227886578,-0.2219044119119644,-0.3842358589172363,-0.6885203123092651,0.3919238746166229,0.09649206697940826,0.04799633845686913,XTrueNorthZVertical,0.550023238125929,0.5573075873539778,0.5006353713007456,0.3691164525196804,-0.1392993777990341,-0.9640610218048096,0.2262346148490906,11.86533355712891,-38.96625900268555,21.56005096435547,2,192.168.1.118,10.97.20.126,1,0
2015-02-21 18:59:11.749,57,1424570342.518955,39.63855101420258,-106.3705747117341,2515.276,-1,-1,32.09537027312117,135.3608572515517,-9999,1424570351.704705,14.27596282958984,-38.68783569335938,22.22733306884766,232.7579650878906,223.6318969726562,10,22219.335256375,-0.0124053955078125,-0.931243896484375,0.1580810546875,22219.33282958333,-0.5291754349209248,-1.23717148439631,-0.1023716459865369,22219.33282958333,-1.909647565201723,-2.769087271229757,1.344757499055686,-0.5368989706039429,-1.228466391563416,-0.0709402933716774,0.007410461083054543,0.08347904682159424,0.002417720388621092,XTrueNorthZVertical,0.5608766447948497,0.5383230629302056,0.4718754217646964,0.4158837523809963,-0.08156817406415939,-0.9745618104934692,0.2087486684322357,14.81130599975586,-38.89062881469727,19.80241203308105,2,192.168.1.118,10.97.20.126,1,0
2015-02-21 18:59:11.788,58,1424570342.518955,39.63855101420258,-106.3705747117341,2515.276,-1,-1,32.09537027312117,135.3608572515517,-9999,1424570351.755094,15.69162750244141,-38.33120727539062,20.81287384033203,237.3409423828125,228.2148742675781,10,22219.38434145834,0.0533447265625,-0.8607177734375,0.2800140380859375,22219.33282958333,-0.5291754349209248,-1.23717148439631,-0.1023716459865369,22219.33282958333,-1.909647565201723,-2.769087271229757,1.344757499055686,-0.5368989706039429,-1.228466391563416,-0.0709402933716774,0.007410461083054543,0.08347904682159424,0.002417720388621092,XTrueNorthZVertical,0.5608766447948497,0.5383230629302056,0.4718754217646964,0.4158837523809963,-0.08156817406415939,-0.9745618104934692,0.2087486684322357,14.81130599975586,-38.89062881469727,19.80241203308105,2,192.168.1.118,10.97.20.126,1,0
2015-02-21 18:59:11.848,59,1424570342.518955,39.63855101420258,-106.3705747117341,2515.276,-1,-1,32.09537027312117,135.3608572515517,-9999,1424570351.808906,16.86850738525391,-38.34820556640625,18.36668395996094,241.634033203125,232.5079650878906,10,22219.4334795,0.0536956787109375,-0.676239013671875,0.184539794921875,22219.436392875,-0.8092536951779421,-1.265198591708304,-0.4840260660124844,22219.38461145834,-1.993008844913166,-2.735848413426424,1.386377825695821,-1.082438588142395,-0.7919431924819946,-0.09932966530323029,0.1257234066724777,0.1223252788186073,0.111527293920517,XTrueNorthZVertical,0.5626283402304758,0.5173903019227544,0.4701287673825219,0.4412885770605959,-0.07237867265939713,-0.9830430746078491,0.1684867441654205,16.37056922912598,-39.78269577026367,16.53277587890625,2,192.168.1.118,10.97.20.126,1,0
2015-02-21 18:59:11.887,60,1424570342.518955,39.63855101420258,-106.3705747117341,2515.276,-1,-1,32.09537027312117,135.3608572515517,-9999,1424570351.860199,18.48884582519531,-38.60293579101562,15.5211181640625,245.4478759765625,236.3218231201172,10,22219.48256445834,-0.2566375732421875,-0.7884674072265625,-0.010345458984375,22219.436392875,-0.8092536951779421,-1.265198591708304,-0.4840260660124844,22219.436392875,-2.029537991773443,-2.748359389490189,1.436315855490689,-0.8169770836830139,-1.2564936876297,-0.4525953829288483,0.1050704345107079,0.3147321045398712,0.06069730967283249,XTrueNorthZVertical,0.5594142213595956,0.4989759229255191,0.4655550108555045,0.470465013648824,-0.05137475952506065,-0.9909711480140686,0.1238424852490425,16.98421859741211,-40.18241500854492,14.86274147033691,2,192.168.1.118,10.97.20.126,1,0
2015-02-21 18:59:11.945,61,1424570342.518955,39.63855101420258,-106.3705747117341,2515.276,-1,-1,32.09537027312117,135.3608572515517,-9999,1424570351.912586,20.51853942871094,-38.85765075683594,12.90851593017578,251.5603637695312,242.4342956542969,10,22219.53169858333,-0.06793212890625,-0.705352783203125,0.004486083984375,22219.48817433334,-0.4337623625466559,-1.217873952821487,-0.5397156938832404,22219.48817433334,-1.902920492059896,-2.942553307674115,1.471516135833776,-0.4414856731891632,-1.209169030189514,-0.5082852840423584,-0.2370392680168152,0.2066083550453186,-0.107506200671196,XTrueNorthZVertical,0.5619364930066225,0.4825015513164935,0.4476450770617345,0.5010324896710621,-0.01959830150008202,-0.9950757622718811,0.09716074168682098,18.51461791992188,-40.34197235107422,12.39860057830811,2,192.168.1.118,10.97.20.126,1,0
2015-02-21 18:59:11.984,62,1424570342.518955,39.63855101420258,-106.3705747117341,2515.276,-1,-1,32.09537027312117,135.3608572515517,-9999,1424570351.963766,22.51411437988281,-38.67085266113281,10.89498138427734,256.5729370117188,247.4468688964844,10,22219.58077475,0.180572509765625,-0.7393646240234375,0.0185699462890625,22219.53995629167,-0.4948097378984333,0.04877979010643636,-1.307955110377308,22219.53995629167,-1.38814285668952,2.803310192934005,1.493809914318673,-0.502532958984375,0.05748455971479416,-1.276525020599365,-0.09345636516809464,0.2916852235794067,-0.06806601583957672,XTrueNorthZVertical,0.5505943464568557,0.4828270019570826,0.435730232557887,0.5233193634721792,0.02552423253655434,-0.9970380067825317,0.07255209982395172,21.29043006896973,-39.72241973876953,9.63526725769043,2,192.168.1.118,10.97.20.126,1,0
2015-02-21 18:59:12.044,63,1424570342.518955,39.63855101420258,-106.3705747117341,2515.276,-1,-1,32.09537027312117,135.3608572515517,-9999,1424570352.015175,24.40734672546387,-37.94058227539062,9.247550964355469,260.7734069824219,251.6473388671875,10,22219.62990120834,-0.365692138671875,-0.8795166015625,-0.0328369140625,22219.64351920833,-0.06164578764871818,1.428569143514779,-2.143544272942826,22219.59173775,-0.7210965227373539,2.137214325254798,1.46092908420641,0.1296933144330978,-0.3285492658615112,-1.582279682159424,0.1230836510658264,0.2378213703632355,-0.09861751645803452,XTrueNorthZVertical,0.530845480130583,0.4976163194044215,0.4207448623977633,0.5418070464401596,0.09252303838729858,-0.9939706921577454,0.05883784964680672,22.6966724395752,-39.05250549316406,9.151725769042969,2,192.168.1.118,10.97.20.126,1,0
2015-02-21 18:59:12.083,64,1424570342.518955,39.63855101420258,-106.3705747117341,2515.276,-1,-1,32.09537027312117,135.3608572515517,-9999,1424570352.066863,27.54568481445312,-36.14039611816406,9.413955688476562,265.7915954589844,256.66552734375,10,22219.67896825,0.2636871337890625,-0.8350982666015625,0.0697174072265625,22219.64351920833,-0.06164578764871818,1.428569143514779,-2.143544272942826,22219.64351920833,-0.4653249158956992,1.903929642005078,1.3793489501391,-0.06936884671449661,1.437273621559143,-2.112114667892456,-0.4078922271728516,0.1129401847720146,-0.07874798774719238,XTrueNorthZVertical,0.5040420502095722,0.5263582173545671,0.4011448672354367,0.5549517763315218,0.1798190921545029,-0.9817298650741577,0.06222272291779518,25.43793869018555,-37.37730026245117,8.935317993164062,2,192.168.1.118,10.97.20.126,1,0
2015-02-21 18:59:12.141,65,1424570342.518955,39.63855101420258,-106.3705747117341,2515.276,-1,-1,32.09537027312117,135.3608572515517,-9999,1424570352.118565,30.34290313720703,-34.23828125,10.67866516113281,267.8558044433594,258.729736328125,10,22219.7280865,0.0817413330078125,-0.9727020263671875,-0.0644378662109375,22219.69530116667,-0.3631422546565887,1.779126896756307,-1.608747703909071,22219.69530116667,-0.2898036400840229,1.83420785173095,1.286735945017662,-0.3708652555942535,1.787831425666809,-1.577318549156189,-0.02954590134322643,0.08503222465515137,-0.02028325200080872,XTrueNorthZVertical,0.4526960967079605,0.5758056697450957,0.4009759554115154,0.5502112301794605,0.2705889940261841,-0.9599254131317139,0.07297185063362122,29.53450584411621,-33.36793518066406,11.75947093963623,2,192.168.1.118,10.97.20.126,1,0
2015-02-21 18:59:12.181,66,1424570342.518955,39.63855101420258,-106.3705747117341,2515.276,-1,-1,32.09537027312117,135.3608572515517,-9999,1424570352.170473,32.40670013427734,-31.63992309570312,12.89187622070312,267.1388549804688,258.0127868652344,10,22219.77716141667,0.16180419921875,-0.94921875,-0.0556488037109375,22219.747082625,-0.7335943538732269,1.784464404213044,-0.8106848779477507,22219.747082625,-0.1588544692339215,1.79027084044969,1.241289304289714,-0.7413172721862793,1.793168783187866,-0.7792560458183289,-0.2224920243024826,-0.06904155761003494,-0.1829053610563278,XTrueNorthZVertical,0.4129335932603441,0.6039121539046621,0.4119885366978193,0.5431771750284768,0.3158147931098938,-0.9462019801139832,0.07044808566570282,30.2359504699707,-32.35276412963867,12.77016258239746,2,192.168.1.118,10.97.20.126,1,0
2015-02-21 18:59:12.240,67,1424570342.518955,39.63855101420258,-106.3705747117341,2515.276,-1,-1,32.09537027312117,135.3608572515517,-9999,1424570352.222146,32.78193664550781,-30.21334838867188,14.68906402587891,264.2528991699219,255.1268310546875,10,22219.826285375,0.427734375,-0.879730224609375,-0.03021240234375,22219.79886408334,-0.9993772980309169,2.490661222055972,-0.5674916651044398,22219.79886408334,-0.009315561843073134,1.758832463266289,1.217139520897663,-1.007100105285645,2.499365568161011,-0.5360631346702576,-0.06988607347011566,0.022005345672369,-0.05247154086828232,XTrueNorthZVertical,0.3674530556540671,0.6303554993693586,0.4379730840690832,0.5251759837000411,0.3402260541915894,-0.9381124973297119,0.06473960727453232,30.32567405700684,-31.66788291931152,14.1947135925293,2,192.168.1.118,10.97.20.126,1,0
2015-02-21 18:59:12.279,68,1424570342.518955,39.63855101420258,-106.3705747117341,2515.276,-1,-1,32.09537027312117,135.3608572515517,-9999,1424570352.274019,32.08263397216797,-29.75480651855469,16.00368499755859,260.0899658203125,250.9639129638672,10,22219.87536008333,0.455718994140625,-0.908416748046875,-0.0042724609375,22219.85064608333,-1.305759866690756,2.025047719188077,-0.1454125902599615,22219.85064608333,0.1712697711079849,1.706949936773495,1.211206673877669,-1.313482642173767,2.033751964569092,-0.1139844134449959,0.07199010252952576,0.08907169848680496,-0.06691302359104156,XTrueNorthZVertical,0.3198505697058339,0.6492897917420408,0.4736293088029337,0.5017904913011809,0.3486336767673492,-0.9360412955284119,0.04776323959231377,28.65359497070312,-31.94687843322754,16.80356025695801,2,192.168.1.118,10.97.20.126,1,0
2015-02-21 18:59:12.339,69,1424570342.518955,39.63855101420258,-106.3705747117341,2515.276,-1,-1,32.09537027312117,135.3608572515517,-9999,1424570352.325805,31.00809097290039,-30.31524658203125,16.65267944335938,254.1241149902344,244.9980621337891,10,22219.92448891667,0.309173583984375,-1.01641845703125,0.022186279296875,22219.90242758334,-1.349790175309145,1.029814832445542,0.2137269332782381,22219.90242758334,0.3620246569038409,1.601254737686841,1.222773488804953,-1.357512950897217,1.038519024848938,0.2451548278331757,0.08923296630382538,-0.001403185538947582,-0.03866046667098999,XTrueNorthZVertical,0.2873111764073641,0.6501117231522845,0.5079223797356522,0.4866435362912473,0.3408817946910858,-0.9400488138198853,0.01038592960685492,27.75002670288086,-32.62025451660156,17.02487182617188,2,192.168.1.118,10.97.20.126,1,0
2015-02-21 18:59:12.378,70,1424570342.518955,39.63855101420258,-106.3705747117341,2515.276,-1,-1,32.09537027312117,135.3608572515517,-9999,1424570352.325805,31.00809097290039,-30.31524658203125,16.65267944335938,254.1241149902344,244.9980621337891,10,22219.97366433333,0.4218597412109375,-1.08441162109375,-0.0524139404296875,22219.95420925,-1.603222709911592,1.304080743623461,0.2500705600423315,22219.95420925,0.587542433049618,1.445084353732379,1.232369082267688,-1.610945343971252,1.312784790992737,0.2814981341362,0.06215641275048256,-0.1044057235121727,0.02259933203458786,XTrueNorthZVertical,0.2586748061597025,0.6420855265809263,0.5430680938719522,0.4752795036089967,0.3293841183185577,-0.9432780146598816,-0.04162704199552536,26.56502914428711,-33.93259429931641,16.33613777160645,2,192.168.1.118,10.97.20.126,1,0
2015-02-21 18:59:12.445,71,1424570342.518955,39.63855101420258,-106.3705747117341,2515.276,-1,-1,32.09537027312117,135.3608572515517,-9999,1424570352.429861,28.80784797668457,-33.45710754394531,15.67088317871094,243.9630126953125,234.8369445800781,10,22220.022677875,0.459503173828125,-1.113174438476562,-0.0929718017578125,22220.00599108333,-1.717509871247362,1.305404068369121,0.1499388988486602,22220.00599108333,0.8404878144684157,1.272619204125248,1.227001400323265,-1.725112557411194,1.314120054244995,0.1815771013498306,0.09080526232719421,-0.1534883826971054,0.05005617067217827,XTrueNorthZVertical,0.2245428641241734,0.6325106239819657,0.5806491225915493,0.4608225787366713,0.3221891224384308,-0.9414823055267334,-0.09902162849903107,24.40013885498047,-36.31985855102539,14.47384738922119,2,192.168.1.118,10.97.20.126,1,0
2015-02-21 18:59:12.476,72,1424570342.518955,39.63855101420258,-106.3705747117341,2515.276,-1,-1,32.09537027312117,135.3608572515517,-9999,1424570352.429861,28.80784797668457,-33.45710754394531,15.67088317871094,243.9630126953125,234.8369445800781,10,22220.07174983334,0.64599609375,-0.9836883544921875,-0.1556243896484375,22220.05777254167,-1.785027929099705,1.129339559226784,0.4444056858431576,22220.00599108333,0.8404878144684157,1.272619204125248,1.227001400323265,-1.725112557411194,1.314120054244995,0.1815771013498306,0.09080526232719421,-0.1534883826971054,0.05005617067217827,XTrueNorthZVertical,0.2245428641241734,0.6325106239819657,0.5806491225915493,0.4608225787366713,0.3221891224384308,-0.9414823055267334,-0.09902162849903107,24.40013885498047,-36.31985855102539,14.47384738922119,2,192.168.1.118,10.97.20.126,1,0
2015-02-21 18:59:12.539,73,1424570342.518955,39.63855101420258,-106.3705747117341,2515.276,-1,-1,32.09537027312117,135.3608572515517,-9999,1424570352.533501,26.14708137512207,-35.39315795898438,12.67554473876953,234.5753784179688,225.4493103027344,10,22220.12089104167,0.540679931640625,-1.083587646484375,-0.2059173583984375,22220.10955408333,-1.453884886520963,0.5706158193792118,0.1105249136638145,22220.10955408333,1.312274101039955,0.9400381939689345,1.175401860318489,-1.461487412452698,0.5793316960334778,0.1421625167131424,0.1837237775325775,-0.02957839705049992,0.01600702479481697,XTrueNorthZVertical,0.1617399589185741,0.6002175538251322,0.6516173062768248,0.4347113983423045,0.3110577166080475,-0.9228447079658508,-0.2271581441164017,22.2440299987793,-38.67239761352539,11.56027984619141,2,192.168.1.118,10.97.20.126,1,0
2015-02-21 18:59:12.574,74,1424570342.518955,39.63855101420258,-106.3705747117341,2515.276,-1,-1,32.09537027312117,135.3608572515517,-9999,1424570352.533501,26.14708137512207,-35.39315795898438,12.67554473876953,234.5753784179688,225.4493103027344,10,22220.16996525,0.6539154052734375,-1.161453247070312,-0.377899169921875,22220.16133620833,-0.7468606245273477,-0.3567085900951753,0.2072815508080283,22220.10955408333,1.312274101039955,0.9400381939689345,1.175401860318489,-1.461487412452698,0.5793316960334778,0.1421625167131424,0.1837237775325775,-0.02957839705049992,0.01600702479481697,XTrueNorthZVertical,0.1617399589185741,0.6002175538251322,0.6516173062768248,0.4347113983423045,0.3110577166080475,-0.9228447079658508,-0.2271581441164017,22.2440299987793,-38.67239761352539,11.56027984619141,2,192.168.1.118,10.97.20.126,1,0
2015-02-21 18:59:12.634,75,1424570342.518955,39.63855101420258,-106.3705747117341,2515.276,-1,-1,32.09537027312117,135.3608572515517,-9999,1424570352.585636,25.12370872497559,-36.37815856933594,10.87833404541016,231.7234802246094,222.5974273681641,10,22220.21909566667,0.484710693359375,-0.748260498046875,-0.44451904296875,22220.213117625,-0.09233818657966338,0.3658626737101047,-0.7234253395668684,22220.16133620833,1.430323835168771,0.8361318405760585,1.150845271216948,-0.7544631361961365,-0.3479928076267242,0.2389187961816788,0.4487796425819397,-0.1809767931699753,-0.02259092964231968,XTrueNorthZVertical,0.1521176366975325,0.5832722100221924,0.6695654403637805,0.4339768595338193,0.3025478720664978,-0.9131088852882385,-0.2733075022697449,21.34219741821289,-39.96482467651367,8.444807052612305,2,192.168.1.118,10.97.20.126,1,0
2015-02-21 18:59:12.673,76,1424570342.518955,39.63855101420258,-106.3705747117341,2515.276,-1,-1,32.09537027312117,135.3608572515517,-9999,1424570352.637362,25.51600456237793,-37.14241027832031,9.364028930664062,231.2480773925781,222.1220245361328,10,22220.26829216667,2.15130615234375,-1.510482788085938,-0.2556610107421875,22220.26489925,1.990943011952413,-1.669272034422757,-0.5143240507859889,22220.213117625,1.452343422779802,0.8098618828331238,1.127893723333707,-0.09994062781333923,0.3745783567428589,-0.691788375377655,0.03613408654928207,-0.01645613089203835,-0.1634321361780167,XTrueNorthZVertical,0.1462706420649033,0.5751838027608559,0.6732621301281112,0.4410063903911546,0.3103624880313873,-0.9035115242004395,-0.295536994934082,21.33633804321289,-40.1558837890625,7.500453948974609,2,192.168.1.118,10.97.20.126,1,0
2015-02-21 18:59:12.737,77,1424570342.518955,39.63855101420258,-106.3705747117341,2515.276,-1,-1,32.09537027312117,135.3608572515517,-9999,1424570352.691853,26.36880874633789,-37.07447814941406,8.698387145996094,232.1913757324219,223.0653076171875,10,22220.31733575,-0.63970947265625,-1.206024169921875,-0.0924224853515625,22220.31668116667,-0.1424801835836753,-3.649530710397881,-0.4935306216268682,22220.26489925,1.318727753833115,0.9313185764710404,1.129869006118383,1.983340620994568,-1.660556435585022,-0.4826874136924744,1.025927543640137,-0.06790322810411453,0.3738929331302643,XTrueNorthZVertical,0.1457543411262124,0.5927984779251332,0.6523302603587323,0.4492336896892449,0.3424501717090607,-0.9043563008308411,-0.2546912729740143,22.29141998291016,-39.57170867919922,7.820727348327637,2,192.168.1.118,10.97.20.126,1,0
2015-02-21 18:59:12.770,78,1424570342.518955,39.63855101420258,-106.3705747117341,2515.276,-1,-1,32.09537027312117,135.3608572515517,-9999,1424570352.766297,28.75667762756348,-36.02153015136719,6.501808166503906,240.9792175292969,231.8531646728516,10,22220.36642329167,-0.1199188232421875,-1.278839111328125,0.0001678466796875,22220.31668116667,-0.1424801835836753,-3.649530710397881,-0.4935306216268682,22220.31668116667,1.189089525860121,0.8608230629587066,1.134165080818678,-0.1500824689865112,-3.640815019607544,-0.461894303560257,-0.2305767834186554,-0.4507674276828766,0.3181711435317993,XTrueNorthZVertical,0.2072806909214787,0.5649887251301595,0.6150370241380723,0.5094624171666552,0.3207104504108429,-0.9061813950538635,-0.2756448984146118,25.58351135253906,-37.7523078918457,6.651206970214844,2,192.168.1.118,10.97.20.126,1,0
2015-02-21 18:59:12.838,79,1424570342.518955,39.63855101420258,-106.3705747117341,2515.276,-1,-1,32.09537027312117,135.3608572515517,-9999,1424570352.818426,30.25762176513672,-34.76480102539062,6.535087585449219,244.3292541503906,235.2031860351562,10,22220.41556604167,0.965667724609375,-0.4017791748046875,-0.26287841796875,22220.42024416667,0.9085507216859825,-0.6119203826219047,-0.5831092406849915,22220.36846266667,1.1093516619269,0.9316266354054955,1.114237668956601,0.7542901039123535,1.687419533729553,-0.4916085600852966,-0.4737507998943329,-0.3812641501426697,0.2631548941135406,XTrueNorthZVertical,0.2007995477716009,0.572875225833556,0.6012772958094197,0.5195759527768574,0.3538319766521454,-0.8975749611854553,-0.2629870474338531,26.68381500244141,-37.18846130371094,5.383657455444336,2,192.168.1.118,10.97.20.126,1,0
2015-02-21 18:59:12.868,80,1424570342.518955,39.63855101420258,-106.3705747117341,2515.276,-1,-1,32.09537027312117,135.3608572515517,-9999,1424570352.818426,30.25762176513672,-34.76480102539062,6.535087585449219,244.3292541503906,235.2031860351562,10,22220.46465758334,0.2084197998046875,-0.8189697265625,0.021087646484375,22220.42024416667,0.9085507216859825,-0.6119203826219047,-0.5831092406849915,22220.42024416667,0.9823096216100372,1.09806628693069,1.127096887467788,0.9009485840797424,-0.6032050251960754,-0.5514735579490662,0.5834642052650452,0.5013905763626099,-0.06741756200790405,XTrueNorthZVertical,0.1937400646926022,0.6039324135529576,0.5859321388831915,0.5043946825014797,0.3822035491466522,-0.9031697511672974,-0.1954608559608459,27.14885520935059,-36.25915145874023,8.497357368469238,2,192.168.1.118,10.97.20.126,1,0
2015-02-21 18:59:12.938,81,1424570342.518955,39.63855101420258,-106.3705747117341,2515.276,-1,-1,32.09537027312117,135.3608572515517,-9999,1424570352.922202,32.56021118164062,-32.06454467773438,9.846588134765625,249.4715576171875,240.3454895019531,10,22220.513811,0.7538909912109375,-0.8122711181640625,0.122283935546875,22220.47202641667,0.8082994845593667,-0.4736828809708347,-0.4555358349869257,22220.47202641667,0.8716602820679875,1.151934792498163,1.122610602213449,0.8006974458694458,-0.4649676382541656,-0.4239004254341125,-0.1874510645866394,0.08226504176855087,0.1973324120044708,XTrueNorthZVertical,0.2100345041265977,0.6064347632398212,0.5625379180276636,0.5212230959106208,0.3958708643913269,-0.9012347459793091,-0.1762447655200958,28.63015556335449,-34.6721076965332,10.10694694519043,2,192.168.1.118,10.97.20.126,1,0
2015-02-21 18:59:12.967,82,1424570342.518955,39.63855101420258,-106.3705747117341,2515.276,-1,-1,32.09537027312117,135.3608572515517,-9999,1424570352.922202,32.56021118164062,-32.06454467773438,9.846588134765625,249.4715576171875,240.3454895019531,10,22220.563008875,0.5073394775390625,-0.8795013427734375,0.083465576171875,22220.52380779167,0.9601862194293108,-0.4082700519601994,-0.4599063486518548,22220.52380779167,0.7555574870920881,1.24153279182038,1.116458953311084,0.9525842070579529,-0.3995549082756042,-0.4282712936401367,0.3190835416316986,0.06311807036399841,0.224959596991539,XTrueNorthZVertical,0.2185026395010262,0.617497847477385,0.5408634350134447,0.5276549909517886,0.4152914583683014,-0.8985520601272583,-0.1419060081243515,29.22306442260742,-33.98532104492188,10.72388458251953,2,192.168.1.118,10.97.20.126,1,0
2015-02-21 18:59:13.036,83,1424570342.518955,39.63855101420258,-106.3705747117341,2515.276,-1,-1,32.09537027312117,135.3608572515517,-9999,1424570352.976017,33.73708724975586,-30.82481384277344,10.72854614257812,252.3342590332031,243.2082061767578,10,22220.61206654167,0.5972137451171875,-0.777313232421875,0.0604248046875,22220.5755895,0.6392489427799709,-0.5218528071876429,-0.2252759976614757,22220.5755895,0.6498520049565184,1.307248944810501,1.114421065955496,0.6316470503807068,-0.5131376981735229,-0.193641260266304,0.05189032107591629,0.01092179492115974,0.1610389053821564,XTrueNorthZVertical,0.2331003181151276,0.6231066162319845,0.519835087257885,0.5358860965514348,0.4254809021949768,-0.8976557850837708,-0.1148047745227814,30.08452224731445,-32.9241943359375,11.61506652832031,2,192.168.1.118,10.97.20.126,1,0
2015-02-21 18:59:13.066,84,1424570342.518955,39.63855101420258,-106.3705747117341,2515.276,-1,-1,32.09537027312117,135.3608572515517,-9999,1424570353.052005,35.11863327026367,-29.27937316894531,11.34426116943359,256.9488220214844,247.82275390625,10,22220.66130716667,0.5114898681640625,-0.8556060791015625,-0.0204620361328125,22220.62737141667,0.1315734736553648,-0.2464137735495437,-0.201961353898377,22220.62737141667,0.6007810048480706,1.332673086873595,1.110206249904209,0.1239716336131096,-0.2376987785100937,-0.17032690346241,0.1998401284217834,0.1369860619306564,0.252456396818161,XTrueNorthZVertical,0.2403104741925765,0.6243632316972823,0.5088493481333792,0.541750691481879,0.4319347739219666,-0.8957903981208801,-0.1048428639769554,31.04168701171875,-31.91223907470703,11.91696166992188,2,192.168.1.118,10.97.20.126,1,0
2015-02-21 18:59:13.141,85,1424570342.518955,39.63855101420258,-106.3705747117341,2515.276,-1,-1,32.09537027312117,135.3608572515517,-9999,1424570353.103513,35.40858840942383,-28.95669555664062,10.92824554443359,259.8141174316406,250.6880493164062,10,22220.71031841667,0.417633056640625,-0.9556884765625,-0.0723876953125,22220.67915291667,-0.07916938762143956,-0.5250051909699697,-0.171309168699892,22220.67915291667,0.5952319151583426,1.321710657379123,1.104771908953694,-0.08677114546298981,-0.5162902474403381,-0.1396750509738922,0.06047024577856064,0.02473989874124527,0.07137176394462585,XTrueNorthZVertical,0.2428175543431714,0.62101099676294,0.5049845927100602,0.5480653047281399,0.4354709088802338,-0.8933617472648621,-0.1107699573040009,31.25069236755371,-31.76933097839355,11.75138282775879,2,192.168.1.118,10.97.20.126,1,0
2015-02-21 18:59:13.165,86,1424570342.518955,39.63855101420258,-106.3705747117341,2515.276,-1,-1,32.09537027312117,135.3608572515517,-9999,1424570353.15619,36.22728729248047,-29.22842407226562,10.66199493408203,260.5615539550781,251.4354858398438,10,22220.759548625,0.58013916015625,-0.6848907470703125,-0.061614990234375,22220.7309345,-0.4154912132559493,0.04489370544379274,-0.1642978644980404,22220.7309345,0.630145408392968,1.278669632456028,1.095305901657789,-0.4230929017066956,0.05360851436853409,-0.1326640844345093,-0.07642658799886703,0.1438748389482498,-0.003297572256997228,XTrueNorthZVertical,0.2394214217626689,0.613807991935196,0.5076906210339996,0.5551282780319615,0.4383803308010101,-0.8890683054924011,-0.1318342685699463,31.64841079711914,-31.64745330810547,10.9912691116333,2,192.168.1.118,10.97.20.126,1,0
2015-02-21 18:59:13.233,87,1424570342.518955,39.63855101420258,-106.3705747117341,2515.276,-1,-1,32.09537027312117,135.3608572515517,-9999,1424570353.208129,36.73897552490234,-28.88876342773438,10.32917022705078,260.8067016601562,251.6806335449219,10,22220.80851566667,0.5456695556640625,-0.4581146240234375,0.038238525390625,22220.78271670833,-0.0007326356158807984,-0.1125521118855828,-0.321307988673079,22220.78271670833,0.6544117645373565,1.25678144295854,1.074732047016845,-0.008334235288202763,-0.1038373932242393,-0.2896745204925537,0.1279337555170059,0.1120218485593796,0.1752761155366898,XTrueNorthZVertical,0.2298198231398129,0.6112891542661686,0.5082960750093032,0.5613764858075807,0.4526937007904053,-0.8794626593589783,-0.1470168381929398,32.20771026611328,-31.42207527160645,9.965328216552734,2,192.168.1.118,10.97.20.126,1,0
2015-02-21 18:59:13.262,88,1424570342.518955,39.63855101420258,-106.3705747117341,2515.276,-1,-1,32.09537027312117,135.3608572515517,-9999,1424570353.208129,36.73897552490234,-28.88876342773438,10.32917022705078,260.8067016601562,251.6806335449219,10,22220.85760895833,0.602142333984375,-0.7270050048828125,-0.045196533203125,22220.83449829167,0.248004745984757,-1.3077479164445,-1.216328786757023,22220.83449829167,0.6130283691188912,1.261925201054247,1.042123074621695,0.2404032200574875,-1.299033284187317,-1.184695601463318,0.2101698517799377,0.5474522709846497,0.1790061742067337,XTrueNorthZVertical,0.2288407452444691,0.6090723220798072,0.4912840114420943,0.579053434332814,0.4805192351341248,-0.8634770512580872,-0.1533256322145462,32.69169235229492,-30.9669075012207,9.81300163269043,2,192.168.1.118,10.97.20.126,1,0
2015-02-21 18:59:13.336,89,1424570342.518955,39.63855101420258,-106.3705747117341,2515.276,-1,-1,32.09537027312117,135.3608572515517,-9999,1424570353.314533,38.78571319580078,-25.62803649902344,7.699928283691406,268.7059631347656,259.5798950195312,10,22220.906753875,0.4163818359375,-0.658447265625,-0.0605621337890625,22220.88627991667,0.07618398403946074,-1.754124341494316,-1.483643847489835,22220.88627991667,0.557275090960109,1.231918153591317,0.9837277748364023,0.06858252733945847,-1.745409727096558,-1.452010989189148,-0.0700886994600296,0.1347836256027222,0.1739167720079422,XTrueNorthZVertical,0.2305404889118967,0.5956349550581289,0.4602109335504578,0.6166652413139364,0.5224202275276184,-0.8325680494308472,-0.1841401606798172,34.66219329833984,-29.17754745483398,8.437665939331055,2,192.168.1.118,10.97.20.126,1,0
2015-02-21 18:59:13.360,90,1424570342.518955,39.63855101420258,-106.3705747117341,2515.276,-1,-1,32.09537027312117,135.3608572515517,-9999,1424570353.314533,38.78571319580078,-25.62803649902344,7.699928283691406,268.7059631347656,259.5798950195312,10,22220.95583770833,0.30517578125,-0.63739013671875,-0.1673583984375,22220.938062,-0.3806538704044047,-1.197668549631056,-1.871173467196607,22220.88627991667,0.557275090960109,1.231918153591317,0.9837277748364023,0.06858252733945847,-1.745409727096558,-1.452010989189148,-0.0700886994600296,0.1347836256027222,0.1739167720079422,XTrueNorthZVertical,0.2305404889118967,0.5956349550581289,0.4602109335504578,0.6166652413139364,0.5224202275276184,-0.8325680494308472,-0.1841401606798172,34.66219329833984,-29.17754745483398,8.437665939331055,2,192.168.1.118,10.97.20.126,1,0
2015-02-21 18:59:13.434,91,1424570342.518955,39.63855101420258,-106.3705747117341,2515.276,-1,-1,32.09537027312117,135.3608572515517,-9999,1424570353.389164,41.90699768066406,-20.51618957519531,3.223579406738281,279.1849365234375,270.0588684082031,10,22221.004964375,0.5015716552734375,-0.6761322021484375,-0.295379638671875,22220.98984358333,-0.7298379651556702,-0.56665410094161,-2.203288297257119,22220.98984358333,0.4982152895198974,1.162059531466219,0.7932991103052461,-0.7373247146606445,-0.5579278469085693,-2.171450853347778,-0.1326027363538742,0.1140691712498665,0.08957123011350632,XTrueNorthZVertical,0.1881491798061417,0.5702582938639881,0.3955869903963204,0.6949218210459256,0.6437111496925354,-0.7126714587211609,-0.2788107395172119,40.08201599121094,-22.61009407043457,2.491377830505371,2,192.168.1.118,10.97.20.126,1,0
2015-02-21 18:59:13.458,92,1424570342.518955,39.63855101420258,-106.3705747117341,2515.276,-1,-1,32.09537027312117,135.3608572515517,-9999,1424570353.443006,43.59555816650391,-16.25349426269531,0.7108230590820312,285.5179748535156,276.3919067382812,10,22221.05404575,0.6892242431640625,-0.70440673828125,-0.3260498046875,22221.04162508333,-1.157994639923818,-0.2461684964131474,-2.237520836225106,22221.04162508333,0.4967000017544425,1.143576924504547,0.669322655810635,-1.165481328964233,-0.2374423146247864,-2.205683708190918,-0.03634160384535789,-0.1273172944784164,-0.009650483727455139,XTrueNorthZVertical,0.1420955259165855,0.5633264952150947,0.3675210939773298,0.7262233862275905,0.7137555480003357,-0.6204549074172974,-0.3249442279338837,42.16466522216797,-18.58501434326172,0.8540048599243164,2,192.168.1.118,10.97.20.126,1,0
2015-02-21 18:59:13.543,93,1424570342.518955,39.63855101420258,-106.3705747117341,2515.276,-1,-1,32.09537027312117,135.3608572515517,-9999,1424570353.518646,45.1988410949707,-8.713104248046875,-1.519035339355469,293.9444885253906,284.8184204101562,10,22221.10316558334,0.7446441650390625,-0.2633819580078125,-0.3607635498046875,22221.09340704167,-1.314491572956799,-0.1832028461281859,-2.460230345544072,22221.04162508333,0.4967000017544425,1.143576924504547,0.669322655810635,-1.165481328964233,-0.2374423146247864,-2.205683708190918,-0.03634160384535789,-0.1273172944784164,-0.009650483727455139,XTrueNorthZVertical,0.1420955259165855,0.5633264952150947,0.3675210939773298,0.7262233862275905,0.7137555480003357,-0.6204549074172974,-0.3249442279338837,42.16466522216797,-18.58501434326172,0.8540048599243164,2,192.168.1.118,10.97.20.126,1,0
2015-02-21 18:59:13.558,94,1424570342.518955,39.63855101420258,-106.3705747117341,2515.276,-1,-1,32.09537027312117,135.3608572515517,-9999,1424570353.518646,45.1988410949707,-8.713104248046875,-1.519035339355469,293.9444885253906,284.8184204101562,10,22221.15235470833,0.8781890869140625,-0.4072723388671875,-0.275299072265625,22221.14518883334,-0.9665999102825487,-0.02020087581657804,-2.302282788665326,22221.09340704167,0.5114789323428861,1.135002619438867,0.5428028840255036,-1.321978092193604,-0.174476757645607,-2.428393602371216,-0.05380640923976898,0.1835149526596069,0.03303997218608856,XTrueNorthZVertical,0.08771081348105628,0.5581929487659545,0.3449150025726417,0.7495072555124258,0.7762337923049927,-0.5165380239486694,-0.3614549040794373,44.66851043701172,-11.30025672912598,-1.009626388549805,2,192.168.1.118,10.97.20.126,1,0
2015-02-21 18:59:13.639,95,1424570342.518955,39.63855101420258,-106.3705747117341,2515.276,-1,-1,32.09537027312117,135.3608572515517,-9999,1424570353.621994,44.96005249023438,3.616485595703125,-2.850296020507812,304.5942077636719,295.4681396484375,10,22221.20139079167,1.009536743164062,-0.23663330078125,-0.4035797119140625,22221.19697041667,-0.9344206685150123,-0.2845334624446109,-2.543979304976012,22221.19697041667,0.4953822020267137,1.108890133303055,0.2698629911125445,-0.9419071078300476,-0.2758075594902039,-2.512142896652222,0.1456637382507324,0.044004175812006,0.0547395721077919,XTrueNorthZVertical,-0.01702027698730984,0.5338045862313825,0.2752047250445031,0.7993906261157878,0.8628048896789551,-0.2665993869304657,-0.4295259416103363,45.93414306640625,-2.824909210205078,-2.462808609008789,2,192.168.1.118,10.97.20.126,1,0
2015-02-21 18:59:13.655,96,1424570342.518955,39.63855101420258,-106.3705747117341,2515.276,-1,-1,32.09537027312117,135.3608572515517,-9999,1424570353.621994,44.96005249023438,3.616485595703125,-2.850296020507812,304.5942077636719,295.4681396484375,10,22221.25058433333,1.310134887695312,-0.17034912109375,-0.4295654296875,22221.19697041667,-0.9344206685150123,-0.2845334624446109,-2.543979304976012,22221.19697041667,0.4953822020267137,1.108890133303055,0.2698629911125445,-0.9419071078300476,-0.2758075594902039,-2.512142896652222,0.1456637382507324,0.044004175812006,0.0547395721077919,XTrueNorthZVertical,-0.01702027698730984,0.5338045862313825,0.2752047250445031,0.7993906261157878,0.8628048896789551,-0.2665993869304657,-0.4295259416103363,45.93414306640625,-2.824909210205078,-2.462808609008789,2,192.168.1.118,10.97.20.126,1,0
2015-02-21 18:59:13.738,97,1424570342.518955,39.63855101420258,-106.3705747117341,2515.276,-1,-1,32.09537027312117,135.3608572515517,-9999,1424570353.676111,44.05607604980469,9.3397216796875,-2.833656311035156,310.0937194824219,300.9676513671875,10,22221.29962616667,1.211257934570312,0.400360107421875,-0.4880828857421875,22221.30053391667,-0.2546978024363442,-0.231669981122647,-1.094583442788487,22221.24875254167,0.4805832863214394,1.10804103871539,0.1585655790160714,-0.5513874888420105,-0.2182734906673431,-1.984647035598755,0.4555569589138031,-0.005183993838727474,0.04591748118400574,XTrueNorthZVertical,-0.05939597690722637,0.5254185449999911,0.2422219636656858,0.8134715918421871,0.883600115776062,-0.15790194272995,-0.4408149421215057,45.80047988891602,4.084856986999512,-3.101805686950684,2,192.168.1.118,10.97.20.126,4,0
2015-02-21 18:59:13.754,98,1424570342.518955,39.63855101420258,-106.3705747117341,2515.276,-1,-1,32.09537027312117,135.3608572515517,-9999,1424570353.676111,44.05607604980469,9.3397216796875,-2.833656311035156,310.0937194824219,300.9676513671875,10,22221.34870879167,1.31005859375,0.2370147705078125,-0.50860595703125,22221.35231570834,0.1352949749626415,0.1631625589253397,-0.04717470291744561,22221.30053391667,0.4600223866268436,1.096024078987344,0.07885719752058729,-0.2621841132640839,-0.2229442298412323,-1.062747836112976,0.3246249556541443,0.4791356027126312,-0.03236758336424828,XTrueNorthZVertical,-0.08592776411609092,0.5145471482266279,0.2144467696047595,0.8257543669463283,0.8866329789161682,-0.07877549529075623,-0.4557152986526489,45.22640991210938,8.138498306274414,-3.511078834533691,2,192.168.1.118,10.97.20.126,4,0
2015-02-21 18:59:13.833,99,1424570342.518955,39.63855101420258,-106.3705747117341,2515.276,-1,-1,32.09537027312117,135.3608572515517,-9999,1424570353.803864,41.49765014648438,16.94805908203125,-3.765533447265625,324.8828735351562,315.7568054199219,10,22221.3978535,1.385757446289062,0.15863037109375,-0.475433349609375,22221.35231570834,0.1352949749626415,0.1631625589253397,-0.04717470291744561,22221.35231570834,0.4520779198801819,1.089149594192568,0.05350143631992538,0.1278087198734283,0.1718882173299789,-0.01533952355384827,0.4250933527946472,0.2904906868934631,-0.04602958634495735,XTrueNorthZVertical,-0.09376785638474949,0.5098229137125834,0.2051352690208439,0.830185369110635,0.8849652409553528,-0.05347591638565063,-0.4625763595104218,44.63261795043945,10.76081657409668,-4.015613555908203,2,192.168.1.118,10.97.20.126,4,0
2015-02-21 18:59:13.852,100,1424570342.518955,39.63855101420258,-106.3705747117341,2515.276,-1,-1,32.09537027312117,135.3608572515517,-9999,1424570353.803864,41.49765014648438,16.94805908203125,-3.765533447265625,324.8828735351562,315.7568054199219,10,22221.44706683333,0.8727264404296875,0.0447845458984375,-0.5284576416015625,22221.40409770834,0.6592351678126885,-0.2781498653116909,0.7703446453357754,22221.40409770834,0.4458570632491028,1.088004022385197,0.08510310920006187,0.6517490148544312,-0.2694242894649506,0.8021795153617859,0.5032607913017273,0.2436307966709137,-0.01285938266664743,XTrueNorthZVertical,-0.07882568489322743,0.5123470775903467,0.2104719729010626,0.828847737541627,0.8824966549873352,-0.0850004181265831,-0.4625739753246307,43.84367370605469,16.56573677062988,-6.372513771057129,2,192.168.1.118,10.97.20.126,4,0
2015-02-21 18:59:13.934,101,1424570342.518955,39.63855101420258,-106.3705747117341,2515.276,-1,-1,32.09537027312117,135.3608572515517,-9999,1424570353.907211,42.62335586547852,13.14389038085938,-4.331314086914062,322.2199096679688,313.0938415527344,10,22221.4960965,1.12322998046875,-0.2774200439453125,-0.5298919677734375,22221.507660875,0.4913132737032683,0.16589789168096,1.766137594855555,22221.45587941667,0.4463448275978166,1.077166634081959,0.1503802301193761,0.5345619916915894,0.08623386174440384,1.531006217002869,0.002046099398285151,0.1945986300706863,-0.05997975915670395,XTrueNorthZVertical,-0.05031517793017917,0.5130589063331845,0.2270307887360377,0.8262541996183367,0.8706803321838379,-0.1498140841722488,-0.468477874994278,44.34826278686523,14.70404624938965,-7.370388031005859,2,192.168.1.118,10.97.20.126,4,0
2015-02-21 18:59:13.951,102,1424570342.518955,39.63855101420258,-106.3705747117341,2515.276,-1,-1,32.09537027312117,135.3608572515517,-9999,1424570353.907211,42.62335586547852,13.14389038085938,-4.331314086914062,322.2199096679688,313.0938415527344,10,22221.54526916667,0.8041534423828125,-0.2571868896484375,-0.4588623046875,22221.507660875,0.4913132737032683,0.16589789168096,1.766137594855555,22221.507660875,0.4599620746347867,1.085707643407319,0.2371007788079577,0.4838272631168365,0.1746232807636261,1.797971844673157,0.2720432281494141,0.004187875892966986,-0.06101017072796822,XTrueNorthZVertical,-0.01832954109710722,0.5225354138288737,0.2533061483259862,0.8139144944999476,0.8598842620849609,-0.2348855137825012,-0.4532415270805359,45.53330993652344,10.36281204223633,-7.52529239654541,2,192.168.1.118,10.97.20.126,4,0
2015-02-21 18:59:14.034,103,1424570342.518955,39.63855101420258,-106.3705747117341,2515.276,-1,-1,32.09537027312117,135.3608572515517,-9999,1424570354.011002,45.16473007202148,4.193878173828125,-3.482620239257812,311.7890930175781,302.6630249023438,10,22221.59431525,1.029541015625,-0.4106903076171875,-0.3709564208984375,22221.55944320833,0.4119052668481576,0.3330232343083376,2.129023653415278,22221.55944320833,0.4933666613639888,1.084420951234385,0.3356338835746761,0.4044193029403687,0.3417485356330872,2.160857439041138,0.007961221039295197,-0.004860765766352415,0.02641094475984573,XTrueNorthZVertical,0.0145032229019473,0.5283162487400442,0.2898101559276511,0.7979233743179155,0.8347054123878479,-0.3293677568435669,-0.4413431882858276,46.29018020629883,6.289517402648926,-7.413607597351074,2,192.168.1.118,10.97.20.126,4,0
2015-02-21 18:59:14.050,104,1424570342.518955,39.63855101420258,-106.3705747117341,2515.276,-1,-1,32.09537027312117,135.3608572515517,-9999,1424570354.011002,45.16473007202148,4.193878173828125,-3.482620239257812,311.7890930175781,302.6630249023438,10,22221.6434455,0.9338226318359375,-0.4866180419921875,-0.29058837890625,22221.61122470833,0.5444577185202355,0.569579583399062,2.351554730941209,22221.61122470833,0.5269726773623068,1.103752387945389,0.448705683331605,0.5369718670845032,0.5783048272132874,2.38338828086853,0.2304590493440628,0.03015895932912827,0.02959498949348927,XTrueNorthZVertical,0.0497819476564483,0.542846733122655,0.3288395762889316,0.7711703800138467,0.8045141100883484,-0.4337997138500214,-0.4056783616542816,46.82334899902344,1.57676887512207,-6.5106201171875,2,192.168.1.118,10.97.20.126,4,0
2015-02-21 18:59:14.133,105,1424570342.518955,39.63855101420258,-106.3705747117341,2515.276,-1,-1,32.09537027312117,135.3608572515517,-9999,1424570354.114643,45.69347381591797,-7.303558349609375,-0.8367538452148438,299.0858764648438,289.9598083496094,10,22221.692545875,0.920074462890625,-0.6357574462890625,-0.258331298828125,22221.6630065,0.604939971088698,0.7446043944518326,2.596562355435191,22221.6630065,0.5619788460358357,1.118778087104131,0.5725601308710992,0.5974541306495667,0.7533295750617981,2.628395795822144,0.1333791464567184,0.04334205016493797,0.09164036810398102,XTrueNorthZVertical,0.08878899050991511,0.5554774910364635,0.369449488366532,0.7396407151994588,0.7561014294624329,-0.5417856574058533,-0.3671225309371948,46.75893402099609,-5.373834609985352,-4.692977905273438,2,192.168.1.118,10.97.20.126,4,0
2015-02-21 18:59:14.145,106,1424570342.518955,39.63855101420258,-106.3705747117341,2515.276,-1,-1,32.09537027312117,135.3608572515517,-9999,1424570354.114643,45.69347381591797,-7.303558349609375,-0.8367538452148438,299.0858764648438,289.9598083496094,10,22221.74163029167,0.647979736328125,-0.6457672119140625,-0.16064453125,22221.71478854167,0.8575748889446668,0.6251839901149354,2.811962286510217,22221.71478854167,0.5919486931688147,1.13812216056186,0.7134506696873997,0.8500891327857971,0.6339090466499329,2.843795299530029,0.2047432661056519,0.005658289417624474,0.05830813944339752,XTrueNorthZVertical,0.134113176104762,0.5687667111505254,0.4102238796591479,0.7001674747933517,0.6864310503005981,-0.6544467210769653,-0.3170361816883087,45.89912796020508,-11.06657028198242,-2.846263885498047,2,192.168.1.118,10.97.20.126,4,0
2015-02-21 18:59:14.205,107,1424570342.518955,39.63855101420258,-106.3705747117341,2515.276,-1,-1,32.09537027312117,135.3608572515517,-9999,1424570354.166445,44.44837188720703,-13.53628540039062,1.509590148925781,291.4072570800781,282.2811889648438,10,22221.79076854167,0.5344696044921875,-0.6711578369140625,-0.0611419677734375,22221.76657029167,1.260693854724435,0.3981183482009264,3.00901490188736,22221.76657029167,0.6155517749843499,1.141896419383833,0.8677925427941793,1.253208160400391,0.4068433046340942,3.040847539901733,-0.01848035119473934,0.04586263373494148,0.1790216863155365,XTrueNorthZVertical,0.1885590751360313,0.5744673677834777,0.4477961747979494,0.6587194731379096,0.5879536271095276,-0.76290363073349,-0.2688654363155365,44.14871978759766,-16.93706130981445,-1.15180492401123,2,192.168.1.118,10.97.20.126,4,0
2015-02-21 18:59:14.244,108,1424570342.518955,39.63855101420258,-106.3705747117341,2515.276,-1,-1,32.09537027312117,135.3608572515517,-9999,1424570354.217799,41.63409805297852,-19.87091064453125,3.656234741210938,283.3086547851562,274.1825866699219,10,22221.83984845833,0.22900390625,-0.3459320068359375,-0.1124420166015625,22221.81835179167,1.512726099225719,0.136050247447788,2.812125804601147,22221.81835179167,0.5994736032558079,1.174480456919269,1.032848817215534,1.505240440368652,0.1447751224040985,2.843958139419556,0.02050398290157318,0.2741521596908569,0.1163061112165451,XTrueNorthZVertical,0.2504628908605275,0.5816995075322151,0.4751334086007844,0.6108537527010532,0.472660094499588,-0.8587621450424194,-0.1977880448102951,41.4603157043457,-22.75576782226562,0.7193670272827148,2,192.168.1.118,10.97.20.126,4,0
2015-02-21 18:59:14.333,109,1424570342.518955,39.63855101420258,-106.3705747117341,2515.276,-1,-1,32.09537027312117,135.3608572515517,-9999,1424570354.321624,35.57915115356445,-29.26246643066406,7.733222961425781,271.1485900878906,262.0225219726562,10,22221.88898454167,0.1472015380859375,-0.341033935546875,-0.2872161865234375,22221.870134125,1.096952058262003,-0.05361475906547522,1.832976013997709,22221.870134125,0.5716326222954925,1.198669426385796,1.168704844114316,1.089466571807861,-0.04488997533917427,1.864807963371277,-0.2711903154850006,0.6789725422859192,-0.07778579741716385,XTrueNorthZVertical,0.3043808643428565,0.5798331062165103,0.4927357062678264,0.5730248005496347,0.3645588457584381,-0.9202445149421692,-0.1422917097806931,37.10773086547852,-29.13231658935547,3.409520149230957,2,192.168.1.118,10.97.20.126,4,0
2015-02-21 18:59:14.343,110,1424570342.518955,39.63855101420258,-106.3705747117341,2515.276,-1,-1,32.09537027312117,135.3608572515517,-9999,1424570354.321624,35.57915115356445,-29.26246643066406,7.733222961425781,271.1485900878906,262.0225219726562,10,22221.93806970834,0.17547607421875,-0.7071533203125,-0.4520721435546875,22221.921915625,-0.07374772427425624,-0.1876694999084668,0.03055684403146017,22221.870134125,0.5716326222954925,1.198669426385796,1.168704844114316,1.089466571807861,-0.04488997533917427,1.864807963371277,-0.2711903154850006,0.6789725422859192,-0.07778579741716385,XTrueNorthZVertical,0.3043808643428565,0.5798331062165103,0.4927357062678264,0.5730248005496347,0.3645588457584381,-0.9202445149421692,-0.1422917097806931,37.10773086547852,-29.13231658935547,3.409520149230957,2,192.168.1.118,10.97.20.126,4,0
2015-02-21 18:59:14.408,111,1424570342.518955,39.63855101420258,-106.3705747117341,2515.276,-1,-1,32.09537027312117,135.3608572515517,-9999,1424570354.373711,34.40227508544922,-31.45323181152344,7.716590881347656,269.520751953125,260.3946838378906,10,22221.98719875,0.2411041259765625,-0.456207275390625,-0.265106201171875,22221.973697375,-1.175629826346214,0.4914144738246913,-1.577227860827438,22221.973697375,0.5979337940143472,1.18375543234558,1.168976690749101,-1.183115243911743,0.500139057636261,-1.545396447181702,-0.1664400994777679,0.3605669438838959,-0.202479362487793,XTrueNorthZVertical,0.3005537684282428,0.5795328186361791,0.4980440077382768,0.5707550706583131,0.3621645867824554,-0.9203508496284485,-0.147618293762207,35.08422088623047,-31.42834281921387,4.319362163543701,2,192.168.1.118,10.97.20.126,4,0
2015-02-21 18:59:14.444,112,1424570342.518955,39.63855101420258,-106.3705747117341,2515.276,-1,-1,32.09537027312117,135.3608572515517,-9999,1424570354.424709,34.94807434082031,-30.23046875,6.585014343261719,269.9361267089844,260.81005859375,10,22222.03629033333,0.3188934326171875,-0.804840087890625,-0.0075225830078125,22222.02547945833,-0.8939608599700924,-0.207907393664197,-1.881783500979483,22221.973697375,0.5979337940143472,1.18375543234558,1.168976690749101,-1.183115243911743,0.500139057636261,-1.545396447181702,-0.1664400994777679,0.3605669438838959,-0.202479362487793,XTrueNorthZVertical,0.3005537684282428,0.5795328186361791,0.4980440077382768,0.5707550706583131,0.3621645867824554,-0.9203508496284485,-0.147618293762207,35.08422088623047,-31.42834281921387,4.319362163543701,2,192.168.1.118,10.97.20.126,4,0
2015-02-21 18:59:14.535,113,1424570342.518955,39.63855101420258,-106.3705747117341,2515.276,-1,-1,32.09537027312117,135.3608572515517,-9999,1424570354.52868,39.87731170654297,-23.42033386230469,2.141937255859375,279.349365234375,270.2232971191406,10,22222.08542379167,0.352752685546875,-0.51739501953125,-0.09466552734375,22222.07726108333,-1.439856685478971,-0.7591923919549596,-2.36595630716803,22222.07726108333,0.6584834883826004,1.099558509141931,0.9378972462866402,-1.447300791740417,-0.7504218816757202,-2.333945751190186,-0.1772094219923019,0.2298543453216553,0.04529185593128204,XTrueNorthZVertical,0.2139519836247173,0.5656505800037384,0.4693779048906995,0.643388212795272,0.5270171761512756,-0.8063161373138428,-0.2685279548168182,39.71443176269531,-25.67266273498535,0.9891328811645508,2,192.168.1.118,10.97.20.126,4,0
2015-02-21 18:59:14.539,114,1424570342.518955,39.63855101420258,-106.3705747117341,2515.276,-1,-1,32.09537027312117,135.3608572515517,-9999,1424570354.52868,39.87731170654297,-23.42033386230469,2.141937255859375,279.349365234375,270.2232971191406,10,22222.134510875,0.424652099609375,-0.633148193359375,-0.3755950927734375,22222.12904279167,-1.638402268963212,-1.515543723659023,-3.259020480799093,22222.07726108333,0.6584834883826004,1.099558509141931,0.9378972462866402,-1.447300791740417,-0.7504218816757202,-2.333945751190186,-0.1772094219923019,0.2298543453216553,0.04529185593128204,XTrueNorthZVertical,0.2139519836247173,0.5656505800037384,0.4693779048906995,0.643388212795272,0.5270171761512756,-0.8063161373138428,-0.2685279548168182,39.71443176269531,-25.67266273498535,0.9891328811645508,2,192.168.1.118,10.97.20.126,4,0
2015-02-21 18:59:14.603,115,1424570342.518955,39.63855101420258,-106.3705747117341,2515.276,-1,-1,32.09537027312117,135.3608572515517,-9999,1424570354.580317,42.35045623779297,-17.83293151855469,-0.5039443969726562,285.6571960449219,276.5311279296875,10,22222.18365329167,0.37939453125,-0.5897674560546875,-0.298492431640625,22222.18082508333,-1.589101564547556,0.4988484216915385,-2.842695698121949,22222.12904279167,0.6483929479989877,1.049661814707268,0.7821384055685207,-1.645846247673035,-1.506773233413696,-3.227010250091553,-0.2217592149972916,0.2102911919355392,0.03873586654663086,XTrueNorthZVertical,0.1651269512689156,0.5441861753383109,0.4359063631586086,0.6975529936944741,0.6152375936508179,-0.7047980427742004,-0.3531889915466309,42.20603179931641,-21.27436447143555,-1.831025123596191,2,192.168.1.118,10.97.20.126,4,0
2015-02-21 18:59:14.638,116,1424570342.518955,39.63855101420258,-106.3705747117341,2515.276,-1,-1,32.09537027312117,135.3608572515517,-9999,1424570354.632329,44.00490570068359,-10.75106811523438,-2.217933654785156,293.1064758300781,283.9804077148438,10,22222.23285783334,1.057876586914062,-0.5225372314453125,-0.3028564453125,22222.18082508333,-1.589101564547556,0.4988484216915385,-2.842695698121949,22222.18082508333,0.6380813411856877,1.052574401052811,0.6202130231520885,-1.596545577049255,0.50761878490448,-2.810685634613037,-0.3596349656581879,-0.1994311213493347,0.100302092730999,XTrueNorthZVertical,0.10050746427168,0.5369889454888241,0.4038292409433685,0.7338004538882308,0.7069097757339478,-0.5812085270881653,-0.4030822515487671,45.09308624267578,-13.04775428771973,-5.802560806274414,2,192.168.1.118,10.97.20.126,4,0
2015-02-21 18:59:14.704,117,1424570342.518955,39.63855101420258,-106.3705747117341,2515.276,-1,-1,32.09537027312117,135.3608572515517,-9999,1424570354.684339,44.96005249023438,-3.58428955078125,-2.351058959960938,299.7268676757812,290.6007995605469,10,22222.28189779167,1.195648193359375,-0.2120819091796875,-0.38165283203125,22222.28438841667,-1.194923363179402,-0.06290120178658153,-2.547883765450177,22222.23260679167,0.6281541581771004,1.076389162690779,0.4508524926128452,-1.277023434638977,0.6871354579925537,-2.686131000518799,0.451848566532135,-0.07244571298360825,-0.0553574301302433,XTrueNorthZVertical,0.02818396711079245,0.5344700017652751,0.3675238838255465,0.7605745959126589,0.792292058467865,-0.4357329905033112,-0.427094966173172,46.52470779418945,-6.540996551513672,-5.474206924438477,2,192.168.1.118,10.97.20.126,4,0
2015-02-21 18:59:14.736,118,1424570342.518955,39.63855101420258,-106.3705747117341,2515.276,-1,-1,32.09537027312117,135.3608572515517,-9999,1424570354.684339,44.96005249023438,-3.58428955078125,-2.351058959960938,299.7268676757812,290.6007995605469,10,22222.33098970833,1.187774658203125,-0.0848388671875,-0.4872283935546875,22222.28438841667,-1.194923363179402,-0.06290120178658153,-2.547883765450177,22222.28438841667,0.6230659015283317,1.087199659073892,0.3014820900344381,-1.202367186546326,-0.05413101240992546,-2.51587438583374,0.3502504229545593,0.08485386520624161,0.06234241649508476,XTrueNorthZVertical,-0.03440207800665396,0.5261357927710828,0.333292081011568,0.7816099111756071,0.8453977704048157,-0.2969357669353485,-0.4439952373504639,47.05726623535156,-0.3076200485229492,-4.776933670043945,2,192.168.1.118,10.97.20.126,4,0
2015-02-21 18:59:14.803,119,1424570342.518955,39.63855101420258,-106.3705747117341,2515.276,-1,-1,32.09537027312117,135.3608572515517,-9999,1424570354.787504,44.17546844482422,9.186859130859375,-1.984970092773438,311.5453491210938,302.4192810058594,10,22222.38014158333,1.219100952148438,0.37518310546875,-0.488250732421875,22222.387952125,-0.1075560216805942,0.141024499731838,-1.76601269260043,22222.33617045833,0.6171117884448042,1.086043582385018,0.1786990487542052,-0.6855053305625916,-0.1961212605237961,-2.241665363311768,0.3170740604400635,0.09291062504053116,-0.02865930460393429,XTrueNorthZVertical,-0.08350773588254418,0.5135580919603364,0.3028916928387141,0.7984617752642401,0.8707005977630615,-0.1777494847774506,-0.4585690796375275,46.2929801940918,8.627382278442383,-4.452902793884277,2,192.168.1.118,10.97.20.126,4,0
2015-02-21 18:59:14.834,120,1424570342.518955,39.63855101420258,-106.3705747117341,2515.276,-1,-1,32.09537027312117,135.3608572515517,-9999,1424570354.787504,44.17546844482422,9.186859130859375,-1.984970092773438,311.5453491210938,302.4192810058594,10,22222.42923525,1.376998901367188,0.1450653076171875,-0.542083740234375,22222.387952125,-0.1075560216805942,0.141024499731838,-1.76601269260043,22222.387952125,0.5830003033121055,1.092698227723448,0.08189756324570371,-0.1149997040629387,0.1497945189476013,-1.734004020690918,0.3342052698135376,0.4569891393184662,-0.02970146015286446,XTrueNorthZVertical,-0.1156917225819128,0.5072876789557006,0.2657200312413448,0.8115833543277369,0.8848956823348999,-0.08180604130029678,-0.4585492610931396,45.6251220703125,11.6816291809082,-4.380388259887695,2,192.168.1.118,10.97.20.126,4,0
2015-02-21 18:59:14.892,121,1424570342.518955,39.63855101420258,-106.3705747117341,2515.276,-1,-1,32.09537027312117,135.3608572515517,-9999,1424570354.840997,43.0838737487793,14.04397583007812,-2.217941284179688,317.3967590332031,308.2706909179688,10,22222.47839145833,1.29949951171875,0.2364349365234375,-0.462799072265625,22222.439734,0.001728924179679441,-0.3084704869544611,-0.26988474486863,22222.439734,0.5633402350488662,1.093744557893484,0.04274510031394677,-0.005714674480259418,-0.2997005581855774,-0.2378764003515244,0.3984696865081787,0.2014692723751068,-0.1045507565140724,XTrueNorthZVertical,-0.1269766837799132,0.5044854511778369,0.2480423580289891,0.8172186854621982,0.8875410556793213,-0.04273208603262901,-0.4587427079677582,44.64525604248047,15.08157157897949,-4.080144882202148,2,192.168.1.118,10.97.20.126,4,0
2015-02-21 18:59:14.936,122,1424570342.518955,39.63855101420258,-106.3705747117341,2515.276,-1,-1,32.09537027312117,135.3608572515517,-9999,1424570354.892732,42.60630035400391,16.45553588867188,-2.018264770507812,320.4412536621094,311.315185546875,10,22222.52749016667,1.120819091796875,0.036865234375,-0.4434356689453125,22222.491516,0.08108659729018761,-0.09964936272025791,1.066562194430891,22222.491516,0.5714477757743905,1.086128035570452,0.06804405356043686,0.07364307343959808,-0.09087952971458435,1.098570227622986,0.4208984375,0.1695845723152161,-0.01703584380447865,XTrueNorthZVertical,-0.1176250497769895,0.5037320623445845,0.2580274201385587,0.8159903476185651,0.882781982421875,-0.06799156218767166,-0.4648367166519165,44.66735076904297,14.87795066833496,-4.557934761047363,2,192.168.1.118,10.97.20.126,4,0
2015-02-21 18:59:14.991,123,1424570342.518955,39.63855101420258,-106.3705747117341,2515.276,-1,-1,32.09537027312117,135.3608572515517,-9999,1424570354.943518,43.11798858642578,15.67431640625,-2.317802429199219,319.7128295898438,310.5867614746094,10,22222.576756875,1.186752319335938,-0.065216064453125,-0.3627166748046875,22222.54329770834,0.3751603017077893,-0.136925628498097,1.588062665406316,22222.54329770834,0.5961734018397025,1.072118422958931,0.1323430845750559,0.3677168488502502,-0.1281558722257614,1.620070338249207,0.2813499569892883,0.1206045597791672,0.03035707399249077,XTrueNorthZVertical,-0.09533433975419835,0.5038551712653171,0.2842257395418392,0.8100969688584934,0.8705360293388367,-0.1319570988416672,-0.4740826487541199,45.1336555480957,13.25910377502441,-4.944639205932617,2,192.168.1.118,10.97.20.126,4,0
2015-02-21 18:59:15.035,124,1424570342.518955,39.63855101420258,-106.3705747117341,2515.276,-1,-1,32.09537027312117,135.3608572515517,-9999,1424570354.994388,44.10724639892578,12.58343505859375,-2.417640686035156,315.6607360839844,306.53466796875,10,22222.62574375,0.896575927734375,-0.16546630859375,-0.388458251953125,22222.59507958333,0.7781405167947644,-0.3535863000331664,1.66130918276342,22222.59507958333,0.6106099125082181,1.052329995101901,0.2199760090825901,0.7706971168518066,-0.3448166251182556,1.693316578865051,0.2731235325336456,0.1673639267683029,0.0978345200419426,XTrueNorthZVertical,-0.0595175512184913,0.5046325869349924,0.3109338697048206,0.8031959797519114,0.8476497530937195,-0.2182062119245529,-0.4836072325706482,45.91408538818359,9.929702758789062,-5.531561851501465,2,192.168.1.118,10.97.20.126,4,0
2015-02-21 18:59:15.089,125,1424570342.518955,39.63855101420258,-106.3705747117341,2515.276,-1,-1,32.09537027312117,135.3608572515517,-9999,1424570355.046667,44.99416732788086,8.4056396484375,-2.617324829101562,311.0788879394531,301.9528198242188,10,22222.67501070834,1.011947631835938,-0.425994873046875,-0.433868408203125,22222.64686175,0.8161922950820345,0.0811097667916713,1.974417298440145,22222.64686175,0.6252270680632692,1.046216010628779,0.3206037995558807,0.8087489604949951,0.08987934142351151,2.006424427032471,0.09510321915149689,0.06988513469696045,-0.00300335674546659,XTrueNorthZVertical,-0.02010340325085202,0.5117922153909773,0.3388783413555225,0.7891933166988016,0.8214312195777893,-0.3151396512985229,-0.4753291606903076,46.59359741210938,4.805895805358887,-6.57574462890625,2,192.168.1.118,10.97.20.126,4,0
2015-02-21 18:59:15.135,126,1424570342.518955,39.63855101420258,-106.3705747117341,2515.276,-1,-1,32.09537027312117,135.3608572515517,-9999,1424570355.098244,45.6934700012207,3.463653564453125,-2.833656311035156,306.4654235839844,297.33935546875,10,22222.72398429167,0.9539031982421875,-0.4911346435546875,-0.4140167236328125,22222.69864325,0.865213633899341,0.1270482303311021,2.266739974441019,22222.69864325,0.6427183104231581,1.048609083438388,0.4356199716262125,0.8577703833580017,0.1358177065849304,2.298746585845947,0.2644772827625275,-0.05315561965107918,0.06080766394734383,XTrueNorthZVertical,0.02310304458471724,0.5228464851616526,0.3696079083170653,0.7677811122406579,0.7857851982116699,-0.4219725430011749,-0.4521956145763397,46.85907745361328,0.2869644165039062,-6.437759399414062,2,192.168.1.118,10.97.20.126,4,0
2015-02-21 18:59:15.187,127,1424570342.518955,39.63855101420258,-106.3705747117341,2515.276,-1,-1,32.09537027312117,135.3608572515517,-9999,1424570355.150305,45.36940383911133,-1.98785400390625,-2.883583068847656,301.453125,292.3270568847656,10,22222.77322491667,0.8775634765625,-0.7324981689453125,-0.325653076171875,22222.75042495834,0.9999562692519002,0.2187147676838475,2.61035246987573,22222.75042495834,0.6683927035150945,1.041717998856366,0.5664951467829956,0.992513120174408,0.2274841666221619,2.642359018325806,0.1799831241369247,-0.0562938004732132,0.04465051367878914,XTrueNorthZVertical,0.07228079979441349,0.5308764509130497,0.4045559218863548,0.7411344181946492,0.7284183502197266,-0.5366780161857605,-0.4258913695812225,46.45750427246094,-6.648014068603516,-5.899545669555664,2,192.168.1.118,10.97.20.126,4,0
2015-02-21 18:59:15.234,128,1424570342.518955,39.63855101420258,-106.3705747117341,2515.276,-1,-1,32.09537027312117,135.3608572515517,-9999,1424570355.201457,44.67009735107422,-8.15264892578125,-2.168022155761719,295.2845153808594,286.158447265625,10,22222.82220595833,0.7300567626953125,-0.763214111328125,-0.220367431640625,22222.80220725,1.244450702603824,0.2441849740332563,3.020269420654035,22222.75042495834,0.6683927035150945,1.041717998856366,0.5664951467829956,0.992513120174408,0.2274841666221619,2.642359018325806,0.1799831241369247,-0.0562938004732132,0.04465051367878914,XTrueNorthZVertical,0.07228079979441349,0.5308764509130497,0.4045559218863548,0.7411344181946492,0.7284183502197266,-0.5366780161857605,-0.4258913695812225,46.45750427246094,-6.648014068603516,-5.899545669555664,2,192.168.1.118,10.97.20.126,4,0
2015-02-21 18:59:15.286,129,1424570342.518955,39.63855101420258,-106.3705747117341,2515.276,-1,-1,32.09537027312117,135.3608572515517,-9999,1424570355.254546,43.44205474853516,-14.70803833007812,-1.169586181640625,288.5181884765625,279.3921203613281,10,22222.871422625,0.3163909912109375,-0.6782073974609375,-0.0806427001953125,22222.853989125,1.561465675599695,-0.1813641997115952,3.014541760097601,22222.853989125,0.7279647908951022,1.020701869763657,0.8846610422212982,1.554022669792175,-0.1725949794054031,3.046547412872314,-0.08494803309440613,0.0706057995557785,0.1744774430990219,XTrueNorthZVertical,0.191870027424251,0.5455141232461196,0.4761335389924088,0.6624931145912342,0.5400871634483337,-0.7737002968788147,-0.3312004804611206,43.23101043701172,-18.86562728881836,-3.531021118164062,2,192.168.1.118,10.97.20.126,4,0
2015-02-21 18:59:15.334,130,1424570342.518955,39.63855101420258,-106.3705747117341,2515.276,-1,-1,32.09537027312117,135.3608572515517,-9999,1424570355.307418,41.13946533203125,-21.14459228515625,0.8439407348632812,281.2937316894531,272.1676635742188,10,22222.92044116667,0.1660308837890625,-0.428802490234375,-0.11669921875,22222.90577058333,1.925718734746956,0.2941775677001148,2.935829637235328,22222.90577058333,0.7304413935473716,1.020657870280122,1.061131992770911,1.918275713920593,0.3029466867446899,2.967835187911987,-0.1830184012651443,0.2978198230266571,0.1136805564165115,XTrueNorthZVertical,0.2619507227776249,0.5512237037286137,0.4996740815746057,0.6147032612615287,0.4158980548381805,-0.8729082942008972,-0.2550684809684753,39.07476806640625,-26.61433792114258,-1.462759017944336,2,192.168.1.118,10.97.20.126,4,0
2015-02-21 18:59:15.384,131,1424570342.518955,39.63855101420258,-106.3705747117341,2515.276,-1,-1,32.09537027312117,135.3608572515517,-9999,1424570355.358148,37.66000366210938,-27.46220397949219,2.907402038574219,274.6166076660156,265.4905395507812,10,22222.969643375,0.0048980712890625,-0.2714080810546875,-0.282745361328125,22222.957553,1.532216976295682,0.2964780062497253,2.146284133072299,22222.957553,0.7193684025403143,1.046228613180642,1.218331599105293,1.524774074554443,0.3052470684051514,2.178289175033569,-0.2347997575998306,0.661440372467041,0.06487870216369629,XTrueNorthZVertical,0.3197332655976078,0.5579630830537387,0.5176220100256345,0.5643716253280938,0.2987951040267944,-0.9385247230529785,-0.1728956699371338,35.29358673095703,-31.45919609069824,1.407901763916016,2,192.168.1.118,10.97.20.126,4,0
2015-02-21 18:59:15.437,132,1424570342.518955,39.63855101420258,-106.3705747117341,2515.276,-1,-1,32.09537027312117,135.3608572515517,-9999,1424570355.410185,34.04409408569336,-31.70791625976562,5.902740478515625,268.3171691894531,259.1911010742188,10,22223.01867691667,0.3226165771484375,-0.660980224609375,-0.54290771484375,22223.00933458333,0.01561677663222465,0.2505243626920809,-0.06629007427370735,22222.957553,0.7193684025403143,1.046228613180642,1.218331599105293,1.524774074554443,0.3052470684051514,2.178289175033569,-0.2347997575998306,0.661440372467041,0.06487870216369629,XTrueNorthZVertical,0.3197332655976078,0.5579630830537387,0.5176220100256345,0.5643716253280938,0.2987951040267944,-0.9385247230529785,-0.1728956699371338,35.29358673095703,-31.45919609069824,1.407901763916016,2,192.168.1.118,10.97.20.126,4,0
2015-02-21 18:59:15.482,133,1424570342.518955,39.63855101420258,-106.3705747117341,2515.276,-1,-1,32.09537027312117,135.3608572515517,-9999,1424570355.462247,32.37258911132812,-33.44017028808594,7.134147644042969,265.6654663085938,256.5393981933594,10,22223.0679305,0.097808837890625,-0.600128173828125,-0.32708740234375,22223.06111625,-1.416013404239491,0.04708761754980002,-1.470169317638471,22223.06111625,0.7278942173402729,1.061902958682793,1.219451372446076,-1.423347949981689,0.05586658790707588,-1.437969207763672,-0.14495649933815,0.3372871577739716,-0.2044522762298584,XTrueNorthZVertical,0.3136943258390736,0.5636987949810759,0.5226131670099723,0.5574182057127811,0.3005503714084625,-0.9389106631278992,-0.1676790714263916,32.89778137207031,-33.75486755371094,3.955403804779053,2,192.168.1.118,10.97.20.126,4,0
2015-02-21 18:59:15.536,134,1424570342.518955,39.63855101420258,-106.3705747117341,2515.276,-1,-1,32.09537027312117,135.3608572515517,-9999,1424570355.513351,32.57726287841797,-32.59100341796875,5.869453430175781,266.0580749511719,256.9320068359375,10,22223.11691441667,0.3076324462890625,-0.65521240234375,-0.0616912841796875,22223.06111625,-1.416013404239491,0.04708761754980002,-1.470169317638471,22223.06111625,0.7278942173402729,1.061902958682793,1.219451372446076,-1.423347949981689,0.05586658790707588,-1.437969207763672,-0.14495649933815,0.3372871577739716,-0.2044522762298584,XTrueNorthZVertical,0.3136943258390736,0.5636987949810759,0.5226131670099723,0.5574182057127811,0.3005503714084625,-0.9389106631278992,-0.1676790714263916,32.89778137207031,-33.75486755371094,3.955403804779053,2,192.168.1.118,10.97.20.126,4,0
2015-02-21 18:59:15.580,135,1424570342.518955,39.63855101420258,-106.3705747117341,2515.276,-1,-1,32.09537027312117,135.3608572515517,-9999,1424570355.566427,35.32331085205078,-30.02659606933594,3.45654296875,269.6357727050781,260.5097045898438,10,22223.16605791667,0.477691650390625,-0.367095947265625,-0.0796966552734375,22223.164680375,-1.357714677448785,0.2778398733608057,-2.238159195938398,22223.11289854167,0.7880474924441112,0.9874065321661986,1.116628217701063,-1.325304627418518,-0.1339257955551147,-1.677996277809143,-0.0349900908768177,0.266576737165451,0.1665651202201843,XTrueNorthZVertical,0.276445279199782,0.5502213837850818,0.5185367120354404,0.5932572415270266,0.3661516010761261,-0.8986263275146484,-0.2416688799858093,35.06133270263672,-31.7135009765625,1.502364158630371,2,192.168.1.118,10.97.20.126,4,0
2015-02-21 18:59:15.634,136,1424570342.518955,39.63855101420258,-106.3705747117341,2515.276,-1,-1,32.09537027312117,135.3608572515517,-9999,1424570355.616887,38.35931396484375,-26.22244262695312,1.126838684082031,274.4458618164062,265.3197937011719,10,22223.21514495834,0.6469573974609375,-0.824462890625,-0.59124755859375,22223.21646195833,-2.053309184675998,-2.490809826444798,-2.653854141017738,22223.164680375,0.788447942900232,0.9916632597868023,0.9931534750718514,-1.365049123764038,0.2866186797618866,-2.205959796905518,-0.04035386443138123,0.2647693157196045,0.2603243887424469,XTrueNorthZVertical,0.226236594314838,0.5471659630189715,0.5063087744620098,0.6269592308341272,0.4570103585720062,-0.837752103805542,-0.2988528311252594,37.53074645996094,-28.78365325927734,-0.494654655456543,2,192.168.1.118,10.97.20.126,4,0
2015-02-21 18:59:15.679,137,1424570342.518955,39.63855101420258,-106.3705747117341,2515.276,-1,-1,32.09537027312117,135.3608572515517,-9999,1424570355.669128,41.17358016967773,-21.38232421875,-1.585601806640625,280.0049133300781,270.8788452148438,10,22223.26432425,-0.020721435546875,-0.5951385498046875,-0.08721923828125,22223.21646195833,-2.053309184675998,-2.490809826444798,-2.653854141017738,22223.21646195833,0.7716399810281026,0.9614875163192094,0.8380724379654158,-2.060643434524536,-2.482031106948853,-2.621654987335205,0.09843260049819946,-0.0811077281832695,-0.2084372937679291,XTrueNorthZVertical,0.1752732609704035,0.5271376974723539,0.4791213796587424,0.6795939047440369,0.548524796962738,-0.7433551549911499,-0.3828102648258209,41.30919647216797,-22.84761810302734,-2.972671508789062,2,192.168.1.118,10.97.20.126,4,0
2015-02-21 18:59:15.736,138,1424570342.518955,39.63855101420258,-106.3705747117341,2515.276,-1,-1,32.09537027312117,135.3608572515517,-9999,1424570355.720439,43.20326614379883,-15.25149536132812,-4.031806945800781,286.4376220703125,277.3115539550781,10,22223.31336754167,0.5664520263671875,-0.4931488037109375,-0.3830108642578125,22223.26824433334,-2.138670688147981,-1.216919475886802,-2.937841389122774,22223.26824433334,0.7511005369255446,0.9454806461109274,0.6863830393748401,-2.146004915237427,-1.208140850067139,-2.905642747879028,-0.6478936076164246,0.03860490769147873,0.3655768632888794,XTrueNorthZVertical,0.1214410400133558,0.5087769894303248,0.4500509655556313,0.7237763585170019,0.6271721720695496,-0.6337434649467468,-0.4527961015701294,43.3996467590332,-17.56907844543457,-6.715541839599609,2,192.168.1.118,10.97.20.126,4,0
2015-02-21 18:59:15.777,139,1424570342.518955,39.63855101420258,-106.3705747117341,2515.276,-1,-1,32.09537027312117,135.3608572515517,-9999,1424570355.772235,44.38014221191406,-7.897918701171875,-4.813919067382812,293.2572326660156,284.1311645507812,10,22223.36250066667,1.216567993164062,-0.3479461669921875,-0.582672119140625,22223.37180770834,-1.273164639160949,0.6887656295600322,-2.449290878734354,22223.32002591667,0.7276459896867736,0.9804621729142946,0.527128304413663,-1.089402198791504,0.9426761269569397,-2.779577732086182,-0.1515321284532547,0.009904737584292889,0.0980670303106308,XTrueNorthZVertical,0.05303648334522766,0.5066045653332121,0.4177310285068653,0.7523561480838137,0.717984139919281,-0.5030535459518433,-0.4810778796672821,45.0592041015625,-11.18573188781738,-9.046975135803223,2,192.168.1.118,10.97.20.126,4,0
2015-02-21 18:59:15.819,140,1424570342.518955,39.63855101420258,-106.3705747117341,2515.276,-1,-1,32.09537027312117,135.3608572515517,-9999,1424570355.772235,44.38014221191406,-7.897918701171875,-4.813919067382812,293.2572326660156,284.1311645507812,10,22223.41158083333,1.110153198242188,-0.190277099609375,-0.5055389404296875,22223.37180770834,-1.273164639160949,0.6887656295600322,-2.449290878734354,22223.37180770834,0.7124350987572383,0.9890565321788448,0.361901635686716,-1.280498743057251,0.6975440979003906,-2.417092561721802,0.4351798593997955,0.006107163149863482,-0.06878606230020523,XTrueNorthZVertical,-0.01435183427494777,0.4927991434496106,0.381991781407151,0.7816811037275138,0.7813881039619446,-0.3540533185005188,-0.513886034488678,46.51859664916992,-2.441593170166016,-8.207258224487305,2,192.168.1.118,10.97.20.126,4,0
2015-02-21 18:59:15.876,141,1424570342.518955,39.63855101420258,-106.3705747117341,2515.276,-1,-1,32.09537027312117,135.3608572515517,-9999,1424570355.827174,44.53364944458008,-0.68017578125,-4.59759521484375,299.6898803710938,290.5638122558594,10,22223.46072541667,1.126678466796875,0.1344146728515625,-0.44952392578125,22223.423589875,-0.7955298934485457,-0.1131401378542723,-2.654974532888335,22223.423589875,0.6863417699510156,1.012022518059778,0.2303693907627807,-0.8028639554977417,-0.104361779987812,-2.622776746749878,0.3724463284015656,0.13054358959198,-0.02874980494379997,XTrueNorthZVertical,-0.06733987437015443,0.4872315309795973,0.34481683132712,0.799482438388494,0.8255059719085693,-0.2283371686935425,-0.5161415338516235,46.66194915771484,3.12432861328125,-7.085274696350098,2,192.168.1.118,10.97.20.126,4,0
2015-02-21 18:59:15.936,142,1424570342.518955,39.63855101420258,-106.3705747117341,2515.276,-1,-1,32.09537027312117,135.3608572515517,-9999,1424570355.901359,43.646728515625,8.796234130859375,-4.364608764648438,309.6446228027344,300.5185546875,10,22223.50981358334,1.294509887695312,0.3597564697265625,-0.5168914794921875,22223.47537154167,-0.5145480226336646,0.2068690271551751,-1.879480132952673,22223.47537154167,0.6595987218136093,1.026949004727222,0.1223418742920532,-0.5218819975852966,0.2156472951173782,-1.847282648086548,0.3813541233539581,0.3270234763622284,-0.01728871464729309,XTrueNorthZVertical,-0.1084017559452118,0.4811099469026457,0.3099729821443767,0.8128339735510861,0.8493282794952393,-0.122036911547184,-0.5135645270347595,46.04733276367188,8.509578704833984,-6.67310619354248,2,192.168.1.118,10.97.20.126,4,0
