loggingTime,loggingSample,locationTimestamp_since1970,locationLatitude,locationLongitude,locationAltitude,locationSpeed,locationCourse,locationVerticalAccuracy,locationHorizontalAccuracy,locationFloor,locationHeadingTimestamp_since1970,locationHeadingX,locationHeadingY,locationHeadingZ,locationTrueHeading,locationMagneticHeading,locationHeadingAccuracy,accelerometerTimestamp_sinceReboot,accelerometerAccelerationX,accelerometerAccelerationY,accelerometerAccelerationZ,gyroTimestamp_sinceReboot,gyroRotationX,gyroRotationY,gyroRotationZ,motionTimestamp_sinceReboot,motionYaw,motionRoll,motionPitch,motionRotationRateX,motionRotationRateY,motionRotationRateZ,motionUserAccelerationX,motionUserAccelerationY,motionUserAccelerationZ,motionAttitudeReferenceFrame,motionQuaternionX,motionQuaternionY,motionQuaternionZ,motionQuaternionW,motionGravityX,motionGravityY,motionGravityZ,motionMagneticFieldX,motionMagneticFieldY,motionMagneticFieldZ,motionMagneticFieldCalibrationAccuracy,IP_en0,IP_pdp_ip0,deviceOrientation,state
2015-03-04 08:05:28.800,1,1425485105.95903,37.77932961198018,-122.4388616372626,56.94937,-1,-1,10,65,-9999,1425485128.756892,27.28378677368164,-32.09873962402344,-19.98580932617188,265.3711242675781,251.5946960449219,10,236478.857439875,0.2133941650390625,-0.7112884521484375,-0.738128662109375,236478.8135719583,-0.1512491741049792,0.6386800915711299,0.07955794282448213,236478.8135719583,0.2118762341395227,0.2216735297669944,0.7811168034745155,-0.1640834510326385,0.6497563719749451,0.114496260881424,-0.07857004553079605,-0.006147405598312616,0.01408637501299381,XTrueNorthZVertical,0.365432366057001,0.1417159758257956,0.1390511621402927,0.9094177892190275,0.156130462884903,-0.7040729522705078,-0.6927515268325806,25.36326217651367,-33.43766784667969,-19.5506591796875,2,192.168.1.8,10.83.46.32,1,0
2015-03-04 08:05:28.815,2,1425485105.95903,37.77932961198018,-122.4388616372626,56.94937,-1,-1,10,65,-9999,1425485128.808791,27.62482452392578,-31.99679565429688,-19.58641052246094,264.9758605957031,251.1994171142578,10,236478.9064712083,0.2344207763671875,-0.680938720703125,-0.7444610595703125,236478.8653475833,-0.1246974580368892,0.5116957771061897,0.04846606973002503,236478.8653475833,0.2178740394955065,0.2498826483573352,0.7754593969367555,-0.1375328302383423,0.5227721333503723,0.08340316265821457,0.03680429607629776,-0.01124424766749144,-0.0462079755961895,XTrueNorthZVertical,0.3603738212474401,0.1554682136795849,0.146703314687862,0.9079860428229372,0.1765898615121841,-0.7000442147254944,-0.6919206976890564,25.94305992126465,-33.37871170043945,-18.87910270690918,2,192.168.1.8,10.83.46.32,1,0
2015-03-04 08:05:28.884,3,1425485105.95903,37.77932961198018,-122.4388616372626,56.94937,-1,-1,10,65,-9999,1425485128.865269,27.69302940368652,-32.20069885253906,-18.9873046875,263.5022277832031,249.7257995605469,10,236478.9555218334,0.145416259765625,-0.6843414306640625,-0.688934326171875,236478.96890125,-0.02708008722836172,0.02144137625233695,0.1169348760915262,236478.9171245834,0.2277198005565398,0.2546593027023672,0.7737866445219981,-0.01505045033991337,-0.01520147267729044,0.1677101999521255,0.02353244461119175,0.0003318680974189192,-0.02093321084976196,XTrueNorthZVertical,0.3584742960076124,0.1593593470466255,0.1519677408472645,0.9071971981655167,0.1801876425743103,-0.6988487243652344,-0.692201554775238,26.16070938110352,-33.38872146606445,-18.55832862854004,2,192.168.1.8,10.83.46.32,1,0
2015-03-04 08:05:28.914,4,1425485105.95903,37.77932961198018,-122.4388616372626,56.94937,-1,-1,10,65,-9999,1425485128.865269,27.69302940368652,-32.20069885253906,-18.9873046875,263.5022277832031,249.7257995605469,10,236479.0045635,0.1376190185546875,-0.672119140625,-0.643951416015625,236478.96890125,-0.02708008722836172,0.02144137625233695,0.1169348760915262,236478.96890125,0.2421985000180857,0.2433249605236357,0.773515198973545,-0.03991519287228584,0.03251746669411659,0.1518712341785431,-0.02149738557636738,0.030624745413661,0.01663380861282349,XTrueNorthZVertical,0.3580793333299686,0.1568039207727146,0.1564947358507854,0.9070288265155233,0.1723762899637222,-0.6986545324325562,-0.694383442401886,25.8828010559082,-33.56956481933594,-18.62165260314941,2,192.168.1.8,10.83.46.32,1,0
2015-03-04 08:05:28.972,5,1425485105.95903,37.77932961198018,-122.4388616372626,56.94937,-1,-1,10,65,-9999,1425485128.937856,27.18147277832031,-32.77845764160156,-19.48655700683594,262.8044128417969,249.0279846191406,10,236479.053616875,0.1051025390625,-0.6522674560546875,-0.6062469482421875,236479.0206769583,-0.005992112452678286,0.1852023474746174,0.09441518591381617,236479.0206769583,0.252786703824718,0.2414702986233171,0.7746648958021659,-0.01882710121572018,0.1962783336639404,0.1293512284755707,-0.01984920352697372,0.0137924263253808,0.04261539876461029,XTrueNorthZVertical,0.357921132673791,0.157897708842032,0.1609995197894726,0.9061126331546046,0.1708959639072418,-0.6994766592979431,-0.6939215660095215,25.59538650512695,-33.79083251953125,-18.61872291564941,2,192.168.1.8,10.83.46.32,1,0
2015-03-04 08:05:29.011,6,1425485105.95903,37.77932961198018,-122.4388616372626,56.94937,-1,-1,10,65,-9999,1425485128.990718,27.07916259765625,-32.94837951660156,-19.38671112060547,262.3594665527344,248.5830383300781,10,236479.1027491667,0.2332305908203125,-0.6797332763671875,-0.7423248291015625,236479.072454,0.2349267608197049,0.9705025065439508,0.2698714290631796,236479.072454,0.2714977030851093,0.2532000968647012,0.7838822036183856,0.2220950573682785,0.981575608253479,0.304811418056488,-0.09410319477319717,0.08486398309469223,0.1100825145840645,XTrueNorthZVertical,0.3596483386545154,0.1668949998020157,0.1718552865382347,0.9018121007393157,0.1774009168148041,-0.7060340046882629,-0.6855982542037964,25.47341346740723,-34.07037353515625,-18.27336883544922,2,192.168.1.8,10.83.46.32,1,0
2015-03-04 08:05:29.072,7,1425485105.95903,37.77932961198018,-122.4388616372626,56.94937,-1,-1,10,65,-9999,1425485129.041295,27.53956031799316,-33.47515869140625,-18.47142028808594,261.3185424804688,247.5421142578125,10,236479.1516911667,0.26055908203125,-0.6722869873046875,-0.653839111328125,236479.124230625,0.08063678938207322,0.6871893045108143,0.1831133639155592,236479.124230625,0.2805404164440027,0.2905028783988869,0.7862993234553788,0.06780435889959335,0.6982626914978027,0.2180521339178085,0.04100553318858147,0.002986019942909479,-0.0167352557182312,XTrueNorthZVertical,0.3566498653627437,0.1853826959393977,0.1826898169123763,0.8972506524858951,0.2023568898439407,-0.7077437043190002,-0.6768682599067688,25.83455467224121,-34.42145156860352,-17.06869888305664,2,192.168.1.8,10.83.46.32,1,0
2015-03-04 08:05:29.109,8,1425485105.95903,37.77932961198018,-122.4388616372626,56.94937,-1,-1,10,65,-9999,1425485129.093834,27.91470146179199,-34.05291748046875,-17.37306976318359,259.6280212402344,245.8515777587891,10,236479.2008192083,0.219635009765625,-0.7271270751953125,-0.72320556640625,236479.1760065417,0.08928540502210555,0.07244011217902734,0.1240013077279425,236479.1760065417,0.2949433276147367,0.298425298615605,0.8033879693619443,0.07649120688438416,0.08337992429733276,0.1590001285076141,0.05579138174653053,-0.04200635850429535,-0.05179177224636078,XTrueNorthZVertical,0.3623320711915295,0.1921521582361573,0.1912304426844102,0.8917533902760518,0.2041268348693848,-0.7197123765945435,-0.6635860204696655,25.90093994140625,-34.98471069335938,-15.77378559112549,2,192.168.1.8,10.83.46.32,1,0
2015-03-04 08:05:29.167,9,1425485105.95903,37.77932961198018,-122.4388616372626,56.94937,-1,-1,10,65,-9999,1425485129.145119,28.13637733459473,-34.00196838378906,-16.89046478271484,259.8192443847656,246.0428009033203,10,236479.249771875,0.06695556640625,-0.621337890625,-0.5771942138671875,236479.2277832083,0.1330901438961649,-0.0392259660118861,0.3456958863554797,236479.2277832083,0.3140789582433544,0.2835586657549921,0.8060612984693205,0.1202960535883904,-0.02828625030815601,0.3806943893432617,-0.02402262762188911,-0.02017915993928909,-0.005559868644922972,XTrueNorthZVertical,0.363166058481153,0.1891072822044291,0.1971592704646592,0.8907733970327281,0.1937003582715988,-0.721565842628479,-0.6646977066993713,25.61874580383301,-35.21944427490234,-15.71215724945068,2,192.168.1.8,10.83.46.32,1,0
2015-03-04 08:05:29.207,10,1425485105.95903,37.77932961198018,-122.4388616372626,56.94937,-1,-1,10,65,-9999,1425485129.197289,27.82944488525391,-34.40980529785156,-15.82540130615234,258.2171020507812,244.4406585693359,10,236479.2989037917,0.034454345703125,-0.731353759765625,-0.486846923828125,236479.2795600417,-0.09934762656875193,1.577710691933069,-0.02007970198697944,236479.2795600417,0.3208648771356567,0.3141517461455028,0.8114354672388511,-0.1121415719389915,1.588650226593018,0.01491842046380043,-0.1449150145053864,-0.01288299914449453,0.1559543609619141,XTrueNorthZVertical,0.3618530153477746,0.2041575500316734,0.2059168605593591,0.8859912581922182,0.2127403318881989,-0.7252761721611023,-0.6547641754150391,25.23076820373535,-35.64043426513672,-15.38729572296143,2,192.168.1.8,10.83.46.32,1,0
2015-03-04 08:05:29.282,11,1425485105.95903,37.77932961198018,-122.4388616372626,56.94937,-1,-1,10,65,-9999,1425485129.249469,28.08522415161133,-34.90261840820312,-13.64533996582031,254.7094116210938,240.9329681396484,10,236479.3478552084,0.225311279296875,-0.6156463623046875,-0.3050994873046875,236479.331335875,0.379215230783544,4.082601183693335,0.3329401436823271,236479.331335875,0.3404117180152634,0.4478416037593683,0.8182582212382331,0.3664214313030243,4.093540668487549,0.3679378926753998,-0.1650314778089523,0.1435306668281555,0.2508558630943298,XTrueNorthZVertical,0.3477655029063946,0.2664845984438995,0.2385846628137959,0.8666733210716412,0.295967161655426,-0.7299564480781555,-0.6160902380943298,26.55709075927734,-35.83225631713867,-12.42463874816895,2,192.168.1.8,10.83.46.32,1,0
2015-03-04 08:05:29.305,12,1425485105.95903,37.77932961198018,-122.4388616372626,56.94937,-1,-1,10,65,-9999,1425485129.300838,29.67104339599609,-35.29347229003906,-8.636207580566406,250.1040649414062,236.3276214599609,10,236479.3968849167,0.6969146728515625,-0.7694854736328125,-0.403839111328125,236479.3831128333,-0.01308783886108541,5.329384815412068,-0.06479337774108282,236479.331335875,0.3404117180152634,0.4478416037593683,0.8182582212382331,0.3664214313030243,4.093540668487549,0.3679378926753998,-0.1650314778089523,0.1435306668281555,0.2508558630943298,XTrueNorthZVertical,0.3477655029063946,0.2664845984438995,0.2385846628137959,0.8666733210716412,0.295967161655426,-0.7299564480781555,-0.6160902380943298,26.55709075927734,-35.83225631713867,-12.42463874816895,2,192.168.1.8,10.83.46.32,1,0
2015-03-04 08:05:29.367,13,1425485105.95903,37.77932961198018,-122.4388616372626,56.94937,-1,-1,10,65,-9999,1425485129.352283,29.9609260559082,-35.85426330566406,-1.5968017578125,242.0518188476562,228.2753753662109,10,236479.4459285834,0.888519287109375,-0.88128662109375,-0.5218658447265625,236479.4348895,0.1808355622352145,3.657628584324485,1.043701087001433,236479.4348895,0.3548741841185657,0.9216156157633926,0.8509317148648862,0.1680419892072678,3.668567895889282,1.07869815826416,0.3110866844654083,-0.008923486806452274,-0.07124385982751846,XTrueNorthZVertical,0.2923983024585428,0.4639221197438598,0.3246561769180698,0.7706348287791922,0.5251712799072266,-0.751895010471344,-0.3985590040683746,28.76348495483398,-36.27803802490234,0.4089488983154297,2,192.168.1.8,10.83.46.32,1,0
2015-03-04 08:05:29.403,14,1425485105.95903,37.77932961198018,-122.4388616372626,56.94937,-1,-1,10,65,-9999,1425485129.352283,29.9609260559082,-35.85426330566406,-1.5968017578125,242.0518188476562,228.2753753662109,10,236479.4949541667,0.5171051025390625,-0.8261871337890625,-0.3387603759765625,236479.4866654167,-0.06090276570458607,1.462405404112562,1.454283561736148,236479.4348895,0.3548741841185657,0.9216156157633926,0.8509317148648862,0.1680419892072678,3.668567895889282,1.07869815826416,0.3110866844654083,-0.008923486806452274,-0.07124385982751846,XTrueNorthZVertical,0.2923983024585428,0.4639221197438598,0.3246561769180698,0.7706348287791922,0.5251712799072266,-0.751895010471344,-0.3985590040683746,28.76348495483398,-36.27803802490234,0.4089488983154297,2,192.168.1.8,10.83.46.32,1,0
2015-03-04 08:05:29.466,15,1425485105.95903,37.77932961198018,-122.4388616372626,56.94937,-1,-1,10,65,-9999,1425485129.456237,26.20952224731445,-38.26730346679688,7.75579833984375,228.6819610595703,214.905517578125,10,236479.5440059583,0.42132568359375,-0.9180908203125,-0.2707366943359375,236479.538442125,0.000702541895562903,1.594711247067699,1.093655597464703,236479.4866654167,0.4135840781236199,0.9827310796524782,0.8983702960333786,-0.07369619607925415,1.473344564437866,1.489280343055725,0.07742184400558472,-0.08315042406320572,-0.04744270816445351,XTrueNorthZVertical,0.2874337474837613,0.4945787483221906,0.3635901863384323,0.7352387720467051,0.5182507634162903,-0.78231281042099,-0.3455474078655243,25.88034248352051,-37.95960998535156,5.733874320983887,2,192.168.1.8,10.83.46.32,1,0
2015-03-04 08:05:29.501,16,1425485105.95903,37.77932961198018,-122.4388616372626,56.94937,-1,-1,10,65,-9999,1425485129.456237,26.20952224731445,-38.26730346679688,7.75579833984375,228.6819610595703,214.905517578125,10,236479.5931422084,0.6215667724609375,-0.77117919921875,-0.216156005859375,236479.590219125,0.2386890084916598,1.250411922387857,1.205893456341657,236479.538442125,0.4594560494573929,1.021014990674813,0.9572394728082759,-0.01209076028317213,1.605650186538696,1.128651976585388,-0.02108322829008102,-0.04782750830054283,0.0482054315507412,XTrueNorthZVertical,0.2925131181639189,0.5138224156790673,0.3954773482905724,0.7028658768525274,0.4909318685531616,-0.8176052570343018,-0.300845205783844,22.99161911010742,-39.48591995239258,7.473228454589844,2,192.168.1.8,10.83.46.32,1,0
2015-03-04 08:05:29.565,17,1425485105.95903,37.77932961198018,-122.4388616372626,56.94937,-1,-1,10,65,-9999,1425485129.509962,23.14019393920898,-39.42286682128906,9.786079406738281,222.6175079345703,208.841064453125,10,236479.642084,0.5383758544921875,-0.8601531982421875,-0.1927490234375,236479.64199475,0.3299949538328085,0.578658299555142,1.182321817533365,236479.590219125,0.5126693357033169,1.049944882859392,1.004773520033774,0.2258958220481873,1.261350870132446,1.240889430046082,0.1976293325424194,-0.008132319897413254,0.008333190344274044,XTrueNorthZVertical,0.2916932364882718,0.5305503078919183,0.4257320575122536,0.6724461426731784,0.4651666879653931,-0.8440405130386353,-0.2668628394603729,20.35264587402344,-40.61083602905273,8.951602935791016,2,192.168.1.8,10.83.46.32,1,0
2015-03-04 08:05:29.600,18,1425485105.95903,37.77932961198018,-122.4388616372626,56.94937,-1,-1,10,65,-9999,1425485129.563516,20.51421356201172,-40.13658142089844,11.41696929931641,217.6394348144531,203.8629913330078,10,236479.6912176667,0.4246673583984375,-0.91552734375,-0.1071014404296875,236479.64199475,0.3299949538328085,0.578658299555142,1.182321817533365,236479.64199475,0.5456473980607035,1.073915515837246,1.063082643577766,0.3172018826007843,0.5895971059799194,1.217317461967468,0.1956733018159866,0.06808748096227646,0.03439837321639061,XTrueNorthZVertical,0.3006085318445441,0.5419932979068854,0.4492692970634943,0.6434555519452961,0.4273888170719147,-0.8738583326339722,-0.2317555546760559,16.7578239440918,-41.78245544433594,10.81681251525879,2,192.168.1.8,10.83.46.32,1,0
2015-03-04 08:05:29.667,19,1425485105.95903,37.77932961198018,-122.4388616372626,56.94937,-1,-1,10,65,-9999,1425485129.637901,16.40472412109375,-40.86729431152344,13.26418304443359,211.6261901855469,197.8497467041016,10,236479.740165125,0.3261260986328125,-0.867584228515625,-0.195098876953125,236479.7455484167,0.2937980672447785,0.4493975149904021,0.9422309210438876,236479.6937717083,0.5751357619739782,1.061638718784867,1.122331417306945,0.2690840363502502,0.2095330357551575,1.059418082237244,0.04608194530010223,-0.01441359147429466,0.1042451038956642,XTrueNorthZVertical,0.3185366094551038,0.5411664763402861,0.4654252623279503,0.6237409490454426,0.3785853981971741,-0.901113748550415,-0.2113465517759323,14.17592334747314,-42.4716796875,11.78139972686768,2,192.168.1.8,10.83.46.32,1,0
2015-03-04 08:05:29.697,20,1425485105.95903,37.77932961198018,-122.4388616372626,56.94937,-1,-1,10,65,-9999,1425485129.689813,14.00041580200195,-41.29209899902344,13.94649505615234,207.9862365722656,194.2097930908203,10,236479.7891923334,0.26910400390625,-0.8498992919921875,-0.1532135009765625,236479.7455484167,0.2937980672447785,0.4493975149904021,0.9422309210438876,236479.7455484167,0.6090931128881588,1.047920405154327,1.170048574073798,0.2810052633285522,0.4603361189365387,0.9772259593009949,-0.01185765489935875,0.05318531766533852,-0.000289480754872784,XTrueNorthZVertical,0.3310590974069411,0.5412902880430401,0.4800242522866509,0.6057900530034249,0.3379837572574615,-0.9207695722579956,-0.1948093920946121,12.13998317718506,-42.89984130859375,12.48304271697998,2,192.168.1.8,10.83.46.32,1,0
2015-03-04 08:05:29.766,21,1425485105.95903,37.77932961198018,-122.4388616372626,56.94937,-1,-1,10,65,-9999,1425485129.74189,11.52790069580078,-41.24111938476562,14.76193618774414,204.2791290283203,190.502685546875,10,236479.8382931667,0.4246826171875,-0.937469482421875,-0.087982177734375,236479.7973243333,0.391517170806947,0.5369236357964013,0.9484086558245444,236479.7973243333,0.6292222173566882,1.056788083539808,1.217397246616186,0.3787244856357574,0.54786217212677,0.9834033250808716,-0.03226384893059731,0.08830245584249496,0.01694870926439762,XTrueNorthZVertical,0.341592123556613,0.5461077875810806,0.4933667798399967,0.5845258754106265,0.301367849111557,-0.9382017254829407,-0.1701622158288956,9.398260116577148,-43.27322006225586,13.51675796508789,2,192.168.1.8,10.83.46.32,1,0
2015-03-04 08:05:29.795,22,1425485105.95903,37.77932961198018,-122.4388616372626,56.94937,-1,-1,10,65,-9999,1425485129.74189,11.52790069580078,-41.24111938476562,14.76193618774414,204.2791290283203,190.502685546875,10,236479.8872745833,0.3454742431640625,-0.9573974609375,-0.0871124267578125,236479.849101,0.3396816696657537,-0.05074280614593377,0.6612037764904751,236479.849101,0.640608098451214,1.054471814130631,1.261783161798968,0.3268891274929047,-0.03980441391468048,0.6961979866027832,0.1027897223830223,-0.01614636927843094,0.06133357062935829,XTrueNorthZVertical,0.3559122890936275,0.5461287219749122,0.5014133595395609,0.5689065629682085,0.2644740641117096,-0.9526341557502747,-0.150139719247818,7.401123523712158,-43.37071990966797,14.41546630859375,2,192.168.1.8,10.83.46.32,1,0
2015-03-04 08:05:29.866,23,1425485105.95903,37.77932961198018,-122.4388616372626,56.94937,-1,-1,10,65,-9999,1425485129.845171,7.179679870605469,-41.05421447753906,16.37617492675781,198.1389007568359,184.3624572753906,10,236479.9363324583,0.03607177734375,-0.955230712890625,-0.1826171875,236479.900878,0.3676272842483912,0.2384509218902067,1.063628988806278,236479.900878,0.6798368606857743,1.028301023699738,1.310442235599364,0.3548348844051361,0.2493892014026642,1.098622918128967,0.1621356159448624,0.07941228896379471,0.04261486977338791,XTrueNorthZVertical,0.3701832867257003,0.5445307817331327,0.5127070106635655,0.5509829908421473,0.2204632610082626,-0.9662988781929016,-0.1329011172056198,5.842012882232666,-43.40746307373047,15.00882720947266,2,192.168.1.8,10.83.46.32,1,0
2015-03-04 08:05:29.894,24,1425485105.95903,37.77932961198018,-122.4388616372626,56.94937,-1,-1,10,65,-9999,1425485129.845171,7.179679870605469,-41.05421447753906,16.37617492675781,198.1389007568359,184.3624572753906,10,236479.9854627083,0.145416259765625,-0.9159088134765625,-0.1443023681640625,236479.952653625,0.001175252989051968,-0.5673622354754619,0.2491765368643919,236479.952653625,0.7296110375257726,0.9706337403808973,1.342847539677344,-0.01161703839898109,-0.556424081325531,0.2841701507568359,-0.1550711691379547,-0.07082041352987289,-0.04864101111888885,XTrueNorthZVertical,0.38375172808763,0.537513117296877,0.5181774531397643,0.5434211626243536,0.1864890158176422,-0.9741320013999939,-0.1276285201311111,3.341258525848389,-43.41917037963867,15.7230167388916,2,192.168.1.8,10.83.46.32,1,0
2015-03-04 08:05:29.968,25,1425485105.95903,37.77932961198018,-122.4388616372626,56.94937,-1,-1,10,65,-9999,1425485129.948576,6.088367462158203,-41.83592224121094,16.47602844238281,197.0565490722656,183.2801055908203,10,236480.0344055417,0.2268829345703125,-0.7539825439453125,-0.2019500732421875,236480.004430625,-0.4192348188002737,-0.5641754969150732,-0.3482985936888141,236480.004430625,0.7611154759503379,0.9151294378456757,1.338022849587583,-0.4320269823074341,-0.5532374382019043,-0.3133053183555603,-0.03050099313259125,0.1108477413654327,-0.02888370677828789,XTrueNorthZVertical,0.3878867967859583,0.5284156632367394,0.5157817024307209,0.5516249887103905,0.1828447431325912,-0.9730303883552551,-0.1406414359807968,3.297119617462158,-43.47634506225586,15.57363891601562,2,192.168.1.8,10.83.46.32,1,0
2015-03-04 08:05:29.992,26,1425485105.95903,37.77932961198018,-122.4388616372626,56.94937,-1,-1,10,65,-9999,1425485129.948576,6.088367462158203,-41.83592224121094,16.47602844238281,197.0565490722656,183.2801055908203,10,236480.08353275,0.501312255859375,-0.95635986328125,-0.3689117431640625,236480.0562073333,-0.7310891182357894,-1.316829828393888,-1.729313533830811,236480.0562073333,0.7267741593373458,0.9030944281240436,1.27859481546387,-0.7438811659812927,-1.305891871452332,-1.694320678710938,0.1024138554930687,0.2327432483434677,-0.07372759282588959,XTrueNorthZVertical,0.3773068834356564,0.5181294079605893,0.5000021731680958,0.5823911333052115,0.2261994183063507,-0.9576120376586914,-0.1783628612756729,4.62748384475708,-43.6919059753418,14.60155773162842,2,192.168.1.8,10.83.46.32,1,0
2015-03-04 08:05:30.069,27,1425485105.95903,37.77932961198018,-122.4388616372626,56.94937,-1,-1,10,65,-9999,1425485130.052966,12.24407196044922,-43.17840576171875,11.99942779541016,206.5495758056641,192.7731323242188,10,236480.1324817083,0.3120574951171875,-1.5147705078125,-0.109832763671875,236480.10798325,-0.5205955288370165,-3.586337892471936,-1.623469924731138,236480.10798325,0.6390816542060064,0.8639915024735854,1.184437867101363,-0.5333874225616455,-3.575399875640869,-1.588477373123169,0.1220367252826691,-0.3568394482135773,-0.07647377252578735,XTrueNorthZVertical,0.372137953930602,0.4890389594282565,0.4585716588431292,0.6419240189604998,0.2865478694438934,-0.9262874126434326,-0.2447084784507751,10.38395309448242,-43.52687835693359,11.88217067718506,2,192.168.1.8,10.83.46.32,1,0
2015-03-04 08:05:30.091,28,1425485105.95903,37.77932961198018,-122.4388616372626,56.94937,-1,-1,10,65,-9999,1425485130.052966,12.24407196044922,-43.17840576171875,11.99942779541016,206.5495758056641,192.7731323242188,10,236480.18155125,-0.2421722412109375,-0.7382354736328125,-0.0179443359375,236480.15976,-0.2449311917706966,-2.105573721068803,2.131827429410913,236480.15976,0.7288505836302545,0.6080258523696819,1.176646650887136,-0.2576857507228851,-2.09475302696228,2.166878223419189,-0.2140474319458008,-0.1860820800065994,0.2599457204341888,XTrueNorthZVertical,0.405989121700858,0.421395222749432,0.4381135676187371,0.6823896058556072,0.2193727493286133,-0.9233234524726868,-0.3151977956295013,13.85170364379883,-43.32785034179688,8.627225875854492,2,192.168.1.8,10.83.46.32,1,0
2015-03-04 08:05:30.170,29,1425485105.95903,37.77932961198018,-122.4388616372626,56.94937,-1,-1,10,65,-9999,1425485130.15575,11.92008590698242,-44.86073303222656,8.255058288574219,212.1607818603516,198.3843383789062,10,236480.2305752083,-0.0826416015625,-1.017745971679688,-0.043914794921875,236480.2115369583,-0.202398644949368,2.50779653314176,1.479521540438502,236480.2115369583,0.975600184476852,0.4048258227543811,1.214667842102976,-0.2151530683040619,2.518617153167725,1.514572024345398,-0.3275648653507233,0.07964865863323212,0.2996241748332977,XTrueNorthZVertical,0.416455750927923,0.4078366878319793,0.4783575850880001,0.6568165934056053,0.1373182684183121,-0.9372536540031433,-0.3204676806926727,10.45329666137695,-44.52768325805664,7.184391021728516,2,192.168.1.8,10.83.46.32,1,0
2015-03-04 08:05:30.187,30,1425485105.95903,37.77932961198018,-122.4388616372626,56.94937,-1,-1,10,65,-9999,1425485130.15575,11.92008590698242,-44.86073303222656,8.255058288574219,212.1607818603516,198.3843383789062,10,236480.2796116667,0.158660888671875,-1.060791015625,-0.1077117919921875,236480.26331275,-0.1815942968297781,4.571885927594289,1.988830059943544,236480.2115369583,0.975600184476852,0.4048258227543811,1.214667842102976,-0.2151530683040619,2.518617153167725,1.514572024345398,-0.3275648653507233,0.07964865863323212,0.2996241748332977,XTrueNorthZVertical,0.416455750927923,0.4078366878319793,0.4783575850880001,0.6568165934056053,0.1373182684183121,-0.9372536540031433,-0.3204676806926727,10.45329666137695,-44.52768325805664,7.184391021728516,2,192.168.1.8,10.83.46.32,1,0
2015-03-04 08:05:30.266,31,1425485105.95903,37.77932961198018,-122.4388616372626,56.94937,-1,-1,10,65,-9999,1425485130.259252,-0.3913192749023438,-45.60845947265625,8.721015930175781,182.9903411865234,169.2138977050781,10,236480.3286744167,0.31060791015625,-1.120010375976562,-0.169464111328125,236480.315089625,-0.2176124853086637,3.841875655916091,2.041573432700346,236480.315089625,1.549012673349934,0.2757966702713238,1.261705991279826,-0.2303666770458221,3.852695941925049,2.076623439788818,0.143635168671608,-0.1177170798182487,0.1403529793024063,XTrueNorthZVertical,0.339959322043143,0.4879336979454185,0.6173448845093743,0.5150085750181737,0.08283577859401703,-0.9526106715202332,-0.2926967442035675,-1.093476295471191,-45.61724090576172,7.840497016906738,2,192.168.1.8,10.83.46.32,1,0
2015-03-04 08:05:30.287,32,1425485105.95903,37.77932961198018,-122.4388616372626,56.94937,-1,-1,10,65,-9999,1425485130.259252,-0.3913192749023438,-45.60845947265625,8.721015930175781,182.9903411865234,169.2138977050781,10,236480.3777054583,0.2811279296875,-1.08648681640625,-0.2339324951171875,236480.3668663334,-0.1668062959287861,2.401288465350111,2.388545239534082,236480.3668663334,1.916147612642557,0.08035053179897857,1.27205285872336,-0.1795603483915329,2.412108659744263,2.42359471321106,0.3253451883792877,-0.2131009250879288,0.08977237343788147,XTrueNorthZVertical,0.3149009730652351,0.5041350813562161,0.6713084847100572,0.4427530782181901,0.02362332865595818,-0.9557070732116699,-0.293370395898819,-6.636205673217773,-45.32211303710938,6.743040084838867,2,192.168.1.8,10.83.46.32,1,0
2015-03-04 08:05:30.367,33,1425485105.95903,37.77932961198018,-122.4388616372626,56.94937,-1,-1,10,65,-9999,1425485130.311419,-7.280261993408203,-45.26861572265625,8.255050659179688,170.5461120605469,156.7696685791016,10,236480.4267616667,0.0535430908203125,-0.940704345703125,-0.2464447021484375,236480.418642125,-0.05414099969687488,1.026662182347106,2.120912197367114,236480.3668663334,1.916147612642557,0.08035053179897857,1.27205285872336,-0.1795603483915329,2.412108659744263,2.42359471321106,0.3253451883792877,-0.2131009250879288,0.08977237343788147,XTrueNorthZVertical,0.3149009730652351,0.5041350813562161,0.6713084847100572,0.4427530782181901,0.02362332865595818,-0.9557070732116699,-0.293370395898819,-6.636205673217773,-45.32211303710938,6.743040084838867,2,192.168.1.8,10.83.46.32,1,0
2015-03-04 08:05:30.383,34,1425485105.95903,37.77932961198018,-122.4388616372626,56.94937,-1,-1,10,65,-9999,1425485130.363668,-13.11198806762695,-43.90914916992188,7.023567199707031,160.4419708251953,146.66552734375,10,236480.4757954167,0.07940673828125,-0.9892120361328125,-0.140716552734375,236480.4704192083,-0.04522074162565447,0.501152056034457,1.386781216534237,236480.418642125,2.313521130874656,-0.2192123694685119,1.258022510952275,-0.06689491122961044,1.037482380867004,2.155961275100708,0.1563748866319656,0.003668789518997073,0.05460836738348007,XTrueNorthZVertical,0.3162529476837183,0.4998160868666122,0.7099523702192809,0.3822770689141551,-0.06691259890794754,-0.9514837265014648,-0.3003359138965607,-13.84276390075684,-43.8935546875,5.033443450927734,2,192.168.1.8,10.83.46.32,1,0
2015-03-04 08:05:30.465,35,1425485105.95903,37.77932961198018,-122.4388616372626,56.94937,-1,-1,10,65,-9999,1425485130.414691,-17.90354537963867,-42.43072509765625,6.4078369140625,152.5816345214844,138.8051910400391,10,236480.5248587917,-0.027496337890625,-0.944000244140625,-0.197479248046875,236480.5221960417,-0.4359600030781893,0.2903958789522023,0.9720191767847509,236480.5221960417,2.705283685065806,-0.534113198479632,1.18831897655523,-0.4487136602401733,0.301215797662735,1.007067680358887,0.1730304360389709,-0.02646548673510551,0.1290996372699738,XTrueNorthZVertical,0.3303488617701471,0.4798442200729023,0.748330026149333,0.3172089200511256,-0.1899982094764709,-0.9277428984642029,-0.3212383091449738,-20.6588191986084,-41.27021789550781,3.685649871826172,2,192.168.1.8,10.83.46.32,1,0
2015-03-04 08:05:30.481,36,1425485105.95903,37.77932961198018,-122.4388616372626,56.94937,-1,-1,10,65,-9999,1425485130.46673,-21.19454193115234,-40.64642333984375,5.692245483398438,147.3967437744141,133.6203002929688,10,236480.5738914583,-0.0252838134765625,-0.8889923095703125,-0.22528076171875,236480.5221960417,-0.4359600030781893,0.2903958789522023,0.9720191767847509,236480.5221960417,2.705283685065806,-0.534113198479632,1.18831897655523,-0.4487136602401733,0.301215797662735,1.007067680358887,0.1730304360389709,-0.02646548673510551,0.1290996372699738,XTrueNorthZVertical,0.3303488617701471,0.4798442200729023,0.748330026149333,0.3172089200511256,-0.1899982094764709,-0.9277428984642029,-0.3212383091449738,-20.6588191986084,-41.27021789550781,3.685649871826172,2,192.168.1.8,10.83.46.32,1,0
2015-03-04 08:05:30.564,37,1425485105.95903,37.77932961198018,-122.4388616372626,56.94937,-1,-1,10,65,-9999,1425485130.519352,-22.79741668701172,-39.86473083496094,5.093147277832031,145.2636413574219,131.4871978759766,10,236480.622933625,-0.1129150390625,-0.790130615234375,-0.2531585693359375,236480.6257485,-0.3700542229497804,-0.7238399937485938,0.1522667679574985,236480.573971625,2.753970913828642,-0.5769936770134984,1.147636362682709,-0.5343658924102783,-0.1910313218832016,0.6025325655937195,0.1987252831459045,0.02280356548726559,0.1188826188445091,XTrueNorthZVertical,0.3346994609328018,0.4646445744271696,0.7603063265772091,0.3066205359727603,-0.224009096622467,-0.9117958545684814,-0.3441633880138397,-23.0084056854248,-40.10955810546875,2.332028388977051,2,192.168.1.8,10.83.46.32,1,0
2015-03-04 08:05:30.581,38,1425485105.95903,37.77932961198018,-122.4388616372626,56.94937,-1,-1,10,65,-9999,1425485130.569974,-23.70116424560547,-39.33792114257812,4.011444091796875,144.6466522216797,130.8702087402344,10,236480.6719604583,-0.1328277587890625,-0.848114013671875,-0.2435302734375,236480.6257485,-0.3700542229497804,-0.7238399937485938,0.1522667679574985,236480.6257485,2.761554521319666,-0.6069965939219455,1.116164850603089,-0.3828076124191284,-0.7130203247070312,0.1873144656419754,0.1375669538974762,0.1082923039793968,0.1075286269187927,XTrueNorthZVertical,0.3444026614560855,0.4483784232725105,0.765040385420463,0.3083131168280037,-0.2504819929599762,-0.89842289686203,-0.3606871962547302,-23.95481491088867,-39.58414840698242,1.692303657531738,2,192.168.1.8,10.83.46.32,1,0
2015-03-04 08:05:30.664,39,1425485105.95903,37.77932961198018,-122.4388616372626,56.94937,-1,-1,10,65,-9999,1425485130.621289,-24.16156768798828,-39.66079711914062,4.294349670410156,145.3472442626953,131.57080078125,10,236480.7210115833,-0.2152557373046875,-0.7537078857421875,-0.2110137939453125,236480.6775255417,-0.05033001617697149,-1.013667287808064,-0.08930165030475504,236480.6775255417,2.751573333911664,-0.6435588075725441,1.107405229480384,-0.06308330595493317,-1.002847671508789,-0.05425427109003067,0.1353835165500641,0.04642786458134651,0.114041768014431,XTrueNorthZVertical,0.3605679918346631,0.437269597995961,0.7594071236867109,0.3195105873574643,-0.2682112753391266,-0.89454185962677,-0.3575720489025116,-24.18413925170898,-39.43556213378906,1.888221740722656,2,192.168.1.8,10.83.46.32,1,0
2015-03-04 08:05:30.680,40,1425485105.95903,37.77932961198018,-122.4388616372626,56.94937,-1,-1,10,65,-9999,1425485130.621289,-24.16156768798828,-39.66079711914062,4.294349670410156,145.3472442626953,131.57080078125,10,236480.7700600417,-0.20751953125,-0.81390380859375,-0.1956939697265625,236480.7293012083,0.095719868531846,-0.8083727214893439,-0.2023887912533348,236480.7293012083,2.74354997644528,-0.680317608841822,1.111132320674491,0.08296670764684677,-0.7975532412528992,-0.1673417687416077,0.0638161227107048,0.142493724822998,0.1338655948638916,XTrueNorthZVertical,0.3761653599183362,0.4313466407576936,0.7503209588187417,0.3308448719094074,-0.2790718674659729,-0.8962016105651855,-0.3448793888092041,-23.90855026245117,-39.52532196044922,3.119624137878418,2,192.168.1.8,10.83.46.32,1,0
2015-03-04 08:05:30.766,41,1425485105.95903,37.77932961198018,-122.4388616372626,56.94937,-1,-1,10,65,-9999,1425485130.727639,-23.05319213867188,-40.28958129882812,6.341262817382812,149.4095001220703,135.633056640625,10,236480.8190855834,-0.2783355712890625,-0.7927093505859375,-0.2612457275390625,236480.8328549167,0.3504901089498403,-0.5155102227355102,-0.3961673163863343,236480.7810782084,2.732723231132938,-0.7070290258690782,1.121140758814759,0.08540817350149155,-0.5951632261276245,-0.1700095534324646,0.08989880979061127,0.1114275529980659,0.12605981528759,XTrueNorthZVertical,0.3883680093420411,0.4288787871777698,0.7406646347746122,0.3415396712384687,-0.2823426723480225,-0.9005968570709229,-0.3304665386676788,-23.4453010559082,-39.71114730834961,4.116368293762207,2,192.168.1.8,10.83.46.32,1,0
2015-03-04 08:05:30.776,42,1425485105.95903,37.77932961198018,-122.4388616372626,56.94937,-1,-1,10,65,-9999,1425485130.727639,-23.05319213867188,-40.28958129882812,6.341262817382812,149.4095001220703,135.633056640625,10,236480.8681082917,-0.211700439453125,-0.88433837890625,-0.1774139404296875,236480.8328549167,0.3504901089498403,-0.5155102227355102,-0.3961673163863343,236480.8328549167,2.731836768252101,-0.7298837401789253,1.135574350075962,0.3377372026443481,-0.504690945148468,-0.3611209988594055,-0.02261775732040405,0.07189183682203293,0.06857115030288696,XTrueNorthZVertical,0.3968051667320868,0.4306298765972285,0.7320524980721294,0.3481420430080183,-0.2811236977577209,-0.906776487827301,-0.314207136631012,-23.03669357299805,-39.85980224609375,4.910055160522461,2,192.168.1.8,10.83.46.32,1,0
2015-03-04 08:05:30.836,43,1425485105.95903,37.77932961198018,-122.4388616372626,56.94937,-1,-1,10,65,-9999,1425485130.829047,-21.26274108886719,-40.54449462890625,8.920722961425781,153.2174987792969,139.4410552978516,10,236480.917151375,-0.1814727783203125,-0.7889251708984375,-0.187225341796875,236480.8846309167,0.3318722160852053,-0.6953119458355559,-0.5126928646183154,236480.8846309167,2.711598208268512,-0.7433916828105385,1.167312506731708,0.3191197216510773,-0.6844925284385681,-0.4776471555233002,0.08274082094430923,0.03600123524665833,0.1102697253227234,XTrueNorthZVertical,0.4056336914630389,0.4369673417316574,0.7168704729272494,0.3614107755199945,-0.2657242119312286,-0.9196987152099609,-0.2890416979789734,-21.81458282470703,-40.32271957397461,6.465608596801758,2,192.168.1.8,10.83.46.32,1,0
2015-03-04 08:05:30.874,44,1425485105.95903,37.77932961198018,-122.4388616372626,56.94937,-1,-1,10,65,-9999,1425485130.829047,-21.26274108886719,-40.54449462890625,8.920722961425781,153.2174987792969,139.4410552978516,10,236480.9662880833,-0.38739013671875,-0.8847503662109375,-0.2339324951171875,236480.9364076667,0.2619008542366815,-0.8557160025037915,-0.05470692142851672,236480.9364076667,2.71922735378278,-0.7902664253666158,1.184091644078777,0.2491484731435776,-0.844896674156189,-0.01966154761612415,0.05590585991740227,0.145654559135437,0.0856732502579689,XTrueNorthZVertical,0.4202846240143565,0.4366610011569368,0.7038176291129189,0.3705791721649596,-0.2679724991321564,-0.9261568784713745,-0.2653760015964508,-20.91730499267578,-40.57396697998047,7.734424591064453,2,192.168.1.8,10.83.46.32,1,0
2015-03-04 08:05:30.936,45,1425485105.95903,37.77932961198018,-122.4388616372626,56.94937,-1,-1,10,65,-9999,1425485130.932846,-18.56855392456055,-40.95230102539062,11.71652984619141,158.8093566894531,145.0329132080078,10,236481.0152369167,-0.2094268798828125,-0.93359375,-0.083038330078125,236480.9881846667,0.4573441213670896,-1.136228358018492,-0.5935277931854905,236480.9881846667,2.725061702695184,-0.8445979353177686,1.206348438451502,0.4445945620536804,-1.125409483909607,-0.5584794878959656,-0.0580320879817009,0.009470230899751186,0.05876599997282028,XTrueNorthZVertical,0.4372252178181248,0.4364543137277051,0.6868866439221489,0.3827906116150221,-0.266507089138031,-0.9343206882476807,-0.2366834878921509,-20.64474678039551,-40.54487609863281,8.573746681213379,2,192.168.1.8,10.83.46.32,1,0
2015-03-04 08:05:30.972,46,1425485105.95903,37.77932961198018,-122.4388616372626,56.94937,-1,-1,10,65,-9999,1425485130.932846,-18.56855392456055,-40.95230102539062,11.71652984619141,158.8093566894531,145.0329132080078,10,236481.06427125,-0.379119873046875,-0.9911346435546875,-0.08587646484375,236481.039960375,0.5113498324805884,-0.08156090628033072,-0.1028318402229026,236481.039960375,2.752370963372707,-0.9032419976363129,1.234057366354048,0.4986007809638977,-0.0707419291138649,-0.06778421252965927,0.009026864543557167,-0.04204845428466797,0.09495821595191956,XTrueNorthZVertical,0.4499058535348411,0.4419403863717014,0.6711437439610155,0.389666095263076,-0.2594846189022064,-0.9438371658325195,-0.2045468389987946,-18.8122673034668,-40.77845764160156,11.26134300231934,2,192.168.1.8,10.83.46.32,1,0
2015-03-04 08:05:31.035,47,1425485105.95903,37.77932961198018,-122.4388616372626,56.94937,-1,-1,10,65,-9999,1425485130.987269,-17.64775466918945,-40.74839782714844,12.68175506591797,160.4060516357422,146.6296081542969,10,236481.1133237084,-0.1920318603515625,-0.9730377197265625,-0.21539306640625,236481.0917374167,0.32537463565763,0.1743347860143311,-0.403751732854771,236481.0917374167,2.805010557792302,-0.9481932051610891,1.263337430202396,0.3126474916934967,0.1851661205291748,-0.36871337890625,0.02153263427317142,-0.04138589650392532,0.08262716978788376,XTrueNorthZVertical,0.4512355152013945,0.4562285804773152,0.6627330087641883,0.386040314316804,-0.2458520978689194,-0.9531056880950928,-0.1764839887619019,-18.5914306640625,-40.56039810180664,12.36182594299316,2,192.168.1.8,10.83.46.32,1,0
2015-03-04 08:05:31.071,48,1425485105.95903,37.77932961198018,-122.4388616372626,56.94937,-1,-1,10,65,-9999,1425485131.064379,-16.94863128662109,-40.28958129882812,13.83002853393555,160.5593872070312,146.7829437255859,10,236481.1624575417,-0.201141357421875,-1.133316040039062,-0.1117401123046875,236481.143514125,0.2722333866339709,-0.1770695861377334,-0.4534990493852332,236481.143514125,2.811183402354582,-0.9465842544460842,1.281649693762044,0.2594995498657227,-0.1662423461675644,-0.4184580445289612,-0.05028146505355835,-0.1101159676909447,0.01526695489883423,XTrueNorthZVertical,0.4479229271377619,0.4648014101101678,0.6589545507174929,0.3861395778724456,-0.2313652634620667,-0.9584875702857971,-0.1666494011878967,-18.13983535766602,-40.60801315307617,12.86613368988037,2,192.168.1.8,10.83.46.32,1,0
2015-03-04 08:05:31.165,49,1425485105.95903,37.77932961198018,-122.4388616372626,56.94937,-1,-1,10,65,-9999,1425485131.115102,-15.89142608642578,-40.83335876464844,14.52897644042969,162.4231872558594,148.6467437744141,10,236481.2114051667,-0.24658203125,-1.069778442382812,-0.1252288818359375,236481.195290125,0.08318836402247815,-0.587056844368816,-0.4012206645547597,236481.195290125,2.775147172586365,-0.9378790110972638,1.305666085884388,0.07049015909433365,-0.5763323903083801,-0.3661229908466339,0.04112988337874413,-0.1437672972679138,0.01598631404340267,XTrueNorthZVertical,0.4517244545346412,0.4673842911898959,0.6467334954389904,0.3990399734468087,-0.2112806439399719,-0.9650583863258362,-0.1549938768148422,-16.76092910766602,-40.94552230834961,13.64320945739746,2,192.168.1.8,10.83.46.32,1,0
2015-03-04 08:05:31.173,50,1425485105.95903,37.77932961198018,-122.4388616372626,56.94937,-1,-1,10,65,-9999,1425485131.115102,-15.89142608642578,-40.83335876464844,14.52897644042969,162.4231872558594,148.6467437744141,10,236481.260456375,-0.2267303466796875,-1.049453735351562,-0.1076507568359375,236481.247066875,-0.1090175644868296,-0.4746450810726803,-0.2764997707002778,236481.195290125,2.775147172586365,-0.9378790110972638,1.305666085884388,0.07049015909433365,-0.5763323903083801,-0.3661229908466339,0.04112988337874413,-0.1437672972679138,0.01598631404340267,XTrueNorthZVertical,0.4517244545346412,0.4673842911898959,0.6467334954389904,0.3990399734468087,-0.2112806439399719,-0.9650583863258362,-0.1549938768148422,-16.76092910766602,-40.94552230834961,13.64320945739746,2,192.168.1.8,10.83.46.32,1,0
2015-03-04 08:05:31.235,51,1425485105.95903,37.77932961198018,-122.4388616372626,56.94937,-1,-1,10,65,-9999,1425485131.218372,-13.41891479492188,-40.88433837890625,15.24456787109375,167.3101959228516,153.5337524414062,10,236481.3095021667,-0.22491455078125,-1.125961303710938,-0.1023406982421875,236481.2988439584,-0.1142032717614319,-0.2193648453059359,-0.1691765092989566,236481.2988439584,2.709943539031399,-0.9160598563544625,1.321618274647195,-0.1268904060125351,-0.2086365520954132,-0.1340794861316681,-0.04547725990414619,-0.1155250519514084,0.0201213862746954,XTrueNorthZVertical,0.4588914463835422,0.4629607088236204,0.6335716118089733,0.416741176557101,-0.1956116110086441,-0.9691154360771179,-0.1501720398664474,-15.26515197753906,-41.30525588989258,14.29869937896729,2,192.168.1.8,10.83.46.32,1,0
2015-03-04 08:05:31.267,52,1425485105.95903,37.77932961198018,-122.4388616372626,56.94937,-1,-1,10,65,-9999,1425485131.218372,-13.41891479492188,-40.88433837890625,15.24456787109375,167.3101959228516,153.5337524414062,10,236481.358632625,-0.1958465576171875,-1.206436157226562,-0.1625823974609375,236481.3506195834,-0.299628525819289,-0.403887820386474,0.03275102245357646,236481.2988439584,2.709943539031399,-0.9160598563544625,1.321618274647195,-0.1268904060125351,-0.2086365520954132,-0.1340794861316681,-0.04547725990414619,-0.1155250519514084,0.0201213862746954,XTrueNorthZVertical,0.4588914463835422,0.4629607088236204,0.6335716118089733,0.416741176557101,-0.1956116110086441,-0.9691154360771179,-0.1501720398664474,-15.26515197753906,-41.30525588989258,14.29869937896729,2,192.168.1.8,10.83.46.32,1,0
2015-03-04 08:05:31.335,53,1425485105.95903,37.77932961198018,-122.4388616372626,56.94937,-1,-1,10,65,-9999,1425485131.322281,-12.44694900512695,-41.95486450195312,15.02823257446289,170.7337799072266,156.9573364257812,10,236481.4075636667,-0.1794281005859375,-1.140289306640625,-0.1599578857421875,236481.4023966667,-0.3902761377389701,-1.023024836930275,0.2332484367007369,236481.3506195834,2.668178418359183,-0.8900620101656849,1.315708514288634,-0.3123155236244202,-0.3931596279144287,0.06784765422344208,0.03837426379323006,-0.201456755399704,0.01397155411541462,XTrueNorthZVertical,0.4605614800959164,0.456595152231217,0.632592001189055,0.4233574412353023,-0.1960891038179398,-0.9676411151885986,-0.1588079780340195,-14.63998794555664,-41.57875061035156,14.15909385681152,2,192.168.1.8,10.83.46.32,1,0
2015-03-04 08:05:31.366,54,1425485105.95903,37.77932961198018,-122.4388616372626,56.94937,-1,-1,10,65,-9999,1425485131.322281,-12.44694900512695,-41.95486450195312,15.02823257446289,170.7337799072266,156.9573364257812,10,236481.456586875,-0.25469970703125,-0.994140625,-0.11834716796875,236481.454173375,-0.2060746062020044,-1.177818944762259,0.6576095742833041,236481.4023966667,2.624909771461934,-0.8854757859133218,1.296610298459664,-0.4029629826545715,-1.012296676635742,0.2683447003364563,0.04044041782617569,-0.2147222608327866,-0.02693095058202744,XTrueNorthZVertical,0.4695531569393037,0.440265484164951,0.6302614764498412,0.4341160911224856,-0.2096298635005951,-0.9626458883285522,-0.1713722795248032,-14.48512268066406,-41.74733734130859,13.81820487976074,2,192.168.1.8,10.83.46.32,1,0
2015-03-04 08:05:31.457,55,1425485105.95903,37.77932961198018,-122.4388616372626,56.94937,-1,-1,10,65,-9999,1425485131.425671,-12.9073486328125,-41.86993408203125,15.07815933227539,173.47509765625,159.6986541748047,10,236481.5056286667,-0.3204803466796875,-1.083969116210938,-0.21856689453125,236481.5059492083,-0.03665361871497857,0.4242641985188883,0.5581471654715698,236481.454173375,2.634199071913927,-0.9488113732353205,1.263221855366858,-0.2187613546848297,-1.167090892791748,0.6927055716514587,-0.01829259656369686,-0.06679625064134598,0.02893521636724472,XTrueNorthZVertical,0.4887066029448116,0.4158939523598026,0.627271139840691,0.4412812785044362,-0.2460506707429886,-0.9530707001686096,-0.1763961464166641,-14.40331649780273,-41.81172180175781,13.70862102508545,2,192.168.1.8,10.83.46.32,1,0
2015-03-04 08:05:31.488,56,1425485105.95903,37.77932961198018,-122.4388616372626,56.94937,-1,-1,10,65,-9999,1425485131.477501,-14.01570892333984,-41.13922119140625,14.42913818359375,171.6949768066406,157.9185333251953,10,236481.5546587917,0.011566162109375,-1.048355102539062,-0.0303192138671875,236481.5059492083,-0.03665361871497857,0.4242641985188883,0.5581471654715698,236481.5059492083,2.682074984598189,-1.018952247017433,1.236262028102604,-0.04933707788586617,0.4349933564662933,0.5932415127754211,-0.04088812321424484,-0.1394058018922806,-0.04643724113702774,XTrueNorthZVertical,0.5022470600711818,0.402098325975575,0.6283975539657569,0.4372430835064338,-0.2795922160148621,-0.9445633292198181,-0.1721296608448029,-15.35756301879883,-41.34812164306641,14.0740966796875,2,192.168.1.8,10.83.46.32,1,0
2015-03-04 08:05:31.535,57,1425485105.95903,37.77932961198018,-122.4388616372626,56.94937,-1,-1,10,65,-9999,1425485131.529525,-15.07292556762695,-40.76536560058594,13.99645233154297,170.4514770507812,156.6750335693359,10,236481.6038185834,-0.2705841064453125,-0.9249420166015625,-0.1576080322265625,236481.6095031667,-0.2534461167240069,-0.8624697790282324,0.6656358091765849,236481.557726125,2.69647771500642,-1.007345418569416,1.202710149801495,-0.4547252058982849,0.04334187135100365,0.5206775665283203,0.3157732784748077,-0.1153373941779137,0.1618689000606537,XTrueNorthZVertical,0.4975286925692558,0.3954379130091944,0.644088496217491,0.4257278932280766,-0.3042071163654327,-0.9330177307128906,-0.1921881139278412,-16.83808898925781,-40.96488952636719,13.48919486999512,2,192.168.1.8,10.83.46.32,1,0
2015-03-04 08:05:31.572,58,1425485105.95903,37.77932961198018,-122.4388616372626,56.94937,-1,-1,10,65,-9999,1425485131.529525,-15.07292556762695,-40.76536560058594,13.99645233154297,170.4514770507812,156.6750335693359,10,236481.6527397083,-0.46246337890625,-1.034576416015625,-0.0621490478515625,236481.6095031667,-0.2534461167240069,-0.8624697790282324,0.6656358091765849,236481.6095031667,2.691035295413265,-1.038485239081268,1.165558938490123,-0.266129195690155,-0.8517400622367859,0.7007268071174622,0.06910510361194611,-0.005933180917054415,0.04247764497995377,XTrueNorthZVertical,0.5105772557793854,0.3731863173550306,0.6455680214848882,0.4281179055619322,-0.3396891951560974,-0.9190088510513306,-0.2000856697559357,-17.55271530151367,-40.84991836547852,12.91465187072754,2,192.168.1.8,10.83.46.32,1,0
2015-03-04 08:05:31.620,59,1425485105.95903,37.77932961198018,-122.4388616372626,56.94937,-1,-1,10,65,-9999,1425485131.582621,-16.43707275390625,-40.62940979003906,13.8966064453125,169.3435516357422,155.5671081542969,10,236481.701888,-0.3234100341796875,-1.002792358398438,-0.1542816162109375,236481.661278875,0.2171477636984449,0.1125007128765443,0.7514899974502324,236481.661278875,2.730242328516392,-1.093173016963254,1.135895390541605,0.2044652849435806,0.1232304573059082,0.7865806818008423,-0.08829253911972046,-0.1276646256446838,0.1315194219350815,XTrueNorthZVertical,0.5227872844740575,0.3603598454046121,0.6479051485714291,0.4207770531691414,-0.3741708397865295,-0.9069117903709412,-0.193668469786644,-18.81758689880371,-40.22583389282227,13.09131622314453,2,192.168.1.8,10.83.46.32,1,0
2015-03-04 08:05:31.668,60,1425485105.95903,37.77932961198018,-122.4388616372626,56.94937,-1,-1,10,65,-9999,1425485131.632887,-17.90352630615234,-40.18760681152344,13.83003234863281,167.6045684814453,153.828125,10,236481.7508067917,-0.2403106689453125,-0.9390869140625,-0.167510986328125,236481.7130559584,-0.06775214971216086,0.7096517367250876,0.7699531606555338,236481.7130559584,2.775799748274368,-1.107084991766103,1.097619946046337,-0.08043448626995087,0.7203813195228577,0.8050434589385986,0.2011100947856903,-0.07754137367010117,0.09210363030433655,XTrueNorthZVertical,0.5217338143434425,0.354795132994895,0.6637598017081831,0.401668195426222,-0.4075920283794403,-0.8901252746582031,-0.2038284838199615,-20.48193550109863,-39.43075942993164,13.01181793212891,2,192.168.1.8,10.83.46.32,1,0
2015-03-04 08:05:31.718,61,1425485105.95903,37.77932961198018,-122.4388616372626,56.94937,-1,-1,10,65,-9999,1425485131.684741,-19.98384857177734,-39.06605529785156,13.26421356201172,164.0094451904297,150.2330017089844,10,236481.7999629167,-0.4543914794921875,-0.9473876953125,-0.1895904541015625,236481.7648326667,-0.1558532469975082,-0.1282445222927657,0.9319327434246603,236481.7648326667,2.808012270141187,-1.119627769970454,1.056873017547872,-0.1685354560613632,-0.1175149977207184,0.967022716999054,0.1345463246107101,-0.09669151157140732,0.01263929344713688,XTrueNorthZVertical,0.5231567845689504,0.3451584646142248,0.6771680704545158,0.3855077047588061,-0.442407637834549,-0.870822548866272,-0.2143452316522598,-21.71689987182617,-38.93585968017578,12.48907089233398,2,192.168.1.8,10.83.46.32,1,0
2015-03-04 08:05:31.767,62,1425485105.95903,37.77932961198018,-122.4388616372626,56.94937,-1,-1,10,65,-9999,1425485131.737503,-21.34798431396484,-38.14840698242188,12.99794769287109,161.9814300537109,148.2049865722656,10,236481.8488842917,-0.645599365234375,-0.9463958740234375,-0.1852569580078125,236481.8166085,-0.2046538097604471,-0.3874206964181871,0.8712869727652668,236481.8166085,2.829248404438782,-1.156339159277691,1.008265954876805,-0.2173359096050262,-0.3766912519931793,0.9063766598701477,0.01951593160629272,-0.08144460618495941,0.02786285616457462,XTrueNorthZVertical,0.5356021118576482,0.3251868628080533,0.683295298929717,0.3748220771220658,-0.4881743788719177,-0.8459082841873169,-0.2147677689790726,-24.36207389831543,-37.4447021484375,12.16493511199951,2,192.168.1.8,10.83.46.32,1,0
2015-03-04 08:05:31.815,63,1425485105.95903,37.77932961198018,-122.4388616372626,56.94937,-1,-1,10,65,-9999,1425485131.78849,-23.59883117675781,-37.12879943847656,12.73168182373047,158.6696472167969,144.8932037353516,10,236481.89794425,-0.495269775390625,-0.876678466796875,-0.2977752685546875,236481.8683855833,-0.4783359560274211,0.8038472118489722,1.096132603594586,236481.8683855833,2.844478256410043,-1.160712247840531,0.9567456384153759,-0.4910179078578949,0.8145765066146851,1.131221890449524,-0.1065385043621063,-0.05587866902351379,0.01516256295144558,XTrueNorthZVertical,0.5383874960549417,0.3086757298999824,0.6968557391750022,0.3595141856006951,-0.5284101963043213,-0.8173207640647888,-0.2297163903713226,-25.8247013092041,-36.48193359375,12.07291507720947,2,192.168.1.8,10.83.46.32,1,0
2015-03-04 08:05:31.867,64,1425485105.95903,37.77932961198018,-122.4388616372626,56.94937,-1,-1,10,65,-9999,1425485131.839523,-25.91788482666016,-35.90528869628906,11.20066070556641,155.0587921142578,141.2823486328125,10,236481.946968,-0.467041015625,-0.9121551513671875,-0.341705322265625,236481.9201625,-1.022471432055757,1.60080482595791,0.9546692149151027,236481.9201625,2.81825899285631,-1.069757393431289,0.889590247903618,-1.035153269767761,1.611533999443054,0.9897581338882446,-0.04859502241015434,-0.2464711368083954,-0.01067321561276913,XTrueNorthZVertical,0.5137236269236674,0.2912843609564987,0.7311891598912148,0.3414733396138022,-0.5523266196250916,-0.776813805103302,-0.3024829030036926,-27.27301025390625,-35.75809097290039,11.00653266906738,2,192.168.1.8,10.83.46.32,1,0
2015-03-04 08:05:31.914,65,1425485105.95903,37.77932961198018,-122.4388616372626,56.94937,-1,-1,10,65,-9999,1425485131.89238,-28.06641387939453,-35.56541442871094,8.038742065429688,151.4864044189453,137.7099609375,10,236481.9960302083,-0.090545654296875,-0.6667327880859375,-0.38433837890625,236481.9719381667,-0.9578096144725241,1.763760190950441,-0.1333245020720919,236481.9719381667,2.771214160786761,-0.9560217927250766,0.8392998758547614,-0.970491349697113,1.774489283561707,-0.09823589771986008,0.3167510032653809,0.05786581709980965,0.02733545936644077,XTrueNorthZVertical,0.4795300509698092,0.2782316717891474,0.7624927985061822,0.3335310664141882,-0.5456786155700684,-0.7441756129264832,-0.3852761387825012,-30.5532169342041,-34.40648651123047,5.128009796142578,2,192.168.1.8,10.83.46.32,1,0
2015-03-04 08:05:31.968,66,1425485105.95903,37.77932961198018,-122.4388616372626,56.94937,-1,-1,10,65,-9999,1425485131.953102,-29.15773010253906,-36.00723266601562,4.677131652832031,149.1487579345703,135.372314453125,10,236482.0450567084,-0.3126220703125,-0.6599884033203125,-0.5029449462890625,236482.023715125,-0.5834256242224929,0.3279443197934475,-0.8194434821408033,236482.023715125,2.702284321397266,-0.8414592770398919,0.8454739015244127,-0.5961072444915771,0.3386732935905457,-0.7843552231788635,0.2843432724475861,0.03441838547587395,0.1147570610046387,XTrueNorthZVertical,0.4451193150770796,0.2843233206512426,0.7759266953830299,0.3449159043564098,-0.4946246445178986,-0.7482855916023254,-0.4420580863952637,-30.22153091430664,-35.03885269165039,1.593629837036133,2,192.168.1.8,10.83.46.32,1,0
2015-03-04 08:05:32.012,67,1425485105.95903,37.77932961198018,-122.4388616372626,56.94937,-1,-1,10,65,-9999,1425485131.953102,-29.15773010253906,-36.00723266601562,4.677131652832031,149.1487579345703,135.372314453125,10,236482.0941147917,-0.2346954345703125,-0.8124847412109375,-0.1667938232421875,236482.0754922084,-0.2312883501384386,-1.110891576039696,-1.767212979303729,236482.0754922084,2.610683499306707,-0.7967620747970314,0.8711688218410308,-0.2439697980880737,-1.100162744522095,-1.732125163078308,0.2778569459915161,0.05860016867518425,0.08814144879579544,XTrueNorthZVertical,0.4414111221858449,0.2830077203702565,0.7634154635424887,0.3771735070926078,-0.4604741334915161,-0.7650821208953857,-0.4501256942749023,-29.39155006408691,-35.76944732666016,0.5342044830322266,2,192.168.1.8,10.83.46.32,1,0
2015-03-04 08:05:32.062,68,1425485105.95903,37.77932961198018,-122.4388616372626,56.94937,-1,-1,10,65,-9999,1425485132.022055,-26.92393493652344,-38.60719299316406,2.730049133300781,153.3199005126953,139.54345703125,10,236482.1431454583,-0.467376708984375,-0.6630096435546875,-0.3577423095703125,236482.1272679167,-4.394215798630743e-05,-0.5738632780124544,-1.830113648458092,236482.0754922084,2.610683499306707,-0.7967620747970314,0.8711688218410308,-0.2439697980880737,-1.100162744522095,-1.732125163078308,0.2778569459915161,0.05860016867518425,0.08814144879579544,XTrueNorthZVertical,0.4414111221858449,0.2830077203702565,0.7634154635424887,0.3771735070926078,-0.4604741334915161,-0.7650821208953857,-0.4501256942749023,-29.39155006408691,-35.76944732666016,0.5342044830322266,2,192.168.1.8,10.83.46.32,1,0
2015-03-04 08:05:32.110,69,1425485105.95903,37.77932961198018,-122.4388616372626,56.94937,-1,-1,10,65,-9999,1425485132.073361,-23.20664215087891,-40.34048461914062,2.863189697265625,159.1265563964844,145.3501129150391,10,236482.1923020417,-0.509368896484375,-0.8818206787109375,-0.34625244140625,236482.1790449583,0.5792215581256939,0.4646137521946789,-2.14849322519652,236482.1790449583,2.375423639709807,-0.6590159623407532,1.009284152546404,0.5665746331214905,0.4752529263496399,-2.113349914550781,0.006210910156369209,0.1288300454616547,0.1644045412540436,XTrueNorthZVertical,0.4337116810082532,0.3184513554928041,0.7097427302156359,0.4546958784228335,-0.3260504007339478,-0.8464509248733521,-0.4209658205509186,-21.4838981628418,-40.96524047851562,1.973150253295898,2,192.168.1.8,10.83.46.32,1,0
2015-03-04 08:05:32.166,70,1425485105.95903,37.77932961198018,-122.4388616372626,56.94937,-1,-1,10,65,-9999,1425485132.1253,-18.80726623535156,-42.37966918945312,3.961532592773438,164.7586975097656,150.9822540283203,10,236482.2412175417,-0.0999603271484375,-0.7916412353515625,-0.36669921875,236482.2308217083,0.901475501617969,0.618111433208012,-1.832465486016741,236482.1790449583,2.375423639709807,-0.6590159623407532,1.009284152546404,0.5665746331214905,0.4752529263496399,-2.113349914550781,0.006210910156369209,0.1288300454616547,0.1644045412540436,XTrueNorthZVertical,0.4337116810082532,0.3184513554928041,0.7097427302156359,0.4546958784228335,-0.3260504007339478,-0.8464509248733521,-0.4209658205509186,-21.4838981628418,-40.96524047851562,1.973150253295898,2,192.168.1.8,10.83.46.32,1,0
2015-03-04 08:05:32.208,71,1425485105.95903,37.77932961198018,-122.4388616372626,56.94937,-1,-1,10,65,-9999,1425485132.182496,-14.4420051574707,-43.97703552246094,4.760337829589844,169.7448425292969,155.9683990478516,10,236482.2903845417,-0.374786376953125,-1.084320068359375,-0.41497802734375,236482.2825977917,0.9556609761050482,-0.1037687402943925,-0.7917354215274008,236482.2308217083,2.263115825843969,-0.5274585883912565,1.099895297524559,0.8888286948204041,0.6287505030632019,-1.797322511672974,-0.1821627765893936,0.001129955286160111,-0.003235402051359415,XTrueNorthZVertical,0.4157184226979523,0.362165788132165,0.6870071765018388,0.4733238292944608,-0.2283596843481064,-0.8911598920822144,-0.392028272151947,-18.84933471679688,-42.22075653076172,2.389976501464844,2,192.168.1.8,10.83.46.32,1,0
2015-03-04 08:05:32.264,72,1425485105.95903,37.77932961198018,-122.4388616372626,56.94937,-1,-1,10,65,-9999,1425485132.254545,-10.48598480224609,-44.62278747558594,6.823905944824219,174.0906677246094,160.3142242431641,10,236482.3392858334,-0.2765655517578125,-0.931396484375,-0.3908538818359375,236482.3343745417,0.4601172710101891,-0.508781746241425,0.2028385991614491,236482.2825977917,2.184575236981849,-0.4374546314378566,1.169417487756995,0.9430143237113953,-0.09312977641820908,-0.7565928101539612,-0.1815060973167419,-0.1411528587341309,-0.1043384224176407,XTrueNorthZVertical,0.4087135465071677,0.3949735429615744,0.6674307889442873,0.4811293508381994,-0.1655092835426331,-0.9205231666564941,-0.353898286819458,-13.60015106201172,-44.0156135559082,4.611251831054688,2,192.168.1.8,10.83.46.32,1,0
2015-03-04 08:05:32.307,73,1425485105.95903,37.77932961198018,-122.4388616372626,56.94937,-1,-1,10,65,-9999,1425485132.254545,-10.48598480224609,-44.62278747558594,6.823905944824219,174.0906677246094,160.3142242431641,10,236482.388457875,-0.69622802734375,-1.373062133789062,-0.448974609375,236482.3861515833,0.6523556900847959,1.05540061998626,0.8932623128161646,236482.3861515833,2.326958898117894,-0.5889254374383163,1.215309701462899,0.6397092938423157,1.066039323806763,0.9284042119979858,-0.5050048828125,-0.3657454252243042,-0.1755057573318481,XTrueNorthZVertical,0.4352210524676956,0.4072781499192134,0.655733409128309,0.4633799879657373,-0.1933288872241974,-0.9374772310256958,-0.2894142866134644,-12.4404296875,-44.0078125,7.221491813659668,2,192.168.1.8,10.83.46.32,1,0
2015-03-04 08:05:32.365,74,1425485105.95903,37.77932961198018,-122.4388616372626,56.94937,-1,-1,10,65,-9999,1425485132.358064,-11.85013580322266,-43.90908813476562,9.087165832519531,171.9833526611328,158.2069091796875,10,236482.4373649583,0.0703582763671875,-0.910247802734375,-0.2863922119140625,236482.3861515833,0.6523556900847959,1.05540061998626,0.8932623128161646,236482.3861515833,2.326958898117894,-0.5889254374383163,1.215309701462899,0.6397092938423157,1.066039323806763,0.9284042119979858,-0.5050048828125,-0.3657454252243042,-0.1755057573318481,XTrueNorthZVertical,0.4352210524676956,0.4072781499192134,0.655733409128309,0.4633799879657373,-0.1933288872241974,-0.9374772310256958,-0.2894142866134644,-12.4404296875,-44.0078125,7.221491813659668,2,192.168.1.8,10.83.46.32,1,0
2015-03-04 08:05:32.404,75,1425485105.95903,37.77932961198018,-122.4388616372626,56.94937,-1,-1,10,65,-9999,1425485132.358064,-11.85013580322266,-43.90908813476562,9.087165832519531,171.9833526611328,158.2069091796875,10,236482.4865140417,-0.1393280029296875,-0.8979339599609375,-0.28717041015625,236482.4897044167,0.291093627157803,-0.7763668515087716,0.2820663100107614,236482.4379273333,2.40075943670941,-0.56597188611267,1.207850588560213,0.27883380651474,1.757348895072937,0.1532095819711685,0.2607382535934448,0.02460725419223309,0.013277149759233,XTrueNorthZVertical,0.4116422914718383,0.4251069782632571,0.6793674807592027,0.4339293490851455,-0.1903799772262573,-0.934855043888092,-0.2996693551540375,-15.4337215423584,-42.97301483154297,7.663034439086914,2,192.168.1.8,10.83.46.32,1,0
2015-03-04 08:05:32.465,76,1425485105.95903,37.77932961198018,-122.4388616372626,56.94937,-1,-1,10,65,-9999,1425485132.410227,-13.14606857299805,-43.39927673339844,9.286872863769531,168.1889495849609,154.4125061035156,10,236482.535424625,-0.3904876708984375,-0.9441680908203125,-0.1259918212890625,236482.4897044167,0.291093627157803,-0.7763668515087716,0.2820663100107614,236482.4897044167,2.43892875789897,-0.5895994064487542,1.214738897554812,0.2784474790096283,-0.7657282948493958,0.3172074854373932,0.05449339747428894,0.03934445232152939,0.002558235544711351,XTrueNorthZVertical,0.4119462491627848,0.4306227641156776,0.6806657999126697,0.4260968958607869,-0.1938214004039764,-0.9372783899307251,-0.2897286415100098,-16.06327056884766,-42.79356384277344,7.367769241333008,2,192.168.1.8,10.83.46.32,1,0
2015-03-04 08:05:32.502,77,1425485105.95903,37.77932961198018,-122.4388616372626,56.94937,-1,-1,10,65,-9999,1425485132.461505,-13.6746711730957,-42.97445678710938,9.702903747558594,167.5381774902344,153.7617340087891,10,236482.5844830833,-0.2372894287109375,-0.8507843017578125,-0.1663970947265625,236482.5414811667,0.2262629651614591,0.1260628607277728,-0.2837038877650512,236482.5414811667,2.501251317315111,-0.674188045563221,1.232405636376462,0.2136169373989105,0.1367012858390808,-0.2485630363225937,-0.1832510977983475,-0.0008779623312875628,0.1333477050065994,XTrueNorthZVertical,0.4278555852651862,0.4327468455760815,0.670851454845147,0.4238257476137479,-0.20723657310009,-0.943290114402771,-0.2593395411968231,-16.27585220336914,-42.58734130859375,8.06328010559082,2,192.168.1.8,10.83.46.32,1,0
2015-03-04 08:05:32.563,78,1425485105.95903,37.77932961198018,-122.4388616372626,56.94937,-1,-1,10,65,-9999,1425485132.513784,-14.1009635925293,-42.31170654296875,10.35192108154297,166.6279144287109,152.8514709472656,10,236482.63350775,-0.309906005859375,-0.919036865234375,-0.268341064453125,236482.59325725,0.4455511114280007,0.6591206518858151,0.1501402338270702,236482.59325725,2.542967024359988,-0.6691324622576642,1.243985575979465,0.4329051971435547,0.6697589755058289,0.1852807402610779,-0.03815600648522377,0.09628668427467346,0.08540181070566177,XTrueNorthZVertical,0.4172770013744915,0.4471917386262482,0.6771122387321338,0.4091682321421967,-0.199133425951004,-0.9470709562301636,-0.2517988979816437,-16.54858779907227,-42.25207901000977,9.192811965942383,2,192.168.1.8,10.83.46.32,1,0
2015-03-04 08:05:32.601,79,1425485105.95903,37.77932961198018,-122.4388616372626,56.94937,-1,-1,10,65,-9999,1425485132.564464,-14.64662933349609,-41.73391723632812,10.71804046630859,164.7846984863281,151.0082550048828,10,236482.682566375,-0.4069366455078125,-0.9763031005859375,0.0726165771484375,236482.645034,0.215471836424458,-0.6554990191194163,0.3439808106134686,236482.645034,2.582775860076647,-0.7168229312785298,1.241075897850964,0.2028260827064514,-0.6448608040809631,0.379120945930481,-0.1087517365813255,0.05907845497131348,0.06694137305021286,XTrueNorthZVertical,0.4244931095450035,0.4446994965362185,0.676068818659097,0.4061761725815621,-0.2127204239368439,-0.9461328983306885,-0.2440959215164185,-17.01498031616211,-42.00915908813477,9.451066970825195,2,192.168.1.8,10.83.46.32,1,0
2015-03-04 08:05:32.662,80,1425485105.95903,37.77932961198018,-122.4388616372626,56.94937,-1,-1,10,65,-9999,1425485132.617273,-14.90241241455078,-41.61497497558594,11.86631774902344,165.3993225097656,151.6228790283203,10,236482.7315934584,-0.04058837890625,-0.96551513671875,-0.1553497314453125,236482.6968110417,0.4114344199674316,0.9642992054168292,-0.365134565468077,236482.6968110417,2.622896662247705,-0.7620795864304706,1.25327319242238,0.3987887799739838,0.9749373197555542,-0.329994797706604,-0.1521446108818054,-0.03164729103446007,0.2014122307300568,XTrueNorthZVertical,0.4307578093336801,0.4489090154704868,0.6708367165452341,0.4036169945245652,-0.2155616879463196,-0.950011670589447,-0.2258568108081818,-17.27522659301758,-41.7877311706543,9.94756031036377,2,192.168.1.8,10.83.46.32,1,0
2015-03-04 08:05:32.698,81,1425485105.95903,37.77932961198018,-122.4388616372626,56.94937,-1,-1,10,65,-9999,1425485132.669579,-15.37986373901367,-41.61497497558594,12.13259124755859,163.4237213134766,149.6472778320312,10,236482.780646625,-0.032867431640625,-1.052520751953125,-0.1966400146484375,236482.7485868334,0.3560324134944042,0.8169403770322378,-0.05306641419702791,236482.7485868334,2.647647632614197,-0.7172934692861966,1.275669883365829,0.3433868885040283,0.8275783658027649,-0.01792695932090282,0.1758923679590225,-0.01941565796732903,0.03677064552903175,XTrueNorthZVertical,0.4097469884452552,0.4717124873584058,0.6783470790462345,0.3865748932438546,-0.19119693338871,-0.956765353679657,-0.219189465045929,-17.36629676818848,-41.6633186340332,10.30442905426025,2,192.168.1.8,10.83.46.32,1,0
2015-03-04 08:05:32.763,82,1425485105.95903,37.77932961198018,-122.4388616372626,56.94937,-1,-1,10,65,-9999,1425485132.720921,-15.482177734375,-41.51303100585938,12.46542358398438,162.2983245849609,148.5218811035156,10,236482.8296762917,-0.25457763671875,-0.93804931640625,-0.19268798828125,236482.800363875,-0.0566188047750846,-0.5831656997001012,-0.02798929042451478,236482.800363875,2.657290948238262,-0.7325912548747007,1.280704566638304,-0.06926419585943222,-0.5725278258323669,0.007149812299758196,0.1541635990142822,-0.07455824315547943,0.09420116990804672,XTrueNorthZVertical,0.4125888931125561,0.4726973966601914,0.6755320486856656,0.3872779372443607,-0.1913034915924072,-0.9582176208496094,-0.2126551568508148,-17.51240539550781,-41.56863403320312,10.43867874145508,2,192.168.1.8,10.83.46.32,1,0
2015-03-04 08:05:32.797,83,1425485105.95903,37.77932961198018,-122.4388616372626,56.94937,-1,-1,10,65,-9999,1425485132.772773,-15.37986373901367,-41.30911254882812,12.49870300292969,162.2589111328125,148.4824676513672,10,236482.8788401667,-0.21478271484375,-0.9937896728515625,-0.0585479736328125,236482.8521406667,0.09061512135438211,-0.1601694321761996,-0.03648557325019457,236482.8521406667,2.65801520792102,-0.7562944877001896,1.27675082368111,0.07796987146139145,-0.1495316475629807,-0.001346854725852609,-0.04256690666079521,-0.021466925740242,0.01127623487263918,XTrueNorthZVertical,0.4204661608135854,0.4666910088238016,0.6719416780350219,0.3923037907286281,-0.1988881677389145,-0.9570792317390442,-0.2108154147863388,-17.33744239807129,-41.58258056640625,10.67259120941162,2,192.168.1.8,10.83.46.32,1,0
2015-03-04 08:05:32.864,84,1425485105.95903,37.77932961198018,-122.4388616372626,56.94937,-1,-1,10,65,-9999,1425485132.825734,-15.10703659057617,-41.37710571289062,12.76496124267578,163.0636596679688,149.2872161865234,10,236482.9277633333,-0.04083251953125,-1.011383056640625,-0.216094970703125,236482.9039167083,0.05690722512114019,0.1223538762776195,-0.1071640043681345,236482.9039167083,2.655668818668916,-0.7511214858612559,1.282280903962425,0.04426208883523941,0.1329915672540665,-0.0720256045460701,0.06490743905305862,-0.0218624472618103,0.07302092015743256,XTrueNorthZVertical,0.4191839661175281,0.4693612430794921,0.6708813564242955,0.3923049893310262,-0.1941799074411392,-0.9586673378944397,-0.2079696506261826,-17.14197731018066,-41.57926177978516,10.996337890625,2,192.168.1.8,10.83.46.32,1,0
2015-03-04 08:05:32.895,85,1425485105.95903,37.77932961198018,-122.4388616372626,56.94937,-1,-1,10,65,-9999,1425485132.876999,-14.86830902099609,-41.24118041992188,13.16436767578125,163.0497283935547,149.2732849121094,10,236482.9768382917,-0.0854034423828125,-0.978302001953125,-0.09771728515625,236482.9556935,0.150806556731808,-0.1744881840931196,-0.1622224630605417,236482.9556935,2.664637346599471,-0.7562315035148444,1.290635557011345,0.1381615549325943,-0.1638506054878235,-0.1270844042301178,0.149179607629776,-0.1042966172099113,0.06080624833703041,XTrueNorthZVertical,0.4186272783105393,0.4734770708039766,0.6690118936475611,0.3911443780014827,-0.189737468957901,-0.9610109925270081,-0.2011413276195526,-17.08072853088379,-41.57931900024414,11.09101867675781,2,192.168.1.8,10.83.46.32,1,0
2015-03-04 08:05:32.966,86,1425485105.95903,37.77932961198018,-122.4388616372626,56.94937,-1,-1,10,65,-9999,1425485132.928037,-14.3908576965332,-41.41110229492188,13.4971923828125,163.4965209960938,149.7200775146484,10,236483.0258289583,-0.1165008544921875,-1.005523681640625,-0.14215087890625,236483.0074705417,0.1275321267011695,-0.1808819012381818,-0.1277694143542956,236483.0074705417,2.664828039931948,-0.7714837237272524,1.297367791150667,0.1148872524499893,-0.170244425535202,-0.0926317498087883,0.04692593589425087,-0.03077109158039093,0.03830823302268982,XTrueNorthZVertical,0.4235179059052307,0.4731191697940338,0.6637721785139461,0.3952182973861006,-0.1882680952548981,-0.9628507494926453,-0.1935816705226898,-16.89950180053711,-41.58620834350586,11.34001541137695,2,192.168.1.8,10.83.46.32,1,0
2015-03-04 08:05:32.993,87,1425485105.95903,37.77932961198018,-122.4388616372626,56.94937,-1,-1,10,65,-9999,1425485132.980521,-14.3908576965332,-41.34312438964844,13.3973388671875,163.3172760009766,149.5408325195312,10,236483.0749747917,-0.148284912109375,-0.954803466796875,-0.217071533203125,236483.0592464167,-0.07261108712101043,0.02689233437151114,0.02513811016147595,236483.0592464167,2.659782720871819,-0.7669616373293278,1.299654365955571,-0.08525583148002625,0.03752969577908516,0.06027542054653168,0.03464787825942039,-0.02536489441990852,-0.01694776676595211,XTrueNorthZVertical,0.4231607681421905,0.4738272912233533,0.6630278610449153,0.3960011248498176,-0.1858624815940857,-0.963465690612793,-0.1928453296422958,-16.47974014282227,-41.62759780883789,11.7967414855957,2,192.168.1.8,10.83.46.32,1,0
2015-03-04 08:05:33.037,88,1425485105.95903,37.77932961198018,-122.4388616372626,56.94937,-1,-1,10,65,-9999,1425485133.03166,-14.13507843017578,-41.56402587890625,13.58039855957031,164.1400146484375,150.3635711669922,10,236483.1238788333,-0.155914306640625,-0.9932708740234375,-0.029052734375,236483.111023375,-0.1175500663033345,-0.4456443220661535,0.1239959814057623,236483.0592464167,2.659782720871819,-0.7669616373293278,1.299654365955571,-0.08525583148002625,0.03752969577908516,0.06027542054653168,0.03464787825942039,-0.02536489441990852,-0.01694776676595211,XTrueNorthZVertical,0.4231607681421905,0.4738272912233533,0.6630278610449153,0.3960011248498176,-0.1858624815940857,-0.963465690612793,-0.1928453296422958,-16.47974014282227,-41.62759780883789,11.7967414855957,2,192.168.1.8,10.83.46.32,1,0
2015-03-04 08:05:33.091,89,1425485105.95903,37.77932961198018,-122.4388616372626,56.94937,-1,-1,10,65,-9999,1425485133.083585,-14.1180305480957,-41.41110229492188,13.86331176757812,164.8080291748047,151.0315856933594,10,236483.1729850417,-0.127593994140625,-1.04278564453125,-0.0827484130859375,236483.1628001667,0.4039674489030674,0.1907036393383941,-0.2526279936371346,236483.1628001667,2.701893824981376,-0.830545102944396,1.316639620410777,0.3913944065570831,0.2012767046689987,-0.2174839079380035,0.03562129661440849,-0.03735809773206711,0.108242429792881,XTrueNorthZVertical,0.433528329776028,0.4767198417509752,0.652541360646716,0.3987246235370097,-0.1856304556131363,-0.9678756594657898,-0.1695827543735504,-16.31163024902344,-41.71536254882812,11.72011756896973,2,192.168.1.8,10.83.46.32,1,0
2015-03-04 08:05:33.175,90,1425485105.95903,37.77932961198018,-122.4388616372626,56.94937,-1,-1,10,65,-9999,1425485133.135046,-14.1180305480957,-41.20716857910156,14.16285705566406,164.1262664794922,150.3498229980469,10,236483.2219507917,-0.1021575927734375,-0.9677734375,-0.24530029296875,236483.2145760417,0.6752221238364342,0.4049474921842166,-0.3869602358657124,236483.1628001667,2.701893824981376,-0.830545102944396,1.316639620410777,0.3913944065570831,0.2012767046689987,-0.2174839079380035,0.03562129661440849,-0.03735809773206711,0.108242429792881,XTrueNorthZVertical,0.433528329776028,0.4767198417509752,0.652541360646716,0.3987246235370097,-0.1856304556131363,-0.9678756594657898,-0.1695827543735504,-16.31163024902344,-41.71536254882812,11.72011756896973,2,192.168.1.8,10.83.46.32,1,0
2015-03-04 08:05:33.188,91,1425485105.95903,37.77932961198018,-122.4388616372626,56.94937,-1,-1,10,65,-9999,1425485133.135046,-14.1180305480957,-41.20716857910156,14.16285705566406,164.1262664794922,150.3498229980469,10,236483.27101425,-0.019256591796875,-0.904998779296875,-0.2745208740234375,236483.266353,0.6071724990305115,-0.1289425368144755,-0.538493569259003,236483.2145760417,2.731588408545755,-0.8438188417081667,1.347143044295505,0.6626492142677307,0.4155204594135284,-0.3518165349960327,0.09113658964633942,0.03458770364522934,-0.03766635432839394,XTrueNorthZVertical,0.4292125665615219,0.4920089674067725,0.6461288437466813,0.3952485787228512,-0.1657215505838394,-0.9750936627388,-0.1474075019359589,-15.64529323577881,-41.44873809814453,13.44725799560547,2,192.168.1.8,10.83.46.32,1,0
2015-03-04 08:05:33.235,92,1425485105.95903,37.77932961198018,-122.4388616372626,56.94937,-1,-1,10,65,-9999,1425485133.186882,-13.72583770751953,-40.88429260253906,14.7120361328125,162.8360595703125,149.0596160888672,10,236483.320040125,-0.21380615234375,-1.096343994140625,0.028594970703125,236483.3181300834,0.3296391555111739,-1.48129920046613,0.004999552314405754,236483.266353,2.769342380931428,-0.8644012746674254,1.388321585618172,0.594599723815918,-0.1183696836233139,-0.5033501982688904,0.1362103074789047,0.03356852754950523,-0.1777138113975525,XTrueNorthZVertical,0.4238788628305341,0.5113049558283947,0.6362743164807908,0.3924909157988035,-0.1380413621664047,-0.9833976030349731,-0.1177879050374031,-15.08655071258545,-41.3338737487793,14.40516471862793,2,192.168.1.8,10.83.46.32,1,0
2015-03-04 08:05:33.287,93,1425485105.95903,37.77932961198018,-122.4388616372626,56.94937,-1,-1,10,65,-9999,1425485133.238347,-12.78798294067383,-40.56138610839844,16.12657165527344,164.0544281005859,150.2779846191406,10,236483.369103125,-0.5185546875,-0.83917236328125,-0.06292724609375,236483.3699057917,-0.01625327213275359,0.454604261237616,0.07539994941454141,236483.3181300834,2.874857760940544,-1.022738393133527,1.412529960774219,0.3170665204524994,-1.470726370811462,0.04014259204268456,-0.04993952065706253,-0.09164533764123917,0.0171006191521883,XTrueNorthZVertical,0.4442623948789384,0.5114408709412301,0.6153438288439115,0.4030028602105512,-0.1345239728689194,-0.9875019788742065,-0.08211831748485565,-14.42650413513184,-41.28971481323242,15.18675231933594,2,192.168.1.8,10.83.46.32,1,0
2015-03-04 08:05:33.336,94,1425485105.95903,37.77932961198018,-122.4388616372626,56.94937,-1,-1,10,65,-9999,1425485133.291405,-11.71372222900391,-40.00059509277344,17.24156188964844,167.2880401611328,153.5115966796875,10,236483.4181257917,0.0986328125,-1.018203735351562,0.0487823486328125,236483.3699057917,-0.01625327213275359,0.454604261237616,0.07539994941454141,236483.3699057917,2.874184022923982,-1.048234405820741,1.404972205641922,-0.02882578782737255,0.465176910161972,0.1105426028370857,-0.3755176961421967,0.1471102982759476,0.01945757307112217,XTrueNorthZVertical,0.4531223597281795,0.5034756379039083,0.6117842854106746,0.4085493486508486,-0.1430369913578033,-0.9862826466560364,-0.08238481730222702,-13.11968040466309,-40.97558212280273,17.10198211669922,2,192.168.1.8,10.83.46.32,1,0
2015-03-04 08:05:33.385,95,1425485105.95903,37.77932961198018,-122.4388616372626,56.94937,-1,-1,10,65,-9999,1425485133.347325,-11.85013580322266,-39.66073608398438,17.67424011230469,167.8455047607422,154.0690612792969,10,236483.467177875,0.1640472412109375,-1.057327270507812,0.061553955078125,236483.4734598334,-0.1582077477172472,-1.042427297052048,-0.05046290791536644,236483.4216827083,2.926133598800368,-1.030232983535434,1.405821804528056,0.2256098091602325,1.620853662490845,-0.005936691537499428,0.2394451498985291,-0.03178119659423828,0.1332972943782806,XTrueNorthZVertical,0.4341712808073964,0.5188813202357956,0.6258681122912439,0.3880035482521789,-0.1408123373985291,-0.9864225387573242,-0.08451494574546814,-13.98977184295654,-40.86428833007812,16.67327690124512,2,192.168.1.8,10.83.46.32,1,0
2015-03-04 08:05:33.434,96,1425485105.95903,37.77932961198018,-122.4388616372626,56.94937,-1,-1,10,65,-9999,1425485133.420856,-12.37874221801758,-40.25552368164062,17.32476806640625,165.7756195068359,151.9991760253906,10,236483.516210125,-0.2101593017578125,-1.00677490234375,0.1233062744140625,236483.4734598334,-0.1582077477172472,-1.042427297052048,-0.05046290791536644,236483.4734598334,2.959511564341016,-1.055590132491018,1.410376577791805,-0.1707800179719925,-1.031854867935181,-0.0153209250420332,0.3030459880828857,-0.0701669454574585,0.1402569711208344,XTrueNorthZVertical,0.4328302797397884,0.5227871850413928,0.625463495790843,0.3848988133741574,-0.1389987468719482,-0.987160325050354,-0.07870301604270935,-14.76672172546387,-40.7508544921875,16.27617263793945,2,192.168.1.8,10.83.46.32,1,0
2015-03-04 08:05:33.483,97,1425485105.95903,37.77932961198018,-122.4388616372626,56.94937,-1,-1,10,65,-9999,1425485133.472569,-12.0377082824707,-40.32350158691406,17.55774307250977,167.3054046630859,153.5289611816406,10,236483.5652735,-0.0961761474609375,-1.013626098632812,0.0865478515625,236483.525235625,-0.0510932781453882,-0.2879287265183529,-0.08071109157648643,236483.525235625,2.927235700725783,-1.072093591298792,1.40532981120732,-0.06366542726755142,-0.2773563861846924,-0.04556945711374283,-0.06550732254981995,-0.02043328061699867,0.2020865231752396,XTrueNorthZVertical,0.4469568482894846,0.5107244353264524,0.61701017990157,0.3983575502388558,-0.1446519792079926,-0.9863415956497192,-0.07878025621175766,-14.02922821044922,-40.76932525634766,16.87141418457031,2,192.168.1.8,10.83.46.32,1,0
2015-03-04 08:05:33.536,98,1425485105.95903,37.77932961198018,-122.4388616372626,56.94937,-1,-1,10,65,-9999,1425485133.524475,-12.10591888427734,-40.22154235839844,17.59103393554688,166.9629974365234,153.1865539550781,10,236483.61442075,0.04608154296875,-1.059371948242188,0.061798095703125,236483.5770125,-0.02153831531601584,0.4974460010615027,-0.1054832834041855,236483.5770125,2.916349516976903,-1.040956652796813,1.408041868827304,-0.03411032631993294,0.5080181956291199,-0.0703420415520668,0.08635374158620834,-0.03112911432981491,0.1146690025925636,XTrueNorthZVertical,0.4397714754587317,0.5154168100976486,0.6209456901272928,0.3941740531298543,-0.1398205459117889,-0.9867846965789795,-0.08189312368631363,-13.97939491271973,-40.82061004638672,16.78857612609863,2,192.168.1.8,10.83.46.32,1,0
2015-03-04 08:05:33.581,99,1425485105.95903,37.77932961198018,-122.4388616372626,56.94937,-1,-1,10,65,-9999,1425485133.524475,-12.10591888427734,-40.22154235839844,17.59103393554688,166.9629974365234,153.1865539550781,10,236483.6633717917,-0.1547698974609375,-0.9562530517578125,0.0475921630859375,236483.6287894583,-0.4929734883268236,-0.3154429090043975,0.0626684415073086,236483.6287894583,2.864711103597032,-0.9878408776836604,1.400958654566871,-0.5055453777313232,-0.3048708140850067,0.09780933707952499,0.1496827304363251,-0.06709164381027222,0.140256941318512,XTrueNorthZVertical,0.4373036839574718,0.5120960493192294,0.6245465761800011,0.3955564074282725,-0.1411072909832001,-0.9856122136116028,-0.09304624795913696,-14.14733505249023,-40.85865020751953,16.55371856689453,2,192.168.1.8,10.83.46.32,1,0
2015-03-04 08:05:33.621,100,1425485105.95903,37.77932961198018,-122.4388616372626,56.94937,-1,-1,10,65,-9999,1425485133.576938,-11.88425445556641,-40.44247436523438,16.80887222290039,166.77294921875,152.9965057373047,10,236483.7125065833,-0.128753662109375,-1.052276611328125,-0.103729248046875,236483.6805655417,-0.4562562200617922,-0.2814777514098539,0.1962984081564325,236483.6805655417,2.771809694895754,-0.9168633701106014,1.376221549897254,-0.4688279926776886,-0.2709057331085205,0.2314389795064926,-0.00182717596180737,0.0367635190486908,0.1951472461223602,XTrueNorthZVertical,0.4407120673627093,0.4969549294124056,0.6292164938658772,0.4036030830749341,-0.1534615159034729,-0.9811300039291382,-0.1176173463463783,-14.23768043518066,-41.23212814331055,15.51779174804688,2,192.168.1.8,10.83.46.32,1,0
2015-03-04 08:05:33.680,101,1425485105.95903,37.77932961198018,-122.4388616372626,56.94937,-1,-1,10,65,-9999,1425485133.627965,-11.96950531005859,-40.59539794921875,15.82701110839844,166.7677917480469,152.9913482666016,10,236483.7614614583,-0.1143798828125,-0.94744873046875,-0.150421142578125,236483.7323423334,-0.8898862235022712,0.1415249077006639,0.2744691103690924,236483.7323423334,2.684625103828584,-0.8274915308020397,1.344878804804877,-0.9024578332901001,0.1520968079566956,0.3096092939376831,0.08763209730386734,-0.01128136925399303,0.05995820090174675,XTrueNorthZVertical,0.4355269404626975,0.4842754073727495,0.6409564696658679,0.4061632565182244,-0.1649178713560104,-0.9745889902114868,-0.1515872329473495,-14.58569526672363,-41.45640182495117,14.56797790527344,2,192.168.1.8,10.83.46.32,1,0
2015-03-04 08:05:33.720,102,1425485105.95903,37.77932961198018,-122.4388616372626,56.94937,-1,-1,10,65,-9999,1425485133.682809,-12.65157318115234,-41.03720092773438,14.26269912719727,166.1120147705078,152.3355712890625,10,236483.8104980834,-0.1692657470703125,-0.98431396484375,-0.2911224365234375,236483.7841192083,-1.058032355775476,-0.4470627216627296,0.579530484812143,236483.7841192083,2.617473395432468,-0.7750462218619832,1.29007978927015,-1.070603847503662,-0.436490923166275,0.6146703362464905,0.07833749055862427,-0.05685828253626823,0.07848706841468811,XTrueNorthZVertical,0.4358691278254128,0.4594119058877432,0.655702703214211,0.4111118365381179,-0.1938617825508118,-0.9608571529388428,-0.1979176104068756,-15.03425407409668,-41.68842315673828,13.40329742431641,2,192.168.1.8,10.83.46.32,1,0
2015-03-04 08:05:33.778,103,1425485105.95903,37.77932961198018,-122.4388616372626,56.94937,-1,-1,10,65,-9999,1425485133.757658,-13.79404830932617,-41.69993591308594,11.98280334472656,165.865234375,152.0887908935547,10,236483.859547625,-0.6067352294921875,-0.8601531982421875,-0.2167510986328125,236483.8358951667,-1.308650195421819,-1.042431025477574,0.5081620286557635,236483.8358951667,2.533353223722096,-0.7369604561289255,1.222151028886546,-1.321221590042114,-1.031859278678894,0.543301522731781,0.01642064936459064,-0.001478322199545801,0.1075928062200546,XTrueNorthZVertical,0.4417539549781825,0.4223318236712009,0.6671070863378988,0.4259783824800422,-0.2295859307050705,-0.9398363828659058,-0.2529785335063934,-16.38312721252441,-42.04164886474609,10.37759399414062,2,192.168.1.8,10.83.46.32,1,0
2015-03-04 08:05:33.816,104,1425485105.95903,37.77932961198018,-122.4388616372626,56.94937,-1,-1,10,65,-9999,1425485133.757658,-13.79404830932617,-41.69993591308594,11.98280334472656,165.865234375,152.0887908935547,10,236483.9085791667,-0.460968017578125,-0.9733428955078125,-0.2847900390625,236483.88767225,-1.115844789351134,-0.2425809521087016,0.4753918314423385,236483.88767225,2.481480885550595,-0.7253404359746171,1.162768250002311,-1.128415942192078,-0.2320093512535095,0.5105310082435608,-0.512187659740448,0.07772562652826309,-0.006521029397845268,XTrueNorthZVertical,0.4468909694480401,0.3896547658187497,0.6760248325651964,0.437547967270546,-0.263233482837677,-0.9179050922393799,-0.2969152629375458,-16.97470664978027,-42.18727493286133,8.700274467468262,2,192.168.1.8,10.83.46.32,1,0
2015-03-04 08:05:33.875,105,1425485105.95903,37.77932961198018,-122.4388616372626,56.94937,-1,-1,10,65,-9999,1425485133.862934,-15.94257736206055,-42.20974731445312,7.090156555175781,165.5843505859375,151.8079071044922,10,236483.95763675,0.49737548828125,-0.77618408203125,-0.5584869384765625,236483.9394490417,-1.457042862941579,3.326192594025835,0.5057859563311948,236483.9394490417,2.437784673719297,-0.5842238926150169,1.096664125536693,-1.469613909721375,3.336764097213745,0.5409247279167175,0.4594925045967102,-0.1039020419120789,-0.2129244655370712,XTrueNorthZVertical,0.4027574525711637,0.3838828400650228,0.7154201743968156,0.4226044800695931,-0.2518203854560852,-0.8896892666816711,-0.3808408081531525,-17.56135177612305,-42.19318771362305,7.411870956420898,2,192.168.1.8,10.83.46.32,1,0
2015-03-04 08:05:33.914,106,1425485105.95903,37.77932961198018,-122.4388616372626,56.94937,-1,-1,10,65,-9999,1425485133.862934,-15.94257736206055,-42.20974731445312,7.090156555175781,165.5843505859375,151.8079071044922,10,236484.0066765833,0.3199005126953125,-0.74932861328125,-0.3531494140625,236483.991225125,-1.190797327702542,-0.468450568377156,0.1570777684667266,236483.9394490417,2.437784673719297,-0.5842238926150169,1.096664125536693,-1.469613909721375,3.336764097213745,0.5409247279167175,0.4594925045967102,-0.1039020419120789,-0.2129244655370712,XTrueNorthZVertical,0.4027574525711637,0.3838828400650228,0.7154201743968156,0.4226044800695931,-0.2518203854560852,-0.8896892666816711,-0.3808408081531525,-17.56135177612305,-42.19318771362305,7.411870956420898,2,192.168.1.8,10.83.46.32,1,0
2015-03-04 08:05:33.974,107,1425485105.95903,37.77932961198018,-122.4388616372626,56.94937,-1,-1,10,65,-9999,1425485133.964965,-18.29572296142578,-42.10780334472656,1.3321533203125,159.4338531494141,145.6574096679688,10,236484.0558072917,-0.6569366455078125,-1.425323486328125,-0.71893310546875,236484.0430019167,0.1224886322287775,-2.568250023570449,-0.1947058378245652,236484.0430019167,2.383413871933962,-0.5436626007085803,1.013922325871556,0.1099177375435829,-2.557678699493408,-0.1595677137374878,0.0287381187081337,-0.4353750348091125,0.2411188185214996,XTrueNorthZVertical,0.3911425486488336,0.3476233851610198,0.7340909724969844,0.4327540939505731,-0.2733975350856781,-0.848911464214325,-0.4523309767246246,-19.99969291687012,-41.74375915527344,-1.035797119140625,2,192.168.1.8,10.83.46.32,1,0
2015-03-04 08:05:34.018,108,1425485105.95903,37.77932961198018,-122.4388616372626,56.94937,-1,-1,10,65,-9999,1425485133.964965,-18.29572296142578,-42.10780334472656,1.3321533203125,159.4338531494141,145.6574096679688,10,236484.104787,-0.7191925048828125,-0.372589111328125,-0.0923004150390625,236484.094779,0.2435263742956797,-0.6419991892376957,0.1613313693598012,236484.0430019167,2.383413871933962,-0.5436626007085803,1.013922325871556,0.1099177375435829,-2.557678699493408,-0.1595677137374878,0.0287381187081337,-0.4353750348091125,0.2411188185214996,XTrueNorthZVertical,0.3911425486488336,0.3476233851610198,0.7340909724969844,0.4327540939505731,-0.2733975350856781,-0.848911464214325,-0.4523309767246246,-19.99969291687012,-41.74375915527344,-1.035797119140625,2,192.168.1.8,10.83.46.32,1,0
2015-03-04 08:05:34.072,109,1425485105.95903,37.77932961198018,-122.4388616372626,56.94937,-1,-1,10,65,-9999,1425485134.068447,-18.36393356323242,-42.07383728027344,2.430496215820312,164.4627990722656,150.6863555908203,10,236484.15384,-0.54364013671875,-1.182891845703125,-0.5523529052734375,236484.1465547917,0.8948591442057762,3.112215589921238,0.3430569600313201,236484.094779,2.397183401324772,-0.6505665583429581,0.9931891519077756,0.2309556007385254,-0.6314280033111572,0.1964691430330276,-0.2238441854715347,0.3598052561283112,0.08030420541763306,XTrueNorthZVertical,0.4259153706091228,0.3183559142412108,0.7206887216669423,0.4448073160543412,-0.3306907415390015,-0.8377715945243835,-0.4344912171363831,-19.87351608276367,-41.81418609619141,0.4677162170410156,2,192.168.1.8,10.83.46.32,1,0
2015-03-04 08:05:34.112,110,1425485105.95903,37.77932961198018,-122.4388616372626,56.94937,-1,-1,10,65,-9999,1425485134.068447,-18.36393356323242,-42.07383728027344,2.430496215820312,164.4627990722656,150.6863555908203,10,236484.202859125,0.5304412841796875,-0.8016510009765625,-0.5167694091796875,236484.1983318334,-0.3237120241890936,2.510978211696077,-0.06403171366932016,236484.1465547917,2.448883037793876,-0.6314457483602025,1.016513390473109,0.8822885155677795,3.122786521911621,0.3781943321228027,-0.3645610511302948,-0.1994197964668274,0.07891152799129486,XTrueNorthZVertical,0.4121858588752737,0.3430467173553371,0.7298045936895692,0.424036785540411,-0.3107014000415802,-0.8502780795097351,-0.4248435497283936,-20.67790985107422,-41.38246154785156,1.875524520874023,2,192.168.1.8,10.83.46.32,1,0
2015-03-04 08:05:34.170,111,1425485105.95903,37.77932961198018,-122.4388616372626,56.94937,-1,-1,10,65,-9999,1425485134.119822,-18.7049674987793,-42.07383728027344,1.531852722167969,160.035888671875,146.2594451904297,10,236484.2519219167,0.1419830322265625,-1.06439208984375,-0.8511199951171875,236484.2501086667,-1.498937316365724,-2.850893973221649,0.5651667254728007,236484.2501086667,2.458465773227199,-0.4998284703853893,0.9890938049517491,-1.511542677879333,-2.840356349945068,0.6003361344337463,0.4926454722881317,-0.2508058249950409,-0.1735463440418243,XTrueNorthZVertical,0.3591567467323153,0.3604040980824925,0.7642532319189833,0.3962732489965149,-0.2633363902568817,-0.8355284333229065,-0.4822306334972382,-20.79996490478516,-41.30519866943359,-2.200799942016602,2,192.168.1.8,10.83.46.32,1,0
2015-03-04 08:05:34.209,112,1425485105.95903,37.77932961198018,-122.4388616372626,56.94937,-1,-1,10,65,-9999,1425485134.172132,-19.43819427490234,-41.75096130371094,0.0507354736328125,156.4834136962891,142.7069702148438,10,236484.3010615833,-0.22393798828125,-0.6564788818359375,0.1928558349609375,236484.2501086667,-1.498937316365724,-2.850893973221649,0.5651667254728007,236484.2501086667,2.458465773227199,-0.4998284703853893,0.9890938049517491,-1.511542677879333,-2.840356349945068,0.6003361344337463,0.4926454722881317,-0.2508058249950409,-0.1735463440418243,XTrueNorthZVertical,0.3591567467323153,0.3604040980824925,0.7642532319189833,0.3962732489965149,-0.2633363902568817,-0.8355284333229065,-0.4822306334972382,-20.79996490478516,-41.30519866943359,-2.200799942016602,2,192.168.1.8,10.83.46.32,1,0
2015-03-04 08:05:34.268,113,1425485105.95903,37.77932961198018,-122.4388616372626,56.94937,-1,-1,10,65,-9999,1425485134.22415,-20.13732147216797,-41.80194091796875,-0.931121826171875,159.6725311279297,145.8960876464844,10,236484.3500147917,-0.7495269775390625,-0.671783447265625,-0.647491455078125,236484.3536615417,-1.051225582345342,0.808141825422834,0.1992161674467234,236484.3018845833,2.396687159549226,-0.6043379186287638,0.9062492883730423,-1.744754195213318,-2.908691167831421,0.1352133452892303,0.1264832466840744,0.1307173222303391,0.7003272771835327,XTrueNorthZVertical,0.401304989480729,0.2919222283464182,0.7520901083520942,0.4337007723545452,-0.3504212200641632,-0.7871962189674377,-0.5074714422225952,-22.44295120239258,-40.42487335205078,-2.396928787231445,2,192.168.1.8,10.83.46.32,1,0
2015-03-04 08:05:34.307,114,1425485105.95903,37.77932961198018,-122.4388616372626,56.94937,-1,-1,10,65,-9999,1425485134.282161,-20.92170715332031,-41.59800720214844,-2.096031188964844,163.4042205810547,149.6277770996094,10,236484.3990425417,-0.487762451171875,-0.56103515625,-0.106658935546875,236484.3536615417,-1.051225582345342,0.808141825422834,0.1992161674467234,236484.3536615417,2.353918561417935,-0.6119942033083697,0.8329739484804826,-1.063830614089966,0.8186792731285095,0.2343848645687103,-0.3630726933479309,0.06815170496702194,-0.09690157324075699,XTrueNorthZVertical,0.4024302604491027,0.2505093697246429,0.7585089231629586,0.4471681201115064,-0.3864542841911316,-0.7399351596832275,-0.5505898594856262,-23.27228355407715,-39.88315963745117,-3.366897583007812,2,192.168.1.8,10.83.46.32,1,0
2015-03-04 08:05:34.366,115,1425485105.95903,37.77932961198018,-122.4388616372626,56.94937,-1,-1,10,65,-9999,1425485134.35293,-22.86561584472656,-40.27255249023438,-5.091522216796875,162.4267425537109,148.6502990722656,10,236484.44810625,-0.438934326171875,-0.6329193115234375,-0.6193389892578125,236484.4054386667,-0.7541835185767386,-0.243535162727277,1.430094069554958,236484.4054386667,2.361001307033932,-0.6160772783163833,0.7691600512424297,-0.7667885422706604,-0.232997789978981,1.465262413024902,-0.07258854806423187,0.1344968229532242,0.4797419607639313,XTrueNorthZVertical,0.3959276708033425,0.2236980641101258,0.7736187164649279,0.4412648979327943,-0.4151739180088043,-0.695531964302063,-0.5864009261131287,-23.54999160766602,-39.52490615844727,-5.175048828125,2,192.168.1.8,10.83.46.32,1,0
2015-03-04 08:05:34.406,116,1425485105.95903,37.77932961198018,-122.4388616372626,56.94937,-1,-1,10,65,-9999,1425485134.35293,-22.86561584472656,-40.27255249023438,-5.091522216796875,162.4267425537109,148.6502990722656,10,236484.4972405417,-0.0794525146484375,-0.68426513671875,-0.5964813232421875,236484.4572145834,-0.5807933558010586,1.888266434021062,1.083618675948412,236484.4572145834,2.404765807953473,-0.5918457688543886,0.7136918351504936,-0.5933982729911804,1.8988037109375,1.118786692619324,-0.01719432137906551,0.02170975878834724,0.008033530786633492,XTrueNorthZVertical,0.3752508645845135,0.2133085292349088,0.7994479240227894,0.4178150904009176,-0.4217399954795837,-0.6546290516853333,-0.6273725032806396,-26.48093414306641,-37.14496994018555,-7.912853240966797,2,192.168.1.8,10.83.46.32,1,0
2015-03-04 08:05:34.487,117,1425485105.95903,37.77932961198018,-122.4388616372626,56.94937,-1,-1,10,65,-9999,1425485134.458226,-26.82163238525391,-36.22817993164062,-11.24892425537109,152.2613220214844,138.4848785400391,10,236484.546196625,0.1041717529296875,-0.6757659912109375,-0.4757232666015625,236484.508991375,-1.391154659676365,1.656952783852268,1.132502063021253,236484.508991375,2.43444984411775,-0.5109879405895444,0.6380957000526335,-1.403759360313416,1.667490005493164,1.16766881942749,0.306889533996582,-0.1316127330064774,-0.2152042835950851,XTrueNorthZVertical,0.3302058645622783,0.2016183693420978,0.8344345623100321,0.3924707051256651,-0.3928117752075195,-0.5956669449806213,-0.7006282210350037,-27.51565551757812,-35.40449142456055,-11.53309440612793,2,192.168.1.8,10.83.46.32,1,0
2015-03-04 08:05:34.504,118,1425485105.95903,37.77932961198018,-122.4388616372626,56.94937,-1,-1,10,65,-9999,1425485134.458226,-26.82163238525391,-36.22817993164062,-11.24892425537109,152.2613220214844,138.4848785400391,10,236484.5952375834,-0.466217041015625,-0.604461669921875,-0.6746673583984375,236484.5607683334,-1.790467435626192,-0.5299493495337018,1.015953611603897,236484.5607683334,2.444685158802132,-0.5047353481687782,0.54656087107756,-1.803071975708008,-0.5194121599197388,1.051120042800903,0.4297439157962799,-0.09778624773025513,0.1801742017269135,XTrueNorthZVertical,0.3152157950567217,0.1635422123873756,0.8533448535719168,0.3817010364190606,-0.4131270945072174,-0.5197522044181824,-0.7477858662605286,-28.06279945373535,-33.92194366455078,-14.33117198944092,2,192.168.1.8,10.83.46.32,1,0
2015-03-04 08:05:34.570,119,1425485105.95903,37.77932961198018,-122.4388616372626,56.94937,-1,-1,10,65,-9999,1425485134.509963,-28.71437835693359,-33.90011596679688,-14.39419555664062,148.7747039794922,134.9982604980469,10,236484.644286625,-0.7433929443359375,-0.5190887451171875,-0.5904083251953125,236484.612544375,-1.404731454913589,-1.330646840761437,1.173697436659253,236484.612544375,2.467551233242325,-0.5892506813946027,0.4541620297060412,-1.417335033416748,-1.320109724998474,1.208863377571106,0.0008826000266708434,-0.1171224638819695,0.1561547070741653,XTrueNorthZVertical,0.338249187944966,0.1097568815685899,0.8582770768273855,0.370002089456813,-0.4994024932384491,-0.4387094378471375,-0.7470818161964417,-31.61647415161133,-29.60660552978516,-16.3538703918457,2,192.168.1.8,10.83.46.32,1,0
2015-03-04 08:05:34.601,120,1425485105.95903,37.77932961198018,-122.4388616372626,56.94937,-1,-1,10,65,-9999,1425485134.566061,-31.66435241699219,-31.30014038085938,-15.67560577392578,148.5348815917969,134.7584381103516,10,236484.6934438334,-0.5342864990234375,-0.2241973876953125,-0.8584136962890625,236484.6643212083,-1.078789299627663,0.1618525499851297,0.8651052432429749,236484.6643212083,2.47380405917459,-0.6146424411116083,0.3826125291983273,-1.091392755508423,0.1723895519971848,0.9002707004547119,-0.07129309326410294,-0.172858253121376,0.1689624339342117,XTrueNorthZVertical,0.3399805375750741,0.07389370292571451,0.8652295421071953,0.3610138047359452,-0.5349690914154053,-0.3733453750610352,-0.757905900478363,-33.69933700561523,-27.13051986694336,-16.4891242980957,2,192.168.1.8,10.83.46.32,1,0
2015-03-04 08:05:34.669,121,1425485105.95903,37.77932961198018,-122.4388616372626,56.94937,-1,-1,10,65,-9999,1425485134.638926,-34.54611968994141,-26.93287658691406,-17.05686187744141,144.8522644042969,131.0758209228516,10,236484.7423852083,-0.343963623046875,-0.3667144775390625,-0.8160858154296875,236484.7160982917,-0.9083613709324779,0.5825766084669757,0.5997508017046786,236484.7160982917,2.48181799657866,-0.5748688016585755,0.3128004397087746,-0.9209647178649902,0.5931135416030884,0.6349159479141235,0.01052007917314768,-0.008147803135216236,-0.1141198351979256,XTrueNorthZVertical,0.3133202992937281,0.05060593097748489,0.8818873946911264,0.3486319346992593,-0.5173407793045044,-0.3077243864536285,-0.798538863658905,-34.35313415527344,-25.68896865844727,-17.42241287231445,2,192.168.1.8,10.83.46.32,1,0
2015-03-04 08:05:34.699,122,1425485105.95903,37.77932961198018,-122.4388616372626,56.94937,-1,-1,10,65,-9999,1425485134.691047,-35.39870452880859,-24.62179565429688,-18.65445709228516,142.3251495361328,128.5487060546875,10,236484.7914211667,-0.6695556640625,-0.156341552734375,-0.89837646484375,236484.7678742917,-0.9703879906170774,-0.3151848486947688,0.6225258890309273,236484.7678742917,2.481094761243137,-0.576771898805183,0.2535425859850975,-0.9829912185668945,-0.3046480417251587,0.657690703868866,0.2035461366176605,-0.01068553049117327,0.1169864237308502,XTrueNorthZVertical,0.3061835362838553,0.02317443059225918,0.8879594663270158,0.3424072824028994,-0.5278869271278381,-0.2508348524570465,-0.8114292025566101,-35.00956726074219,-22.21968269348145,-20.59654426574707,2,192.168.1.8,10.83.46.32,1,0
2015-03-04 08:05:34.767,123,1425485105.95903,37.77932961198018,-122.4388616372626,56.94937,-1,-1,10,65,-9999,1425485134.747073,-36.31949615478516,-22.24273681640625,-19.32012176513672,141.8162536621094,128.0398101806641,10,236484.8404856667,-0.53790283203125,-0.141754150390625,-0.8340911865234375,236484.8196510417,-0.946143104685214,-0.2758563509809147,0.4954989639885458,236484.8196510417,2.484651566285966,-0.610138568450828,0.1945270997943445,-0.9587450623512268,-0.2653200328350067,0.53066486120224,0.06922372430562973,-0.05332523211836815,0.09346334636211395,XTrueNorthZVertical,0.3128382237222704,-0.00876245134060597,0.8891550900558827,0.3338545552473017,-0.5621741414070129,-0.1933025717735291,-0.8041109442710876,-36.22240447998047,-20.1475830078125,-20.63041114807129,2,192.168.1.8,10.83.46.32,1,0
2015-03-04 08:05:34.798,124,1425485105.95903,37.77932961198018,-122.4388616372626,56.94937,-1,-1,10,65,-9999,1425485134.747073,-36.31949615478516,-22.24273681640625,-19.32012176513672,141.8162536621094,128.0398101806641,10,236484.889517875,-0.3565826416015625,-0.2588653564453125,-0.7986297607421875,236484.8714281667,-1.167948737130208,-0.1615359001315192,0.4355200488661082,236484.8714281667,2.474403595556962,-0.6025372198609938,0.1314954593501858,-1.180550575256348,-0.1509996950626373,0.4706855714321136,0.139692410826683,-0.1409473717212677,-0.02931228466331959,XTrueNorthZVertical,0.3003118178113905,-0.03766998499724539,0.8939821459435848,0.330438920307655,-0.5618420839309692,-0.1311168372631073,-0.8167875409126282,-36.8006591796875,-18.91878128051758,-20.77000045776367,2,192.168.1.8,10.83.46.32,1,0
2015-03-04 08:05:34.868,125,1425485105.95903,37.77932961198018,-122.4388616372626,56.94937,-1,-1,10,65,-9999,1425485134.820824,-37.92237091064453,-18.77613830566406,-20.28533172607422,139.6236572265625,125.8472137451172,10,236484.93858,-0.5887603759765625,0.076995849609375,-0.753814697265625,236484.9232039167,-1.219511796891886,-0.7478968605074975,0.6106556474202262,236484.9232039167,2.46266557125558,-0.6257880910321109,0.06781338331554224,-1.232113480567932,-0.7373605966567993,0.645820140838623,-0.04117463529109955,0.09991168975830078,0.09345944970846176,XTrueNorthZVertical,0.300820797062835,-0.07202362915108682,0.8931607053582302,0.3264713958515147,-0.5843899250030518,-0.06776142120361328,-0.808638870716095,-37.64633560180664,-15.53362083435059,-22.02411270141602,2,192.168.1.8,10.83.46.32,1,0
2015-03-04 08:05:34.896,126,1425485105.95903,37.77932961198018,-122.4388616372626,56.94937,-1,-1,10,65,-9999,1425485134.872192,-38.94547271728516,-16.46505737304688,-20.6181640625,139.4517364501953,125.67529296875,10,236484.9876144583,-0.7014007568359375,0.118804931640625,-0.8592529296875,236484.974980875,-0.7750576415168886,-0.7104525492648744,0.763037197620707,236484.9232039167,2.46266557125558,-0.6257880910321109,0.06781338331554224,-1.232113480567932,-0.7373605966567993,0.645820140838623,-0.04117463529109955,0.09991168975830078,0.09345944970846176,XTrueNorthZVertical,0.300820797062835,-0.07202362915108682,0.8931607053582302,0.3264713958515147,-0.5843899250030518,-0.06776142120361328,-0.808638870716095,-37.64633560180664,-15.53362083435059,-22.02411270141602,2,192.168.1.8,10.83.46.32,1,0
2015-03-04 08:05:34.970,127,1425485105.95903,37.77932961198018,-122.4388616372626,56.94937,-1,-1,10,65,-9999,1425485134.92382,-39.98563385009766,-14.03501892089844,-20.33525848388672,139.1237640380859,125.3473281860352,10,236485.0366638333,-0.5681304931640625,0.078460693359375,-0.8739013671875,236485.0267578333,-0.8720616863263708,0.2258384572837005,0.1414250391597859,236485.0267578333,2.450523638658603,-0.65585444080789,-0.04322415619100647,-0.8846631050109863,0.2363745123147964,0.1765888184309006,0.03929024934768677,0.0698874443769455,0.01757124438881874,XTrueNorthZVertical,0.296044437265812,-0.1283129777848115,0.8929056510034743,0.314027295483825,-0.6092670559883118,0.04321069642901421,-0.7917869687080383,-39.27539443969727,-11.95255470275879,-21.40517234802246,2,192.168.1.8,10.83.46.32,1,0
2015-03-04 08:05:34.994,128,1425485105.95903,37.77932961198018,-122.4388616372626,56.94937,-1,-1,10,65,-9999,1425485134.975711,-40.53129577636719,-12.13177490234375,-20.73465728759766,138.1096343994141,124.3331909179688,10,236485.0856989583,-0.5603790283203125,0.1344451904296875,-0.8358612060546875,236485.0785339584,-0.8138676217665044,-0.2467647781812161,0.1875014544436828,236485.0267578333,2.450523638658603,-0.65585444080789,-0.04322415619100647,-0.8846631050109863,0.2363745123147964,0.1765888184309006,0.03929024934768677,0.0698874443769455,0.01757124438881874,XTrueNorthZVertical,0.296044437265812,-0.1283129777848115,0.8929056510034743,0.314027295483825,-0.6092670559883118,0.04321069642901421,-0.7917869687080383,-39.27539443969727,-11.95255470275879,-21.40517234802246,2,192.168.1.8,10.83.46.32,1,0
2015-03-04 08:05:35.070,129,1425485105.95903,37.77932961198018,-122.4388616372626,56.94937,-1,-1,10,65,-9999,1425485135.027466,-41.00874328613281,-10.22853088378906,-21.06749725341797,137.6495513916016,123.8731079101562,10,236485.1347655,-0.6080780029296875,0.1333465576171875,-0.7670745849609375,236485.1303107917,-0.6575283478700568,-0.3083367962677391,0.1643111803034908,236485.0785339584,2.435469503487616,-0.6576414962645555,-0.0847733704641198,-0.8264689445495605,-0.2362288385629654,0.2226648479700089,0.09636158496141434,0.04882727563381195,-0.01803139969706535,XTrueNorthZVertical,0.2888696023411695,-0.1491890409314854,0.8919808726297986,0.3141134807337019,-0.6090568900108337,0.08467186987400055,-0.7885939478874207,-39.46633911132812,-9.43282413482666,-22.29419708251953,2,192.168.1.8,10.83.46.32,3,0
2015-03-04 08:05:35.092,130,1425485105.95903,37.77932961198018,-122.4388616372626,56.94937,-1,-1,10,65,-9999,1425485135.081966,-41.60555267333984,-9.259902954101562,-21.08412933349609,137.8894805908203,124.1130447387695,10,236485.1839000417,-0.7322235107421875,0.1529998779296875,-0.714263916015625,236485.18208775,-0.4087899010049829,-0.6020597623697773,0.2911543472306569,236485.1303107917,2.421080359466477,-0.6799213424675349,-0.1187658545733849,-0.6701284050941467,-0.2978017032146454,0.1994766443967819,-0.01708507910370827,-3.286670107627288e-05,0.02911760844290257,XTrueNorthZVertical,0.2917710025727515,-0.169698294231409,0.8876693643749414,0.3132338480268207,-0.624302864074707,0.1184868440032005,-0.7721443176269531,-39.88514709472656,-8.291948318481445,-22.00046539306641,2,192.168.1.8,10.83.46.32,3,0
2015-03-04 08:05:35.165,131,1425485105.95903,37.77932961198018,-122.4388616372626,56.94937,-1,-1,10,65,-9999,1425485135.156931,-42.59455871582031,-7.832489013671875,-20.48503112792969,137.8061370849609,124.0296936035156,10,236485.232851625,-0.7057342529296875,0.259552001953125,-0.783721923828125,236485.2338637084,-0.2158332273843818,-0.2379795423772627,0.1495098635970484,236485.18208775,2.411867422137481,-0.7008606963632232,-0.1389814767267348,-0.4213400781154633,-0.5915826559066772,0.3263644576072693,-0.06327718496322632,-0.02990716509521008,0.02734942175447941,XTrueNorthZVertical,0.2966593146679349,-0.1831237265358294,0.883786543510157,0.3120584405485809,-0.6386576294898987,0.1385344862937927,-0.7569178938865662,-40.16449737548828,-7.620183944702148,-21.73355674743652,2,192.168.1.8,10.83.46.32,3,0
2015-03-04 08:05:35.190,132,1425485105.95903,37.77932961198018,-122.4388616372626,56.94937,-1,-1,10,65,-9999,1425485135.156931,-42.59455871582031,-7.832489013671875,-20.48503112792969,137.8061370849609,124.0296936035156,10,236485.2820000417,-0.621978759765625,0.0680389404296875,-0.7175140380859375,236485.2338637084,-0.2158332273843818,-0.2379795423772627,0.1495098635970484,236485.2338637084,2.405990205743049,-0.7145294654405965,-0.1658977875200109,-0.2283898144960403,-0.2275054752826691,0.184734120965004,-0.05946860089898109,0.09441414475440979,-0.03869153186678886,XTrueNorthZVertical,0.2972920504080637,-0.1977428669254042,0.8816128125519105,0.3086652184737734,-0.6462656259536743,0.1651378571987152,-0.745030403137207,-40.86972045898438,-6.276612758636475,-20.82958602905273,2,192.168.1.8,10.83.46.32,3,0
2015-03-04 08:05:35.263,133,1425485105.95903,37.77932961198018,-122.4388616372626,56.94937,-1,-1,10,65,-9999,1425485135.21038,-42.78213500976562,-6.82989501953125,-19.76943206787109,136.8543548583984,123.0779113769531,10,236485.3309271667,-0.7032318115234375,0.3219451904296875,-0.816864013671875,236485.337417625,-0.02705425456578796,0.2093273911574272,0.03512949162312622,236485.285640875,2.407875339880225,-0.7292000148443912,-0.1888847927384681,-0.1079508662223816,0.1580539345741272,0.1821633577346802,0.03244438767433167,-0.1197246983647346,0.01493067014962435,XTrueNorthZVertical,0.2997639830178289,-0.2095690823405773,0.8802739120953221,0.3022256886888888,-0.6544231772422791,0.1877636462450027,-0.732444703578949,-41.35793304443359,-5.279377460479736,-20.13085174560547,2,192.168.1.8,10.83.46.32,3,0
2015-03-04 08:05:35.289,134,1425485105.95903,37.77932961198018,-122.4388616372626,56.94937,-1,-1,10,65,-9999,1425485135.263322,-42.73097991943359,-6.09918212890625,-19.68622589111328,136.4547424316406,122.6783065795898,10,236485.3799580834,-0.6842498779296875,0.2440643310546875,-0.9036865234375,236485.337417625,-0.02705425456578796,0.2093273911574272,0.03512949162312622,236485.337417625,2.418047334478449,-0.7233683692344653,-0.1965531534813844,-0.03962043300271034,0.2197917699813843,0.07039282470941544,-0.05406327918171883,0.126655176281929,-0.08171632885932922,XTrueNorthZVertical,0.296868085562273,-0.2104649560304117,0.8828283174642795,0.2969649422873976,-0.6491685509681702,0.1952900141477585,-0.7351476550102234,-41.32509994506836,-4.972085475921631,-20.27599716186523,2,192.168.1.8,10.83.46.32,3,0
2015-03-04 08:05:35.362,135,1425485105.95903,37.77932961198018,-122.4388616372626,56.94937,-1,-1,10,65,-9999,1425485135.338066,-42.57750701904297,-6.116180419921875,-20.06898498535156,136.3654174804688,122.5889739990234,10,236485.4290119584,-0.6019439697265625,0.159423828125,-0.75628662109375,236485.3891937083,0.1293553267834378,-0.2757583466527997,-0.1058063248444121,236485.3891937083,2.413249826405649,-0.719234485305759,-0.1950322135338254,0.116789273917675,-0.265294075012207,-0.07054333388805389,-0.03793096542358398,0.05026619136333466,-0.1656389385461807,XTrueNorthZVertical,0.2948152314523721,-0.2099051876475002,0.8826942585544453,0.2997912780989976,-0.6463189125061035,0.1937981396913528,-0.7380475997924805,-41.14073944091797,-4.655850410461426,-20.72110366821289,2,192.168.1.8,10.83.46.32,3,0
2015-03-04 08:05:35.387,136,1425485105.95903,37.77932961198018,-122.4388616372626,56.94937,-1,-1,10,65,-9999,1425485135.338066,-42.57750701904297,-6.116180419921875,-20.06898498535156,136.3654174804688,122.5889739990234,10,236485.4781823333,-0.54180908203125,0.21417236328125,-0.70074462890625,236485.4409705417,0.3126220887777856,0.0676059421683155,-0.2346777552577825,236485.4409705417,2.408386298585037,-0.7230818743593025,-0.1801044387875893,0.3000561892986298,0.07807010412216187,-0.1994151473045349,-0.04262321814894676,0.04405798390507698,-0.09850860387086868,XTrueNorthZVertical,0.298722252195404,-0.2048017503639367,0.8810630105448755,0.3042193346052074,-0.6509955525398254,0.1791323274374008,-0.7376425266265869,-41.24791717529297,-5.118641376495361,-20.39633560180664,2,192.168.1.8,10.83.46.32,3,0
2015-03-04 08:05:35.462,137,1425485105.95903,37.77932961198018,-122.4388616372626,56.94937,-1,-1,10,65,-9999,1425485135.442471,-42.28763580322266,-8.37628173828125,-20.21875762939453,138.3664398193359,124.5899963378906,10,236485.5271050417,-0.619964599609375,0.1208648681640625,-0.722991943359375,236485.4927476667,0.3197420499521124,0.4677805170468921,-0.6472288386702842,236485.4927476667,2.401915607412597,-0.7129711086014373,-0.1539290858557321,0.307176262140274,0.4782445430755615,-0.611966609954834,0.1199679523706436,0.02424459345638752,-0.0452159084379673,XTrueNorthZVertical,0.2983782233143656,-0.1929542520540131,0.8808783595353397,0.3127180538044271,-0.6463503837585449,0.1533219367265701,-0.747478187084198,-41.1627082824707,-5.592965126037598,-20.44386672973633,2,192.168.1.8,10.83.46.32,3,0
2015-03-04 08:05:35.484,138,1425485105.95903,37.77932961198018,-122.4388616372626,56.94937,-1,-1,10,65,-9999,1425485135.442471,-42.28763580322266,-8.37628173828125,-20.21875762939453,138.3664398193359,124.5899963378906,10,236485.5761369167,-0.730865478515625,0.146881103515625,-0.7782440185546875,236485.5445234583,0.6049479605719683,-0.3664903807790363,-0.5349390481520743,236485.5445234583,2.407977862809591,-0.7236937483183676,-0.1173660980521389,0.5923823118209839,-0.3560264110565186,-0.4996771216392517,0.01342157181352377,0.01502901967614889,0.1444478183984756,XTrueNorthZVertical,0.3102122219441905,-0.1779423663680761,0.8789727287372089,0.3154552373172831,-0.6576018929481506,0.117096833884716,-0.7442097663879395,-40.82249450683594,-7.653231143951416,-20.45857620239258,2,192.168.1.8,10.83.46.32,3,0
2015-03-04 08:05:35.563,139,1425485105.95903,37.77932961198018,-122.4388616372626,56.94937,-1,-1,10,65,-9999,1425485135.546797,-41.29862213134766,-11.60499572753906,-19.51982116699219,139.6810302734375,125.9045867919922,10,236485.625203375,-0.549652099609375,-0.1226654052734375,-0.71923828125,236485.596300625,0.7900155520954277,0.2866493439306788,-0.636161007496024,236485.596300625,2.410794148220177,-0.7237397689538974,-0.07207829382716077,0.7774497866630554,0.2971132397651672,-0.6008993983268738,-0.1147810220718384,0.06549631059169769,-0.06181519478559494,XTrueNorthZVertical,0.3183956925211485,-0.1578915147146459,0.8774841260867107,0.3220500489641243,-0.6604722738265991,0.07201589643955231,-0.7473888993263245,-40.83981323242188,-9.209173202514648,-19.77124786376953,2,192.168.1.8,10.83.46.32,3,0
2015-03-04 08:05:35.582,140,1425485105.95903,37.77932961198018,-122.4388616372626,56.94937,-1,-1,10,65,-9999,1425485135.546797,-41.29862213134766,-11.60499572753906,-19.51982116699219,139.6810302734375,125.9045867919922,10,236485.6742381667,-0.717041015625,0.12689208984375,-0.8058624267578125,236485.6480774167,0.7113518987649942,0.2812676279998467,-0.7924550076539403,236485.6480774167,2.400907303694373,-0.7011585350893015,-0.01819951025814528,0.6987898349761963,0.2917318046092987,-0.7571977376937866,0.06327047199010849,-0.117304340004921,-0.006874688435345888,XTrueNorthZVertical,0.3170512678007993,-0.1322652066126144,0.8765960451203464,0.3369925153350679,-0.6449965238571167,0.01819850504398346,-0.763968825340271,-40.51424407958984,-10.39757919311523,-19.85165405273438,2,192.168.1.8,10.83.46.32,3,0
2015-03-04 08:05:35.663,141,1425485105.95903,37.77932961198018,-122.4388616372626,56.94937,-1,-1,10,65,-9999,1425485135.64923,-39.54228973388672,-16.55001831054688,-19.56974029541016,142.8680267333984,129.0915832519531,10,236485.72329975,-0.597320556640625,-0.016021728515625,-0.709136962890625,236485.6998535,0.7826186221677326,0.4726330628691255,-0.8255477136753738,236485.6998535,2.398659700355488,-0.6929893027220968,0.03667357051509543,0.7700567245483398,0.4830971658229828,-0.7902907133102417,0.0381600484251976,-0.05269011855125427,0.08051378279924393,XTrueNorthZVertical,0.3226474007844285,-0.107179319876512,0.8740108829234879,0.3471547172314178,-0.6384102702140808,-0.03666535019874573,-0.7688224911689758,-39.34652709960938,-13.94325160980225,-20.02593612670898,2,192.168.1.8,10.83.46.32,3,0
2015-03-04 08:05:35.681,142,1425485105.95903,37.77932961198018,-122.4388616372626,56.94937,-1,-1,10,65,-9999,1425485135.64923,-39.54228973388672,-16.55001831054688,-19.56974029541016,142.8680267333984,129.0915832519531,10,236485.7723319583,-0.5750274658203125,-0.174774169921875,-0.75775146484375,236485.7516303333,0.8573301444404885,0.3154176089740418,-0.7311951120471746,236485.7516303333,2.393352666785378,-0.6760092679569174,0.09193034455368147,0.8447683453559875,0.3258816301822662,-0.6959384679794312,-0.05101406946778297,0.05009864270687103,0.05249299108982086,XTrueNorthZVertical,0.3241840536386283,-0.08070770374138614,0.8716657452275077,0.3585944332070045,-0.6230429410934448,-0.09180091321468353,-0.7767819166183472,-38.44924926757812,-16.04150199890137,-20.19720077514648,2,192.168.1.8,10.83.46.32,3,0
2015-03-04 08:05:35.765,143,1425485105.95903,37.77932961198018,-122.4388616372626,56.94937,-1,-1,10,65,-9999,1425485135.753111,-36.57527923583984,-21.58001708984375,-19.86928558349609,147.7689056396484,133.9924621582031,10,236485.82139325,-0.4942626953125,-0.119476318359375,-0.8462982177734375,236485.8034074584,0.9751987248101965,0.5257394244825045,-0.6841184134578439,236485.8034074584,2.393838626049066,-0.6440595875085091,0.1482062378296672,0.9626370668411255,0.5362033247947693,-0.6488621830940247,-0.07044229656457901,0.03346749395132065,-0.006083284504711628,XTrueNorthZVertical,0.3194699753319066,-0.0498966074491396,0.8720831912689777,0.3673150472543592,-0.5938643217086792,-0.1476642787456512,-0.7908985018730164,-37.89569091796875,-17.37207984924316,-20.14271545410156,2,192.168.1.8,10.83.46.32,3,0
2015-03-04 08:05:35.782,144,1425485105.95903,37.77932961198018,-122.4388616372626,56.94937,-1,-1,10,65,-9999,1425485135.753111,-36.57527923583984,-21.58001708984375,-19.86928558349609,147.7689056396484,133.9924621582031,10,236485.8704325417,-0.535247802734375,-0.310882568359375,-0.864227294921875,236485.85518325,1.018541405235127,0.2693702221460267,-0.6642688085890472,236485.8034074584,2.393838626049066,-0.6440595875085091,0.1482062378296672,0.9626370668411255,0.5362033247947693,-0.6488621830940247,-0.07044229656457901,0.03346749395132065,-0.006083284504711628,XTrueNorthZVertical,0.3194699753319066,-0.0498966074491396,0.8720831912689777,0.3673150472543592,-0.5938643217086792,-0.1476642787456512,-0.7908985018730164,-37.89569091796875,-17.37207984924316,-20.14271545410156,2,192.168.1.8,10.83.46.32,3,0
2015-03-04 08:05:35.864,145,1425485105.95903,37.77932961198018,-122.4388616372626,56.94937,-1,-1,10,65,-9999,1425485135.856939,-33.86403656005859,-25.64141845703125,-18.82086944580078,149.7918395996094,136.0153961181641,10,236485.9195132917,-0.5173797607421875,-0.367828369140625,-0.741424560546875,236485.9069602083,1.032079052004327,-0.157493754228997,-0.8859271682257593,236485.9069602083,2.398987645587936,-0.6293405445724246,0.2664465619301662,1.019517540931702,-0.147029846906662,-0.8506719470024109,0.09738224744796753,0.007064214907586575,-0.01469717733561993,XTrueNorthZVertical,0.3316844231973245,0.006398521459206015,0.8633319453710893,0.380266521587194,-0.5678412318229675,-0.2633050680160522,-0.7798889875411987,-35.42507171630859,-22.50830078125,-19.54590225219727,2,192.168.1.8,10.83.46.32,3,0
2015-03-04 08:05:35.878,146,1425485105.95903,37.77932961198018,-122.4388616372626,56.94937,-1,-1,10,65,-9999,1425485135.856939,-33.86403656005859,-25.64141845703125,-18.82086944580078,149.7918395996094,136.0153961181641,10,236485.9686641667,-0.55572509765625,-0.277252197265625,-0.790679931640625,236485.9587372083,1.109801544205526,-0.2076754323332511,-0.8187462665674206,236485.9069602083,2.398987645587936,-0.6293405445724246,0.2664465619301662,1.019517540931702,-0.147029846906662,-0.8506719470024109,0.09738224744796753,0.007064214907586575,-0.01469717733561993,XTrueNorthZVertical,0.3316844231973245,0.006398521459206015,0.8633319453710893,0.380266521587194,-0.5678412318229675,-0.2633050680160522,-0.7798889875411987,-35.42507171630859,-22.50830078125,-19.54590225219727,2,192.168.1.8,10.83.46.32,3,0
2015-03-04 08:05:35.965,147,1425485105.95903,37.77932961198018,-122.4388616372626,56.94937,-1,-1,10,65,-9999,1425485135.961356,-31.73255920410156,-31.02828979492188,-14.31098937988281,153.8047485351562,140.0283050537109,10,236486.017632875,-0.5574188232421875,-0.466064453125,-0.635040283203125,236486.0105132917,1.274922858112619,-0.3142463507266249,-0.9924946245097162,236485.9587372083,2.39838137459422,-0.6384738002406898,0.3331891160893682,1.097240447998047,-0.1972116529941559,-0.7834916114807129,-0.002082410035654902,-0.001478572958149016,-0.01364719029515982,XTrueNorthZVertical,0.3455432360693815,0.03431820818547211,0.85352386271569,0.3884833604871454,-0.5631946921348572,-0.3270584046840668,-0.758844256401062,-34.94681167602539,-23.94838333129883,-18.67610359191895,2,192.168.1.8,10.83.46.32,3,0
2015-03-04 08:05:35.975,148,1425485105.95903,37.77932961198018,-122.4388616372626,56.94937,-1,-1,10,65,-9999,1425485135.961356,-31.73255920410156,-31.02828979492188,-14.31098937988281,153.8047485351562,140.0283050537109,10,236486.0666796667,-0.52484130859375,-0.57415771484375,-0.7617645263671875,236486.0622902917,1.325991102543761,-0.03833966600110774,-1.074167117239721,236486.0105132917,2.399115325073705,-0.6561146473261802,0.4084601002125646,1.262361407279968,-0.3037828505039215,-0.9572396278381348,-0.05459936708211899,-0.04849738627672195,0.08210257440805435,XTrueNorthZVertical,0.3636663110992365,0.06446117179943674,0.8401416980555645,0.3971821643740922,-0.5598568320274353,-0.3971965909004211,-0.7271831631660461,-33.68724822998047,-27.5409049987793,-15.81989765167236,2,192.168.1.8,10.83.46.32,3,0
