loggingTime,loggingSample,locationTimestamp_since1970,locationLatitude,locationLongitude,locationAltitude,locationSpeed,locationCourse,locationVerticalAccuracy,locationHorizontalAccuracy,locationFloor,locationHeadingTimestamp_since1970,locationHeadingX,locationHeadingY,locationHeadingZ,locationTrueHeading,locationMagneticHeading,locationHeadingAccuracy,accelerometerTimestamp_sinceReboot,accelerometerAccelerationX,accelerometerAccelerationY,accelerometerAccelerationZ,gyroTimestamp_sinceReboot,gyroRotationX,gyroRotationY,gyroRotationZ,motionTimestamp_sinceReboot,motionYaw,motionRoll,motionPitch,motionRotationRateX,motionRotationRateY,motionRotationRateZ,motionUserAccelerationX,motionUserAccelerationY,motionUserAccelerationZ,motionAttitudeReferenceFrame,motionQuaternionX,motionQuaternionY,motionQuaternionZ,motionQuaternionW,motionGravityX,motionGravityY,motionGravityZ,motionMagneticFieldX,motionMagneticFieldY,motionMagneticFieldZ,motionMagneticFieldCalibrationAccuracy,IP_en0,IP_pdp_ip0,deviceOrientation,state
2015-02-26 19:53:43.779,1,1425009220.604738,37.76001728043421,-122.4614017253986,65.01883,-1,-1,30.34095998051252,65,-9999,1425009223.724278,-18.66880035400391,-30.48367309570312,4.676483154296875,137.8578948974609,124.0799255371094,10,120215.0217392917,0.078033447265625,-0.956817626953125,-0.3048248291015625,120214.97756825,-0.07017136524638884,0.6240303087307131,-0.03642219001625069,120214.97756825,2.497922541904287,-0.004893144545848258,1.290823858158782,-0.08499884605407715,0.6332690715789795,-0.004452151246368885,-0.02162762358784676,0.02516521885991096,0.01308128703385592,XTrueNorthZVertical,0.1921214707921726,0.5700231419564379,0.7573684889487816,0.2540786165469879,-0.001352113438770175,-0.961063027381897,-0.276325911283493,-19.28987312316895,-30.74262809753418,3.538475036621094,2,0.0.0.0,10.83.46.32,1,0
2015-02-26 19:53:43.834,2,1425009220.604738,37.76001728043421,-122.4614017253986,65.01883,-1,-1,30.34095998051252,65,-9999,1425009223.776032,-18.68585968017578,-30.53465270996094,4.26043701171875,137.2384643554688,123.4604873657227,10,120215.0708374583,0.0373687744140625,-0.9867706298828125,-0.291015625,120215.0293445833,0.01194534275344141,0.06075469394797766,0.06082793087795484,120215.0293445833,2.503608282660982,0.008746921029575172,1.287639988712074,-0.002884326502680779,0.06999357044696808,0.09279611706733704,0.07558969408273697,0.003360753646120429,-0.02544779889285564,XTrueNorthZVertical,0.1849225899163828,0.5710649008475553,0.760275885449766,0.2483326521148439,0.002443751087412238,-0.9601783752441406,-0.2793770432472229,-19.37113952636719,-30.75574684143066,2.927830219268799,2,0.0.0.0,10.83.46.32,1,0
2015-02-26 19:53:43.872,3,1425009220.604738,37.76001728043421,-122.4614017253986,65.01883,-1,-1,30.34095998051252,65,-9999,1425009223.82751,-18.83931732177734,-30.82354736328125,3.478286743164062,135.8842315673828,122.1062545776367,10,120215.1198930833,-0.0218505859375,-0.9732818603515625,-0.2736358642578125,120215.08111975,0.08850856093212943,-0.2160675855603088,-0.02528485033753931,120215.08111975,2.499591595582766,0.006298314088866275,1.290607699817736,0.07367877662181854,-0.2068264037370682,0.006673063151538372,0.03359765186905861,-0.05866528674960136,0.01890208013355732,XTrueNorthZVertical,0.1873760754845814,0.571510690212079,0.7587023929865907,0.2502727103180822,0.001741705113090575,-0.961003303527832,-0.2765314877033234,-19.43133544921875,-30.72033309936523,2.900606155395508,2,0.0.0.0,10.83.46.32,1,0
2015-02-26 19:53:43.931,4,1425009220.604738,37.76001728043421,-122.4614017253986,65.01883,-1,-1,30.34095998051252,65,-9999,1425009223.882112,-19.14624786376953,-31.0274658203125,3.145454406738281,134.8542785644531,121.0763092041016,10,120215.1689898333,0.009124755859375,-0.949371337890625,-0.26751708984375,120215.132895875,0.0071756212411095,0.02935549206372543,-0.02154843532815814,120215.132895875,2.504546307452582,-0.001696490347157308,1.291689406153758,-0.007653046865016222,0.03859600052237511,0.01041194051504135,-0.007650297600775957,-0.009401262737810612,0.0005182406166568398,XTrueNorthZVertical,0.1891285078768797,0.5713860064269628,0.7582615040974539,0.2505752260615701,-0.0004673782386817038,-0.961301863193512,-0.2754968702793121,-19.40257453918457,-30.71685791015625,3.121537685394287,2,0.0.0.0,10.83.46.32,1,0
2015-02-26 19:53:43.970,5,1425009220.604738,37.76001728043421,-122.4614017253986,65.01883,-1,-1,30.34095998051252,65,-9999,1425009223.957631,-19.09510040283203,-31.55427551269531,3.428367614746094,135.5893249511719,121.8113479614258,10,120215.2180437083,0.01080322265625,-0.9407958984375,-0.2907257080078125,120215.184672375,-0.02097771990655416,0.008630239828510779,-0.07601966700020285,120215.184672375,2.500195777929949,0.003187960408090803,1.290886300637418,-0.03580622002482414,0.01787088997662067,-0.04406050965189934,0.005833133589476347,0.01485227141529322,0.01065806765109301,XTrueNorthZVertical,0.1884184321856545,0.5712832835583856,0.7584064508765533,0.2509055060227005,0.0008807338308542967,-0.9610803127288818,-0.276267796754837,-19.42860221862793,-30.70232772827148,3.10253381729126,2,0.0.0.0,10.83.46.32,1,0
2015-02-26 19:53:44.029,6,1425009220.604738,37.76001728043421,-122.4614017253986,65.01883,-1,-1,30.34095998051252,65,-9999,1425009224.013587,-18.77111053466797,-31.43533325195312,3.611419677734375,136.4637451171875,122.6857681274414,10,120215.2671372917,0.032958984375,-0.9590606689453125,-0.29010009765625,120215.2364472083,-0.01686553286736281,-0.06266311518512845,-0.09135201802800703,120215.2364472083,2.491733761270547,0.0118277139644053,1.288201371378973,-0.03169446066021919,-0.05342283472418785,-0.05939220264554024,0.02099392749369144,0.0123828025534749,-0.01473470125347376,XTrueNorthZVertical,0.1872134198437108,0.5705581169095777,0.7589179763356358,0.251908890668573,0.003298065159469843,-0.9603350758552551,-0.2788291275501251,-19.3541259765625,-30.7597827911377,2.997129440307617,2,0.0.0.0,10.83.46.32,1,0
2015-02-26 19:53:44.068,7,1425009220.604738,37.76001728043421,-122.4614017253986,65.01883,-1,-1,30.34095998051252,65,-9999,1425009224.013587,-18.77111053466797,-31.43533325195312,3.611419677734375,136.4637451171875,122.6857681274414,10,120215.316293625,0.0302886962890625,-0.9649810791015625,-0.286865234375,120215.2882237083,0.03922676496021313,-0.197591372865666,-0.09538564181504106,120215.2882237083,2.476319262768979,0.01988465432186598,1.288475022603149,0.02439484000205994,-0.1883497983217239,-0.06343287229537964,0.006438931450247765,-0.000175203793332912,-0.01257641334086657,XTrueNorthZVertical,0.1885908323460992,0.5702351409159354,0.757642356916275,0.2554279827469365,0.005539217963814735,-0.9604113698005676,-0.2785307765007019,-19.23074531555176,-30.83146286010742,3.054260730743408,2,0.0.0.0,10.83.46.32,1,0
2015-02-26 19:53:44.128,8,1425009220.604738,37.76001728043421,-122.4614017253986,65.01883,-1,-1,30.34095998051252,65,-9999,1425009224.087234,-18.22544860839844,-31.3333740234375,3.677978515625,137.3495330810547,123.5715637207031,10,120215.3653156667,0.0035400390625,-0.939483642578125,-0.2829742431640625,120215.3399997917,0.04922959801455075,-0.2277751080284061,-0.1080969096979893,120215.3399997917,2.453448278666475,0.03145682116115508,1.28800603737732,0.03439183905720711,-0.2185312658548355,-0.0761554017663002,0.01458506099879742,-0.008393120020627975,-0.001878797193057835,XTrueNorthZVertical,0.1906641154097416,0.5693839696599723,0.7559197067063047,0.2608342395977866,0.008776145055890083,-0.9602805972099304,-0.2788981795310974,-19.07320594787598,-30.91376304626465,3.206450462341309,2,0.0.0.0,10.83.46.32,1,0
2015-02-26 19:53:44.166,9,1425009220.604738,37.76001728043421,-122.4614017253986,65.01883,-1,-1,30.34095998051252,65,-9999,1425009224.139398,-17.79915618896484,-31.45233154296875,3.994171142578125,138.4959411621094,124.7179718017578,10,120215.4143339583,0.0298004150390625,-0.973541259765625,-0.2878570556640625,120215.3917750833,0.04728309357381184,-0.1029546119491553,-0.02928971198480047,120215.3917750833,2.448296566098036,0.02898967620508886,1.289142628112361,0.03244038671255112,-0.09371116012334824,0.002650701906532049,0.01167321857064962,0.01821430213749409,-0.00842706672847271,XTrueNorthZVertical,0.193220643178117,0.5689919813494262,0.7546889875802467,0.2633599316130308,0.008056395687162876,-0.9605970978736877,-0.2778278291225433,-18.8819637298584,-31.00394821166992,3.457718849182129,2,0.0.0.0,10.83.46.32,1,0
2015-02-26 19:53:44.225,10,1425009220.604738,37.76001728043421,-122.4614017253986,65.01883,-1,-1,30.34095998051252,65,-9999,1425009224.190261,-18.08903503417969,-31.70722961425781,4.210517883300781,138.7032775878906,124.9253082275391,10,120215.463535125,0.0223388671875,-0.9731292724609375,-0.31256103515625,120215.4435512083,0.07144329098301068,-0.03661899762080754,-0.02244485535107881,120215.4435512083,2.441450134349554,0.03214584518350661,1.290890832324303,0.05659822374582291,-0.02737247571349144,0.00948338583111763,0.01776260696351528,-0.01741881482303143,0.003966367803514004,XTrueNorthZVertical,0.1942249745123434,0.5693993277585436,0.7536003540578911,0.264853892801009,0.008879237808287144,-0.9610815644264221,-0.276122123003006,-18.82822608947754,-31.02568435668945,3.554438591003418,2,0.0.0.0,10.83.46.32,1,0
2015-02-26 19:53:44.264,11,1425009220.604738,37.76001728043421,-122.4614017253986,65.01883,-1,-1,30.34095998051252,65,-9999,1425009224.244744,-18.07199859619141,-31.8941650390625,4.094024658203125,138.5040130615234,124.7260360717773,10,120215.5124845833,0.0133819580078125,-0.960845947265625,-0.2762908935546875,120215.4953276667,0.05801563276683117,-0.04671504131329794,0.01086037092534313,120215.4953276667,2.441683765790576,0.02976383881621834,1.292268764480309,0.04316752776503563,-0.0374678447842598,0.04278412461280823,0.002544858492910862,-0.01507066935300827,-0.004188441671431065,XTrueNorthZVertical,0.1952503207330554,0.5696209739645057,0.7530128527067556,0.2652940166608181,0.008182070218026638,-0.9614613056182861,-0.2748185098171234,-18.78983688354492,-31.03813934326172,3.647621154785156,2,0.0.0.0,10.83.46.32,1,0
2015-02-26 19:53:44.323,12,1425009220.604738,37.76001728043421,-122.4614017253986,65.01883,-1,-1,30.34095998051252,65,-9999,1425009224.297394,-18.2254638671875,-31.63926696777344,3.977531433105469,137.9778442382812,124.1998748779297,10,120215.5615706667,0.0062713623046875,-0.9669189453125,-0.2662200927734375,120215.5471025833,0.0667654485282865,-0.07005099036511726,0.02611202817211792,120215.5471025833,2.448168455050642,0.021278719687841,1.294611960549782,0.05192882195115089,-0.06077174842357635,0.05814559012651443,0.005840471014380455,-0.003976800013333559,-0.0001869756379164755,XTrueNorthZVertical,0.1969237438051245,0.5700075281238857,0.7523812190596629,0.2650188135932946,0.005801985040307045,-0.9621028900146484,-0.2726249098777771,-18.82950782775879,-30.99954605102539,3.769217491149902,2,0.0.0.0,10.83.46.32,1,0
2015-02-26 19:53:44.362,13,1425009220.604738,37.76001728043421,-122.4614017253986,65.01883,-1,-1,30.34095998051252,65,-9999,1425009224.297394,-18.2254638671875,-31.63926696777344,3.977531433105469,137.9778442382812,124.1998748779297,10,120215.6106295,0.0236968994140625,-0.991546630859375,-0.2722625732421875,120215.5988790417,0.06415555066000884,-0.04568812639696338,0.0193859485230138,120215.5471025833,2.448168455050642,0.021278719687841,1.294611960549782,0.05192882195115089,-0.06077174842357635,0.05814559012651443,0.005840471014380455,-0.003976800013333559,-0.0001869756379164755,XTrueNorthZVertical,0.1969237438051245,0.5700075281238857,0.7523812190596629,0.2650188135932946,0.005801985040307045,-0.9621028900146484,-0.2726249098777771,-18.82950782775879,-30.99954605102539,3.769217491149902,2,0.0.0.0,10.83.46.32,1,0
2015-02-26 19:53:44.421,14,1425009220.604738,37.76001728043421,-122.4614017253986,65.01883,-1,-1,30.34095998051252,65,-9999,1425009224.372661,-19.21446228027344,-31.63923645019531,4.010818481445312,137.1368103027344,123.3588333129883,10,120215.6597224583,-0.0064849853515625,-0.9807586669921875,-0.2607269287109375,120215.6506552083,0.06058691479930267,-0.06393690513451335,0.02596901642158067,120215.6506552083,2.460730063296523,0.005634739885852517,1.300846381253593,0.04575692489743233,-0.05465430021286011,0.05799265578389168,-0.00513427471742034,-0.01868340559303761,0.0007640814292244613,XTrueNorthZVertical,0.2000661154356738,0.5715190725230826,0.7507223186541501,0.2641126896148716,0.001502682687714696,-0.9637842178344727,-0.2666789889335632,-18.90583038330078,-30.92392921447754,4.001174926757812,2,0.0.0.0,10.83.46.32,1,0
2015-02-26 19:53:44.461,15,1425009220.604738,37.76001728043421,-122.4614017253986,65.01883,-1,-1,30.34095998051252,65,-9999,1425009224.42449,-19.07804870605469,-31.84317016601562,4.143951416015625,137.0914306640625,123.3134536743164,10,120215.7088884583,-0.006805419921875,-0.9579010009765625,-0.26007080078125,120215.7024304583,0.04563193369796271,-0.03073554214060449,0.003139866925203422,120215.6506552083,2.460730063296523,0.005634739885852517,1.300846381253593,0.04575692489743233,-0.05465430021286011,0.05799265578389168,-0.00513427471742034,-0.01868340559303761,0.0007640814292244613,XTrueNorthZVertical,0.2000661154356738,0.5715190725230826,0.7507223186541501,0.2641126896148716,0.001502682687714696,-0.9637842178344727,-0.2666789889335632,-18.90583038330078,-30.92392921447754,4.001174926757812,2,0.0.0.0,10.83.46.32,1,0
2015-02-26 19:53:44.520,16,1425009220.604738,37.76001728043421,-122.4614017253986,65.01883,-1,-1,30.34095998051252,65,-9999,1425009224.476628,-18.60060119628906,-31.60528564453125,4.476776123046875,137.1208038330078,123.3428344726562,10,120215.757989125,-0.010589599609375,-0.9659423828125,-0.251220703125,120215.754206625,0.06046653991803109,-0.04870468896369613,-0.01845064634817797,120215.7024304583,2.471799311784596,-0.006831467186016788,1.303356676975127,0.03080396912992001,-0.02145389281213284,0.03516735881567001,-0.00632764445617795,0.003986184950917959,-0.001703848480246961,XTrueNorthZVertical,0.2019101293327105,0.5719299583318919,0.7502111704978023,0.2632710303848029,-0.001805289997719228,-0.9644506573677063,-0.2642568349838257,-18.99595642089844,-30.84774017333984,4.159306049346924,2,0.0.0.0,10.83.46.32,1,0
2015-02-26 19:53:44.559,17,1425009220.604738,37.76001728043421,-122.4614017253986,65.01883,-1,-1,30.34095998051252,65,-9999,1425009224.528932,-18.51534271240234,-31.41836547851562,4.826263427734375,137.1946105957031,123.416633605957,10,120215.8070855,-0.017608642578125,-0.9658050537109375,-0.2514495849609375,120215.8059830833,0.09463356512320267,-0.01368944695133431,-0.02918158764454325,120215.754206625,2.479253642771827,-0.01592979995725151,1.305300315476462,0.04564077779650688,-0.03942371159791946,0.01357963122427464,-0.008790359832346439,0.0009884731844067574,0.00785333663225174,XTrueNorthZVertical,0.2034389373223316,0.5722195899395186,0.749710884493814,0.2628896017082878,-0.004179610870778561,-0.9649624824523926,-0.2623546719551086,-19.05293846130371,-30.80321311950684,4.228111267089844,2,0.0.0.0,10.83.46.32,1,0
2015-02-26 19:53:44.619,18,1425009220.604738,37.76001728043421,-122.4614017253986,65.01883,-1,-1,30.34095998051252,65,-9999,1425009224.582652,-18.75406646728516,-31.35040283203125,5.059242248535156,137.2620544433594,123.4840774536133,10,120215.856023375,-0.0318450927734375,-0.9574737548828125,-0.2283935546875,120215.8577580417,0.1193109484160949,-0.03002128233624524,-0.005572664580990806,120215.8059830833,2.48202328961793,-0.01910728769090181,1.308823449181554,0.07981199771165848,-0.004408658482134342,0.002850271994248033,-0.003016856499016285,-0.0012669179122895,0.005841848440468311,XTrueNorthZVertical,0.2042809533953684,0.5734104993621477,0.7487337350467713,0.2624261775209789,-0.004948231391608715,-0.9658809304237366,-0.2589393854141235,-19.08290100097656,-30.76930236816406,4.338449954986572,2,0.0.0.0,10.83.46.32,1,0
2015-02-26 19:53:44.658,19,1425009220.604738,37.76001728043421,-122.4614017253986,65.01883,-1,-1,30.34095998051252,65,-9999,1425009224.582652,-18.75406646728516,-31.35040283203125,5.059242248535156,137.2620544433594,123.4840774536133,10,120215.9051830833,-0.043609619140625,-0.9739227294921875,-0.2292327880859375,120215.8577580417,0.1193109484160949,-0.03002128233624524,-0.005572664580990806,120215.8577580417,2.491307201590673,-0.02910430985945602,1.315468001392479,0.1044974774122238,-0.02074222080409527,0.02646796032786369,-0.02449545450508595,0.01010666973888874,0.02406262792646885,XTrueNorthZVertical,0.2061760017606762,0.5755548324228065,0.7469942165102418,0.2612044123234075,-0.007349638268351555,-0.9675804376602173,-0.2524561882019043,-19.12319183349609,-30.71451759338379,4.544351100921631,2,0.0.0.0,10.83.46.32,1,0
2015-02-26 19:53:44.715,20,1425009220.604738,37.76001728043421,-122.4614017253986,65.01883,-1,-1,30.34095998051252,65,-9999,1425009224.709121,-19.11215209960938,-30.95957946777344,5.442008972167969,137.3266754150391,123.5487060546875,10,120215.9541779583,-0.034881591796875,-0.9866943359375,-0.2330780029296875,120215.9613107083,0.2008614683681743,0.09982300082333108,0.09375285775071347,120215.9095343333,2.511861772268823,-0.0496791515644481,1.322615080405717,0.1398245543241501,0.03062407672405243,0.05447841435670853,-0.03141138330101967,-0.004561943933367729,0.0161055289208889,XTrueNorthZVertical,0.2087738135180721,0.5777060982272283,0.7454364291305144,0.2588314168132815,-0.01219823583960533,-0.9693607687950134,-0.2453383207321167,-19.2341194152832,-30.61174011230469,4.764377117156982,2,0.0.0.0,10.83.46.32,1,0
2015-02-26 19:53:44.755,21,1425009220.604738,37.76001728043421,-122.4614017253986,65.01883,-1,-1,30.34095998051252,65,-9999,1425009224.709121,-19.11215209960938,-30.95957946777344,5.442008972167969,137.3266754150391,123.5487060546875,10,120216.0032357083,-0.0019073486328125,-0.97705078125,-0.24468994140625,120215.9613107083,0.2008614683681743,0.09982300082333108,0.09375285775071347,120215.9613107083,2.541056394019507,-0.07479568431524335,1.33118081829743,0.1860620081424713,0.1090970486402512,0.1258173584938049,-0.01714693941175938,-0.01526503823697567,0.003587630577385426,XTrueNorthZVertical,0.2106138622091578,0.5807830785193566,0.7440053619147307,0.2545365426363801,-0.01773465238511562,-0.9714292883872986,-0.2366656363010406,-19.3974494934082,-30.47541046142578,4.971670627593994,2,0.0.0.0,10.83.46.32,1,0
2015-02-26 19:53:44.816,22,1425009220.604738,37.76001728043421,-122.4614017253986,65.01883,-1,-1,30.34095998051252,65,-9999,1425009224.814001,-20.03295135498047,-30.8236083984375,5.941276550292969,136.0283813476562,122.2504119873047,10,120216.05232125,0.014678955078125,-0.9681243896484375,-0.21661376953125,120216.0130859583,0.2909785785987116,0.02818929382237973,0.1308722633403469,120216.0130859583,2.575579299517111,-0.1039870981892003,1.341530714075832,0.2761779427528381,0.03746355697512627,0.1629351526498795,0.02168244682252407,-0.003217224963009357,-0.01865510642528534,XTrueNorthZVertical,0.212430646834704,0.584684361368823,0.7421476741132851,0.2494679558752844,-0.02358979545533657,-0.9738335609436035,-0.2260348349809647,-19.68166542053223,-30.24992942810059,5.225231647491455,2,0.0.0.0,10.83.46.32,1,0
2015-02-26 19:53:44.853,23,1425009220.604738,37.76001728043421,-122.4614017253986,65.01883,-1,-1,30.34095998051252,65,-9999,1425009224.814001,-20.03295135498047,-30.8236083984375,5.941276550292969,136.0283813476562,122.2504119873047,10,120216.1014717083,0.036712646484375,-0.9618988037109375,-0.1906890869140625,120216.064862125,0.4177951139149769,-0.01746847253815675,0.1917342826802547,120216.064862125,2.616479858273544,-0.1433595454764406,1.357529404310072,0.402990460395813,-0.008192115463316441,0.2237864136695862,0.0482289046049118,0.007724923547357321,0.002710902597755194,XTrueNorthZVertical,0.2163692038268444,0.5902905988208219,0.7380738609393622,0.2449252247552019,-0.0302387923002243,-0.9773446917533875,-0.2094827592372894,-19.83836555480957,-30.08336639404297,5.582071304321289,2,0.0.0.0,10.83.46.32,1,0
2015-02-26 19:53:44.917,24,1425009220.604738,37.76001728043421,-122.4614017253986,65.01883,-1,-1,30.34095998051252,65,-9999,1425009224.864751,-20.25462341308594,-30.84060668945312,6.290748596191406,135.0709381103516,121.29296875,10,120216.1504450833,0.059417724609375,-0.94451904296875,-0.16558837890625,120216.116638625,0.4624765654198903,-0.08051534923636561,0.3253525314205823,120216.116638625,2.70360886770058,-0.2301165039021884,1.376301421148411,0.4476716220378876,-0.07123825699090958,0.3574004173278809,0.0884254202246666,0.02219155803322792,-0.002939946250990033,XTrueNorthZVertical,0.223622263668311,0.596577647779321,0.7331487267242333,0.2378679280794666,-0.0440833792090416,-0.981145441532135,-0.1881763935089111,-20.13015747070312,-29.77995109558105,6.136812686920166,2,0.0.0.0,10.83.46.32,1,0
2015-02-26 19:53:44.952,25,1425009220.604738,37.76001728043421,-122.4614017253986,65.01883,-1,-1,30.34095998051252,65,-9999,1425009224.916846,-20.37398529052734,-30.21186828613281,7.305892944335938,135.3709716796875,121.5930023193359,10,120216.199594625,0.00811767578125,-1.03765869140625,-0.141204833984375,120216.16841375,0.4896205685144139,-0.2855515889293481,0.4821581248239029,120216.16841375,2.849012911401924,-0.3819050565142036,1.39172983589178,0.4748150408267975,-0.2762731313705444,0.5141986608505249,0.1149487793445587,0.03350990265607834,0.00808330625295639,XTrueNorthZVertical,0.2358574960901405,0.6014412407781526,0.7277652266786739,0.2302117799133957,-0.06638005375862122,-0.9840103983879089,-0.1652793437242508,-20.73730659484863,-29.1517162322998,7.061930656433105,2,0.0.0.0,10.83.46.32,1,0
2015-02-26 19:53:45.016,26,1425009220.604738,37.76001728043421,-122.4614017253986,65.01883,-1,-1,30.34095998051252,65,-9999,1425009224.968803,-21.17542266845703,-30.19488525390625,8.953422546386719,135.4595947265625,121.6816177368164,10,120216.2485687083,-0.0172576904296875,-1.101242065429688,-0.1356201171875,120216.2201900833,0.5341997546334682,-0.3369085200226542,0.5653297109315135,120216.2201900833,3.059968242597352,-0.6054867309379444,1.401079593044348,0.5193945169448853,-0.3276300728321075,0.5973694920539856,0.09295953065156937,-0.06798673421144485,-0.004128886852413416,XTrueNorthZVertical,0.2528418368165892,0.6055020755087408,0.7212776554188894,0.2218035149574507,-0.09613335877656937,-0.9856326580047607,-0.1388764828443527,-21.31653213500977,-28.49101829528809,7.974745750427246,2,0.0.0.0,10.83.46.32,1,0
2015-02-26 19:53:45.050,27,1425009220.604738,37.76001728043421,-122.4614017253986,65.01883,-1,-1,30.34095998051252,65,-9999,1425009225.020888,-22.64188385009766,-29.24327087402344,10.05177307128906,133.4033355712891,119.625358581543,10,120216.2976149167,-0.045745849609375,-1.052352905273438,-0.1433258056640625,120216.2719662917,0.6102007795060406,-0.3080877907058167,0.6182872018399572,120216.2719662917,-2.974507900812696,-0.8663988064670723,1.40070744287699,0.5953956246376038,-0.2988094091415405,0.6503264904022217,0.09323272854089737,-0.1141312047839165,-0.03166611865162849,XTrueNorthZVertical,0.2710361957115429,0.6096981841564513,0.7141398719782136,0.2116878868658061,-0.1289840638637543,-0.9855697154998779,-0.1096150130033493,-21.94792747497559,-27.70809936523438,8.95985221862793,2,0.0.0.0,10.83.46.32,1,0
2015-02-26 19:53:45.117,28,1425009220.604738,37.76001728043421,-122.4614017253986,65.01883,-1,-1,30.34095998051252,65,-9999,1425009225.072804,-23.85256195068359,-28.30862426757812,11.46630859375,132.398681640625,118.6207122802734,10,120216.3466955833,-0.0139312744140625,-1.045608520507812,-0.1062774658203125,120216.3237415833,0.7174449450229865,-0.1637263501281094,0.7049675026837472,120216.3237415833,-2.70986148196014,-1.138641810905509,1.389514986118035,0.7026399374008179,-0.1544480174779892,0.7370063066482544,0.1225317791104317,-0.04528665915131569,-0.04527797922492027,XTrueNorthZVertical,0.289003023375058,0.6154038959326422,0.7059397003344257,0.1985055419553117,-0.1637152433395386,-0.9836134910583496,-0.07551059126853943,-22.84884262084961,-26.47507476806641,10.33102035522461,2,0.0.0.0,10.83.46.32,1,0
2015-02-26 19:53:45.148,29,1425009220.604738,37.76001728043421,-122.4614017253986,65.01883,-1,-1,30.34095998051252,65,-9999,1425009225.124751,-24.99503326416016,-26.96617126464844,12.64786529541016,130.6499938964844,116.8720245361328,10,120216.3958499583,-0.04534912109375,-1.051727294921875,-0.0899200439453125,120216.3755179167,0.6599422370821045,-0.1964589967701643,0.7377006819580201,120216.3755179167,-2.480798394675676,-1.3717886859095,1.363339710948906,0.6451371908187866,-0.1871806532144547,0.7697386145591736,0.1842063665390015,-0.07580912113189697,-0.05881314724683762,XTrueNorthZVertical,0.3070352790751567,0.6207812587511541,0.6978805194506724,0.1825452275521391,-0.2019065618515015,-0.9785579442977905,-0.04071993380784988,-23.6470832824707,-25.34921646118164,11.31202125549316,2,0.0.0.0,10.83.46.32,1,0
2015-02-26 19:53:45.217,30,1425009220.604738,37.76001728043421,-122.4614017253986,65.01883,-1,-1,30.34095998051252,65,-9999,1425009225.180589,-26.30802154541016,-25.86163330078125,13.82942199707031,127.9756240844727,114.1976470947266,10,120216.4448173333,-0.103118896484375,-1.0596923828125,-0.0727081298828125,120216.42729425,0.4072647086486945,-0.2593191858759586,0.6333215451417815,120216.42729425,-2.344772904011462,-1.516564750704786,1.331023541149836,0.3924598395824432,-0.2500409483909607,0.6653590798377991,0.1451681107282639,-0.0856606513261795,-0.06050680577754974,XTrueNorthZVertical,0.3246452638481603,0.6230321804145017,0.6910886860496437,0.1698022266853903,-0.2371328324079514,-0.9713919758796692,-0.01287270989269018,-24.38508033752441,-24.2032356262207,12.21885776519775,2,0.0.0.0,10.83.46.32,1,0
2015-02-26 19:53:45.246,31,1425009220.604738,37.76001728043421,-122.4614017253986,65.01883,-1,-1,30.34095998051252,65,-9999,1425009225.231588,-27.48459625244141,-24.65510559082031,14.84455871582031,126.2849731445312,112.5069961547852,10,120216.4938745,-0.1616363525390625,-1.0372314453125,-0.0341033935546875,120216.4790692083,0.1739499592368146,-0.2677765865497233,0.6045969559402958,120216.42729425,-2.344772904011462,-1.516564750704786,1.331023541149836,0.3924598395824432,-0.2500409483909607,0.6653590798377991,0.1451681107282639,-0.0856606513261795,-0.06050680577754974,XTrueNorthZVertical,0.3246452638481603,0.6230321804145017,0.6910886860496437,0.1698022266853903,-0.2371328324079514,-0.9713919758796692,-0.01287270989269018,-24.38508033752441,-24.2032356262207,12.21885776519775,2,0.0.0.0,10.83.46.32,1,0
2015-02-26 19:53:45.320,32,1425009220.604738,37.76001728043421,-122.4614017253986,65.01883,-1,-1,30.34095998051252,65,-9999,1425009225.306669,-29.10453033447266,-23.31265258789062,15.69327545166016,123.6058044433594,109.8278274536133,10,120216.5429464167,-0.217681884765625,-1.039520263671875,-0.0149383544921875,120216.5308455833,-0.00841079535468825,-0.37575338768255,0.5574981531139175,120216.5308455833,-2.28922963061018,-1.597749704461699,1.267451470431435,-0.02321538887917995,-0.3664753139019012,0.589535117149353,0.1151796504855156,-0.1105987355113029,-0.02640670165419579,XTrueNorthZVertical,0.3550352434167245,0.6147968484789027,0.6872100642810052,0.1540037399791405,-0.2986055612564087,-0.9543426632881165,0.008050377480685711,-25.62653350830078,-22.1550178527832,13.49685955047607,2,0.0.0.0,10.83.46.32,1,0
2015-02-26 19:53:45.345,33,1425009220.604738,37.76001728043421,-122.4614017253986,65.01883,-1,-1,30.34095998051252,65,-9999,1425009225.306669,-29.10453033447266,-23.31265258789062,15.69327545166016,123.6058044433594,109.8278274536133,10,120216.592092375,-0.375213623046875,-1.010391235351562,0.011505126953125,120216.582622125,-0.2572901234414273,-0.480952245482315,0.2119860248736533,120216.5308455833,-2.28922963061018,-1.597749704461699,1.267451470431435,-0.02321538887917995,-0.3664753139019012,0.589535117149353,0.1151796504855156,-0.1105987355113029,-0.02640670165419579,XTrueNorthZVertical,0.3550352434167245,0.6147968484789027,0.6872100642810052,0.1540037399791405,-0.2986055612564087,-0.9543426632881165,0.008050377480685711,-25.62653350830078,-22.1550178527832,13.49685955047607,2,0.0.0.0,10.83.46.32,1,0
2015-02-26 19:53:45.417,34,1425009220.604738,37.76001728043421,-122.4614017253986,65.01883,-1,-1,30.34095998051252,65,-9999,1425009225.41114,-29.82071685791016,-22.56497192382812,16.15924072265625,123.1667175292969,109.3887405395508,10,120216.641072875,-0.1102294921875,-0.9874420166015625,-0.05572509765625,120216.6343970833,-0.5685585274371255,-0.2173743987072106,-0.04609053003767435,120216.582622125,-2.315601976354208,-1.598297968182442,1.245216791780223,-0.27208012342453,-0.4716353416442871,0.2441381216049194,-0.0561937689781189,-0.07195892184972763,0.003136862767860293,XTrueNorthZVertical,0.3701052709676011,0.6061516671544741,0.6866051157417343,0.1554852828706264,-0.3197370171546936,-0.9474655389785767,0.008795510046184063,-25.92666625976562,-21.52532386779785,13.93547916412354,2,0.0.0.0,10.83.46.32,1,0
2015-02-26 19:53:45.442,35,1425009220.604738,37.76001728043421,-122.4614017253986,65.01883,-1,-1,30.34095998051252,65,-9999,1425009225.41114,-29.82071685791016,-22.56497192382812,16.15924072265625,123.1667175292969,109.3887405395508,10,120216.6901152917,-0.1855621337890625,-1.008865356445312,-0.22857666015625,120216.6861737083,-0.8648000449820518,-0.781156014097061,-0.09737928420707437,120216.6343970833,-2.390360059044942,-1.539384707268167,1.241097965519175,-0.5833483338356018,-0.2080575972795486,-0.01393875293433666,0.139958456158638,0.008197539485991001,-0.03641700372099876,XTrueNorthZVertical,0.3735091188452436,0.596160127470993,0.6919536063830384,0.1621242132161486,-0.3235979676246643,-0.9461400508880615,-0.01016808114945889,-25.88176727294922,-21.49291801452637,14.06832504272461,2,0.0.0.0,10.83.46.32,1,0
2015-02-26 19:53:45.519,36,1425009220.604738,37.76001728043421,-122.4614017253986,65.01883,-1,-1,30.34095998051252,65,-9999,1425009225.513475,-29.15567779541016,-23.39764404296875,15.24395751953125,126.4309387207031,112.652961730957,10,120216.7391909167,-0.160675048828125,-1.031173706054688,-0.2646636962890625,120216.7379498333,-0.7515555112130483,-0.9938858598631736,0.1952413995197801,120216.6861737083,-2.511217671774334,-1.450275493814657,1.241016361862608,-0.8795897364616394,-0.7718393206596375,-0.06522779911756516,0.1599105298519135,-0.04871365055441856,-0.1692717373371124,XTrueNorthZVertical,0.3781204541364714,0.5809971636011091,0.698443197496006,0.1778885360749239,-0.321485847234726,-0.946113646030426,-0.03893443569540977,-25.65105438232422,-21.95122528076172,13.78029155731201,2,0.0.0.0,10.83.46.32,1,0
2015-02-26 19:53:45.541,37,1425009220.604738,37.76001728043421,-122.4614017253986,65.01883,-1,-1,30.34095998051252,65,-9999,1425009225.513475,-29.15567779541016,-23.39764404296875,15.24395751953125,126.4309387207031,112.652961730957,10,120216.7882552083,-0.0756683349609375,-1.011428833007812,-0.224395751953125,120216.7379498333,-0.7515555112130483,-0.9938858598631736,0.1952413995197801,120216.7379498333,-2.635154895890936,-1.379655326770978,1.231504181569224,-0.7663450837135315,-0.984569251537323,0.2273925542831421,0.1306524723768234,-0.0637233778834343,-0.1968419700860977,XTrueNorthZVertical,0.3913439675133788,0.5614583522097082,0.701691997313442,0.1980978850855018,-0.3267584443092346,-0.9429904818534851,-0.06322883814573288,-25.3081226348877,-22.35407257080078,13.76675701141357,2,0.0.0.0,10.83.46.32,1,0
2015-02-26 19:53:45.620,38,1425009220.604738,37.76001728043421,-122.4614017253986,65.01883,-1,-1,30.34095998051252,65,-9999,1425009225.565621,-28.59296417236328,-23.65252685546875,15.7265625,128.8814392089844,115.1034698486328,10,120216.8373200833,-0.237335205078125,-0.7718048095703125,-0.0999908447265625,120216.8415013333,-0.772955874784598,-1.839648564108903,0.9052982030466687,120216.789725125,-2.724197377514278,-1.358731024625655,1.197181139686101,-0.7280587553977966,-1.564383983612061,0.7899588942527771,0.2811390459537506,-0.08041488379240036,-0.1475742161273956,XTrueNorthZVertical,0.4169705623810669,0.5363998369901867,0.7021111564809148,0.2131917031072726,-0.3568073809146881,-0.9310139417648315,-0.07682152837514877,-24.65645408630371,-22.69099426269531,14.38427543640137,2,0.0.0.0,10.83.46.32,1,0
2015-02-26 19:53:45.639,39,1425009220.604738,37.76001728043421,-122.4614017253986,65.01883,-1,-1,30.34095998051252,65,-9999,1425009225.618813,-28.55886077880859,-23.00679016113281,16.45880126953125,130.0123901367188,116.2344131469727,10,120216.8864010833,-0.101104736328125,-0.68292236328125,-0.097900390625,120216.8415013333,-0.772955874784598,-1.839648564108903,0.9052982030466687,120216.8415013333,-2.794345090045239,-1.384272161229019,1.146041295816353,-0.7877451181411743,-1.830332159996033,0.9374486804008484,0.1676144748926163,0.1393349021673203,-0.02356961742043495,XTrueNorthZVertical,0.456073202198011,0.5037723892558857,0.6969559589353945,0.2290480707383109,-0.4049496948719025,-0.9111397266387939,-0.07642123103141785,-24.37104797363281,-22.26199722290039,15.49789619445801,2,0.0.0.0,10.83.46.32,1,0
2015-02-26 19:53:45.721,40,1425009220.604738,37.76001728043421,-122.4614017253986,65.01883,-1,-1,30.34095998051252,65,-9999,1425009225.669463,-29.05336761474609,-22.44602966308594,17.60707855224609,131.0258026123047,117.2478332519531,10,120216.9354415417,-0.0145263671875,-0.6470794677734375,-0.1557769775390625,120216.893277875,-0.9038076317845514,-1.518152822578973,1.031969862399634,120216.893277875,-2.873100439599447,-1.393726934579088,1.089063103815568,-0.9185967445373535,-1.508836507797241,1.064120054244995,0.354966789484024,0.2032708674669266,-0.01628936268389225,XTrueNorthZVertical,0.4908815456658102,0.4671507189843809,0.6945454649820998,0.2416860035131303,-0.456071525812149,-0.8861932158470154,-0.0816110298037529,-24.11666297912598,-21.9577751159668,16.30864906311035,2,0.0.0.0,10.83.46.32,1,0
2015-02-26 19:53:45.736,41,1425009220.604738,37.76001728043421,-122.4614017253986,65.01883,-1,-1,30.34095998051252,65,-9999,1425009225.720634,-29.56491851806641,-21.52839660644531,18.97168731689453,129.9629516601562,116.1849746704102,10,120216.9844896667,-0.0595703125,-0.654815673828125,0.018035888671875,120216.9450529167,-0.6947928957390995,-2.149832528908721,1.094023646327352,120216.9450529167,-2.938674599295727,-1.425957544427145,1.028148267345777,-0.7095818519592285,-2.14051628112793,1.126173496246338,0.4964719116687775,0.2092647403478622,-0.08124268054962158,XTrueNorthZVertical,0.5289455751191516,0.427725879771686,0.6878384215641693,0.2532695589678086,-0.5109983086585999,-0.8563442230224609,-0.07453429698944092,-23.74654388427734,-21.20608901977539,17.78012084960938,2,0.0.0.0,10.83.46.32,1,0
2015-02-26 19:53:45.819,42,1425009220.604738,37.76001728043421,-122.4614017253986,65.01883,-1,-1,30.34095998051252,65,-9999,1425009225.772207,-29.37735748291016,-20.32185363769531,21.68426513671875,131.2944946289062,117.5165252685547,10,120217.0335677083,-0.24371337890625,-0.579803466796875,0.11907958984375,120216.9968292917,-0.5520280202348947,-3.187758018454099,1.211710332794607,120216.9968292917,-2.982623568438882,-1.525222504307943,0.9648812896953132,-0.5668168067932129,-3.178441762924194,1.243859887123108,0.480940967798233,0.1719416379928589,0.08486015349626541,XTrueNorthZVertical,0.5833993115471529,0.3829781445536561,0.6639367342503159,0.2686280148044912,-0.5689231753349304,-0.8219813108444214,-0.02594596892595291,-22.85707855224609,-20.53366851806641,19.63801383972168,2,0.0.0.0,10.83.46.32,1,0
2015-02-26 19:53:45.834,43,1425009220.604738,37.76001728043421,-122.4614017253986,65.01883,-1,-1,30.34095998051252,65,-9999,1425009225.82429,-27.94499969482422,-18.99636840820312,24.74633026123047,134.0070190429688,120.2290496826172,10,120217.082608625,-0.271453857421875,-0.5615234375,0.3744659423828125,120217.0486057083,-0.2705366867034814,-3.644421702162673,1.04414476963904,120217.0486057083,-3.021881874468748,-1.667597120862655,0.9072864578985658,-0.2853253483772278,-3.635105609893799,1.0762939453125,0.3444478809833527,0.2291958779096603,0.08506710827350616,XTrueNorthZVertical,0.6467832754826695,0.3338172894536131,0.6224230481523561,0.2877967586521977,-0.6130025386810303,-0.787835419178009,0.05952517688274384,-20.9187183380127,-19.83818435668945,22.32896995544434,2,0.0.0.0,10.83.46.32,1,0
2015-02-26 19:53:45.920,44,1425009220.604738,37.76001728043421,-122.4614017253986,65.01883,-1,-1,30.34095998051252,65,-9999,1425009225.875942,-24.97797393798828,-18.14671325683594,28.27436065673828,139.1019897460938,125.3240127563477,10,120217.1317,-0.5192108154296875,-0.3809967041015625,0.6353607177734375,120217.1003810417,-0.2387747622787604,-3.608423221075854,1.127580541326786,120217.1003810417,-3.056066110283995,-1.826533936056363,0.8555887776721143,-0.2535632848739624,-3.599107265472412,1.159729480743408,0.335252046585083,0.2288646250963211,0.2675723731517792,XTrueNorthZVertical,0.7086788617892719,0.2841061223886404,0.5696164207247238,0.3042944768794485,-0.634446382522583,-0.7549571394920349,0.1658840328454971,-16.84406471252441,-19.01213264465332,26.16382217407227,2,0.0.0.0,10.83.46.32,1,0
2015-02-26 19:53:45.932,45,1425009220.604738,37.76001728043421,-122.4614017253986,65.01883,-1,-1,30.34095998051252,65,-9999,1425009225.875942,-24.97797393798828,-18.14671325683594,28.27436065673828,139.1019897460938,125.3240127563477,10,120217.1807380417,-0.7557525634765625,-0.5129852294921875,0.7999114990234375,120217.1521572917,-0.3976656108156129,-2.719686950532279,1.262000667871337,120217.1521572917,-3.108236891497904,-1.945596675637458,0.8016047500116267,-0.4124539792537689,-2.710371017456055,1.294149279594421,0.02329210191965103,0.3369576930999756,0.4710136353969574,XTrueNorthZVertical,0.7571965977475299,0.2323144054266112,0.5236766126270767,0.3137612916255066,-0.6472697854042053,-0.7184731960296631,0.2546333372592926,-13.63566303253174,-18.53813171386719,28.28666687011719,2,0.0.0.0,10.83.46.32,1,0
2015-02-26 19:53:46.019,46,1425009220.604738,37.76001728043421,-122.4614017253986,65.01883,-1,-1,30.34095998051252,65,-9999,1425009226.004946,-18.75406646728516,-17.07612609863281,33.71618270874023,150.1047668457031,136.3267974853516,10,120217.2298233333,-0.6321258544921875,-0.512969970703125,0.817291259765625,120217.2039338333,-0.6726654891899582,-1.762016086752548,1.001015142101316,120217.2039338333,3.104116392360127,-2.004176474878986,0.7600786475962031,-0.6874536871910095,-1.752700328826904,1.03316342830658,-0.0678243562579155,0.108320489525795,0.4574753046035767,XTrueNorthZVertical,0.786084001278084,0.1850802462480485,0.4941744815451253,0.3218832715709781,-0.6577768325805664,-0.6889784336090088,0.3043655157089233,-11.29141139984131,-18.42720222473145,29.37126922607422,2,0.0.0.0,10.83.46.32,1,0
2015-02-26 19:53:46.033,47,1425009220.604738,37.76001728043421,-122.4614017253986,65.01883,-1,-1,30.34095998051252,65,-9999,1425009226.004946,-18.75406646728516,-17.07612609863281,33.71618270874023,150.1047668457031,136.3267974853516,10,120217.278875,-0.8383636474609375,-0.575958251953125,0.7908172607421875,120217.255708875,-0.362914820699496,-0.7596179650971543,1.438750674678261,120217.255708875,3.038121884175753,-2.01675858517461,0.7162845528605468,-0.377702921628952,-0.7503023147583008,1.470898628234863,-0.01415933202952147,0.1681224703788757,0.508015513420105,XTrueNorthZVertical,0.8008975447372844,0.1456953200757777,0.4833956674309068,0.3219699343029798,-0.6804817914962769,-0.6565868258476257,0.32532799243927,-9.762954711914062,-18.81832504272461,29.66959190368652,2,0.0.0.0,10.83.46.32,1,0
2015-02-26 19:53:46.089,48,1425009220.604738,37.76001728043421,-122.4614017253986,65.01883,-1,-1,30.34095998051252,65,-9999,1425009226.057508,-18.39598083496094,-16.6173095703125,34.29864120483398,150.5016784667969,136.7237091064453,10,120217.3279478333,-0.8193511962890625,-0.647491455078125,0.7691650390625,120217.3074854167,-0.1942549646520147,-1.006421625430286,1.631829321076788,120217.3074854167,2.974239253242844,-2.021037980717817,0.6514062348788899,-0.2090428918600082,-0.9971059560775757,1.663976907730103,-0.1456983387470245,-0.05969507992267609,0.4257180094718933,XTrueNorthZVertical,0.81397573600441,0.1023683146729862,0.4790662173127689,0.3121855251624543,-0.7159807682037354,-0.6063053011894226,0.3460715413093567,-9.946526527404785,-18.65126037597656,29.71407699584961,2,0.0.0.0,10.83.46.32,1,0
2015-02-26 19:53:46.132,49,1425009220.604738,37.76001728043421,-122.4614017253986,65.01883,-1,-1,30.34095998051252,65,-9999,1425009226.109054,-18.46419525146484,-15.6317138671875,34.69804382324219,148.9489135742188,135.1709442138672,10,120217.3769955,-0.9618072509765625,-0.67999267578125,0.721893310546875,120217.3592616667,0.1267174657237143,-0.852776671608671,1.861007914999665,120217.3592616667,2.926239517040274,-2.039862089051746,0.5708436596564536,0.1119296997785568,-0.8434611558914185,1.893155217170715,-0.1745175868272781,-0.1630880385637283,0.4175650477409363,XTrueNorthZVertical,0.8287028477238078,0.05865679517886847,0.4735567888696815,0.2924977805274144,-0.7505617737770081,-0.5403421521186829,0.3803780674934387,-9.984542846679688,-18.35702896118164,29.88406753540039,2,0.0.0.0,10.83.46.32,1,0
2015-02-26 19:53:46.224,50,1425009220.604738,37.76001728043421,-122.4614017253986,65.01883,-1,-1,30.34095998051252,65,-9999,1425009226.215204,-20.57862091064453,-12.02915954589844,36.06266021728516,140.4358215332031,126.6578521728516,10,120217.426071,-0.8352813720703125,-0.4262237548828125,0.63067626953125,120217.4110370417,0.1740093477291234,-0.5444350816509698,1.955888355155918,120217.4110370417,2.880914530015136,-2.051398603607081,0.4831383685468514,0.159221738576889,-0.5351197123527527,1.988035321235657,-0.06383580714464188,-0.0395134836435318,0.2065539956092834,XTrueNorthZVertical,0.8393279374316736,0.01507938449964209,0.4725891128300575,0.2682550454111463,-0.7852242588996887,-0.4645606279373169,0.4093975424766541,-10.55336380004883,-16.7810173034668,30.60642623901367,2,0.0.0.0,10.83.46.32,1,0
2015-02-26 19:53:46.231,51,1425009220.604738,37.76001728043421,-122.4614017253986,65.01883,-1,-1,30.34095998051252,65,-9999,1425009226.215204,-20.57862091064453,-12.02915954589844,36.06266021728516,140.4358215332031,126.6578521728516,10,120217.47511375,-0.805084228515625,-0.271514892578125,0.640777587890625,120217.4628132917,0.05555087717796283,-0.03181385606597757,2.175570116631574,120217.4110370417,2.880914530015136,-2.051398603607081,0.4831383685468514,0.159221738576889,-0.5351197123527527,1.988035321235657,-0.06383580714464188,-0.0395134836435318,0.2065539956092834,XTrueNorthZVertical,0.8393279374316736,0.01507938449964209,0.4725891128300575,0.2682550454111463,-0.7852242588996887,-0.4645606279373169,0.4093975424766541,-10.55336380004883,-16.7810173034668,30.60642623901367,2,0.0.0.0,10.83.46.32,1,0
2015-02-26 19:53:46.326,52,1425009220.604738,37.76001728043421,-122.4614017253986,65.01883,-1,-1,30.34095998051252,65,-9999,1425009226.289583,-23.85256958007812,-8.868392944335938,35.86295318603516,131.7143402099609,117.9363708496094,10,120217.5241751667,-0.5489959716796875,-0.3961029052734375,0.6064910888671875,120217.5145898333,-0.1177993381813659,0.9398500550293568,1.581336053124994,120217.5145898333,2.784549032299219,-2.003366032055505,0.3029890245793656,-0.132586658000946,0.9491652250289917,1.613482356071472,0.3219498991966248,-0.06760764867067337,0.2367156147956848,XTrueNorthZVertical,0.8339381932575676,-0.06783852116865617,0.5016722112737655,0.2197044165506852,-0.8665360808372498,-0.2983744144439697,0.4001099467277527,-12.98452568054199,-14.39529800415039,30.88537979125977,2,0.0.0.0,10.83.46.32,1,0
2015-02-26 19:53:46.329,53,1425009220.604738,37.76001728043421,-122.4614017253986,65.01883,-1,-1,30.34095998051252,65,-9999,1425009226.289583,-23.85256958007812,-8.868392944335938,35.86295318603516,131.7143402099609,117.9363708496094,10,120217.5732116667,-0.7642822265625,-0.2031402587890625,0.4260406494140625,120217.5663649167,-0.4529397855563165,1.311837999246644,1.534627137082203,120217.5145898333,2.784549032299219,-2.003366032055505,0.3029890245793656,-0.132586658000946,0.9491652250289917,1.613482356071472,0.3219498991966248,-0.06760764867067337,0.2367156147956848,XTrueNorthZVertical,0.8339381932575676,-0.06783852116865617,0.5016722112737655,0.2197044165506852,-0.8665360808372498,-0.2983744144439697,0.4001099467277527,-12.98452568054199,-14.39529800415039,30.88537979125977,2,0.0.0.0,10.83.46.32,1,0
2015-02-26 19:53:46.390,54,1425009220.604738,37.76001728043421,-122.4614017253986,65.01883,-1,-1,30.34095998051252,65,-9999,1425009226.342085,-26.78548431396484,-7.373016357421875,34.69803619384766,126.2355346679688,112.4575576782227,10,120217.6222786667,-1.040069580078125,-0.0645294189453125,0.40350341796875,120217.6181414167,-1.036278590727273,1.302834916865522,1.50042842026006,120217.5663649167,2.740075907371809,-1.930784517154061,0.2366294051779489,-0.4677093327045441,1.321196913719177,1.5668865442276,0.2072299122810364,-0.01801411062479019,0.1035369858145714,XTrueNorthZVertical,0.8135199126410451,-0.09699897748410984,0.5344108431942269,0.2078018626581874,-0.9098208546638489,-0.2344272881746292,0.342446893453598,-16.15087699890137,-13.31749725341797,29.85837745666504,2,0.0.0.0,10.83.46.32,1,0
2015-02-26 19:53:46.425,55,1425009220.604738,37.76001728043421,-122.4614017253986,65.01883,-1,-1,30.34095998051252,65,-9999,1425009226.396721,-30.14469146728516,-5.9285888671875,33.21693420410156,122.4582672119141,108.680290222168,10,120217.6713280417,-1.152816772460938,-0.2067413330078125,0.4137725830078125,120217.6699177083,-1.169429454696292,1.480533807968841,0.4307655073719898,120217.6181414167,2.672649443969669,-1.852079246913197,0.1725839942722127,-1.051048040390015,1.312193632125854,1.532687664031982,-0.04224972054362297,0.127920538187027,0.1251254677772522,XTrueNorthZVertical,0.7865180038419649,-0.134617004008826,0.5663803113040714,0.2061093112294422,-0.9464282393455505,-0.1717285215854645,0.2734646201133728,-18.81708908081055,-12.87169170379639,28.45989990234375,2,0.0.0.0,10.83.46.32,1,0
2015-02-26 19:53:46.521,56,1425009220.604738,37.76001728043421,-122.4614017253986,65.01883,-1,-1,30.34095998051252,65,-9999,1425009226.471235,-34.492919921875,-6.081512451171875,30.27136993408203,122.4607315063477,108.6827545166016,10,120217.72041275,-1.210357666015625,-0.271759033203125,0.335357666015625,120217.7216930833,-1.098391496831191,1.668602515724711,-0.0144654920929834,120217.6699177083,2.605208537190819,-1.77171891653471,0.1416180333916939,-1.18419873714447,1.489892601966858,0.4630244076251984,-0.1974835693836212,-0.05483875423669815,0.2181196957826614,XTrueNorthZVertical,0.756762312233722,-0.1615504680932425,0.593960690343413,0.220052177250158,-0.9700732231140137,-0.1411451399326324,0.1975754946470261,-20.50133895874023,-12.83285331726074,27.28996658325195,2,0.0.0.0,10.83.46.32,1,0
2015-02-26 19:53:46.524,57,1425009220.604738,37.76001728043421,-122.4614017253986,65.01883,-1,-1,30.34095998051252,65,-9999,1425009226.471235,-34.492919921875,-6.081512451171875,30.27136993408203,122.4607315063477,108.6827545166016,10,120217.7695047083,-1.304580688476562,-0.11651611328125,0.1268768310546875,120217.7216930833,-1.098391496831191,1.668602515724711,-0.0144654920929834,120217.7216930833,2.54561563990219,-1.683821557477076,0.1408636688640293,-1.113160610198975,1.677961111068726,0.01779303885996342,-0.2265799045562744,-0.1313607543706894,0.2236900478601456,XTrueNorthZVertical,0.7250373605838563,-0.1736509039802445,0.6196954321617465,0.2452422761404303,-0.9837777614593506,-0.1403982788324356,0.1116676181554794,-23.87959671020508,-14.1616382598877,23.6419563293457,2,0.0.0.0,10.83.46.32,1,0
2015-02-26 19:53:46.591,58,1425009220.604738,37.76001728043421,-122.4614017253986,65.01883,-1,-1,30.34095998051252,65,-9999,1425009226.575574,-37.54518890380859,-9.5311279296875,24.56329345703125,128.4547119140625,114.6767425537109,10,120217.8185315417,-1.345840454101562,0.0094451904296875,0.02734375,120217.8252459583,-0.5895466336719311,1.271940117691731,-1.36312781868048,120217.773469375,2.509090013388179,-1.605186220638029,0.1600088808660903,-0.4526879787445068,1.255104303359985,-0.663830578327179,-0.3179385364055634,0.04281086102128029,0.09293293207883835,XTrueNorthZVertical,0.6985799982783576,-0.1701703171441058,0.6403981459564866,0.2700338444865987,-0.9866421818733215,-0.15932697057724,0.03394390270113945,-25.42713737487793,-15.26151275634766,21.2197093963623,2,0.0.0.0,10.83.46.32,1,0
2015-02-26 19:53:46.624,59,1425009220.604738,37.76001728043421,-122.4614017253986,65.01883,-1,-1,30.34095998051252,65,-9999,1425009226.575574,-37.54518890380859,-9.5311279296875,24.56329345703125,128.4547119140625,114.6767425537109,10,120217.8675710833,-1.041427612304688,0.2652435302734375,0.152740478515625,120217.8252459583,-0.5895466336719311,1.271940117691731,-1.36312781868048,120217.8252459583,2.481164445606362,-1.537567556710558,0.2133775025985925,-0.604315459728241,1.281298518180847,-1.330869913101196,-0.3690586686134338,0.2212072014808655,0.05981295928359032,XTrueNorthZVertical,0.6787761389550472,-0.1517509444479592,0.6520527100339499,0.3017646114541042,-0.9767817854881287,-0.211762011051178,-0.03246920928359032,-25.92614364624023,-16.05332565307617,19.99637603759766,2,0.0.0.0,10.83.46.32,3,0
2015-02-26 19:53:46.690,60,1425009220.604738,37.76001728043421,-122.4614017253986,65.01883,-1,-1,30.34095998051252,65,-9999,1425009226.680436,-36.50502777099609,-15.01995849609375,18.22283935546875,137.258544921875,123.4805755615234,10,120217.9166589583,-1.132736206054688,-0.1791229248046875,0.1634063720703125,120217.8770210417,-0.863464203379268,1.270651147724132,-1.440888926717485,120217.8770210417,2.438255120451273,-1.460195220275528,0.2824823084442254,-0.8782328963279724,1.280009388923645,-1.408631324768066,-0.08692903071641922,0.5439839363098145,0.2587416470050812,XTrueNorthZVertical,0.6560211373454408,-0.1289793757975605,0.6602016289330418,0.3422490474395195,-0.9544985890388489,-0.2787404358386993,-0.1060011759400368,-25.99863243103027,-19.41310691833496,16.64126396179199,2,0.0.0.0,10.83.46.32,3,0
2015-02-26 19:53:46.726,61,1425009220.604738,37.76001728043421,-122.4614017253986,65.01883,-1,-1,30.34095998051252,65,-9999,1425009226.680436,-36.50502777099609,-15.01995849609375,18.22283935546875,137.258544921875,123.4805755615234,10,120217.9657055833,-0.8214111328125,-0.13543701171875,-0.0277557373046875,120217.9287975833,-0.833582737000252,1.368224842690782,-1.810368705820136,120217.9287975833,2.379105161996063,-1.383616142404721,0.3537371502782591,-0.8483512997627258,1.377583146095276,-1.778111457824707,-0.1656269878149033,0.09617710113525391,0.3182593286037445,XTrueNorthZVertical,0.6333061654577855,-0.1078871733450797,0.6618891532296934,0.3862465803109172,-0.921699047088623,-0.3464059829711914,-0.174567312002182,-25.48287582397461,-21.72426986694336,14.43635940551758,2,0.0.0.0,10.83.46.32,3,0
2015-02-26 19:53:46.776,62,1425009220.604738,37.76001728043421,-122.4614017253986,65.01883,-1,-1,30.34095998051252,65,-9999,1425009226.731322,-35.03857421875,-18.52056884765625,14.69480895996094,143.5505828857422,129.7726135253906,10,120218.0147967917,-1.104080200195312,-0.3483428955078125,0.0326690673828125,120217.9805739167,-0.2682266607739467,1.555034940515481,-1.276664032833313,120217.9805739167,2.332183050127893,-1.284130700807683,0.4236255326979785,-0.2829950451850891,1.564393043518066,-1.244407057762146,0.05573930963873863,0.306530237197876,0.2370702922344208,XTrueNorthZVertical,0.6044665265133783,-0.07576022299900698,0.6701418132101264,0.4240171818071409,-0.8744038343429565,-0.4110682010650635,-0.2577612102031708,-24.84259986877441,-23.39134979248047,12.86154556274414,2,0.0.0.0,10.83.46.32,3,0
2015-02-26 19:53:46.831,63,1425009220.604738,37.76001728043421,-122.4614017253986,65.01883,-1,-1,30.34095998051252,65,-9999,1425009226.782064,-33.55506134033203,-21.0185546875,11.54953765869141,147.5920562744141,133.8140869140625,10,120218.063853625,-0.6908416748046875,-0.4003143310546875,-0.2368011474609375,120218.0323490833,-0.1885142546062399,2.026113782572436,-0.7541566206497288,120218.0323490833,2.302158306220159,-1.18819927743513,0.4642341121235496,-0.2032824903726578,2.03547191619873,-0.7218999862670898,-0.2538437247276306,0.06378119438886642,0.3540525734424591,XTrueNorthZVertical,0.5751476971808338,-0.04791047582135452,0.6839621814427201,0.4462123490385541,-0.8295150399208069,-0.4477381110191345,-0.3338194191455841,-23.80174255371094,-26.02927398681641,9.256523132324219,2,0.0.0.0,10.83.46.32,3,0
2015-02-26 19:53:46.874,64,1425009220.604738,37.76001728043421,-122.4614017253986,65.01883,-1,-1,30.34095998051252,65,-9999,1425009226.834098,-32.60015869140625,-22.17410278320312,7.588829040527344,148.98876953125,135.2108001708984,10,120218.1129500833,-0.86279296875,-0.465301513671875,-0.1376953125,120218.0841255833,0.3580462959107221,1.889441154377896,-0.05812721921650549,120218.0841255833,2.298793740100632,-1.083024885838757,0.481772174624605,0.3432781994342804,1.898799061775208,-0.02587094344198704,0.05628173798322678,0.07890517264604568,0.2253262549638748,XTrueNorthZVertical,0.540381507903074,-0.01819637000570154,0.7090893393133312,0.4526025190511344,-0.7828289866447449,-0.4633503556251526,-0.4153134226799011,-23.86286163330078,-26.69101333618164,6.919750213623047,2,0.0.0.0,10.83.46.32,3,0
2015-02-26 19:53:46.919,65,1425009220.604738,37.76001728043421,-122.4614017253986,65.01883,-1,-1,30.34095998051252,65,-9999,1425009226.885979,-32.75362396240234,-22.63291931152344,4.343704223632812,147.3587493896484,133.5807800292969,10,120218.1620080833,-0.7060546875,-0.811370849609375,-0.5421600341796875,120218.1359019583,0.3550552996904541,2.604903642285428,0.223502865007701,120218.1359019583,2.319617573365041,-0.9811677320407445,0.4840202333100702,0.3402873575687408,2.614261627197266,0.2557588219642639,-0.06210080906748772,-0.0264188926666975,0.1773905456066132,XTrueNorthZVertical,0.5037741127514953,0.0110436949031565,0.7399321850917423,0.445634440919823,-0.7356744408607483,-0.4653413593769073,-0.4921793639659882,-24.18279647827148,-26.67898941040039,5.757871627807617,2,0.0.0.0,10.83.46.32,3,0
2015-02-26 19:53:46.973,66,1425009220.604738,37.76001728043421,-122.4614017253986,65.01883,-1,-1,30.34095998051252,65,-9999,1425009226.937927,-32.31027984619141,-22.089111328125,0.9488143920898438,145.1146545410156,131.3366851806641,10,120218.2112020833,-0.6026458740234375,-0.799407958984375,-0.7774505615234375,120218.187677375,-0.5823893882423431,2.546619030248499,1.06210885645606,120218.187677375,2.338497377432923,-0.8622677644339477,0.4609560635327241,-0.5971571803092957,2.555976629257202,1.094364523887634,-0.2167976945638657,-0.5214582085609436,-0.1940856873989105,XTrueNorthZVertical,0.4556038317425092,0.03201557413218879,0.776803853060925,0.433561920293358,-0.6800681352615356,-0.4448045790195465,-0.5828003287315369,-25.42648887634277,-26.07876014709473,1.766672134399414,2,0.0.0.0,10.83.46.32,3,0
2015-02-26 19:53:47.020,67,1425009220.604738,37.76001728043421,-122.4614017253986,65.01883,-1,-1,30.34095998051252,65,-9999,1425009226.988903,-32.34438323974609,-20.66169738769531,-2.5792236328125,141.7300567626953,127.9520874023438,10,120218.2601472083,-0.7089385986328125,-0.341552734375,-0.433868408203125,120218.2394537083,-0.1365503891005048,1.541960417459846,1.054867721452135,120218.2394537083,2.3640970943707,-0.7687355183099035,0.4008761658162731,-0.1513180434703827,1.551318049430847,1.087123036384583,0.202593669295311,-0.1467926204204559,0.09112554043531418,XTrueNorthZVertical,0.4100053935387307,0.03151906177321832,0.8123923678865387,0.4134256643678796,-0.6401089429855347,-0.3902252018451691,-0.6618042588233948,-26.74963760375977,-24.72420501708984,-1.702905654907227,2,0.0.0.0,10.83.46.32,3,0
2015-02-26 19:53:47.070,68,1425009220.604738,37.76001728043421,-122.4614017253986,65.01883,-1,-1,30.34095998051252,65,-9999,1425009227.040802,-33.17991638183594,-18.911376953125,-6.090606689453125,137.4150085449219,123.6370391845703,10,120218.3092282917,-0.713775634765625,-0.5849151611328125,-0.5778961181640625,120218.2912301667,0.08844970507203868,1.704409515529153,1.082166187889883,120218.2912301667,2.408995040766712,-0.7162260932247221,0.3634829707702308,0.07368220388889313,1.713767051696777,1.114421129226685,-0.2197575569152832,-0.2056254297494888,0.258458286523819,XTrueNorthZVertical,0.3824933517032281,0.03457539102768613,0.8373362765412951,0.3890647138591554,-0.6136469841003418,-0.35553178191185,-0.7050067782402039,-27.44164085388184,-23.80448913574219,-3.167318344116211,2,0.0.0.0,10.83.46.32,3,0
2015-02-26 19:53:47.130,69,1425009227.076211,37.76000293415817,-122.4613632001122,65.11018,-1,-1,29.52189108479767,65,-9999,1425009227.092712,-33.87905120849609,-17.33100891113281,-9.1693115234375,133.7351531982422,119.9571838378906,10,120218.358282375,-0.2990264892578125,-0.5086822509765625,-0.7213897705078125,120218.3430053333,0.2465796884854556,2.518207895107315,0.7163932627085141,120218.2912301667,2.408995040766712,-0.7162260932247221,0.3634829707702308,0.07368220388889313,1.713767051696777,1.114421129226685,-0.2197575569152832,-0.2056254297494888,0.258458286523819,XTrueNorthZVertical,0.3824933517032281,0.03457539102768613,0.8373362765412951,0.3890647138591554,-0.6136469841003418,-0.35553178191185,-0.7050067782402039,-27.44164085388184,-23.80448913574219,-3.167318344116211,2,0.0.0.0,10.83.46.32,3,0
2015-02-26 19:53:47.170,70,1425009227.076211,37.76000293415817,-122.4613632001122,65.11018,-1,-1,29.52189108479767,65,-9999,1425009227.147504,-33.33339691162109,-16.51533508300781,-12.23138427734375,129.9723815917969,116.1944046020508,10,120218.4073700417,-0.19683837890625,-0.3921966552734375,-0.7696990966796875,120218.3947819583,0.4934193014933029,2.303215427679072,0.5342266525604781,120218.3947819583,2.48939124203661,-0.5090615164403295,0.3424007993332858,0.4786520898342133,2.312572956085205,0.5664810538291931,0.2652045786380768,-0.1051837354898453,0.1187481582164764,XTrueNorthZVertical,0.2878530611400155,0.0767046386752554,0.8896338251855651,0.3461339105432363,-0.4590674936771393,-0.3357495069503784,-0.8225139975547791,-28.28571510314941,-20.90252304077148,-9.629754066467285,2,0.0.0.0,10.83.46.32,3,0
2015-02-26 19:53:47.235,71,1425009227.076211,37.76000293415817,-122.4613632001122,65.11018,-1,-1,29.52189108479767,65,-9999,1425009227.199072,-31.64527130126953,-15.68269348144531,-16.009033203125,126.3540496826172,112.5760726928711,10,120218.4564222917,-0.0793914794921875,-0.4052276611328125,-0.844818115234375,120218.44655825,0.4326475633143487,2.207906484903425,0.6186970623317204,120218.3947819583,2.48939124203661,-0.5090615164403295,0.3424007993332858,0.4786520898342133,2.312572956085205,0.5664810538291931,0.2652045786380768,-0.1051837354898453,0.1187481582164764,XTrueNorthZVertical,0.2878530611400155,0.0767046386752554,0.8896338251855651,0.3461339105432363,-0.4590674936771393,-0.3357495069503784,-0.8225139975547791,-28.28571510314941,-20.90252304077148,-9.629754066467285,2,0.0.0.0,10.83.46.32,3,0
2015-02-26 19:53:47.269,72,1425009227.076211,37.76000293415817,-122.4613632001122,65.11018,-1,-1,29.52189108479767,65,-9999,1425009227.199072,-31.64527130126953,-15.68269348144531,-16.009033203125,126.3540496826172,112.5760726928711,10,120218.5055120833,-0.079193115234375,-0.4326324462890625,-0.8520660400390625,120218.4983337083,0.3867000450272117,2.067647910301094,0.3899102194051932,120218.44655825,2.52915041555788,-0.4085693000938551,0.3528368434694177,0.4178804755210876,2.217263698577881,0.650951087474823,0.2742042541503906,-0.08849023282527924,0.09016086906194687,XTrueNorthZVertical,0.242234104440571,0.1036540283213132,0.9084285028957824,0.3245553104316731,-0.3728218078613281,-0.3455612659454346,-0.8611569404602051,-27.91732215881348,-20.56228637695312,-11.2935676574707,2,0.0.0.0,10.83.46.32,3,0
2015-02-26 19:53:47.330,73,1425009227.076211,37.76000293415817,-122.4613632001122,65.11018,-1,-1,29.52189108479767,65,-9999,1425009227.274881,-28.66120147705078,-15.56375122070312,-19.95309448242188,123.4112167358398,109.6332397460938,10,120218.5545675833,0.0775299072265625,-0.3665618896484375,-0.9892730712890625,120218.55011,0.2687065624023789,1.668481608211221,0.2521904362700345,120218.4983337083,2.566936488702281,-0.3162856437954509,0.3616513745098277,0.3719331324100494,2.07700514793396,0.4221639037132263,0.165460929274559,-0.08059845864772797,0.06190859526395798,XTrueNorthZVertical,0.1988954471983181,0.1264149891410257,0.923570306381633,0.3024528957021658,-0.2909187078475952,-0.3538192808628082,-0.8889197111129761,-26.66757392883301,-19.76813888549805,-15.09272956848145,2,0.0.0.0,10.83.46.32,3,0
2015-02-26 19:53:47.370,74,1425009227.076211,37.76000293415817,-122.4613632001122,65.11018,-1,-1,29.52189108479767,65,-9999,1425009227.329648,-26.46150970458984,-15.308837890625,-21.73374938964844,121.254997253418,107.4770202636719,10,120218.6036559167,0.033294677734375,-0.4619598388671875,-0.9761810302734375,120218.6018864167,0.1474192821413362,0.8335023095353316,0.4007008155099762,120218.6018864167,2.605211672279807,-0.1731619523636981,0.3749403227197192,0.1326723545789719,0.8429089784622192,0.4330637156963348,0.2306254953145981,-0.0904938206076622,-0.05595138296484947,XTrueNorthZVertical,0.1311223695437102,0.1565256136762443,0.9395379870684862,0.2749091498441765,-0.1603282541036606,-0.3662169873714447,-0.9166133403778076,-24.76199340820312,-19.45350646972656,-18.38842010498047,2,0.0.0.0,10.83.46.32,5,0
2015-02-26 19:53:47.435,75,1425009227.076211,37.76000293415817,-122.4613632001122,65.11018,-1,-1,29.52189108479767,65,-9999,1425009227.380519,-24.55170440673828,-15.34284973144531,-22.96523284912109,120.2615432739258,106.4835662841797,10,120218.6527025833,0.028900146484375,-0.4720458984375,-1.032470703125,120218.6018864167,0.1474192821413362,0.8335023095353316,0.4007008155099762,120218.6018864167,2.605211672279807,-0.1731619523636981,0.3749403227197192,0.1326723545789719,0.8429089784622192,0.4330637156963348,0.2306254953145981,-0.0904938206076622,-0.05595138296484947,XTrueNorthZVertical,0.1311223695437102,0.1565256136762443,0.9395379870684862,0.2749091498441765,-0.1603282541036606,-0.3662169873714447,-0.9166133403778076,-24.76199340820312,-19.45350646972656,-18.38842010498047,2,0.0.0.0,10.83.46.32,5,0
2015-02-26 19:53:47.467,76,1425009227.076211,37.76000293415817,-122.4613632001122,65.11018,-1,-1,29.52189108479767,65,-9999,1425009227.430566,-23.92078399658203,-15.35984802246094,-23.44783782958984,118.9495468139648,105.1715698242188,10,120218.7017941667,-0.0699462890625,-0.3544158935546875,-1.038116455078125,120218.7054383333,0.4671341678503299,0.3941678150399028,0.6570830673357955,120218.6536617083,2.634448210246062,-0.149755072215002,0.3785816519046522,0.1561459004878998,0.6407438516616821,0.6411765813827515,0.1675315052270889,-0.1024429723620415,-0.1136807203292847,XTrueNorthZVertical,0.118192765855684,0.1632038004691596,0.944536461099031,0.2593180992729923,-0.1386313587427139,-0.3696029186248779,-0.9187899827957153,-24.02519035339355,-18.95646858215332,-19.82855987548828,2,0.0.0.0,10.83.46.32,5,0
2015-02-26 19:53:47.530,77,1425009227.076211,37.76000293415817,-122.4613632001122,65.11018,-1,-1,29.52189108479767,65,-9999,1425009227.483705,-23.57975006103516,-15.35984802246094,-23.58096313476562,117.8514862060547,104.0735092163086,10,120218.750848875,-0.28643798828125,-0.39434814453125,-0.898712158203125,120218.7054383333,0.4671341678503299,0.3941678150399028,0.6570830673357955,120218.7054383333,2.674248345218581,-0.1387773631473452,0.3889491123376014,0.4523875713348389,0.4035748839378357,0.6894444227218628,0.05805373936891556,0.02480033598840237,-0.1217044070363045,XTrueNorthZVertical,0.1108171428145848,0.1717950399260575,0.9490849466719363,0.2396743675493401,-0.1280000358819962,-0.3792162239551544,-0.9164120554924011,-24.04774284362793,-18.43129730224609,-20.29094886779785,2,0.0.0.0,10.83.46.32,5,0
2015-02-26 19:53:47.566,78,1425009227.076211,37.76000293415817,-122.4613632001122,65.11018,-1,-1,29.52189108479767,65,-9999,1425009227.533823,-23.49449157714844,-15.34284973144531,-23.96372985839844,116.0786361694336,102.3006591796875,10,120218.7999372917,-0.18963623046875,-0.4863128662109375,-0.84466552734375,120218.757214625,0.4759649437089236,0.4978017993831373,0.06486368519386092,120218.757214625,2.699506363107798,-0.1291899400564496,0.4110386110366013,0.4612182676792145,0.5072085857391357,0.09722520411014557,-0.1683379113674164,0.005213500000536442,0.01035487186163664,XTrueNorthZVertical,0.1063038595161882,0.1848404020172011,0.9502563227231351,0.2270384322158229,-0.1181000769138336,-0.3995616436004639,-0.9090670347213745,-24.17175674438477,-18.19865989685059,-20.35348129272461,2,0.0.0.0,10.83.46.32,5,0
2015-02-26 19:53:47.622,79,1425009227.076211,37.76000293415817,-122.4613632001122,65.11018,-1,-1,29.52189108479767,65,-9999,1425009227.585529,-22.53958892822266,-15.2069091796875,-24.42969512939453,114.4196929931641,100.641716003418,10,120218.848985625,-0.0114593505859375,-0.520904541015625,-0.803436279296875,120218.808989875,0.1520686287723966,1.025665361151089,-0.1154600174798403,120218.808989875,2.69610920330573,-0.08475956669168219,0.4272143554867039,0.1373221129179001,1.035072088241577,-0.08309881389141083,-0.1125868931412697,-0.07197573035955429,0.06219065934419632,XTrueNorthZVertical,0.08716803785360959,0.1974174260383884,0.9502897318427265,0.2244493973519183,-0.07704933732748032,-0.4143371284008026,-0.9068561792373657,-23.47293281555176,-18.62023735046387,-20.78550720214844,2,0.0.0.0,10.83.46.32,5,0
2015-02-26 19:53:47.669,80,1425009227.076211,37.76000293415817,-122.4613632001122,65.11018,-1,-1,29.52189108479767,65,-9999,1425009227.638103,-21.17544555664062,-15.78466796875,-25.5946044921875,114.2121429443359,100.4341659545898,10,120218.8982043333,0.0947265625,-0.38836669921875,-0.79498291015625,120218.860766375,-0.3990014524183967,1.438244940387255,0.621271007525282,120218.860766375,2.710270678332571,-0.02858780507381822,0.4177364121725707,-0.4137477874755859,1.447651505470276,0.653631865978241,0.02495104260742664,-0.07610370963811874,0.09404079616069794,XTrueNorthZVertical,0.05802641163158578,0.1995366325693258,0.9548729989755883,0.2122160149179412,-0.02612596936523914,-0.4056925475597382,-0.9136361479759216,-22.44598770141602,-18.60849952697754,-21.90047073364258,2,0.0.0.0,10.83.46.32,5,0
2015-02-26 19:53:47.723,81,1425009227.076211,37.76000293415817,-122.4613632001122,65.11018,-1,-1,29.52189108479767,65,-9999,1425009227.689289,-20.32285308837891,-15.07095336914062,-26.92593383789062,112.341796875,98.56381988525391,10,120218.9471220417,0.1073760986328125,-0.328765869140625,-0.835906982421875,120218.9125429583,-0.4897992666235582,1.267412477522487,1.059986317067267,120218.9125429583,2.762877185927715,0.01816816763876205,0.3946632265253957,-0.5045454502105713,1.276818990707397,1.092346906661987,0.08848454058170319,0.005682629067450762,0.1325227022171021,XTrueNorthZVertical,0.02815280491862065,0.1942177675156271,0.9633609284318336,0.1828185255154565,0.01677058637142181,-0.3844973146915436,-0.9229737520217896,-21.82161331176758,-17.95299530029297,-23.0485668182373,2,0.0.0.0,10.83.46.32,5,0
2015-02-26 19:53:47.758,82,1425009227.076211,37.76000293415817,-122.4613632001122,65.11018,-1,-1,29.52189108479767,65,-9999,1425009227.741519,-19.16333770751953,-13.81346130371094,-28.12413024902344,109.3926239013672,95.61464691162109,10,120218.996204,0.2818450927734375,-0.315185546875,-0.831024169921875,120218.964318125,-0.2143453192833545,1.19694523507899,0.9193783357299177,120218.964318125,2.819384960783726,0.06085418420334825,0.3763840530223717,-0.2290913909673691,1.206351637840271,0.9517385959625244,0.05441771820187569,0.04515709728002548,0.07854687422513962,XTrueNorthZVertical,0.0004974446204171309,0.1893689320586555,0.9700876934787164,0.1518849578634669,0.05655945464968681,-0.3675600588321686,-0.9282783269882202,-20.71762466430664,-15.45072746276855,-25.72516632080078,2,0.0.0.0,10.83.46.32,5,0
2015-02-26 19:53:47.833,83,1425009227.076211,37.76000293415817,-122.4613632001122,65.11018,-1,-1,29.52189108479767,65,-9999,1425009227.797671,-18.00380706787109,-12.72589111328125,-29.55530548095703,106.081413269043,92.30343627929688,10,120219.0452493333,0.424346923828125,-0.213470458984375,-0.8737335205078125,120219.0160945417,0.08333350630188746,1.120543404462361,0.9146565511172072,120219.0160945417,2.868881025164335,0.09878918427393954,0.3780888092487603,0.06858760118484497,1.129949688911438,0.9470164179801941,0.2881133854389191,0.08284427970647812,0.09775311499834061,XTrueNorthZVertical,-0.02253117861305622,0.1925411328478935,0.9731420151626539,0.1241567147654723,0.09166262298822403,-0.3691449463367462,-0.92484050989151,-19.97100639343262,-14.40793037414551,-26.89422988891602,2,0.0.0.0,10.83.46.32,5,0
2015-02-26 19:53:47.856,84,1425009227.076211,37.76000293415817,-122.4613632001122,65.11018,-1,-1,29.52189108479767,65,-9999,1425009227.849347,-17.15121459960938,-12.48797607421875,-30.35409545898438,103.7128524780273,89.93487548828125,10,120219.0943342083,0.46221923828125,-0.2339935302734375,-0.848419189453125,120219.0678710833,0.347387792596007,0.7028979602006467,0.7412445504205886,120219.0678710833,2.913593175009393,0.1287658147130841,0.3942225883497941,0.3326420187950134,0.7123041749000549,0.7736040949821472,0.3252717852592468,0.1864281743764877,0.0503104142844677,XTrueNorthZVertical,-0.04045215138664526,0.2013400703445473,0.9736858599692495,0.09880110810116077,0.1185606196522713,-0.3840905129909515,-0.9156516194343567,-19.45648384094238,-13.91216564178467,-27.52500915527344,2,0.0.0.0,10.83.46.32,5,0
2015-02-26 19:53:47.931,85,1425009227.076211,37.76000293415817,-122.4613632001122,65.11018,-1,-1,29.52189108479767,65,-9999,1425009227.849347,-17.15121459960938,-12.48797607421875,-30.35409545898438,103.7128524780273,89.93487548828125,10,120219.1433767083,0.5881805419921875,-0.2920684814453125,-0.8699951171875,120219.1196465417,0.6148935356628692,0.5113160103347444,0.4446919756603411,120219.1196465417,2.943969201386287,0.1469331513212704,0.420430494176579,0.6001479029655457,0.5207221508026123,0.4770512580871582,0.3283352553844452,0.1641807109117508,0.04354884475469589,XTrueNorthZVertical,-0.05090449112753474,0.2141740334047948,0.9721012873532952,0.08097726019361288,0.1336551010608673,-0.4081535041332245,-0.9030764102935791,-18.62625122070312,-13.5046558380127,-28.29162979125977,2,0.0.0.0,10.83.46.32,5,0
2015-02-26 19:53:47.956,86,1425009227.076211,37.76000293415817,-122.4613632001122,65.11018,-1,-1,29.52189108479767,65,-9999,1425009227.923716,-16.70786285400391,-13.13372802734375,-30.18769073486328,101.6670761108398,87.88909912109375,10,120219.1924727083,0.3465576171875,-0.48095703125,-0.8248291015625,120219.1714227917,1.292762575306733,-0.2909809754436927,0.3096044609466168,120219.1714227917,2.954832532615287,0.1503236650247655,0.4757666917533678,1.278017044067383,-0.2815749049186707,0.3419634103775024,0.4647893607616425,0.03968516364693642,0.07430572062730789,XTrueNorthZVertical,-0.05074785152169296,0.2407616948299872,0.9665229734939758,0.07274487556602571,0.13312628865242,-0.4580201208591461,-0.8789169192314148,-18.36305618286133,-14.1895809173584,-28.12798118591309,2,0.0.0.0,10.83.46.32,5,0
2015-02-26 19:53:48.030,87,1425009227.076211,37.76000293415817,-122.4613632001122,65.11018,-1,-1,29.52189108479767,65,-9999,1425009227.974897,-16.77606964111328,-14.83306884765625,-28.8896484375,101.0414733886719,87.26349639892578,10,120219.2415175417,-0.00347900390625,-0.59033203125,-0.8262786865234375,120219.22319925,1.42535284386629,-0.4782576590913728,0.3569064629641682,120219.22319925,2.960208519308031,0.1204672646378366,0.5480986341851602,1.41060745716095,-0.4688517153263092,0.3892650604248047,0.001095893559977412,-0.04512730240821838,0.04093453288078308,XTrueNorthZVertical,-0.03324659054035126,0.2742793393818569,0.9584633979842417,0.07080562318363891,0.1025723218917847,-0.5210652947425842,-0.8473309874534607,-18.69032287597656,-15.06699180603027,-27.4478931427002,2,0.0.0.0,10.83.46.32,5,0
2015-02-26 19:53:48.054,88,1425009227.076211,37.76000293415817,-122.4613632001122,65.11018,-1,-1,29.52189108479767,65,-9999,1425009228.029161,-17.3558349609375,-16.46441650390625,-26.92593383789062,104.0430145263672,90.26503753662109,10,120219.2906197917,0.098724365234375,-0.6440277099609375,-0.7834625244140625,120219.2749745833,1.17220819697768,0.394811234759266,0.8502916759955181,120219.2749745833,2.988512964727458,0.102644743066347,0.6193095967028521,1.157463073730469,0.4042170941829681,0.8826498985290527,-0.01283239293843508,-0.00253469473682344,0.04149992763996124,XTrueNorthZVertical,-0.02544638343275338,0.3071737169016807,0.9495952706142358,0.05714564363364863,0.0834348127245903,-0.5804731249809265,-0.80999356508255,-19.97040176391602,-17.29725646972656,-25.13398361206055,2,0.0.0.0,10.83.46.32,5,0
2015-02-26 19:53:48.102,89,1425009227.076211,37.76000293415817,-122.4613632001122,65.11018,-1,-1,29.52189108479767,65,-9999,1425009228.083979,-17.88443756103516,-18.18072509765625,-25.54468536376953,102.8464508056641,89.06847381591797,10,120219.3396505,0.277740478515625,-0.829559326171875,-0.810333251953125,120219.3267512083,0.7633791475046732,0.5924739803421462,1.067436776532873,120219.2749745833,2.988512964727458,0.102644743066347,0.6193095967028521,1.157463073730469,0.4042170941829681,0.8826498985290527,-0.01283239293843508,-0.00253469473682344,0.04149992763996124,XTrueNorthZVertical,-0.02544638343275338,0.3071737169016807,0.9495952706142358,0.05714564363364863,0.0834348127245903,-0.5804731249809265,-0.80999356508255,-19.97040176391602,-17.29725646972656,-25.13398361206055,2,0.0.0.0,10.83.46.32,5,0
2015-02-26 19:53:48.150,90,1425009227.076211,37.76000293415817,-122.4613632001122,65.11018,-1,-1,29.52189108479767,65,-9999,1425009228.083979,-17.88443756103516,-18.18072509765625,-25.54468536376953,102.8464508056641,89.06847381591797,10,120219.3887204583,-0.000244140625,-0.9059295654296875,-0.7089385986328125,120219.3785275417,1.128303323246634,-0.7811986246745023,1.613984543876603,120219.3785275417,3.133639419651189,0.03683088326420714,0.7212055875371273,1.113558411598206,-0.7717929482460022,1.646342277526855,0.1131387278437614,-0.2601653635501862,0.02996564283967018,XTrueNorthZVertical,-0.01582706814658145,0.3528442196753883,0.9355440994222894,-0.002777037255029236,0.02765411697328091,-0.660290539264679,-0.7505009174346924,-20.24605369567871,-17.55874443054199,-24.72886848449707,2,0.0.0.0,10.83.46.32,5,0
2015-02-26 19:53:48.232,91,1425009227.076211,37.76000293415817,-122.4613632001122,65.11018,-1,-1,29.52189108479767,65,-9999,1425009228.208485,-23.28986358642578,-18.60554504394531,-21.46749114990234,96.87222290039062,83.09424591064453,10,120219.4377586667,-0.2073516845703125,-1.003570556640625,-0.6350555419921875,120219.4303027917,1.464608637282385,-1.276381737757765,2.336566992958461,120219.3785275417,3.133639419651189,0.03683088326420714,0.7212055875371273,1.113558411598206,-0.7717929482460022,1.646342277526855,0.1131387278437614,-0.2601653635501862,0.02996564283967018,XTrueNorthZVertical,-0.01582706814658145,0.3528442196753883,0.9355440994222894,-0.002777037255029236,0.02765411697328091,-0.660290539264679,-0.7505009174346924,-20.24605369567871,-17.55874443054199,-24.72886848449707,2,0.0.0.0,10.83.46.32,1,0
2015-02-26 19:53:48.249,92,1425009227.076211,37.76000293415817,-122.4613632001122,65.11018,-1,-1,29.52189108479767,65,-9999,1425009228.208485,-23.28986358642578,-18.60554504394531,-21.46749114990234,96.87222290039062,83.09424591064453,10,120219.486838375,-0.1639862060546875,-0.8744354248046875,-0.5728912353515625,120219.4820793333,1.377377594725167,-0.4374202143038797,2.671497849555622,120219.4303027917,-3.008527668969723,-0.1164896779777545,0.7822531363914603,1.449863910675049,-1.266976118087769,2.368924140930176,-0.110062338411808,-0.2839359045028687,0.05785238370299339,XTrueNorthZVertical,0.02839418825324585,0.3833194973793198,0.9223459780950102,-0.03921534187651647,-0.08244254440069199,-0.7048794031143188,-0.7045198678970337,-23.57136917114258,-16.78993797302246,-22.18597984313965,2,0.0.0.0,10.83.46.32,1,0
2015-02-26 19:53:48.336,93,1425009227.076211,37.76000293415817,-122.4613632001122,65.11018,-1,-1,29.52189108479767,65,-9999,1425009228.318508,-32.44670104980469,-15.42784118652344,-15.59300231933594,83.57894134521484,69.80096435546875,10,120219.5358815417,-0.1319122314453125,-0.7728118896484375,-0.44256591796875,120219.5338559583,2.003615663999555,-0.2090434981852248,2.757572547567528,120219.4820793333,-2.803250053012755,-0.3112573537596469,0.8258963738881855,1.362632989883423,-0.428014725446701,2.70385479927063,0.04182354360818863,-0.162381500005722,0.08871464431285858,XTrueNorthZVertical,0.07319493981986876,0.4147048654599661,0.9024274468594029,-0.09103346553683056,-0.2076102942228317,-0.7351557016372681,-0.6453247666358948,-26.46584129333496,-15.40567588806152,-19.79781723022461,2,0.0.0.0,10.83.46.32,1,0
2015-02-26 19:53:48.349,94,1425009227.076211,37.76000293415817,-122.4613632001122,65.11018,-1,-1,29.52189108479767,65,-9999,1425009228.318508,-32.44670104980469,-15.42784118652344,-15.59300231933594,83.57894134521484,69.80096435546875,10,120219.5849593333,-0.30438232421875,-0.632476806640625,-0.2145233154296875,120219.585631125,2.226658601087,-1.012516003268823,1.934664559164641,120219.5338559583,-2.567572789176433,-0.4931076306477883,0.8436316579978802,1.988871216773987,-0.1996380984783173,2.789929151535034,0.1825763881206512,0.002631658921018243,0.102084644138813,XTrueNorthZVertical,0.1011666990519829,0.4438306115797739,0.8768526813485983,-0.1546255987333661,-0.3146717250347137,-0.7470622062683105,-0.5855593681335449,-27.94696044921875,-14.00375175476074,-18.77742004394531,2,0.0.0.0,10.83.46.32,1,0
2015-02-26 19:53:48.400,95,1425009227.076211,37.76000293415817,-122.4613632001122,65.11018,-1,-1,29.52189108479767,65,-9999,1425009228.389853,-37.88623046875,-12.45404052734375,-11.11640167236328,76.16456604003906,62.38658905029297,10,120219.6340043333,-0.686798095703125,-0.57745361328125,0.00213623046875,120219.585631125,2.226658601087,-1.012516003268823,1.934664559164641,120219.585631125,-2.318694121083151,-0.7121285481670675,0.8677162459470946,2.211936950683594,-1.003059387207031,1.967130899429321,0.1181168481707573,0.1303775161504745,0.2749128341674805,XTrueNorthZVertical,0.1323161975175781,0.4876211111297226,0.8380682591137764,-0.2058146794214071,-0.4224991798400879,-0.7628543376922607,-0.489436149597168,-30.78437042236328,-10.62719440460205,-16.40471267700195,2,0.0.0.0,10.83.46.32,1,0
2015-02-26 19:53:48.448,96,1425009227.076211,37.76000293415817,-122.4613632001122,65.11018,-1,-1,29.52189108479767,65,-9999,1425009228.389853,-37.88623046875,-12.45404052734375,-11.11640167236328,76.16456604003906,62.38658905029297,10,120219.6831037083,-0.3917999267578125,-0.854339599609375,-0.2981109619140625,120219.6891840833,1.83297308452051,-0.5873724289579904,-0.9584671489456646,120219.6374075417,-2.122662986826533,-0.90475145463166,0.9079538511947851,2.399631977081299,-0.508716881275177,0.5402834415435791,-0.2029580622911453,0.2107926607131958,0.3823554515838623,XTrueNorthZVertical,0.150574474630306,0.5359269720371144,0.799147714945877,-0.2268756295284911,-0.4838400185108185,-0.7882462739944458,-0.3802192211151123,-32.17207336425781,-9.903576850891113,-14.02162837982178,2,0.0.0.0,10.83.46.32,1,0
2015-02-26 19:53:48.495,97,1425009227.076211,37.76000293415817,-122.4613632001122,65.11018,-1,-1,29.52189108479767,65,-9999,1425009228.442186,-39.40384674072266,-12.30110168457031,-7.139045715332031,73.09943389892578,59.32145690917969,10,120219.732156375,0.3551788330078125,-0.798919677734375,-0.295623779296875,120219.6891840833,1.83297308452051,-0.5873724289579904,-0.9584671489456646,120219.6891840833,-1.982762795511628,-1.039737628772383,0.9801234854143168,1.818251848220825,-0.5779159665107727,-0.9260013699531555,0.08841625601053238,-0.02377345040440559,-0.01606076955795288,XTrueNorthZVertical,0.1430953222993667,0.581806352861321,0.7687798582410701,-0.223612699579691,-0.4802161753177643,-0.8305661678314209,-0.2820501923561096,-32.58149719238281,-10.2783374786377,-12.74877262115479,2,0.0.0.0,10.83.46.32,1,0
2015-02-26 19:53:48.543,98,1425009227.076211,37.76000293415817,-122.4613632001122,65.11018,-1,-1,29.52189108479767,65,-9999,1425009228.495199,-39.04575347900391,-14.459228515625,-3.527816772460938,75.39031219482422,61.61233520507812,10,120219.7813372083,-1.07135009765625,-2.016326904296875,-0.52117919921875,120219.7409594167,1.714506091853861,-1.989542988167359,-1.900201923078471,120219.7409594167,-1.900169981524297,-1.187053668547079,1.084353046367567,1.699784874916077,-1.9800865650177,-1.867736458778381,0.7886633276939392,0.08508148044347763,-0.120600514113903,XTrueNorthZVertical,0.1409279330066364,0.6266001009691325,0.745481981339205,-0.1782365282616104,-0.4334845244884491,-0.8840011358261108,-0.1750232577323914,-32.45961761474609,-13.98308849334717,-8.976399421691895,2,0.0.0.0,10.83.46.32,1,0
2015-02-26 19:53:48.600,99,1425009227.076211,37.76000293415817,-122.4613632001122,65.11018,-1,-1,29.52189108479767,65,-9999,1425009228.550376,-37.83506774902344,-17.56900024414062,-0.2826995849609375,80.38567352294922,66.60769653320312,10,120219.8302738333,-0.30908203125,-0.624664306640625,-0.121124267578125,120219.792736,-1.528884562823666,0.1018387474524121,-0.7190745332940059,120219.792736,-1.917714808873068,-1.220301625231069,1.155617495971013,-1.54360556602478,0.1112949922680855,-0.6866094470024109,-0.8346242904663086,-1.190119385719299,-0.3318709433078766,XTrueNorthZVertical,0.135727588357216,0.6421290960892029,0.7417199177745917,-0.1382021079256012,-0.3788309097290039,-0.9150441884994507,-0.1384964883327484,-31.7838020324707,-16.9633674621582,-5.635896682739258,2,0.0.0.0,10.83.46.32,1,0
2015-02-26 19:53:48.641,100,1425009227.076211,37.76000293415817,-122.4613632001122,65.11018,-1,-1,29.52189108479767,65,-9999,1425009228.62309,-36.14694976806641,-20.10098266601562,0.9987106323242188,87.42385101318359,73.6458740234375,10,120219.8794589167,-0.1385650634765625,-1.132431030273438,-0.04486083984375,120219.8445123333,-0.3164224196533287,-0.2597716569451631,0.1257765709105893,120219.8445123333,-2.070814840245955,-1.069775095546321,1.130702266065377,-0.3311432600021362,-0.2503154873847961,0.158241331577301,0.3986721336841583,0.7178066968917847,0.3325126767158508,XTrueNorthZVertical,0.1350652283444083,0.6159894466905212,0.7641232768081434,-0.1357571981236826,-0.3736629784107208,-0.9047116041183472,-0.2046287655830383,-31.39402008056641,-17.4788932800293,-6.215555191040039,2,0.0.0.0,10.83.46.32,1,0
2015-02-26 19:53:48.682,101,1425009227.076211,37.76000293415817,-122.4613632001122,65.11018,-1,-1,29.52189108479767,65,-9999,1425009228.62309,-36.14694976806641,-20.10098266601562,0.9987106323242188,87.42385101318359,73.6458740234375,10,120219.9284014167,-0.6773223876953125,-0.922882080078125,-0.0537261962890625,120219.8962878333,0.5252283638693184,-0.5735460955266259,-0.4231493992865811,120219.8962878333,-2.020553259118673,-1.13895095947894,1.160344131396939,0.5105076432228088,-0.5640900731086731,-0.3906849324703217,-0.2716721296310425,-0.4911405742168427,-0.09873656928539276,XTrueNorthZVertical,0.1365254290164852,0.6307579234864361,0.7537227546160385,-0.1241260315533502,-0.3623915910720825,-0.916940450668335,-0.1670105010271072,-31.31541442871094,-17.54718589782715,-6.416397094726562,2,0.0.0.0,10.83.46.32,1,0
2015-02-26 19:53:48.740,102,1425009227.076211,37.76000293415817,-122.4613632001122,65.11018,-1,-1,29.52189108479767,65,-9999,1425009228.727462,-35.17499542236328,-21.37547302246094,0.8489303588867188,88.42093658447266,74.64295959472656,10,120219.9775824167,-0.067047119140625,-0.8579559326171875,-0.0697479248046875,120219.9480641667,-0.392258062222207,1.045808712688121,-0.3315001724809213,120219.9480641667,-2.056840868103864,-1.093321850437544,1.172958764316993,-0.4069786071777344,1.055264592170715,-0.299036055803299,0.0324346162378788,0.02941436134278774,0.1889161914587021,XTrueNorthZVertical,0.1267972167676883,0.6284139766759953,0.7578997171724513,-0.1208568235242721,-0.344095379114151,-0.9219009280204773,-0.1780366748571396,-31.07817840576172,-18.16819381713867,-5.813167095184326,2,0.0.0.0,10.83.46.32,1,0
2015-02-26 19:53:48.783,103,1425009227.076211,37.76000293415817,-122.4613632001122,65.11018,-1,-1,29.52189108479767,65,-9999,1425009228.727462,-35.17499542236328,-21.37547302246094,0.8489303588867188,88.42093658447266,74.64295959472656,10,120220.0265148333,-0.3845672607421875,-1.02618408203125,-0.1362152099609375,120219.999840625,0.2954399060568124,0.2548826258159956,-0.3457938906835946,120219.999840625,-2.080336541508087,-1.038260580440943,1.186393504470409,0.2807194888591766,0.264338493347168,-0.3133301138877869,0.1270460933446884,0.0111137293279171,0.05486913770437241,XTrueNorthZVertical,0.1091678103421182,0.6268042266844074,0.7612763964842307,-0.1251283824553118,-0.3230757415294647,-0.9270225167274475,-0.1903976947069168,-30.72048187255859,-18.38545608520508,-6.925037860870361,2,0.0.0.0,10.83.46.32,1,0
2015-02-26 19:53:48.837,104,1425009227.076211,37.76000293415817,-122.4613632001122,65.11018,-1,-1,29.52189108479767,65,-9999,1425009228.831108,-33.99843597412109,-21.86827087402344,-0.9317245483398438,87.63621520996094,73.85823822021484,10,120220.07558625,-0.0965576171875,-0.9999542236328125,-0.1258544921875,120220.051616,-0.0240510078045056,1.102827257942827,-0.1488954723335671,120220.051616,-2.079676207803174,-1.007037318537103,1.198656673568783,-0.03877129778265953,1.112282991409302,-0.1164319887757301,-0.0734718069434166,-0.08471439033746719,0.04947984591126442,XTrueNorthZVertical,0.09338110784943442,0.6277973099626326,0.7614821914314367,-0.1315119453794996,-0.3073417842388153,-0.931551456451416,-0.1943010091781616,-30.02215957641602,-19.10186004638672,-7.969821929931641,2,0.0.0.0,10.83.46.32,1,0
2015-02-26 19:53:48.881,105,1425009227.076211,37.76000293415817,-122.4613632001122,65.11018,-1,-1,29.52189108479767,65,-9999,1425009228.831108,-33.99843597412109,-21.86827087402344,-0.9317245483398438,87.63621520996094,73.85823822021484,10,120220.1247317917,0.1481170654296875,-0.9772796630859375,-0.239715576171875,120220.103392625,-0.07612752502435105,1.022036005217529,0.2446643430294706,120220.103392625,-2.084270562505167,-0.9350531952497445,1.190207755494515,-0.09084766358137131,1.031491637229919,0.2771275043487549,0.3833206295967102,-0.005025518126785755,0.007143378257751465,XTrueNorthZVertical,0.06984671240631304,0.6203526467180619,0.765738161179102,-0.1546903756999837,-0.2988937497138977,-0.9284461736679077,-0.220568060874939,-29.51483917236328,-19.08010101318359,-9.723846435546875,2,0.0.0.0,10.83.46.32,1,0
2015-02-26 19:53:48.937,106,1425009227.076211,37.76000293415817,-122.4613632001122,65.11018,-1,-1,29.52189108479767,65,-9999,1425009228.884027,-33.41867828369141,-21.83428955078125,-2.0633544921875,86.22045135498047,72.44247436523438,10,120220.173695375,-0.4001312255859375,-0.9665985107421875,0.0376739501953125,120220.155169,0.01670467793752202,0.5195638202307198,0.4002981455531562,120220.155169,-2.048568243039605,-0.9389328746764208,1.174401500178328,0.001984696136787534,0.5290193557739258,0.4327609539031982,0.018811309710145,-0.1066243276000023,0.2403150200843811,XTrueNorthZVertical,0.06498562758045408,0.6178619510346577,0.7645524875833372,-0.1717060999090626,-0.3115511834621429,-0.9224589467048645,-0.2280469536781311,-29.30776977539062,-18.81946563720703,-10.79867553710938,2,0.0.0.0,10.83.46.32,1,0
2015-02-26 19:53:48.975,107,1425009227.076211,37.76000293415817,-122.4613632001122,65.11018,-1,-1,29.52189108479767,65,-9999,1425009228.935077,-33.48688507080078,-21.32449340820312,-3.261550903320312,83.64692687988281,69.86894989013672,10,120220.2228346667,-0.2080841064453125,-0.9072113037109375,-0.2292938232421875,120220.2069444583,0.0795741881071316,1.093958931512863,0.5214613225074013,120220.155169,-2.048568243039605,-0.9389328746764208,1.174401500178328,0.001984696136787534,0.5290193557739258,0.4327609539031982,0.018811309710145,-0.1066243276000023,0.2403150200843811,XTrueNorthZVertical,0.06498562758045408,0.6178619510346577,0.7645524875833372,-0.1717060999090626,-0.3115511834621429,-0.9224589467048645,-0.2280469536781311,-29.30776977539062,-18.81946563720703,-10.79867553710938,2,0.0.0.0,10.83.46.32,1,0
2015-02-26 19:53:49.038,108,1425009227.076211,37.76000293415817,-122.4613632001122,65.11018,-1,-1,29.52189108479767,65,-9999,1425009228.986083,-33.43573760986328,-20.55979919433594,-4.975631713867188,80.47284698486328,66.69486999511719,10,120220.2717992917,-0.092926025390625,-0.9659271240234375,-0.1568756103515625,120220.2587208333,-0.1192449020210609,1.090198281737562,0.7176265726093298,120220.2587208333,-1.966790804191235,-0.9115696343651882,1.130237473185772,-0.1339646130800247,1.099653720855713,0.7500887513160706,0.02872549369931221,-0.1129273101687431,0.1613923013210297,XTrueNorthZVertical,0.04293793943040616,0.6062642243104081,0.7618410496142236,-0.2240496644623638,-0.3370903730392456,-0.9045134782791138,-0.2612000405788422,-29.08966827392578,-17.15605163574219,-13.75464248657227,2,0.0.0.0,10.83.46.32,1,0
2015-02-26 19:53:49.074,109,1425009227.076211,37.76000293415817,-122.4613632001122,65.11018,-1,-1,29.52189108479767,65,-9999,1425009229.037941,-33.91319274902344,-19.57420349121094,-6.639801025390625,76.86580657958984,63.08782958984375,10,120220.3208445417,-0.2082366943359375,-0.9025115966796875,-0.1850433349609375,120220.3104974583,0.09129848849009645,0.2016210019110649,0.7005378668426184,120220.2587208333,-1.966790804191235,-0.9115696343651882,1.130237473185772,-0.1339646130800247,1.099653720855713,0.7500887513160706,0.02872549369931221,-0.1129273101687431,0.1613923013210297,XTrueNorthZVertical,0.04293793943040616,0.6062642243104081,0.7618410496142236,-0.2240496644623638,-0.3370903730392456,-0.9045134782791138,-0.2612000405788422,-29.08966827392578,-17.15605163574219,-13.75464248657227,2,0.0.0.0,10.83.46.32,1,0
2015-02-26 19:53:49.132,110,1425009227.076211,37.76000293415817,-122.4613632001122,65.11018,-1,-1,29.52189108479767,65,-9999,1425009229.089598,-34.69757843017578,-17.97683715820312,-8.40380859375,72.33132171630859,58.55334854125977,10,120220.3698978333,-0.671295166015625,-0.9180908203125,-0.1651153564453125,120220.3622726667,0.1008728189250403,-0.1687671814394114,0.5899964415800454,120220.3104974583,-1.917192773566353,-0.9151846290908373,1.094624138453635,0.07657893747091293,0.2110763043165207,0.7329997420310974,0.3190353810787201,-0.02660347335040569,0.08401450514793396,XTrueNorthZVertical,0.04045337930947759,0.5988647488835047,0.7590626040863433,-0.252088304109946,-0.3633469045162201,-0.8887560367584229,-0.279449075460434,-29.02561950683594,-16.45933532714844,-14.70826244354248,2,0.0.0.0,10.83.46.32,1,0
2015-02-26 19:53:49.170,111,1425009227.076211,37.76000293415817,-122.4613632001122,65.11018,-1,-1,29.52189108479767,65,-9999,1425009229.142265,-35.43080902099609,-16.77032470703125,-8.853126525878906,69.88296508789062,56.1049919128418,10,120220.4189425417,-0.6514892578125,-0.8624725341796875,0.0027008056640625,120220.4140492917,0.2084171226968381,0.05269437059274384,-0.0750971479985994,120220.3622726667,-1.863589619434977,-0.9646967413853186,1.069119619745175,0.08615341782569885,-0.159311980009079,0.6224579811096191,-0.2167012244462967,-0.03069323115050793,0.06977250427007675,XTrueNorthZVertical,0.05121893626675215,0.6003344408178493,0.7528456935557126,-0.2649500986496696,-0.3952372372150421,-0.8767774701118469,-0.2739503681659698,-29.49834060668945,-14.7611665725708,-15.54622650146484,2,0.0.0.0,10.83.46.32,1,0
2015-02-26 19:53:49.230,112,1425009227.076211,37.76000293415817,-122.4613632001122,65.11018,-1,-1,29.52189108479767,65,-9999,1425009229.197544,-35.94235992431641,-15.98863220214844,-8.420440673828125,68.86003875732422,55.08206558227539,10,120220.4680200833,-0.4387969970703125,-0.9282989501953125,-0.09893798828125,120220.4658256667,0.06878305937013053,0.589846505610674,-0.09696915739920217,120220.4658256667,-1.830962925900899,-0.9832010041319746,1.072221646658156,0.05406394600868225,0.5993015170097351,-0.06450826674699783,-0.09268861263990402,-0.03218116238713264,0.1958063691854477,XTrueNorthZVertical,0.04732892004732943,0.604333793751246,0.7478389633857397,-0.2706982401933005,-0.3979730010032654,-0.8782650232315063,-0.2650812864303589,-29.89418411254883,-14.28709030151367,-15.22977447509766,2,0.0.0.0,10.83.46.32,1,0
2015-02-26 19:53:49.269,113,1425009227.076211,37.76000293415817,-122.4613632001122,65.11018,-1,-1,29.52189108479767,65,-9999,1425009229.197544,-35.94235992431641,-15.98863220214844,-8.420440673828125,68.86003875732422,55.08206558227539,10,120220.5171657083,-0.2077789306640625,-0.903045654296875,-0.1371002197265625,120220.4658256667,0.06878305937013053,0.589846505610674,-0.09696915739920217,120220.4658256667,-1.830962925900899,-0.9832010041319746,1.072221646658156,0.05406394600868225,0.5993015170097351,-0.06450826674699783,-0.09268861263990402,-0.03218116238713264,0.1958063691854477,XTrueNorthZVertical,0.04732892004732943,0.604333793751246,0.7478389633857397,-0.2706982401933005,-0.3979730010032654,-0.8782650232315063,-0.2650812864303589,-29.89418411254883,-14.28709030151367,-15.22977447509766,2,0.0.0.0,10.83.46.32,1,0
2015-02-26 19:53:49.329,114,1425009227.076211,37.76000293415817,-122.4613632001122,65.11018,-1,-1,29.52189108479767,65,-9999,1425009229.323909,-35.31142425537109,-15.73371887207031,-9.5687255859375,64.96852111816406,51.19054794311523,10,120220.5661443333,-0.393524169921875,-0.9017791748046875,-0.2483978271484375,120220.5693775833,-0.2332556272356802,0.4184545126008805,0.3384691324214406,120220.517601,-1.834229839382296,-0.9415202460659889,1.070178492762294,-0.1063806936144829,0.7424857020378113,0.08995817601680756,0.1802527457475662,-0.02575946599245071,0.1453893929719925,XTrueNorthZVertical,0.03337605585797935,0.5980311330242777,0.7492510559420945,-0.2826086894328425,-0.3880316913127899,-0.8772861957550049,-0.2824895977973938,-29.17602920532227,-14.51415920257568,-16.36544227600098,2,0.0.0.0,10.83.46.32,1,0
2015-02-26 19:53:49.368,115,1425009227.076211,37.76000293415817,-122.4613632001122,65.11018,-1,-1,29.52189108479767,65,-9999,1425009229.323909,-35.31142425537109,-15.73371887207031,-9.5687255859375,64.96852111816406,51.19054794311523,10,120220.6152915833,-0.3045654296875,-0.977569580078125,-0.2196502685546875,120220.5693775833,-0.2332556272356802,0.4184545126008805,0.3384691324214406,120220.5693775833,-1.831912929516217,-0.9167385706704468,1.056542259115759,-0.2479497790336609,0.4279636144638062,0.3710376024246216,-0.003153194673359394,-0.03111929632723331,0.0508711114525795,XTrueNorthZVertical,0.02782408183333721,0.5912625061148548,0.7501455041560635,-0.2948155444877134,-0.3903709650039673,-0.8706598877906799,-0.2992689311504364,-28.76428985595703,-14.25784778594971,-17.29331207275391,2,0.0.0.0,10.83.46.32,1,0
2015-02-26 19:53:49.428,116,1425009227.076211,37.76000293415817,-122.4613632001122,65.11018,-1,-1,29.52189108479767,65,-9999,1425009229.379812,-35.07270050048828,-15.15594482421875,-10.66706848144531,68.72819519042969,54.95021820068359,10,120220.6642712917,-0.0316619873046875,-1.036697387695312,-0.4471282958984375,120220.6211542083,-0.2800716023542921,0.2398573372618776,0.3161513098543586,120220.6211542083,-1.830267736228638,-0.8988202737489348,1.03186840707472,-0.2947656214237213,0.249366357922554,0.3487195074558258,0.09707397967576981,-0.119310200214386,0.0998440757393837,XTrueNorthZVertical,0.02860894551952119,0.582609953314671,0.7516777157724519,-0.3077788093587267,-0.4016394019126892,-0.858259379863739,-0.3194943368434906,-35.03847503662109,-15.39373779296875,-10.40093231201172,2,0.0.0.0,10.83.46.32,1,0
2015-02-26 19:53:49.466,117,1425009227.076211,37.76000293415817,-122.4613632001122,65.11018,-1,-1,29.52189108479767,65,-9999,1425009229.453081,-35.70362091064453,-14.79910278320312,-11.44922637939453,68.40422821044922,54.62625503540039,10,120220.7134201667,-0.5374908447265625,-1.302719116210938,-0.60943603515625,120220.6729294167,-0.2466574527892859,-1.026616109660247,0.07284065160697525,120220.6729294167,-1.837526876523646,-0.9129998923898806,1.019489283426989,-0.2613513171672821,-1.017107129096985,0.1054085195064545,0.3828434646129608,-0.1848567724227905,-0.126889631152153,XTrueNorthZVertical,0.04006131970281585,0.5816147866809895,0.7532772262155981,-0.3044548642851008,-0.4145054519176483,-0.851840615272522,-0.3202386498451233,-35.2841911315918,-14.41011619567871,-10.96429252624512,2,0.0.0.0,10.83.46.32,1,0
2015-02-26 19:53:49.524,118,1425009227.076211,37.76000293415817,-122.4613632001122,65.11018,-1,-1,29.52189108479767,65,-9999,1425009229.504349,-36.98250579833984,-13.76252746582031,-10.43408966064453,71.38454437255859,57.60657119750977,10,120220.7623863333,-0.3526611328125,-0.8092803955078125,-0.3534393310546875,120220.7764825,-1.395403999511695,-0.1261169228979014,0.3873290836766884,120220.7247060833,-1.862117723086703,-0.9616051518918418,0.9888692009595008,-0.8718342781066895,-1.358172178268433,0.5566927790641785,-0.151807889342308,-0.3778976202011108,-0.1733047664165497,XTrueNorthZVertical,0.07542694671753863,0.5805678619529375,0.7571283575541025,-0.2898420206041912,-0.4507616758346558,-0.8354049921035767,-0.3145034611225128,-35.94620513916016,-13.94987297058105,-9.279703140258789,2,0.0.0.0,10.83.46.32,1,0
2015-02-26 19:53:49.563,119,1425009227.076211,37.76000293415817,-122.4613632001122,65.11018,-1,-1,29.52189108479767,65,-9999,1425009229.556809,-38.12497711181641,-12.4200439453125,-9.552085876464844,73.01154327392578,59.23356628417969,10,120220.81143175,-0.0322418212890625,-0.61279296875,-0.4031219482421875,120220.7764825,-1.395403999511695,-0.1261169228979014,0.3873290836766884,120220.7764825,-1.917772691443248,-0.9516119518809276,0.9379270063966513,-1.410097599029541,-0.1166081875562668,0.4198962450027466,0.2233871072530746,0.06069775298237801,-0.1164957731962204,XTrueNorthZVertical,0.1036786311354995,0.5635754961691901,0.7679945466672964,-0.2860380939613518,-0.4816573560237885,-0.8063337206840515,-0.3432668149471283,-36.51222229003906,-13.17312717437744,-8.134355545043945,2,0.0.0.0,10.83.46.32,1,0
2015-02-26 19:53:49.623,120,1425009227.076211,37.76000293415817,-122.4613632001122,65.11018,-1,-1,29.52189108479767,65,-9999,1425009229.608361,-39.642578125,-10.60179138183594,-9.402305603027344,73.69659423828125,59.91861724853516,10,120220.8605357083,-0.7922515869140625,-0.5211639404296875,-0.1461944580078125,120220.8282577917,-1.160046605543724,-1.430857864155593,0.6241205898916667,120220.8282577917,-1.969231557301751,-0.9363683782515287,0.886751460930995,-1.174739956855774,-1.421349287033081,0.6566874980926514,0.1821225136518478,0.06185769662261009,-0.06719981133937836,XTrueNorthZVertical,0.127809067138215,0.5444135812783171,0.7786221619190146,-0.2846510797270325,-0.508965790271759,-0.7750229835510254,-0.3745573759078979,-37.12677764892578,-11.35074520111084,-8.099656105041504,2,0.0.0.0,10.83.46.32,1,0
2015-02-26 19:53:49.662,121,1425009227.076211,37.76000293415817,-122.4613632001122,65.11018,-1,-1,29.52189108479767,65,-9999,1425009229.608361,-39.642578125,-10.60179138183594,-9.402305603027344,73.69659423828125,59.91861724853516,10,120220.9095522917,-0.4622650146484375,-0.595306396484375,-0.2986907958984375,120220.8800343333,-2.102225062314138,-0.175979287987455,-1.16239657888961,120220.8800343333,-2.085163107885794,-0.8866903004374567,0.8445557565861521,-2.116918325424194,-0.1664707362651825,-1.129830002784729,-0.2745610177516937,0.2755387425422668,0.2486851662397385,XTrueNorthZVertical,0.1513675006198116,0.5169625734280809,0.8002762541640015,-0.2634302712221795,-0.5146388411521912,-0.7476761937141418,-0.4196751415729523,-37.59589004516602,-10.47005462646484,-7.054673194885254,2,0.0.0.0,10.83.46.32,1,0
2015-02-26 19:53:49.720,122,1425009227.076211,37.76000293415817,-122.4613632001122,65.11018,-1,-1,29.52189108479767,65,-9999,1425009229.713964,-37.83509063720703,-11.28152465820312,-11.99839782714844,80.92671966552734,67.14874267578125,10,120220.9586268333,-0.187835693359375,-0.835723876953125,-0.519287109375,120220.9318110833,-2.54072625370448,1.255424524191604,-2.967730046036733,120220.9318110833,-2.335871368427946,-0.6645457280447037,0.8367807353083782,-2.555419206619263,1.264932990074158,-2.935163736343384,0.1344761252403259,0.05602812394499779,0.09145704656839371,XTrueNorthZVertical,0.1236206970985009,0.4701737702884108,0.8465732641428584,-0.216721643507048,-0.4131016135215759,-0.7424905300140381,-0.5273091197013855,-37.37271881103516,-11.10387992858887,-7.268070220947266,2,0.0.0.0,10.83.46.32,1,0
2015-02-26 19:53:49.760,123,1425009227.076211,37.76000293415817,-122.4613632001122,65.11018,-1,-1,29.52189108479767,65,-9999,1425009229.713964,-37.83509063720703,-11.28152465820312,-11.99839782714844,80.92671966552734,67.14874267578125,10,120221.00777275,-0.128631591796875,-1.0765380859375,-0.4468994140625,120220.9835864167,-2.255309154410181,0.3222249150363933,-3.508583442337656,120220.9835864167,-2.632600978605271,-0.4045573872596642,0.8246413963050196,-2.2700035572052,0.3317492604255676,-3.476036548614502,0.06788147240877151,-0.111688643693924,0.1159365698695183,XTrueNorthZVertical,0.07930499368817943,0.426261486505534,0.8888734508530364,-0.1480400783945099,-0.2671917676925659,-0.7343044281005859,-0.6240237355232239,-33.69250106811523,-16.98940277099609,-12.20724964141846,2,0.0.0.0,10.83.46.32,1,0
2015-02-26 19:53:49.825,124,1425009227.076211,37.76000293415817,-122.4613632001122,65.11018,-1,-1,29.52189108479767,65,-9999,1425009229.789298,-30.74152374267578,-14.95205688476562,-17.15729522705078,93.08245849609375,79.30448150634766,10,120221.05674425,-0.33856201171875,-0.914306640625,-0.5349578857421875,120221.0353627917,-1.875675008387168,0.4514918248716404,-4.005481631162929,120221.0353627917,-2.948099345691476,-0.1572058631959916,0.7741870436313552,-1.890369296073914,0.4610160887241364,-3.972935199737549,-0.01972992718219757,-0.5311048030853271,0.1782034486532211,XTrueNorthZVertical,0.03601997044016761,0.3815968518991529,0.921697351029812,-0.05966917796485095,-0.1119381636381149,-0.6991350650787354,-0.7061728239059448,-30.27215194702148,-20.9873104095459,-14.69595146179199,2,0.0.0.0,10.83.46.32,1,0
2015-02-26 19:53:49.858,125,1425009227.076211,37.76000293415817,-122.4613632001122,65.11018,-1,-1,29.52189108479767,65,-9999,1425009229.842001,-24.58582305908203,-17.95986938476562,-20.33586120605469,100.972770690918,87.19479370117188,10,120221.1058929167,0.0059814453125,-0.8131103515625,-0.4143829345703125,120221.0871395417,-1.613745125694604,0.9813666058948201,-4.171006680291278,120221.0871395417,3.066555757950179,0.05900309051779853,0.7006114003989121,-1.62843930721283,0.9908907413482666,-4.138460636138916,-0.3486369848251343,-0.1637712270021439,0.36371910572052,XTrueNorthZVertical,-0.01481919062415287,0.3438334517463717,0.9385781444597826,0.02510038119391297,0.04507863894104958,-0.6446852087974548,-0.7631179094314575,-27.37641906738281,-23.54237174987793,-16.40517425537109,2,0.0.0.0,10.83.46.32,1,0
2015-02-26 19:53:49.923,126,1425009227.076211,37.76000293415817,-122.4613632001122,65.11018,-1,-1,29.52189108479767,65,-9999,1425009229.89787,-17.49225616455078,-19.69319152832031,-23.09837341308594,108.4799194335938,94.70194244384766,10,120221.1548651667,0.3979034423828125,-0.7883148193359375,-0.5966033935546875,120221.1389147917,-1.041167089224222,1.139969566717835,-4.16625213879716,120221.1389147917,2.815295037138886,0.2748213128378909,0.5982909823677807,-1.055861115455627,1.14949369430542,-4.133706092834473,0.1246705055236816,-0.2402051389217377,0.2579684555530548,XTrueNorthZVertical,-0.08174068805121242,0.3093101024835744,0.9405682162613896,0.1139173574202388,0.2242369651794434,-0.5632311105728149,-0.7952914237976074,-17.92005729675293,-28.4208984375,-21.07048988342285,2,0.0.0.0,10.83.46.32,1,0
2015-02-26 19:53:49.956,127,1425009227.076211,37.76000293415817,-122.4613632001122,65.11018,-1,-1,29.52189108479767,65,-9999,1425009229.89787,-17.49225616455078,-19.69319152832031,-23.09837341308594,108.4799194335938,94.70194244384766,10,120221.2040156667,0.4460296630859375,-0.6295623779296875,-0.6682281494140625,120221.1906915,-0.1034299862037344,0.142705753328005,-3.047986802331252,120221.1389147917,2.815295037138886,0.2748213128378909,0.5982909823677807,-1.055861115455627,1.14949369430542,-4.133706092834473,0.1246705055236816,-0.2402051389217377,0.2579684555530548,XTrueNorthZVertical,-0.08174068805121242,0.3093101024835744,0.9405682162613896,0.1139173574202388,0.2242369651794434,-0.5632311105728149,-0.7952914237976074,-17.92005729675293,-28.4208984375,-21.07048988342285,2,0.0.0.0,10.83.46.32,1,0
2015-02-26 19:53:50.022,128,1425009227.076211,37.76000293415817,-122.4613632001122,65.11018,-1,-1,29.52189108479767,65,-9999,1425009229.971695,-6.766654968261719,-20.76374816894531,-25.74440765380859,123.9789276123047,110.2009506225586,10,120221.2529877083,0.1928863525390625,-0.4934234619140625,-0.5724945068359375,120221.2424678333,-0.0903594578897345,-0.2936699691963457,-2.109800956667086,120221.2424678333,2.504972833481252,0.4515592485128403,0.4589191518731316,-0.105053186416626,-0.2841461002826691,-2.077255725860596,-0.1698747277259827,-0.006086810957640409,0.1529839336872101,XTrueNorthZVertical,-0.1376706793830711,0.2787679297214034,0.9173340739879062,0.2486632973360245,0.3912187218666077,-0.4429793655872345,-0.8066704273223877,-8.850707054138184,-31.02487945556641,-23.06432914733887,2,0.0.0.0,10.83.46.32,1,0
2015-02-26 19:53:50.053,129,1425009227.076211,37.76000293415817,-122.4613632001122,65.11018,-1,-1,29.52189108479767,65,-9999,1425009230.022779,-1.736366271972656,-21.25654602050781,-26.26029968261719,133.3773345947266,119.5993576049805,10,120221.3020240417,0.27777099609375,-0.5525970458984375,-0.641876220703125,120221.294243375,-0.2208745913279018,0.003602990638768201,-1.671822543798726,120221.2424678333,2.504972833481252,0.4515592485128403,0.4589191518731316,-0.105053186416626,-0.2841461002826691,-2.077255725860596,-0.1698747277259827,-0.006086810957640409,0.1529839336872101,XTrueNorthZVertical,-0.1376706793830711,0.2787679297214034,0.9173340739879062,0.2486632973360245,0.3912187218666077,-0.4429793655872345,-0.8066704273223877,-8.850707054138184,-31.02487945556641,-23.06432914733887,2,0.0.0.0,10.83.46.32,1,0
2015-02-26 19:53:50.120,130,1425009227.076211,37.76000293415817,-122.4613632001122,65.11018,-1,-1,29.52189108479767,65,-9999,1425009230.075214,1.520523071289062,-21.34150695800781,-26.54319763183594,139.3192749023438,125.5412979125977,10,120221.3510840833,0.1515960693359375,-0.4163665771484375,-0.6152496337890625,120221.3460198333,-0.0460854700316032,0.006209959029846768,-0.9994366865232257,120221.294243375,2.419963035260993,0.4828185202835904,0.4062111459693158,-0.2355681657791138,0.01312675327062607,-1.639277696609497,-0.1723309010267258,-0.1662697345018387,0.165987640619278,XTrueNorthZVertical,-0.1499328618605864,0.2659171412174342,0.9068294880406166,0.2906346570959187,0.4264965653419495,-0.3951316475868225,-0.8136163949966431,-4.086193084716797,-31.78780364990234,-23.35979270935059,2,0.0.0.0,10.83.46.32,1,0
2015-02-26 19:53:50.153,131,1425009227.076211,37.76000293415817,-122.4613632001122,65.11018,-1,-1,29.52189108479767,65,-9999,1425009230.132863,3.754310607910156,-20.67877197265625,-27.15894317626953,143.8382568359375,130.0602874755859,10,120221.400230875,0.317779541015625,-0.4058837890625,-0.6588287353515625,120221.3977965833,0.0321744480775743,0.4969314783388994,-0.6486720056649983,120221.3460198333,2.363078162316647,0.5049271473148298,0.3710444405235762,-0.06077888980507851,0.01573362573981285,-0.9668921232223511,-0.2448613792657852,-0.05957592278718948,0.1861343532800674,XTrueNorthZVertical,-0.1593542998129486,0.2584196754214861,0.8979756682060925,0.3185360123129376,0.450824499130249,-0.3625890016555786,-0.8156509399414062,-2.555474281311035,-31.78991317749023,-23.57355308532715,2,0.0.0.0,10.83.46.32,1,0
2015-02-26 19:53:50.218,132,1425009227.076211,37.76000293415817,-122.4613632001122,65.11018,-1,-1,29.52189108479767,65,-9999,1425009230.204281,6.107475280761719,-19.55720520019531,-27.62490844726562,145.6241302490234,131.8461608886719,10,120221.449201875,0.3482818603515625,-0.4119720458984375,-0.6294097900390625,120221.4495718333,-0.1704766645431333,0.1614408252806034,-0.001323591061769381,120221.3977965833,2.326743136601317,0.5291431262608937,0.3503569923669668,0.01748116128146648,0.5064550638198853,-0.6161277294158936,-0.2212285697460175,-0.1267375648021698,0.19699826836586,XTrueNorthZVertical,-0.1697599677208243,0.2564807889387576,0.8906929962040568,0.3347613450236518,0.4741277396678925,-0.3432331383228302,-0.8107982873916626,-0.9595251083374023,-31.78792953491211,-23.69490051269531,2,0.0.0.0,10.83.46.32,1,0
2015-02-26 19:53:50.250,133,1425009227.076211,37.76000293415817,-122.4613632001122,65.11018,-1,-1,29.52189108479767,65,-9999,1425009230.204281,6.107475280761719,-19.55720520019531,-27.62490844726562,145.6241302490234,131.8461608886719,10,120221.498368125,0.50262451171875,-0.23858642578125,-0.6671142578125,120221.4495718333,-0.1704766645431333,0.1614408252806034,-0.001323591061769381,120221.4495718333,2.318246470252765,0.5488403095850333,0.3408257797716452,-0.1851697862148285,0.1709643006324768,0.03122032433748245,-0.1434077322483063,-0.07770656049251556,0.1746473759412766,XTrueNorthZVertical,-0.1794302156729223,0.2564687332054053,0.8877723040977048,0.3374743486738855,0.4916895925998688,-0.3342655003070831,-0.8040571808815002,0.9801445007324219,-31.74115180969238,-23.75668334960938,2,0.0.0.0,10.83.46.32,1,0
2015-02-26 19:53:50.320,134,1425009227.076211,37.76000293415817,-122.4613632001122,65.11018,-1,-1,29.52189108479767,65,-9999,1425009230.309226,7.284046173095703,-18.89451599121094,-27.64156341552734,144.7220611572266,130.944091796875,10,120221.5473254583,0.4480438232421875,-0.307373046875,-0.8212432861328125,120221.5531249583,-0.03929653978077321,0.3917693721621775,-0.07954276280626867,120221.5013485833,2.332150486388228,0.562912551234248,0.3350435182918024,-0.2976258993148804,0.5044215321540833,0.2358421087265015,-0.001353941392153502,0.09022384136915207,0.1315656155347824,XTrueNorthZVertical,-0.1886693105888929,0.2550763754161429,0.8889175511833122,0.3304020800312344,0.503978431224823,-0.3288102746009827,-0.7986798882484436,1.142765998840332,-31.53537368774414,-24.02198028564453,2,0.0.0.0,10.83.46.32,1,0
2015-02-26 19:53:50.349,135,1425009227.076211,37.76000293415817,-122.4613632001122,65.11018,-1,-1,29.52189108479767,65,-9999,1425009230.309226,7.284046173095703,-18.89451599121094,-27.64156341552734,144.7220611572266,130.944091796875,10,120221.5963669167,0.68914794921875,-0.475799560546875,-0.960968017578125,120221.5531249583,-0.03929653978077321,0.3917693721621775,-0.07954276280626867,120221.5531249583,2.344773030427653,0.5750805551294885,0.3255785518493335,-0.05398938432335854,0.4012926816940308,-0.04699946567416191,-0.06728510558605194,0.01248395070433617,-0.02617876045405865,XTrueNorthZVertical,-0.1976326129308223,0.2518116118279084,0.8899850516432553,0.3247443358251947,0.5153289437294006,-0.3198570013046265,-0.7950645089149475,1.282402992248535,-31.33635330200195,-24.27405548095703,2,0.0.0.0,10.83.46.32,1,0
2015-02-26 19:53:50.424,136,1425009227.076211,37.76000293415817,-122.4613632001122,65.11018,-1,-1,29.52189108479767,65,-9999,1425009230.412416,8.528827667236328,-17.68798828125,-28.05760192871094,141.6277923583984,127.8498153686523,10,120221.6454380833,0.5140533447265625,-0.36077880859375,-0.8156280517578125,120221.6049005,-0.4857081185569785,0.3610886911400286,0.6608514402782576,120221.6049005,2.365363153174299,0.5993131025791558,0.3339619350736873,-0.5003744959831238,0.3706677556037903,0.6935017704963684,0.1562370806932449,-0.1480109244585037,-0.1808650642633438,XTrueNorthZVertical,-0.2093397210443376,0.2571485985489092,0.8906431792569474,0.3111369795519593,0.5329108834266663,-0.3277886211872101,-0.7801029682159424,1.757698059082031,-31.14156341552734,-24.49397659301758,2,0.0.0.0,10.83.46.32,1,0
2015-02-26 19:53:50.447,137,1425009227.076211,37.76000293415817,-122.4613632001122,65.11018,-1,-1,29.52189108479767,65,-9999,1425009230.412416,8.528827667236328,-17.68798828125,-28.05760192871094,141.6277923583984,127.8498153686523,10,120221.6944889583,0.77362060546875,-0.092742919921875,-0.8051910400390625,120221.6566769583,-1.049736608979879,0.4652260129292881,1.212125253292442,120221.6566769583,2.432371574320164,0.5936401023651132,0.3263654069330207,-1.06440281867981,0.4748049676418304,1.244775295257568,-0.005348805338144302,-0.0267486572265625,-0.04751710966229439,XTrueNorthZVertical,-0.2166960947448697,0.2458969249875267,0.9013593092448658,0.2830705102723494,0.529854416847229,-0.3206024169921875,-0.7851549983024597,1.362147331237793,-30.78398323059082,-24.96662139892578,2,0.0.0.0,10.83.46.32,1,0
2015-02-26 19:53:50.520,138,1425009227.076211,37.76000293415817,-122.4613632001122,65.11018,-1,-1,29.52189108479767,65,-9999,1425009230.464119,8.068428039550781,-16.58343505859375,-28.93960571289062,137.3581085205078,123.5801391601562,10,120221.743564,0.764404296875,-0.05743408203125,-0.57220458984375,120221.7084537083,-1.166383597357568,0.6916378487956826,1.523430675227292,120221.7084537083,2.530514768076983,0.5981208343840135,0.3194132365201194,-1.181049704551697,0.7012166976928711,1.556080341339111,0.2547430992126465,0.2544544637203217,0.03493170067667961,XTrueNorthZVertical,-0.2316876562919727,0.2324281106959557,0.9138503864936527,0.2391139638956117,0.534609317779541,-0.3140095174312592,-0.7845960259437561,0.3009090423583984,-29.70522689819336,-26.27451705932617,2,0.0.0.0,10.83.46.32,1,0
2015-02-26 19:53:50.545,139,1425009227.076211,37.76000293415817,-122.4613632001122,65.11018,-1,-1,29.52189108479767,65,-9999,1425009230.516303,7.232887268066406,-15.071044921875,-30.38742065429688,130.5548248291016,116.77685546875,10,120221.79260675,1.06414794921875,-0.0726165771484375,-0.56658935546875,120221.760229,-1.201496577381936,1.197952176287149,1.400622729983814,120221.760229,2.632638466216308,0.6088173357843049,0.3109266715630339,-1.2161625623703,1.207530975341797,1.433272123336792,0.2603951394557953,0.2765373289585114,0.2450257986783981,XTrueNorthZVertical,-0.2493912607497471,0.2175054433393341,0.9238480524614819,0.1923542837754526,0.5444754958152771,-0.3059410154819489,-0.7809907793998718,-1.401939392089844,-27.14540481567383,-28.87910842895508,2,0.0.0.0,10.83.46.32,1,0
2015-02-26 19:53:50.630,140,1425009227.076211,37.76000293415817,-122.4613632001122,65.11018,-1,-1,29.52189108479767,65,-9999,1425009230.568159,7.710342407226562,-13.98347473144531,-31.08637237548828,124.5959777832031,110.818000793457,10,120221.8416839583,1.085281372070312,-0.346710205078125,-0.709136962890625,120221.8120057083,-0.591964517625614,1.101524972169778,1.030107513849341,120221.8120057083,2.718307924553625,0.6470460312792824,0.3126988299821407,-0.606630265712738,1.111103653907776,1.062756538391113,0.5158328413963318,0.1562300026416779,0.1431490182876587,XTrueNorthZVertical,-0.2760110360872908,0.2103080615783238,0.9260580598148371,0.1483405217376431,0.5735989212989807,-0.3076277077198029,-0.7591768503189087,-1.47796630859375,-26.03874206542969,-29.87709617614746,2,0.0.0.0,10.83.46.32,4,0
2015-02-26 19:53:50.644,141,1425009227.076211,37.76000293415817,-122.4613632001122,65.11018,-1,-1,29.52189108479767,65,-9999,1425009230.618866,8.136634826660156,-13.49067687988281,-31.66883087158203,119.0912094116211,105.313232421875,10,120221.8907284583,0.8076171875,-0.2824249267578125,-0.522308349609375,120221.8637821667,-0.1621433671761663,0.08242776521515151,0.7908493878327315,120221.8637821667,2.76683731772142,0.6638799236237298,0.3322580597439315,-0.1768089979887009,0.09200634807348251,0.8234980702400208,0.2930412888526917,0.0236424095928669,0.06470696628093719,XTrueNorthZVertical,-0.2866422146200391,0.2134721107702473,0.9261138428552884,0.1207437871571586,0.5824775099754333,-0.3261784315109253,-0.7445318102836609,-1.230659484863281,-24.94535064697266,-30.8067569732666,2,0.0.0.0,10.83.46.32,4,0
2015-02-26 19:53:50.722,142,1425009227.076211,37.76000293415817,-122.4613632001122,65.11018,-1,-1,29.52189108479767,65,-9999,1425009230.671702,8.392414093017578,-13.23577880859375,-31.25279235839844,115.973747253418,102.1957702636719,10,120221.9398102917,0.9265899658203125,-0.21990966796875,-0.6751251220703125,120221.91555775,-0.1152704004102267,0.1487593848018641,-0.2298425199826346,120221.91555775,2.777603916450039,0.6568817147701961,0.332808653992826,-0.1299359053373337,0.158337876200676,-0.1971940994262695,0.33572918176651,0.07114465534687042,0.1973915845155716,XTrueNorthZVertical,-0.2844817215537889,0.2117696871939216,0.9277251787771112,0.1164034178827517,0.577143132686615,-0.3266988396644592,-0.7484474778175354,-1.927457809448242,-24.49246978759766,-31.1327018737793,2,0.0.0.0,10.83.46.32,4,0
2015-02-26 19:53:50.740,143,1425009227.076211,37.76000293415817,-122.4613632001122,65.11018,-1,-1,29.52189108479767,65,-9999,1425009230.723998,8.597034454345703,-13.06585693359375,-31.18622589111328,116.383186340332,102.6052093505859,10,120221.9888557917,1.004776000976562,-0.500335693359375,-0.9626617431640625,120221.9673342083,0.4114330883868865,0.5591381277131883,-0.4160667223675154,120221.9673342083,2.756162217673257,0.6826503009387781,0.3362151443463784,0.3967677056789398,0.5687165260314941,-0.3834186196327209,0.3082325160503387,-0.08864732086658478,0.03348614275455475,XTrueNorthZVertical,-0.2937113673896958,0.217952419688145,0.9225566910838019,0.1229615407308056,0.5955303311347961,-0.3299165070056915,-0.7324607372283936,-1.376480102539062,-24.61623573303223,-31.06424903869629,2,0.0.0.0,10.83.46.32,4,0
2015-02-26 19:53:50.820,144,1425009227.076211,37.76000293415817,-122.4613632001122,65.11018,-1,-1,29.52189108479767,65,-9999,1425009230.775795,9.364368438720703,-13.21878051757812,-31.03644561767578,116.1573028564453,102.3793258666992,10,120222.03793775,0.7806549072265625,-0.3418731689453125,-0.7289581298828125,120222.0191108333,0.07937977734755582,-0.2105021115142612,-0.8474056083221992,120222.0191108333,2.723957379270194,0.7062710785932809,0.3163608574842027,0.06471458077430725,-0.2009238004684448,-0.8147578835487366,0.3612333834171295,-0.05368178710341454,-0.07036367803812027,XTrueNorthZVertical,-0.3034651542685431,0.2153897388117794,0.9177438827194713,0.138788831087309,0.6167939305305481,-0.3111100792884827,-0.7230322957038879,-0.5973529815673828,-24.99501037597656,-30.78528785705566,2,0.0.0.0,10.83.46.32,4,0
2015-02-26 19:53:50.840,145,1425009227.076211,37.76000293415817,-122.4613632001122,65.11018,-1,-1,29.52189108479767,65,-9999,1425009230.8323,10.16580200195312,-13.16780090332031,-30.72026062011719,117.710075378418,103.9320983886719,10,120222.087057125,0.5993499755859375,-0.2981414794921875,-0.6041412353515625,120222.0708864167,0.01908367973928981,-0.3278662891735081,-0.2009261831826633,120222.0191108333,2.723957379270194,0.7062710785932809,0.3163608574842027,0.06471458077430725,-0.2009238004684448,-0.8147578835487366,0.3612333834171295,-0.05368178710341454,-0.07036367803812027,XTrueNorthZVertical,-0.3034651542685431,0.2153897388117794,0.9177438827194713,0.138788831087309,0.6167939305305481,-0.3111100792884827,-0.7230322957038879,-0.5973529815673828,-24.99501037597656,-30.78528785705566,2,0.0.0.0,10.83.46.32,4,0
