loggingTime,loggingSample,locationTimestamp_since1970,locationLatitude,locationLongitude,locationAltitude,locationSpeed,locationCourse,locationVerticalAccuracy,locationHorizontalAccuracy,locationFloor,locationHeadingTimestamp_since1970,locationHeadingX,locationHeadingY,locationHeadingZ,locationTrueHeading,locationMagneticHeading,locationHeadingAccuracy,accelerometerTimestamp_sinceReboot,accelerometerAccelerationX,accelerometerAccelerationY,accelerometerAccelerationZ,gyroTimestamp_sinceReboot,gyroRotationX,gyroRotationY,gyroRotationZ,motionTimestamp_sinceReboot,motionYaw,motionRoll,motionPitch,motionRotationRateX,motionRotationRateY,motionRotationRateZ,motionUserAccelerationX,motionUserAccelerationY,motionUserAccelerationZ,motionAttitudeReferenceFrame,motionQuaternionX,motionQuaternionY,motionQuaternionZ,motionQuaternionW,motionGravityX,motionGravityY,motionGravityZ,motionMagneticFieldX,motionMagneticFieldY,motionMagneticFieldZ,motionMagneticFieldCalibrationAccuracy,IP_en0,IP_pdp_ip0,deviceOrientation,state
2015-03-01 11:19:44.873,1,1425237581.07108,37.74680191475939,-122.4443793098659,175.4108,-1,-1,10,68.93386034279041,-9999,1425237584.828853,-11.53447723388672,-32.75971984863281,-21.50838470458984,85.71312713623047,71.94150543212891,10,181035.294163,0.223175048828125,-0.956146240234375,-0.34356689453125,181035.293476,-0.05349891155805678,0.3098524012441032,-0.02485128771207441,181035.24169925,-2.91656691501881,0.5927952388198061,1.175544894827384,0.04405320063233376,0.2897383570671082,0.01994443312287331,-0.0352594368159771,-0.001050413236953318,0.005548424553126097,XTrueNorthZVertical,-0.3010661052111738,0.4996863911589723,0.7726741988714445,-0.2502942303185212,0.2151147872209549,-0.9228997826576233,-0.3193454146385193,-10.7857723236084,-34.46665573120117,-21.38876724243164,2,0.0.0.0,10.83.46.32,1,0
2015-03-01 11:19:44.888,2,1425237584.831066,37.74689113158388,-122.4443926429482,174.7592,-1,-1,10,65,-9999,1425237584.828853,-11.53447723388672,-32.75971984863281,-21.50838470458984,85.71312713623047,71.94150543212891,10,181035.3431898333,0.2256011962890625,-0.9116973876953125,-0.3232574462890625,181035.293476,-0.05349891155805678,0.3098524012441032,-0.02485128771207441,181035.293476,-2.911940247966414,0.6062846337503534,1.175223930868776,-0.06669501960277557,0.3235885798931122,0.008279457688331604,-0.007123515009880066,-0.04461581632494926,-0.02231590636074543,XTrueNorthZVertical,-0.3074336439379542,0.4971473704171412,0.7701261103345035,-0.2554109030411055,0.2195716351270676,-0.9227761626243591,-0.316658079624176,-10.5586986541748,-34.49282455444336,-21.45976257324219,2,0.0.0.0,10.83.46.32,1,0
2015-03-01 11:19:44.947,3,1425237584.831066,37.74689113158388,-122.4443926429482,174.7592,-1,-1,10,65,-9999,1425237584.932939,-10.76714324951172,-33.38848876953125,-21.95768737792969,85.16947174072266,71.39785003662109,10,181035.3922459584,0.2156524658203125,-0.926055908203125,-0.312103271484375,181035.3970285417,-0.07373787057822295,0.001618402994441153,-0.06351585936617181,181035.345251625,-2.907968743243235,0.6160207479406263,1.170043482042905,-0.1016132384538651,0.2036665678024292,-0.0534612238407135,0.0001979222579393536,0.009070173837244511,-0.004854655358940363,XTrueNorthZVertical,-0.3123550142747645,0.4931865262576643,0.7695395328583211,-0.2588633061914699,0.2254032790660858,-0.9207675457000732,-0.3184027969837189,-10.03115367889404,-34.37224960327148,-21.90176391601562,2,0.0.0.0,10.83.46.32,1,0
2015-03-01 11:19:45.019,4,1425237584.831066,37.74689113158388,-122.4443926429482,174.7592,-1,-1,10,65,-9999,1425237584.989249,-10.66484069824219,-33.55841064453125,-22.52351379394531,84.92391967773438,71.15229797363281,10,181035.4412747917,0.2267608642578125,-0.9215087890625,-0.2965087890625,181035.3970285417,-0.07373787057822295,0.001618402994441153,-0.06351585936617181,181035.3970285417,-2.910240559323326,0.6239675124633474,1.165596110828516,-0.086933434009552,0.01535509433597326,-0.03038830123841763,-0.01466421596705914,-0.00703241815790534,0.007818479090929031,XTrueNorthZVertical,-0.3150209483782123,0.490714710029207,0.7698127760762411,-0.2595170009508152,0.2303166836500168,-0.9190235137939453,-0.3199217617511749,-9.837706565856934,-34.33474349975586,-22.04784393310547,2,0.0.0.0,10.83.46.32,1,0
2015-03-01 11:19:45.045,5,1425237584.831066,37.74689113158388,-122.4443926429482,174.7592,-1,-1,10,65,-9999,1425237584.989249,-10.66484069824219,-33.55841064453125,-22.52351379394531,84.92391967773438,71.15229797363281,10,181035.4904364583,0.2529296875,-0.9112701416015625,-0.316619873046875,181035.4488051667,0.04901574617901739,0.2135660783483973,-0.04584578553349607,181035.4488051667,-2.910378758897899,0.6297062160449379,1.164675808269181,0.03581951558589935,0.2273015677928925,-0.01271599624305964,-0.00588593864813447,-0.002848474076017737,0.02276940643787384,XTrueNorthZVertical,-0.3172303857868795,0.4896179984883474,0.7691765659812638,-0.2607803995393701,0.2326468080282211,-0.9186603426933289,-0.319278210401535,-9.725454330444336,-34.30540466308594,-22.14311599731445,2,0.0.0.0,10.83.46.32,1,0
2015-03-01 11:19:45.110,6,1425237584.831066,37.74689113158388,-122.4443926429482,174.7592,-1,-1,10,65,-9999,1425237585.061807,-10.68189239501953,-34.255126953125,-22.90626525878906,84.78639221191406,71.0147705078125,10,181035.5393500833,0.2369842529296875,-0.9283599853515625,-0.3104095458984375,181035.5005808334,0.06925869994081868,0.116525015599763,-0.05077130196959762,181035.5005808334,-2.916400561382767,0.6443300056974314,1.165481005513089,0.05606254935264587,0.1302609741687775,-0.01764421910047531,0.0104680247604847,0.007814778946340084,-0.001384629169479012,XTrueNorthZVertical,-0.3213422704757862,0.4889927339700031,0.7674082113269238,-0.2621255368461635,0.2368464320898056,-0.9189780950546265,-0.3152505159378052,-9.389745712280273,-34.36598968505859,-22.19401168823242,2,0.0.0.0,10.83.46.32,1,0
2015-03-01 11:19:45.143,7,1425237584.831066,37.74689113158388,-122.4443926429482,174.7592,-1,-1,10,65,-9999,1425237585.113207,-10.22148895263672,-34.20416259765625,-22.68991851806641,84.60174560546875,70.83012390136719,10,181035.5883961667,0.2569732666015625,-0.9141845703125,-0.318511962890625,181035.552357625,0.03733299110905779,0.1134844845832196,-0.07143183939032334,181035.552357625,-2.923412394805439,0.6572680475131367,1.166533469046092,0.02413737401366234,0.1272203773260117,-0.03830466046929359,0.003429726464673877,-0.008387556299567223,-0.00019046277157031,XTrueNorthZVertical,-0.3245418258612232,0.4888513049258,0.7659507426199756,-0.2627096750555316,0.2403141707181931,-0.9193925857543945,-0.3113940060138702,-9.203222274780273,-34.43491363525391,-22.16529083251953,2,0.0.0.0,10.83.46.32,1,0
2015-03-01 11:19:45.211,8,1425237584.831066,37.74689113158388,-122.4443926429482,174.7592,-1,-1,10,65,-9999,1425237585.16962,-9.658775329589844,-34.01724243164062,-22.60670471191406,84.11019134521484,70.33856964111328,10,181035.6374213333,0.2698211669921875,-0.93353271484375,-0.299591064453125,181035.604134375,0.0605443042218614,0.1338566016578897,-0.0695412613324761,181035.604134375,-2.929088649839242,0.6698564118008036,1.164594439117155,0.04734473675489426,0.147591769695282,-0.03641878068447113,0.01532927807420492,0.006991814821958542,-0.00687869731336832,XTrueNorthZVertical,-0.3280656929500206,0.4873420905153957,0.7651734015096856,-0.2634011429213501,0.2453213632106781,-0.9186281561851501,-0.3097411692142487,-9.073786735534668,-34.44577407836914,-22.20175170898438,2,0.0.0.0,10.83.46.32,1,0
2015-03-01 11:19:45.241,9,1425237584.831066,37.74689113158388,-122.4443926429482,174.7592,-1,-1,10,65,-9999,1425237585.16962,-9.658775329589844,-34.01724243164062,-22.60670471191406,84.11019134521484,70.33856964111328,10,181035.6864558333,0.2365264892578125,-0.9302978515625,-0.28387451171875,181035.6559100834,0.01325295484867032,0.04117912835535022,-0.005956692410180232,181035.6559100834,-2.93674824728381,0.681657661939382,1.164978003301336,5.416639396571554e-05,0.05491748452186584,0.02715622261166573,0.01038726326078176,-0.01763697154819965,0.003145178547129035,XTrueNorthZVertical,-0.3306924449939954,0.4872032806665691,0.7641340978301383,-0.2633903172362564,0.2487374991178513,-0.9187796711921692,-0.3065509498119354,-8.71912670135498,-34.53596496582031,-22.20375442504883,2,0.0.0.0,10.83.46.32,1,0
2015-03-01 11:19:45.314,10,1425237584.831066,37.74689113158388,-122.4443926429482,174.7592,-1,-1,10,65,-9999,1425237585.294636,-9.505325317382812,-34.44209289550781,-23.0560302734375,83.88238525390625,70.11076354980469,10,181035.7354844167,0.2646636962890625,-0.91363525390625,-0.305328369140625,181035.707686875,0.03482163020111306,0.1283353360859374,-0.01186518160463003,181035.707686875,-2.936234232816637,0.6867438173187478,1.169027663629657,0.02162904478609562,0.1420754790306091,0.02125116251409054,-0.005699074361473322,0.00569795211777091,0.01652864553034306,XTrueNorthZVertical,-0.3325491521949359,0.4880676509593674,0.7621193785102616,-0.2652828507639289,0.2479323446750641,-0.9203708171844482,-0.3024020493030548,-8.716729164123535,-34.54753112792969,-22.18669509887695,2,0.0.0.0,10.83.46.32,1,0
2015-03-01 11:19:45.340,11,1425237584.831066,37.74689113158388,-122.4443926429482,174.7592,-1,-1,10,65,-9999,1425237585.294636,-9.505325317382812,-34.44209289550781,-23.0560302734375,83.88238525390625,70.11076354980469,10,181035.7845125833,0.26312255859375,-0.91717529296875,-0.3062896728515625,181035.759463625,0.01304629354808017,0.07402602460816952,-0.01412487378956226,181035.759463625,-2.938359712570119,0.6944901093158062,1.169358663664979,-0.0001477360201533884,0.08776669204235077,0.01898581720888615,0.01309593487530947,-0.008836357854306698,-0.008019706234335899,XTrueNorthZVertical,-0.3349629120559822,0.4875250478279117,0.7610189538762561,-0.2664005174118986,0.2500723898410797,-0.9205002188682556,-0.3002383410930634,-8.623050689697266,-34.59180450439453,-22.15429306030273,2,0.0.0.0,10.83.46.32,1,0
2015-03-01 11:19:45.411,12,1425237584.831066,37.74689113158388,-122.4443926429482,174.7592,-1,-1,10,65,-9999,1425237585.398917,-9.113136291503906,-34.45909118652344,-22.90623474121094,83.79496002197266,70.02333831787109,10,181035.8335365833,0.2554931640625,-0.9208526611328125,-0.3103179931640625,181035.8112395,0.0008165251902182945,0.06564505665769016,-0.01389104824585331,181035.8112395,-2.938899178049715,0.6997259913280893,1.168519773355938,-0.01237795315682888,0.07938676327466965,0.01921438612043858,0.01518053468316793,-0.00759281637147069,0.01124649029225111,XTrueNorthZVertical,-0.3368684121993173,0.4865818599611667,0.7604400346601305,-0.2673735750855186,0.2521381974220276,-0.9201720952987671,-0.2995155453681946,-8.421161651611328,-34.59585189819336,-22.22551918029785,2,0.0.0.0,10.83.46.32,1,0
2015-03-01 11:19:45.437,13,1425237584.831066,37.74689113158388,-122.4443926429482,174.7592,-1,-1,10,65,-9999,1425237585.398917,-9.113136291503906,-34.45909118652344,-22.90623474121094,83.79496002197266,70.02333831787109,10,181035.882726,0.29351806640625,-0.898468017578125,-0.3082275390625,181035.863016125,0.07300576759456018,0.1067378985937218,-0.04686124885714328,181035.863016125,-2.93936872143081,0.7055708115294018,1.167617096680395,0.0598079226911068,0.1204790621995926,-0.01376091036945581,0.02447713166475296,0.02662981487810612,-0.01140495017170906,XTrueNorthZVertical,-0.3390251086536838,0.4855177901744022,0.7597608831152447,-0.2685102608157394,0.2544230222702026,-0.9198182821273804,-0.2986688911914825,-8.37395191192627,-34.58271026611328,-22.26377868652344,2,0.0.0.0,10.83.46.32,1,0
2015-03-01 11:19:45.514,14,1425237584.831066,37.74689113158388,-122.4443926429482,174.7592,-1,-1,10,65,-9999,1425237585.453146,-9.130180358886719,-34.40811157226562,-23.02272033691406,83.73091125488281,69.95928955078125,10,181035.931591375,0.2739105224609375,-0.9385986328125,-0.3014984130859375,181035.914792875,0.06648714819437322,-0.02828064024776945,-0.01041482407497288,181035.914792875,-2.950529786653891,0.720000074767039,1.167540489952619,0.05328564345836639,-0.01453684084117413,0.02267063967883587,0.03497927635908127,-0.01700986362993717,-0.009469360113143921,XTrueNorthZVertical,-0.3417982676679116,0.4854524245144675,0.7588220710762402,-0.267766429465449,0.2587524056434631,-0.9197882413864136,-0.2950197756290436,-8.162567138671875,-34.61894607543945,-22.28595352172852,2,0.0.0.0,10.83.46.32,1,0
2015-03-01 11:19:45.540,15,1425237584.831066,37.74689113158388,-122.4443926429482,174.7592,-1,-1,10,65,-9999,1425237585.527973,-9.130180358886719,-34.34014892578125,-22.98944091796875,83.6259765625,69.85435485839844,10,181035.9806385833,0.212677001953125,-0.91937255859375,-0.2880706787109375,181035.966568625,0.02490694777885707,-0.05179342319597003,0.04407478340859337,181035.966568625,-2.947604290039099,0.7142344506489573,1.170015288249237,0.01170561090111732,-0.0380496121942997,0.07715966552495956,-0.02909961529076099,-0.007176177110522985,-0.003187760477885604,XTrueNorthZVertical,-0.3401762870074545,0.4867105480357892,0.7587422947227763,-0.2677741117737287,0.2555553019046783,-0.9207565784454346,-0.2947858870029449,-8.197905540466309,-34.68327331542969,-22.17267990112305,2,0.0.0.0,10.83.46.32,1,0
2015-03-01 11:19:45.581,16,1425237584.831066,37.74689113158388,-122.4443926429482,174.7592,-1,-1,10,65,-9999,1425237585.527973,-9.130180358886719,-34.34014892578125,-22.98944091796875,83.6259765625,69.85435485839844,10,181036.029645875,0.230377197265625,-0.94537353515625,-0.317840576171875,181036.0183455833,-0.07126352760943033,0.007484547927558691,0.02562573495706945,181035.966568625,-2.947604290039099,0.7142344506489573,1.170015288249237,0.01170561090111732,-0.0380496121942997,0.07715966552495956,-0.02909961529076099,-0.007176177110522985,-0.003187760477885604,XTrueNorthZVertical,-0.3401762870074545,0.4867105480357892,0.7587422947227763,-0.2677741117737287,0.2555553019046783,-0.9207565784454346,-0.2947858870029449,-8.197905540466309,-34.68327331542969,-22.17267990112305,2,0.0.0.0,10.83.46.32,1,0
2015-03-01 11:19:45.637,17,1425237584.831066,37.74689113158388,-122.4443926429482,174.7592,-1,-1,10,65,-9999,1425237585.579637,-9.096084594726562,-34.17022705078125,-22.98942565917969,83.53182220458984,69.76020050048828,10,181036.0786785,0.283538818359375,-0.8913726806640625,-0.3063201904296875,181036.0701222083,-0.1184022778521599,0.2820700384362875,0.005323392702959389,181036.0701222083,-2.919107148120548,0.6962436907329586,1.167248161544624,-0.1315153241157532,0.2957485914230347,0.03856168314814568,0.0071282759308815,0.02924684248864651,-0.007640181574970484,XTrueNorthZVertical,-0.3404106565229476,0.4831934953722822,0.7586982113661064,-0.2739006454433312,0.2518438994884491,-0.9196735024452209,-0.3012892603874207,-8.36669921875,-34.56356430053711,-22.29620742797852,2,0.0.0.0,10.83.46.32,1,0
2015-03-01 11:19:45.680,18,1425237584.831066,37.74689113158388,-122.4443926429482,174.7592,-1,-1,10,65,-9999,1425237585.638752,-8.772102355957031,-34.05126953125,-22.9727783203125,82.02825927734375,68.25663757324219,10,181036.1276923333,0.28179931640625,-0.94659423828125,-0.3067169189453125,181036.0701222083,-0.1184022778521599,0.2820700384362875,0.005323392702959389,181036.0701222083,-2.919107148120548,0.6962436907329586,1.167248161544624,-0.1315153241157532,0.2957485914230347,0.03856168314814568,0.0071282759308815,0.02924684248864651,-0.007640181574970484,XTrueNorthZVertical,-0.3404106565229476,0.4831934953722822,0.7586982113661064,-0.2739006454433312,0.2518438994884491,-0.9196735024452209,-0.3012892603874207,-8.36669921875,-34.56356430053711,-22.29620742797852,2,0.0.0.0,10.83.46.32,1,0
2015-03-01 11:19:45.738,19,1425237584.831066,37.74689113158388,-122.4443926429482,174.7592,-1,-1,10,65,-9999,1425237585.70978,-8.823257446289062,-34.03428649902344,-23.15584564208984,81.58879089355469,67.81716918945312,10,181036.1768356667,0.216644287109375,-0.8808746337890625,-0.27178955078125,181036.17367475,0.01007393945544273,-0.01816568811153949,0.2279570019308585,181036.1218979167,-2.908030844244179,0.6916995542627427,1.166967957281869,-0.1277022361755371,-0.1112503036856651,0.1821537911891937,0.05870487168431282,-0.034950140863657,-0.0008072622586041689,XTrueNorthZVertical,-0.3413733699996563,0.4818191712068857,0.7580239783893682,-0.2769730406523571,0.2506365478038788,-0.9195634126663208,-0.3026290237903595,-8.200044631958008,-34.34538269042969,-22.69177627563477,2,0.0.0.0,10.83.46.32,1,0
2015-03-01 11:19:45.809,20,1425237584.831066,37.74689113158388,-122.4443926429482,174.7592,-1,-1,10,65,-9999,1425237585.76172,-9.385971069335938,-34.01728820800781,-23.17250061035156,81.52422332763672,67.75260162353516,10,181036.225737625,0.2330780029296875,-0.9218597412109375,-0.3139190673828125,181036.2254516667,0.02460467899513307,0.0177358539116007,0.2490425798615609,181036.17367475,-2.874877868466139,0.6567709302527278,1.17084634353836,-0.003038221038877964,-0.004485366865992546,0.2611896991729736,-0.01952015236020088,0.04351699352264404,0.03449020907282829,XTrueNorthZVertical,-0.3359655435974159,0.4826407004609288,0.7582410005680391,-0.2815237137086784,0.2377360910177231,-0.921080470085144,-0.3083702027797699,-8.51408863067627,-34.19007873535156,-22.81033706665039,2,0.0.0.0,10.83.46.32,1,0
2015-03-01 11:19:45.829,21,1425237584.831066,37.74689113158388,-122.4443926429482,174.7592,-1,-1,10,65,-9999,1425237585.812789,-9.795211791992188,-33.91534423828125,-23.07264709472656,81.08296966552734,67.31134796142578,10,181036.2747712084,0.243804931640625,-0.9111175537109375,-0.3032379150390625,181036.2772274167,0.05242778816762691,0.06567488406189906,0.03372067940647431,181036.2254516667,-2.848194980964542,0.6342438958423816,1.181399645446015,0.01149463467299938,0.03141690418124199,0.282275378704071,0.00670201051980257,-0.005998818669468164,-0.005586429964751005,XTrueNorthZVertical,-0.3335623801652524,0.4856297966422299,0.7552746073845134,-0.2871585191854096,0.2249569296836853,-0.9251382946968079,-0.3057996928691864,-8.946388244628906,-34.06879425048828,-22.82634353637695,2,0.0.0.0,10.83.46.32,1,0
2015-03-01 11:19:45.883,22,1425237584.831066,37.74689113158388,-122.4443926429482,174.7592,-1,-1,10,65,-9999,1425237585.870264,-10.01687622070312,-33.66046142578125,-23.28898620605469,79.86536407470703,66.09374237060547,10,181036.3237856667,0.2980804443359375,-0.92181396484375,-0.355865478515625,181036.2772274167,0.05242778816762691,0.06567488406189906,0.03372067940647431,181036.2772274167,-2.832438724654269,0.6225773971498861,1.186759983424068,0.03931669890880585,0.07935630530118942,0.06694980710744858,0.02532579191029072,0.01604235917329788,0.00113231223076582,XTrueNorthZVertical,-0.3328530682816181,0.486850820388433,0.7534324097178496,-0.290731192269159,0.2184791415929794,-0.9271599054336548,-0.3043702244758606,-9.44924259185791,-33.96142578125,-22.78368186950684,2,0.0.0.0,10.83.46.32,1,0
2015-03-01 11:19:45.928,23,1425237584.831066,37.74689113158388,-122.4443926429482,174.7592,-1,-1,10,65,-9999,1425237585.870264,-10.01687622070312,-33.66046142578125,-23.28898620605469,79.86536407470703,66.09374237060547,10,181036.3729182917,0.2375335693359375,-1.00030517578125,-0.307647705078125,181036.3807809167,-0.1947875968700306,-0.2847675543044288,-0.04872945636183387,181036.3290040834,-2.840971498625737,0.6306558127415822,1.186803187893282,0.02896132878959179,-0.04814049229025841,-0.06681967526674271,0.07717325538396835,0.005362133961170912,-0.05330248177051544,XTrueNorthZVertical,-0.333817343907446,0.4871185507758462,0.7533115207755374,-0.2894877538210112,0.2209071964025497,-0.9271761178970337,-0.3025630116462708,-9.415452003479004,-33.99970245361328,-22.74053573608398,2,0.0.0.0,10.83.46.32,1,0
2015-03-01 11:19:45.981,24,1425237584.831066,37.74689113158388,-122.4443926429482,174.7592,-1,-1,10,65,-9999,1425237585.943037,-10.22149658203125,-33.76243591308594,-23.25571441650391,80.48740386962891,66.71578216552734,10,181036.4218338333,0.19232177734375,-0.9275054931640625,-0.32177734375,181036.3807809167,-0.1947875968700306,-0.2847675543044288,-0.04872945636183387,181036.3807809167,-2.842348277714859,0.6195364701114886,1.181451423737286,-0.2079030275344849,-0.271084725856781,-0.01551256142556667,0.01712615229189396,-0.07514725625514984,0.001388319185934961,XTrueNorthZVertical,-0.329422441325476,0.4867882938672158,0.7568602906762841,-0.2857978674715568,0.2204074114561081,-0.925157904624939,-0.3090360164642334,-9.349264144897461,-34.05872344970703,-22.67944526672363,2,0.0.0.0,10.83.46.32,1,0
2015-03-01 11:19:46.026,25,1425237584.831066,37.74689113158388,-122.4443926429482,174.7592,-1,-1,10,65,-9999,1425237585.994049,-10.46022796630859,-33.83039855957031,-23.25572204589844,81.32664489746094,67.55502319335938,10,181036.4708559584,0.2338714599609375,-0.9439849853515625,-0.33404541015625,181036.4325567083,-0.141629303615395,-0.1525693030573315,-0.1634741487728789,181036.4325567083,-2.836166591019387,0.6042011860163576,1.172043507292529,-0.1547446697950363,-0.1388887912034988,-0.1302516609430313,-0.0110286446288228,-0.02245429158210754,-0.01386078912764788,XTrueNorthZVertical,-0.3253186855791355,0.4841523586531594,0.7611290909318772,-0.2836312075737266,0.220577597618103,-0.9215459227561951,-0.3195284903049469,-9.58775520324707,-33.82075500488281,-22.93456268310547,2,0.0.0.0,10.83.46.32,1,0
2015-03-01 11:19:46.081,26,1425237584.831066,37.74689113158388,-122.4443926429482,174.7592,-1,-1,10,65,-9999,1425237586.04686,-10.52843475341797,-33.62646484375,-23.65513610839844,81.90647888183594,68.13485717773438,10,181036.5199347083,0.3255157470703125,-0.9056396484375,-0.374969482421875,181036.4843335417,-0.1399230163049812,-0.03858947051135717,-0.2470867543570067,181036.4843335417,-2.840519054545378,0.6044185334138351,1.160898153103288,-0.1530382037162781,-0.02490893192589283,-0.2138649672269821,0.0150613384321332,-0.02630477957427502,0.01831097900867462,XTrueNorthZVertical,-0.3245842149049069,0.480301137757703,0.7648137137896399,-0.2810974853167307,0.2264700382947922,-0.9171614050865173,-0.3279117941856384,-9.543949127197266,-33.74068069458008,-23.07037353515625,2,0.0.0.0,10.83.46.32,1,0
2015-03-01 11:19:46.124,27,1425237584.831066,37.74689113158388,-122.4443926429482,174.7592,-1,-1,10,65,-9999,1425237586.099719,-10.033935546875,-33.30357360839844,-23.93804931640625,82.63535308837891,68.86373138427734,10,181036.5689529583,0.1417694091796875,-0.873870849609375,-0.3485260009765625,181036.5361103333,-0.1901576913149279,-0.4669964824219727,-0.3340384313158758,181036.5361103333,-2.861297834490526,0.6118217371721523,1.146182493860062,-0.2032727599143982,-0.4533160626888275,-0.3008169531822205,0.07853676378726959,-0.01093650981783867,-0.00989854522049427,XTrueNorthZVertical,-0.3227912341279062,0.4766407095795822,0.7705526414081894,-0.2736201536973992,0.2366182655096054,-0.9111979007720947,-0.3372389078140259,-9.270980834960938,-33.66927719116211,-23.28500556945801,2,0.0.0.0,10.83.46.32,1,0
2015-03-01 11:19:46.164,28,1425237584.831066,37.74689113158388,-122.4443926429482,174.7592,-1,-1,10,65,-9999,1425237586.150457,-9.62469482421875,-33.16763305664062,-24.03790283203125,83.42406463623047,69.65244293212891,10,181036.6180119167,0.2771148681640625,-0.895477294921875,-0.35150146484375,181036.5878860833,-0.1870119654353262,-0.1786738743783972,-0.330313467899182,181036.5878860833,-2.869149218022135,0.599309144446811,1.127349815686781,-0.2001268863677979,-0.1649935990571976,-0.2970923185348511,-0.09873796254396439,0.04243844375014305,0.03735662996768951,XTrueNorthZVertical,-0.3165365191508061,0.4718726441391964,0.7787294102274714,-0.2659346798607118,0.24201799929142,-0.9032782912254333,-0.3542816936969757,-9.218111038208008,-33.47374725341797,-23.58595275878906,2,0.0.0.0,10.83.46.32,1,0
2015-03-01 11:19:46.222,29,1425237584.831066,37.74689113158388,-122.4443926429482,174.7592,-1,-1,10,65,-9999,1425237586.201775,-9.232498168945312,-33.18463134765625,-24.48722076416016,84.19332122802734,70.42169952392578,10,181036.6669450834,0.2584381103515625,-0.913604736328125,-0.419830322265625,181036.6396629583,-0.06113312913887792,-0.2778694344489056,-0.3329281594574218,181036.6396629583,-2.8882494696195,0.6095125641247748,1.114153366048227,-0.07424791902303696,-0.2641893029212952,-0.2997073531150818,0.06207641214132309,0.004288285039365292,-0.03474946692585945,XTrueNorthZVertical,-0.3163675900099684,0.4681274138972024,0.7831620405259007,-0.2596640120952064,0.2524224817752838,-0.8975377678871155,-0.3615365326404572,-9.006645202636719,-33.43823623657227,-23.71765899658203,2,0.0.0.0,10.83.46.32,1,0
2015-03-01 11:19:46.261,30,1425237584.831066,37.74689113158388,-122.4443926429482,174.7592,-1,-1,10,65,-9999,1425237586.254012,-8.652732849121094,-32.74278259277344,-24.82004547119141,84.01116943359375,70.23954772949219,10,181036.7160700417,0.165130615234375,-0.8843231201171875,-0.3363189697265625,181036.6914399583,-0.4916376467240399,-0.1597427937695689,-0.2103700187241932,181036.6914399583,-2.888404015471121,0.5956274517042017,1.096448565952988,-0.5047522783279419,-0.1460627913475037,-0.1771495640277863,-0.05903441086411476,-0.03431359305977821,-0.03133618831634521,XTrueNorthZVertical,-0.3113297994929128,0.4626254489458452,0.7900453984634687,-0.2547147951158836,0.256254255771637,-0.8895907998085022,-0.3781028985977173,-8.871973037719727,-33.41788101196289,-23.79697418212891,2,0.0.0.0,10.83.46.32,1,0
2015-03-01 11:19:46.320,31,1425237584.831066,37.74689113158388,-122.4443926429482,174.7592,-1,-1,10,65,-9999,1425237586.304826,-8.260536193847656,-31.97808837890625,-25.00309753417969,84.07171630859375,70.30009460449219,10,181036.7650051667,0.45208740234375,-0.841766357421875,-0.4111785888671875,181036.7432155834,-0.2058756680685755,0.2961280668824888,-0.3055695055790377,181036.7432155834,-2.878954014204043,0.5973509159697735,1.07458779518598,-0.2189902067184448,0.3098079264163971,-0.2723493576049805,0.01253781653940678,0.04479924961924553,0.06001520901918411,XTrueNorthZVertical,-0.3146674900051609,0.4518407399815793,0.7942723500863523,-0.2568183382547344,0.2677814066410065,-0.879393994808197,-0.393648624420166,-8.42473030090332,-32.77568817138672,-24.83023834228516,2,0.0.0.0,10.83.46.32,1,0
2015-03-01 11:19:46.359,32,1425237584.831066,37.74689113158388,-122.4443926429482,174.7592,-1,-1,10,65,-9999,1425237586.304826,-8.260536193847656,-31.97808837890625,-25.00309753417969,84.07171630859375,70.30009460449219,10,181036.814032875,0.1601715087890625,-0.831756591796875,-0.3947296142578125,181036.7949925417,-0.2538975225287753,-0.4786904227685107,-0.248003680720321,181036.7949925417,-2.889059810221021,0.596389692301281,1.058417013043243,-0.2670119106769562,-0.4650107026100159,-0.2147838920354843,-0.04462650045752525,0.02158966660499573,0.005259320139884949,XTrueNorthZVertical,-0.3123577595727916,0.4467918041068109,0.7998649564735143,-0.2510491461290802,0.2753546535968781,-0.8715805411338806,-0.4056194424629211,-8.11127758026123,-32.69476699829102,-25.0404109954834,2,0.0.0.0,10.83.46.32,1,0
2015-03-01 11:19:46.419,33,1425237584.831066,37.74689113158388,-122.4443926429482,174.7592,-1,-1,10,65,-9999,1425237586.409459,-8.004753112792969,-31.58726501464844,-25.3858642578125,87.54202270507812,73.77040100097656,10,181036.86306775,0.2520599365234375,-0.775177001953125,-0.3614501953125,181036.8467692917,-0.2731090340003889,0.03836017234150135,-0.368664585492977,181036.8467692917,-2.89383641174027,0.5879448926873851,1.037494898260119,-0.286223292350769,0.05203975364565849,-0.3354451358318329,-0.09485497325658798,0.0752752348780632,0.05028670653700829,XTrueNorthZVertical,-0.3083409570614037,0.439794588727371,0.8070648112496139,-0.2452608262973842,0.2819735109806061,-0.8611333966255188,-0.4230131506919861,-8.226385116577148,-32.47909164428711,-25.2823657989502,2,0.0.0.0,10.83.46.32,1,0
2015-03-01 11:19:46.457,34,1425237584.831066,37.74689113158388,-122.4443926429482,174.7592,-1,-1,10,65,-9999,1425237586.409459,-8.004753112792969,-31.58726501464844,-25.3858642578125,87.54202270507812,73.77040100097656,10,181036.9121945417,0.3431549072265625,-0.78460693359375,-0.310577392578125,181036.8985452084,0.3592913237203342,0.2714347046230561,-0.1983181495271487,181036.8467692917,-2.89383641174027,0.5879448926873851,1.037494898260119,-0.286223292350769,0.05203975364565849,-0.3354451358318329,-0.09485497325658798,0.0752752348780632,0.05028670653700829,XTrueNorthZVertical,-0.3083409570614037,0.439794588727371,0.8070648112496139,-0.2452608262973842,0.2819735109806061,-0.8611333966255188,-0.4230131506919861,-8.226385116577148,-32.47909164428711,-25.2823657989502,2,0.0.0.0,10.83.46.32,1,0
2015-03-01 11:19:46.516,35,1425237584.831066,37.74689113158388,-122.4443926429482,174.7592,-1,-1,10,65,-9999,1425237586.460966,-7.766029357910156,-31.96112060546875,-25.25273132324219,89.73844909667969,75.96682739257812,10,181036.96114025,0.261444091796875,-0.9412841796875,-0.4169769287109375,181036.9503219583,0.5459703940194005,0.1088364695327043,0.1809767097729887,181036.9503219583,-2.935750505756719,0.6465300681139559,1.050331450451261,0.5328563451766968,0.1225157901644707,0.2141955345869064,-0.05828643962740898,-0.0633964017033577,0.02465246990323067,XTrueNorthZVertical,-0.3222426648395411,0.4446336597279765,0.7997201148143578,-0.2427101565740473,0.2995736598968506,-0.8675881028175354,-0.3969211578369141,-7.094724655151367,-32.69258117675781,-25.35000610351562,2,0.0.0.0,10.83.46.32,1,0
2015-03-01 11:19:46.556,36,1425237584.831066,37.74689113158388,-122.4443926429482,174.7592,-1,-1,10,65,-9999,1425237586.513146,-7.254478454589844,-32.43695068359375,-25.4857177734375,88.44834136962891,74.67671966552734,10,181037.0102613333,0.114227294921875,-0.97711181640625,-0.2487030029296875,181037.002099,0.5977377182366878,0.1200638240562603,0.6001611948286598,181036.9503219583,-2.935750505756719,0.6465300681139559,1.050331450451261,0.5328563451766968,0.1225157901644707,0.2141955345869064,-0.05828643962740898,-0.0633964017033577,0.02465246990323067,XTrueNorthZVertical,-0.3222426648395411,0.4446336597279765,0.7997201148143578,-0.2427101565740473,0.2995736598968506,-0.8675881028175354,-0.3969211578369141,-7.094724655151367,-32.69258117675781,-25.35000610351562,2,0.0.0.0,10.83.46.32,1,0
2015-03-01 11:19:46.614,37,1425237584.831066,37.74689113158388,-122.4443926429482,174.7592,-1,-1,10,65,-9999,1425237586.565788,-7.59552001953125,-33.2186279296875,-25.15287780761719,87.21057891845703,73.43895721435547,10,181037.05931225,0.2188262939453125,-0.8897705078125,-0.4039764404296875,181037.053874625,0.367387067118066,0.4489823281764588,0.7720831568953791,181037.002099,-2.94045403245145,0.6507294448573007,1.086796467158539,0.5846351385116577,0.1337204277515411,0.6335023641586304,-0.09868039190769196,-0.06299459189176559,0.1162176877260208,XTrueNorthZVertical,-0.3214157327486171,0.4599745131948693,0.7903562039100985,-0.2458706030466067,0.2818774282932281,-0.8851407766342163,-0.3702307343482971,-7.309799194335938,-33.20917129516602,-24.60651588439941,2,0.0.0.0,10.83.46.32,1,0
2015-03-01 11:19:46.653,38,1425237584.831066,37.74689113158388,-122.4443926429482,174.7592,-1,-1,10,65,-9999,1425237586.621879,-8.482223510742188,-33.93235778808594,-24.38736724853516,86.14874267578125,72.37712097167969,10,181037.1082315417,0.2040252685546875,-0.9577484130859375,-0.3182220458984375,181037.1056516667,0.3222235834558483,0.7959863592593853,0.6912346462066447,181037.053874625,-2.903150476003773,0.6343586614533804,1.127667998854227,0.3542846143245697,0.462638795375824,0.8054239749908447,-0.06739205867052078,-0.002667393302544951,-0.0602269135415554,XTrueNorthZVertical,-0.3221341361063116,0.4728147080848781,0.777526705082944,-0.2610133743802854,0.2541138529777527,-0.903414785861969,-0.3453516960144043,-8.610435485839844,-33.76614761352539,-23.39808464050293,2,0.0.0.0,10.83.46.32,1,0
2015-03-01 11:19:46.714,39,1425237584.831066,37.74689113158388,-122.4443926429482,174.7592,-1,-1,10,65,-9999,1425237586.69426,-9.522392272949219,-34.22125244140625,-23.53863525390625,81.98323059082031,68.21160888671875,10,181037.157269375,0.285003662109375,-0.93505859375,-0.261260986328125,181037.1574284167,0.2675217220334027,0.4907028771814221,0.5595937945757008,181037.1056516667,-2.838370100880831,0.610963705845915,1.162231721649479,0.3091212511062622,0.8096426725387573,0.7245751619338989,-0.06732606887817383,-0.02063193544745445,0.00490952143445611,XTrueNorthZVertical,-0.3275718105719551,0.4795690941006724,0.7630729982662734,-0.2836013060052118,0.2279095649719238,-0.9176920652389526,-0.3254203796386719,-9.084051132202148,-33.72946548461914,-23.27156829833984,2,0.0.0.0,10.83.46.32,1,0
2015-03-01 11:19:46.752,40,1425237584.831066,37.74689113158388,-122.4443926429482,174.7592,-1,-1,10,65,-9999,1425237586.746279,-9.846366882324219,-33.932373046875,-23.28901672363281,78.18544006347656,64.413818359375,10,181037.2062873333,0.3448333740234375,-0.8251190185546875,-0.3219146728515625,181037.1574284167,0.2675217220334027,0.4907028771814221,0.5595937945757008,181037.1574284167,-2.797339684298937,0.6074944496906616,1.192335111390266,0.2544195353984833,0.5043590664863586,0.5929339528083801,0.07409385591745377,-0.00582429114729166,0.04212084785103798,XTrueNorthZVertical,-0.3356101643606635,0.4854635932512895,0.7491807187356084,-0.3006976495236076,0.2109097987413406,-0.9292343258857727,-0.3033818304538727,-9.334922790527344,-33.73302459716797,-23.16689682006836,2,0.0.0.0,10.83.46.32,1,0
2015-03-01 11:19:46.811,41,1425237584.831066,37.74689113158388,-122.4443926429482,174.7592,-1,-1,10,65,-9999,1425237586.799469,-9.35186767578125,-33.64350891113281,-22.83969879150391,76.27515411376953,62.50353240966797,10,181037.2553204584,0.39813232421875,-0.97357177734375,-0.30645751953125,181037.2609811667,0.3776479604820323,0.2518173274013144,-0.5061047367136774,181037.2092044167,-2.803138251548323,0.6367499835129393,1.215348495007484,0.5867741703987122,0.5145151615142822,-0.08924680948257446,0.1379116624593735,0.1123717129230499,-0.04210331290960312,XTrueNorthZVertical,-0.3446434179554424,0.4912384702592401,0.7384811307157431,-0.3074918013915481,0.206921711564064,-0.9374907612800598,-0.2798113524913788,-9.421344757080078,-34.04074859619141,-22.67660713195801,2,0.0.0.0,10.83.46.32,1,0
2015-03-01 11:19:46.850,42,1425237584.831066,37.74689113158388,-122.4443926429482,174.7592,-1,-1,10,65,-9999,1425237586.799469,-9.35186767578125,-33.64350891113281,-22.83969879150391,76.27515411376953,62.50353240966797,10,181037.3044557083,0.3410491943359375,-1.0106201171875,-0.2899169921875,181037.2609811667,0.3776479604820323,0.2518173274013144,-0.5061047367136774,181037.2609811667,-2.882378964765899,0.7339522852155558,1.22468426990978,0.3645460307598114,0.2654732465744019,-0.472765177488327,0.1709042489528656,-0.0328730009496212,-0.05455857142806053,XTrueNorthZVertical,-0.3604819685091632,0.4940680892524048,0.7307580524920992,-0.3032194763353105,0.2272280752658844,-0.9406988024711609,-0.2518989443778992,-8.88055419921875,-34.48239135742188,-22.22303009033203,2,0.0.0.0,10.83.46.32,1,0
2015-03-01 11:19:46.908,43,1425237584.831066,37.74689113158388,-122.4443926429482,174.7592,-1,-1,10,65,-9999,1425237586.901351,-7.22039794921875,-34.88398742675781,-21.85784912109375,78.62527465820312,64.85365295410156,10,181037.3535087084,0.16363525390625,-1.020431518554688,-0.2472991943359375,181037.3127581667,0.2637509522459595,-0.4109404035852219,-0.6053740663463809,181037.3127581667,-2.972877187977454,0.8138189560025945,1.217021682510551,0.2506491541862488,-0.3972846269607544,-0.5720348358154297,0.08921605348587036,-0.07254841178655624,-0.05200650170445442,XTrueNorthZVertical,-0.3678099441381331,0.4957424726124594,0.7317627593856673,-0.2889263199612174,0.2518331408500671,-0.9380717277526855,-0.2379104942083359,-7.89460563659668,-35.03345108032227,-21.72775268554688,2,0.0.0.0,10.83.46.32,1,0
2015-03-01 11:19:46.947,44,1425237584.831066,37.74689113158388,-122.4443926429482,174.7592,-1,-1,10,65,-9999,1425237586.901351,-7.22039794921875,-34.88398742675781,-21.85784912109375,78.62527465820312,64.85365295410156,10,181037.4025431667,0.2811737060546875,-0.903900146484375,-0.182281494140625,181037.3645340417,-0.2392812955180934,0.09136852962676553,-0.7578211303096778,181037.3645340417,-3.025219742770707,0.8538445273852909,1.190717896475161,-0.2523829638957977,0.1050241738557816,-0.7244822978973389,-0.08167634159326553,-0.07099825143814087,-0.009886257350444794,XTrueNorthZVertical,-0.3719347229743253,0.4896699255584145,0.7388547926054199,-0.2756472924635755,0.2796591222286224,-0.9286355376243591,-0.2437758445739746,-6.655126571655273,-35.50535202026367,-21.37385940551758,2,0.0.0.0,10.83.46.32,1,0
2015-03-01 11:19:47.008,45,1425237584.831066,37.74689113158388,-122.4443926429482,174.7592,-1,-1,10,65,-9999,1425237586.9535,-6.282546997070312,-35.03692626953125,-21.87449645996094,80.47505950927734,66.70343780517578,10,181037.451474375,0.3227081298828125,-0.8530426025390625,-0.163238525390625,181037.4163109583,-0.1639934651854444,0.4825509410846895,-0.2381816763039997,181037.4163109583,-3.045292044073198,0.893619281723414,1.166431825569384,-0.1770949810743332,0.4962064623832703,-0.2048431932926178,-0.03535026684403419,0.01894672587513924,0.07977617532014847,XTrueNorthZVertical,-0.3841507654656907,0.4787129388686197,0.7404281667807826,-0.2739126684518487,0.3066210150718689,-0.9193525910377502,-0.2465242296457291,-5.784131050109863,-35.48432159423828,-21.66032409667969,2,0.0.0.0,10.83.46.32,1,0
2015-03-01 11:19:47.045,46,1425237584.831066,37.74689113158388,-122.4443926429482,174.7592,-1,-1,10,65,-9999,1425237587.005778,-5.191230773925781,-35.58071899414062,-22.14076995849609,81.32138061523438,67.54975891113281,10,181037.5005069583,0.4100494384765625,-0.95404052734375,-0.28656005859375,181037.4680877083,0.1419691229704891,0.2549430795727404,-0.2647879871744364,181037.4680877083,-3.06000323632472,0.9262283825468383,1.159331056231697,0.1288677155971527,0.2685984671115875,-0.2314497828483582,0.02779780887067318,0.07258740067481995,0.06541649997234344,XTrueNorthZVertical,-0.3934350748676222,0.4743969539744682,0.737915856912745,-0.2750208511899658,0.3197058439254761,-0.9165357947349548,-0.2403127402067184,-4.91580867767334,-35.40191650390625,-22.00685691833496,2,0.0.0.0,10.83.46.32,1,0
2015-03-01 11:19:47.107,47,1425237584.831066,37.74689113158388,-122.4443926429482,174.7592,-1,-1,10,65,-9999,1425237587.056282,-4.475051879882812,-35.92056274414062,-22.64002990722656,80.87770080566406,67.1060791015625,10,181037.549564,0.33282470703125,-1.000778198242188,-0.230621337890625,181037.5198635417,-0.2505720332755934,-0.2058690101658503,-0.1044422537340735,181037.5198635417,-3.065629365932575,0.9284883896219616,1.152121763282344,-0.2636733055114746,-0.1922137588262558,-0.07110439240932465,0.09169050306081772,-0.07750604301691055,-0.02751555852591991,XTrueNorthZVertical,-0.3937119317801637,0.4724617760829068,0.7400536974404553,-0.2721970212329611,0.3255305588245392,-0.9136285781860352,-0.2435415685176849,-4.277802467346191,-35.48362731933594,-22.00852584838867,2,0.0.0.0,10.83.46.32,1,0
2015-03-01 11:19:47.143,48,1425237584.831066,37.74689113158388,-122.4443926429482,174.7592,-1,-1,10,65,-9999,1425237587.10883,-3.827079772949219,-35.92056274414062,-22.90628814697266,80.83617401123047,67.06455230712891,10,181037.5985847084,0.3529815673828125,-0.790496826171875,-0.1533355712890625,181037.5716406667,-0.3073698024759313,0.236813876768135,-0.1754533136721644,181037.5716406667,-3.041119644246991,0.9049326887142912,1.13710344193035,-0.320470929145813,0.2504689693450928,-0.1421158164739609,-0.03446765244007111,-0.06891351938247681,0.06317772716283798,XTrueNorthZVertical,-0.3922589522567151,0.4651220122138169,0.7451076822234695,-0.2731462585668579,0.3304576277732849,-0.9074200987815857,-0.2595888674259186,-4.296088218688965,-35.27368927001953,-22.33994674682617,2,0.0.0.0,10.83.46.32,1,0
2015-03-01 11:19:47.216,49,1425237584.831066,37.74689113158388,-122.4443926429482,174.7592,-1,-1,10,65,-9999,1425237587.160868,-3.60540771484375,-35.46174621582031,-23.48874664306641,80.8670654296875,67.09544372558594,10,181037.6476329167,0.461212158203125,-0.856201171875,-0.2631683349609375,181037.6234175834,0.101768972631852,0.3976741329311012,-0.3037921118675189,181037.6234175834,-3.049275412195552,0.9350352151510064,1.127134686243157,0.08866795897483826,0.4113291203975677,-0.2704549133777618,0.08644115179777145,0.1698638200759888,0.06709407269954681,XTrueNorthZVertical,-0.4025759816816807,0.4587925268713625,0.7427269006502318,-0.275315556878632,0.3453825712203979,-0.9031859636306763,-0.2548840045928955,-3.823125839233398,-35.00421524047852,-22.84406661987305,2,0.0.0.0,10.83.46.32,1,0
2015-03-01 11:19:47.242,50,1425237584.831066,37.74689113158388,-122.4443926429482,174.7592,-1,-1,10,65,-9999,1425237587.212302,-3.093864440917969,-35.22383117675781,-23.55531311035156,80.93031311035156,67.15869140625,10,181037.696661375,0.342742919921875,-0.925689697265625,-0.23309326171875,181037.6751933334,-0.08615619074126245,-0.003644003319555421,-0.3422524190660072,181037.6234175834,-3.049275412195552,0.9350352151510064,1.127134686243157,0.08866795897483826,0.4113291203975677,-0.2704549133777618,0.08644115179777145,0.1698638200759888,0.06709407269954681,XTrueNorthZVertical,-0.4025759816816807,0.4587925268713625,0.7427269006502318,-0.275315556878632,0.3453825712203979,-0.9031859636306763,-0.2548840045928955,-3.823125839233398,-35.00421524047852,-22.84406661987305,2,0.0.0.0,10.83.46.32,1,0
2015-03-01 11:19:47.322,51,1425237584.831066,37.74689113158388,-122.4443926429482,174.7592,-1,-1,10,65,-9999,1425237587.264564,-2.377677917480469,-35.35977172851562,-23.98799896240234,81.42523193359375,67.65361022949219,10,181037.745714625,0.479095458984375,-0.851593017578125,-0.2280731201171875,181037.7269702083,0.1099470077072673,0.4655288143452301,-0.3079663505601091,181037.7269702083,-3.083935633668423,0.9856902363014463,1.102614995303817,0.09684626758098602,0.4791834950447083,-0.2746298611164093,0.03049476072192192,0.02811739221215248,0.02725796401500702,XTrueNorthZVertical,-0.4161689520854157,0.4496549996695559,0.7430076430600019,-0.2693572636770513,0.3761977553367615,-0.8923904895782471,-0.2492275685071945,-2.27000617980957,-35.04891586303711,-22.98223495483398,2,0.0.0.0,10.83.46.32,1,0
2015-03-01 11:19:47.340,52,1425237584.831066,37.74689113158388,-122.4443926429482,174.7592,-1,-1,10,65,-9999,1425237587.319719,-1.1669921875,-35.47871398925781,-24.10447692871094,80.83651733398438,67.06489562988281,10,181037.7947437083,0.450958251953125,-0.887969970703125,-0.2380218505859375,181037.7787472084,0.05022588657834939,0.004557733889561608,-0.1653388941681524,181037.7787472084,-3.105391551630131,1.019030790451993,1.096204216037888,0.03712528198957443,0.01821228675544262,-0.1320027261972427,0.1168514341115952,-0.002610652707517147,-0.01581311412155628,XTrueNorthZVertical,-0.4244705701356374,0.4472732664714995,0.7403801219415173,-0.267597727515343,0.3891605138778687,-0.8894792199134827,-0.2395427227020264,-1.399078369140625,-35.15912628173828,-22.88320541381836,2,0.0.0.0,10.83.46.32,1,0
2015-03-01 11:19:47.421,53,1425237584.831066,37.74689113158388,-122.4443926429482,174.7592,-1,-1,10,65,-9999,1425237587.370139,-0.6042861938476562,-35.8355712890625,-24.05455017089844,81.68494415283203,67.91332244873047,10,181037.8437905833,0.37469482421875,-0.8655853271484375,-0.2281341552734375,181037.8305230833,-0.02274978729589288,-0.101804126358241,-0.06466607864097704,181037.8305230833,-3.10578076626804,1.013256196330126,1.093260936193135,-0.03585027530789375,-0.08814968913793564,-0.03133022040128708,-0.0120609300211072,0.01534285768866539,0.01334220636636019,XTrueNorthZVertical,-0.4225958114194922,0.447020957568482,0.7423349209515505,-0.265563207824395,0.3899906277656555,-0.8881303071975708,-0.2431700825691223,-1.127330780029297,-35.19451904296875,-22.84376525878906,2,0.0.0.0,10.83.46.32,1,0
2015-03-01 11:19:47.441,54,1425237584.831066,37.74689113158388,-122.4443926429482,174.7592,-1,-1,10,65,-9999,1425237587.370139,-0.6042861938476562,-35.8355712890625,-24.05455017089844,81.68494415283203,67.91332244873047,10,181037.8928141667,0.4453582763671875,-0.868560791015625,-0.2292022705078125,181037.8823000417,0.009199357353460712,0.09336350359934388,-0.08677537569470586,181037.8305230833,-3.10578076626804,1.013256196330126,1.093260936193135,-0.03585027530789375,-0.08814968913793564,-0.03133022040128708,-0.0120609300211072,0.01534285768866539,0.01334220636636019,XTrueNorthZVertical,-0.4225958114194922,0.447020957568482,0.7423349209515505,-0.265563207824395,0.3899906277656555,-0.8881303071975708,-0.2431700825691223,-1.127330780029297,-35.19451904296875,-22.84376525878906,2,0.0.0.0,10.83.46.32,1,0
2015-03-01 11:19:47.521,55,1425237584.831066,37.74689113158388,-122.4443926429482,174.7592,-1,-1,10,65,-9999,1425237587.497571,0.2141952514648438,-36.03950500488281,-24.15439605712891,81.72538757324219,67.95376586914062,10,181037.9418619583,0.4316558837890625,-0.8418731689453125,-0.2332611083984375,181037.934077,0.03902223418849505,0.04042998114071093,-0.05001895896165023,181037.934077,-3.109891169424078,1.022384815208819,1.090058103470707,0.02592202089726925,0.05408412218093872,-0.0166838001459837,0.0300173182040453,0.05274570360779762,0.01586191914975643,XTrueNorthZVertical,-0.4254502615392535,0.4454786778609933,0.7416823312621005,-0.2654205164825941,0.3946195244789124,-0.8866537809371948,-0.241081640124321,-0.9262943267822266,-35.18872833251953,-22.86172103881836,2,0.0.0.0,10.83.46.32,1,0
2015-03-01 11:19:47.543,56,1425237584.831066,37.74689113158388,-122.4443926429482,174.7592,-1,-1,10,65,-9999,1425237587.497571,0.2141952514648438,-36.03950500488281,-24.15439605712891,81.72538757324219,67.95376586914062,10,181037.9908890833,0.48046875,-0.86163330078125,-0.224853515625,181037.934077,0.03902223418849505,0.04042998114071093,-0.05001895896165023,181037.934077,-3.109891169424078,1.022384815208819,1.090058103470707,0.02592202089726925,0.05408412218093872,-0.0166838001459837,0.0300173182040453,0.05274570360779762,0.01586191914975643,XTrueNorthZVertical,-0.4254502615392535,0.4454786778609933,0.7416823312621005,-0.2654205164825941,0.3946195244789124,-0.8866537809371948,-0.241081640124321,-0.9262943267822266,-35.18872833251953,-22.86172103881836,2,0.0.0.0,10.83.46.32,1,0
2015-03-01 11:19:47.623,57,1425237584.831066,37.74689113158388,-122.4443926429482,174.7592,-1,-1,10,65,-9999,1425237587.602367,0.6745986938476562,-36.05650329589844,-24.07118988037109,81.48717498779297,67.71555328369141,10,181038.0399160417,0.4800262451171875,-0.861846923828125,-0.2326202392578125,181038.0376299167,0.08573221549572183,-0.1744058924154362,-0.1315274009685064,181037.985853125,-3.119478821766593,1.033231524636143,1.090946098833186,0.1208390071988106,0.007678433321416378,-0.04979309067130089,0.0774490162730217,0.03365525975823402,0.01462799217551947,XTrueNorthZVertical,-0.4272227662306193,0.4464176532520068,0.7404372279253841,-0.2644704273265175,0.3965347409248352,-0.8870640993118286,-0.2363839745521545,-0.7780694961547852,-35.27694320678711,-22.73091316223145,2,0.0.0.0,10.83.46.32,1,0
2015-03-01 11:19:47.639,58,1425237584.831066,37.74689113158388,-122.4443926429482,174.7592,-1,-1,10,65,-9999,1425237587.602367,0.6745986938476562,-36.05650329589844,-24.07118988037109,81.48717498779297,67.71555328369141,10,181038.0889386667,0.4603118896484375,-0.9279632568359375,-0.1983489990234375,181038.089406875,0.1081136876128568,-0.2193944063940357,-0.134101612478177,181038.0376299167,-3.132276792065042,1.03906277746538,1.090798104480415,0.07271713018417358,-0.1608113646507263,-0.09805146604776382,0.07955002039670944,0.009691666811704636,0.02020601183176041,XTrueNorthZVertical,-0.4265381445932889,0.4483281101472362,0.7409074483621964,-0.2610041730873486,0.398019552230835,-0.8869957327842712,-0.2341342270374298,-0.7686643600463867,-35.35617446899414,-22.60780334472656,2,0.0.0.0,10.83.46.32,1,0
2015-03-01 11:19:47.720,59,1425237584.831066,37.74689113158388,-122.4443926429482,174.7592,-1,-1,10,65,-9999,1425237587.655285,0.691650390625,-35.733642578125,-23.68843078613281,82.63850402832031,68.86688232421875,10,181038.1379719583,0.4810333251953125,-0.824920654296875,-0.2546539306640625,181038.1411828334,0.1370856844796108,-0.1424905699119266,-0.1862468392541465,181038.089406875,3.131324553754013,1.047041501896586,1.084321343039051,0.09508950263261795,-0.2057967633008957,-0.1006459072232246,0.05547059699892998,-0.04397691786289215,0.03547047078609467,XTrueNorthZVertical,-0.425940107075615,0.4490715871383065,0.7431816234008323,-0.2541470401119562,0.4048413038253784,-0.8839863538742065,-0.2338194698095322,-0.7836980819702148,-35.45143127441406,-22.45761108398438,2,0.0.0.0,10.83.46.32,1,0
2015-03-01 11:19:47.740,60,1425237584.831066,37.74689113158388,-122.4443926429482,174.7592,-1,-1,10,65,-9999,1425237587.730897,0.4358749389648438,-35.78462219238281,-22.67329406738281,85.38609313964844,71.61447143554688,10,181038.1870933333,0.5096588134765625,-0.87982177734375,-0.216217041015625,181038.1411828334,0.1370856844796108,-0.1424905699119266,-0.1862468392541465,181038.1411828334,3.113486261046488,1.05692224774996,1.078614041313594,0.1240679398179054,-0.1288866847753525,-0.1528017222881317,0.06951460242271423,0.05638306587934494,-0.02236971817910671,XTrueNorthZVertical,-0.4263656410774682,0.4495222289373774,0.7445763982813374,-0.2484914515049401,0.4115187227725983,-0.8813037276268005,-0.2322842180728912,-0.4509506225585938,-35.60695648193359,-22.21944427490234,2,0.0.0.0,10.83.46.32,1,0
2015-03-01 11:19:47.827,61,1425237584.831066,37.74689113158388,-122.4443926429482,174.7592,-1,-1,10,65,-9999,1425237587.790516,0.2653579711914062,-36.05650329589844,-22.50688171386719,87.63885498046875,73.86723327636719,10,181038.236019875,0.464813232421875,-0.8207550048828125,-0.29180908203125,181038.2447367917,0.2394376230740811,-0.6120793733389824,-0.2027094358485803,181038.19295975,3.08536723894131,1.069717104685799,1.065732867943296,0.09179241955280304,-0.4761799871921539,-0.1660371124744415,0.08527982980012894,-0.004678006749600172,0.01621729135513306,XTrueNorthZVertical,-0.4265903343750722,0.449225466784451,0.7480439340039455,-0.2380070334230189,0.4243789911270142,-0.8751437664031982,-0.2324343323707581,-0.1512165069580078,-35.66762161254883,-22.12601852416992,2,0.0.0.0,10.83.46.32,1,0
2015-03-01 11:19:47.830,62,1425237584.831066,37.74689113158388,-122.4443926429482,174.7592,-1,-1,10,65,-9999,1425237587.790516,0.2653579711914062,-36.05650329589844,-22.50688171386719,87.63885498046875,73.86723327636719,10,181038.2850406667,0.439300537109375,-0.8889312744140625,-0.2371063232421875,181038.2447367917,0.2394376230740811,-0.6120793733389824,-0.2027094358485803,181038.2447367917,3.062080316421711,1.060722654472496,1.057263690577372,0.2263992577791214,-0.5984658002853394,-0.1693223267793655,0.03608892858028412,0.05025950819253922,-0.05195693671703339,XTrueNorthZVertical,-0.4191590058255814,0.4520836819390003,0.7544257299909014,-0.2253171072873777,0.4287242889404297,-0.8710145354270935,-0.2398521453142166,-0.1685695648193359,-35.79481506347656,-21.91952896118164,2,0.0.0.0,10.83.46.32,1,0
2015-03-01 11:19:47.917,63,1425237584.831066,37.74689113158388,-122.4443926429482,174.7592,-1,-1,10,65,-9999,1425237587.860452,0.128936767578125,-36.02252197265625,-22.50688171386719,89.17088317871094,75.39926147460938,10,181038.3340855833,0.427581787109375,-0.788421630859375,-0.257080078125,181038.2965129167,-0.02653334025656846,-0.7026532156964683,-0.2317490770070223,181038.2965129167,3.044551251175945,1.044153359213533,1.051431160531164,-0.03957289457321167,-0.6890397667884827,-0.1983643472194672,0.01925768703222275,-0.03668123111128807,0.002859284169971943,XTrueNorthZVertical,-0.4097369431153857,0.4553896363563094,0.7609944077050921,-0.2135961997231508,0.4290760457515717,-0.8681344389915466,-0.2494718283414841,-0.5612049102783203,-35.9847297668457,-21.59969329833984,2,0.0.0.0,10.83.46.32,1,0
2015-03-01 11:19:47.930,64,1425237584.831066,37.74689113158388,-122.4443926429482,174.7592,-1,-1,10,65,-9999,1425237587.912162,0.07778167724609375,-36.03950500488281,-22.09084320068359,91.32244873046875,77.55082702636719,10,181038.3831048333,0.429443359375,-0.7396087646484375,-0.265899658203125,181038.34828975,0.2560237903430946,-0.5107697959951691,-0.1808326327580154,181038.34828975,3.023846896812301,1.035034858598157,1.04569417636972,0.2429843693971634,-0.4971564710140228,-0.1474482417106628,0.005678057204931974,0.03546927124261856,0.00278421537950635,XTrueNorthZVertical,-0.4023532818653349,0.4584274239384324,0.7661767984365045,-0.2023095540003579,0.4310590028762817,-0.8652727603912354,-0.2559122741222382,-0.6838779449462891,-36.00229644775391,-21.56686019897461,2,0.0.0.0,10.83.46.32,1,0
2015-03-01 11:19:47.990,65,1425237584.831066,37.74689113158388,-122.4443926429482,174.7592,-1,-1,10,65,-9999,1425237587.963616,-0.1950531005859375,-36.37934875488281,-21.45845794677734,93.24449920654297,79.47287750244141,10,181038.4321457084,0.1762847900390625,-0.9247589111328125,-0.194854736328125,181038.40006675,0.2633853002282916,-0.8928186301785574,-0.00729093611630993,181038.40006675,2.990798219442479,1.037627309770647,1.05036581528469,0.2503459751605988,-0.8792054653167725,0.02609314955770969,-0.008221684955060482,0.06091878563165665,0.05498269945383072,XTrueNorthZVertical,-0.3950103200710733,0.4664745915069063,0.7679662457709545,-0.1913009577110058,0.4282351136207581,-0.8676052093505859,-0.2527365982532501,-0.8552122116088867,-36.2442626953125,-21.15147018432617,2,0.0.0.0,10.83.46.32,1,0
2015-03-01 11:19:48.034,66,1425237584.831066,37.74689113158388,-122.4443926429482,174.7592,-1,-1,10,65,-9999,1425237588.01814,-0.280303955078125,-36.70222473144531,-20.74288177490234,94.67090606689453,80.89928436279297,10,181038.48116475,0.692169189453125,-0.84063720703125,-0.2186737060546875,181038.4518426667,0.3624719370102158,0.5736526219702291,0.003215234384052664,181038.4518426667,2.989246564461934,1.029908284155953,1.063407203246532,0.349448174238205,0.5872704982757568,0.03661046922206879,-0.1399245709180832,0.05204039439558983,0.1312905550003052,XTrueNorthZVertical,-0.3896933994983895,0.4722769669326942,0.7669899010642512,-0.1918851768807654,0.4165359139442444,-0.8740161061286926,-0.2501870393753052,-1.839258193969727,-36.56997299194336,-20.51869583129883,2,0.0.0.0,10.83.46.32,1,0
2015-03-01 11:19:48.150,67,1425237584.831066,37.74689113158388,-122.4443926429482,174.7592,-1,-1,10,65,-9999,1425237588.092992,-0.8600692749023438,-36.97412109375,-19.97737884521484,93.13072204589844,79.35910034179688,10,181038.53019975,0.367828369140625,-0.967071533203125,-0.2834320068359375,181038.5036196667,0.6596956283651633,-0.4119161858086269,0.1755707590762368,181038.5036196667,2.922379200333048,1.109068080062626,1.082510714778583,0.6466720104217529,-0.398298442363739,0.2089656591415405,0.3358095586299896,-0.07428958266973495,-0.1176114082336426,XTrueNorthZVertical,-0.4006635876107957,0.4847420288751933,0.7539307693686984,-0.1899530430206345,0.4199887812137604,-0.8831384181976318,-0.2089877128601074,-1.36301326751709,-36.9568977355957,-19.85176277160645,2,0.0.0.0,10.83.46.32,1,0
2015-03-01 11:19:48.153,68,1425237584.831066,37.74689113158388,-122.4443926429482,174.7592,-1,-1,10,65,-9999,1425237588.092992,-0.8600692749023438,-36.97412109375,-19.97737884521484,93.13072204589844,79.35910034179688,10,181038.5792200833,0.274871826171875,-0.8759307861328125,-0.162567138671875,181038.5553966667,0.01314269997954104,-0.5248991971585846,0.1612349629283403,181038.5553966667,2.916636992187081,1.072899201204373,1.098178966023313,0.0001191964765894227,-0.5112815499305725,0.1946295648813248,-0.2426161766052246,-0.02229408174753189,-0.01335603184998035,XTrueNorthZVertical,-0.3828520267937268,0.494694863688908,0.7584843357025119,-0.1827641607715714,0.3999495506286621,-0.8903798460960388,-0.2174026370048523,-1.948060035705566,-37.4781608581543,-18.79775047302246,2,0.0.0.0,10.83.46.32,1,0
2015-03-01 11:19:48.231,69,1425237584.831066,37.74689113158388,-122.4443926429482,174.7592,-1,-1,10,65,-9999,1425237588.196094,-2.002540588378906,-38.14666748046875,-19.06207275390625,95.25149536132812,81.47987365722656,10,181038.6282611667,0.4839630126953125,-0.9406280517578125,-0.152069091796875,181038.6071727083,0.07710144303499303,0.2378940549062712,-0.06730473864902754,181038.6071727083,2.914754434441158,1.080055774807765,1.101203330775771,0.06407806277275085,0.2515115439891815,-0.03391047194600105,0.0133420480415225,0.01794272661209106,0.07636291533708572,XTrueNorthZVertical,-0.3845696161640177,0.4954531528918192,0.7566845194157169,-0.1845557645766984,0.3991182744503021,-0.8917525410652161,-0.2132647633552551,-2.700276374816895,-37.52233123779297,-18.61573791503906,2,0.0.0.0,10.83.46.32,1,0
2015-03-01 11:19:48.233,70,1425237584.831066,37.74689113158388,-122.4443926429482,174.7592,-1,-1,10,65,-9999,1425237588.196094,-2.002540588378906,-38.14666748046875,-19.06207275390625,95.25149536132812,81.47987365722656,10,181038.6772900833,0.4128570556640625,-0.919769287109375,-0.1553497314453125,181038.65894975,0.2932654350267627,-0.1544433695164202,0.02905934855050862,181038.65894975,2.897382773754733,1.09618195246919,1.10595956316465,0.2802422046661377,-0.1408260315656662,0.0624532476067543,0.06321632117033005,-0.03533498197793961,0.02132772281765938,XTrueNorthZVertical,-0.3854979524531012,0.4989600278318215,0.754240774988148,-0.1831692691874963,0.3987282514572144,-0.8938947319984436,-0.2048604339361191,-2.609335899353027,-37.58644866943359,-18.49899864196777,2,0.0.0.0,10.83.46.32,1,0
2015-03-01 11:19:48.312,71,1425237584.831066,37.74689113158388,-122.4443926429482,174.7592,-1,-1,10,65,-9999,1425237588.300049,-1.951377868652344,-38.26557922363281,-18.41304779052734,94.17398834228516,80.40236663818359,10,181038.7263385833,0.3654327392578125,-0.930572509765625,-0.123779296875,181038.7107267083,0.2472630556211699,-0.06314834313574089,0.02806039682561989,181038.7107267083,2.876344936922905,1.108967041767043,1.115889521908715,0.2342399656772614,-0.04953113943338394,0.06145396456122398,-0.04154201969504356,0.001588723156601191,0.04189620912075043,XTrueNorthZVertical,-0.3832133181862934,0.5052296551455537,0.7517670151869887,-0.1809331692970375,0.3933486640453339,-0.8983019590377808,-0.1957810968160629,-2.81182861328125,-37.79316711425781,-18.04252624511719,2,0.0.0.0,10.83.46.32,1,0
2015-03-01 11:19:48.323,72,1425237584.831066,37.74689113158388,-122.4443926429482,174.7592,-1,-1,10,65,-9999,1425237588.300049,-1.951377868652344,-38.26557922363281,-18.41304779052734,94.17398834228516,80.40236663818359,10,181038.7753542083,0.3825836181640625,-0.964263916015625,-0.1087188720703125,181038.76250275,0.07696748603216205,0.05762734387989761,-0.08599453686309463,181038.7107267083,2.876344936922905,1.108967041767043,1.115889521908715,0.2342399656772614,-0.04953113943338394,0.06145396456122398,-0.04154201969504356,0.001588723156601191,0.04189620912075043,XTrueNorthZVertical,-0.3832133181862934,0.5052296551455537,0.7517670151869887,-0.1809331692970375,0.3933486640453339,-0.8983019590377808,-0.1957810968160629,-2.81182861328125,-37.79316711425781,-18.04252624511719,2,0.0.0.0,10.83.46.32,1,0
2015-03-01 11:19:48.413,73,1425237584.831066,37.74689113158388,-122.4443926429482,174.7592,-1,-1,10,65,-9999,1425237588.404184,-1.746757507324219,-37.8917236328125,-17.514404296875,94.26679229736328,80.49517059326172,10,181038.8243924583,0.366546630859375,-0.900390625,-0.0930023193359375,181038.81427975,0.05397188896765485,1.544633432245958e-05,-0.108963502316701,181038.81427975,2.854555243017544,1.131992175962099,1.115081404796031,0.04094903916120529,0.0136323906481266,-0.07557057589292526,-0.0415363535284996,-0.02748368121683598,0.0803835541009903,XTrueNorthZVertical,-0.3864929034592483,0.5070823496532193,0.7494479665950656,-0.1783770729695962,0.3984089195728302,-0.8979465961456299,-0.1869814544916153,-2.815898895263672,-38.06643676757812,-17.45793914794922,2,0.0.0.0,10.83.46.32,1,0
2015-03-01 11:19:48.420,74,1425237584.831066,37.74689113158388,-122.4443926429482,174.7592,-1,-1,10,65,-9999,1425237588.404184,-1.746757507324219,-37.8917236328125,-17.514404296875,94.26679229736328,80.49517059326172,10,181038.8734125417,0.431396484375,-0.91424560546875,-0.089202880859375,181038.8660568334,0.1935156711334088,0.07737175388563608,-0.09526473430155145,181038.81427975,2.854555243017544,1.131992175962099,1.115081404796031,0.04094903916120529,0.0136323906481266,-0.07557057589292526,-0.0415363535284996,-0.02748368121683598,0.0803835541009903,XTrueNorthZVertical,-0.3864929034592483,0.5070823496532193,0.7494479665950656,-0.1783770729695962,0.3984089195728302,-0.8979465961456299,-0.1869814544916153,-2.815898895263672,-38.06643676757812,-17.45793914794922,2,0.0.0.0,10.83.46.32,1,0
2015-03-01 11:19:48.521,75,1425237584.831066,37.74689113158388,-122.4443926429482,174.7592,-1,-1,10,65,-9999,1425237588.507097,-1.644447326660156,-38.26557922363281,-16.81546783447266,94.71538543701172,80.94376373291016,10,181038.9224520834,0.4665985107421875,-0.8798065185546875,-0.150238037109375,181038.917832875,0.1557874669185832,-0.1854601414681371,-0.1607316254823153,181038.8660568334,2.837365393651395,1.150611037088612,1.116178294870001,0.1804929673671722,0.09098854660987854,-0.06187216937541962,0.01167613454163074,-0.01262769568711519,0.09531312435865402,XTrueNorthZVertical,-0.3888793491873185,0.5091247636500924,0.7471611874759088,-0.176960151707508,0.4009215235710144,-0.8984287977218628,-0.1791296601295471,-2.673169136047363,-38.11177062988281,-17.38130760192871,2,0.0.0.0,10.83.46.32,1,0
2015-03-01 11:19:48.523,76,1425237584.831066,37.74689113158388,-122.4443926429482,174.7592,-1,-1,10,65,-9999,1425237588.507097,-1.644447326660156,-38.26557922363281,-16.81546783447266,94.71538543701172,80.94376373291016,10,181038.971478,0.4467010498046875,-0.9678497314453125,-0.1166229248046875,181038.969609875,0.0865684480780067,-0.5258893604518761,-0.2841198735273215,181038.917832875,2.803406221544201,1.182036715586078,1.115421690231504,0.1427848786115646,-0.1718304604291916,-0.127345934510231,0.06387488543987274,0.006067517679184675,0.0210565160959959,XTrueNorthZVertical,-0.3920719605430396,0.5127657833079257,0.7441258501330591,-0.1721262819477861,0.4069808125495911,-0.8980963230133057,-0.1667016595602036,-2.324792861938477,-38.43559265136719,-16.70518493652344,2,0.0.0.0,10.83.46.32,1,0
2015-03-01 11:19:48.583,77,1425237584.831066,37.74689113158388,-122.4443926429482,174.7592,-1,-1,10,65,-9999,1425237588.558955,-1.746757507324219,-38.8773193359375,-16.58248138427734,96.69348907470703,82.92186737060547,10,181039.0205284583,0.368743896484375,-1.06951904296875,-0.1041107177734375,181039.021386875,-0.2212314549139724,-0.6040970806036879,-0.3060571303746312,181038.969609875,2.781565654957173,1.182125907539881,1.108832065837765,0.07356598228216171,-0.5122597813606262,-0.2507345080375671,0.03849472478032112,-0.05536752566695213,0.05997195094823837,XTrueNorthZVertical,-0.3878519221678167,0.5148967509886392,0.7470854490327792,-0.1622204138955199,0.412463515996933,-0.8951787352561951,-0.1689044386148453,-2.281883239746094,-38.51935577392578,-16.51711082458496,2,0.0.0.0,10.83.46.32,1,0
2015-03-01 11:19:48.619,78,1425237584.831066,37.74689113158388,-122.4443926429482,174.7592,-1,-1,10,65,-9999,1425237588.558955,-1.746757507324219,-38.8773193359375,-16.58248138427734,96.69348907470703,82.92186737060547,10,181039.0695561667,0.3949432373046875,-0.90350341796875,-0.1324462890625,181039.021386875,-0.2212314549139724,-0.6040970806036879,-0.3060571303746312,181039.021386875,2.777041226576056,1.152577442166827,1.093990503354148,-0.23415407538414,-0.590525209903717,-0.2725337147712708,-0.05064493790268898,-0.181053638458252,0.08228158205747604,XTrueNorthZVertical,-0.3786434188645341,0.5132572551087565,0.7556591911229601,-0.1489135549540926,0.4193888306617737,-0.888465404510498,-0.1863923072814941,-2.235235214233398,-38.59615707397461,-16.34328842163086,2,0.0.0.0,10.83.46.32,1,0
2015-03-01 11:19:48.712,79,1425237584.831066,37.74689113158388,-122.4443926429482,174.7592,-1,-1,10,65,-9999,1425237588.662847,-0.3826065063476562,-38.84333801269531,-16.84873962402344,99.79804229736328,86.02642059326172,10,181039.1186025,0.4345855712890625,-0.8816986083984375,-0.084991455078125,181039.12494,-0.2933024529659148,-0.08348583911624,-0.4707488763978944,181039.0731629583,2.787052188644871,1.12848254658593,1.071437528021193,-0.219862088561058,-0.1326307654380798,-0.4260114729404449,-0.03783538565039635,-0.02561362832784653,0.07252208143472672,XTrueNorthZVertical,-0.3765844111159246,0.5056678695233956,0.7633637745813028,-0.1405697095465406,0.4327786266803741,-0.8778898119926453,-0.2049683779478073,-1.867378234863281,-38.36963653564453,-16.91290473937988,2,0.0.0.0,10.83.46.32,1,0
2015-03-01 11:19:48.718,80,1425237584.831066,37.74689113158388,-122.4443926429482,174.7592,-1,-1,10,65,-9999,1425237588.662847,-0.3826065063476562,-38.84333801269531,-16.84873962402344,99.79804229736328,86.02642059326172,10,181039.167620875,0.4801025390625,-0.849945068359375,-0.07830810546875,181039.12494,-0.2933024529659148,-0.08348583911624,-0.4707488763978944,181039.12494,2.796478996984987,1.116106394370012,1.046082712162683,-0.3062248229980469,-0.06991423666477203,-0.4372260868549347,-0.01548002939671278,-0.01623116247355938,0.1350242495536804,XTrueNorthZVertical,-0.3791703009668281,0.4962076463561204,0.7693784101124878,-0.1344047066292538,0.4500656127929688,-0.8654674291610718,-0.2200157046318054,-1.447057723999023,-38.25712585449219,-17.20642852783203,2,0.0.0.0,10.83.46.32,1,0
2015-03-01 11:19:48.782,81,1425237584.831066,37.74689113158388,-122.4443926429482,174.7592,-1,-1,10,65,-9999,1425237588.770015,0.7598648071289062,-38.75836181640625,-17.89715576171875,101.6726379394531,87.90101623535156,10,181039.2166799167,0.45245361328125,-0.8174896240234375,-0.0889434814453125,181039.1767170417,-0.122003137962056,-0.1615968865204821,-0.2953879744155558,181039.1767170417,2.793842589625876,1.112930268548524,1.026229996191136,-0.1349253803491592,-0.1480254083871841,-0.2618655264377594,0.01541545521467924,0.005406964104622602,0.1506868153810501,XTrueNorthZVertical,-0.3811173319277951,0.4901551992206761,0.7734781041223809,-0.1273930570058519,0.4646870791912079,-0.8553520441055298,-0.2289949208498001,-0.7695198059082031,-38.06012344360352,-17.68042945861816,2,0.0.0.0,10.83.46.32,1,0
2015-03-01 11:19:48.816,82,1425237584.831066,37.74689113158388,-122.4443926429482,174.7592,-1,-1,10,65,-9999,1425237588.770015,0.7598648071289062,-38.75836181640625,-17.89715576171875,101.6726379394531,87.90101623535156,10,181039.2657567917,0.5734710693359375,-0.812713623046875,-0.1883392333984375,181039.2284930834,0.3062283716327234,0.09734732627399342,-0.3516219524131239,181039.2284930834,2.778811632517581,1.12359808035906,1.014153265805714,0.2933062613010406,0.1109186485409737,-0.3180998861789703,-0.0009040999575518072,0.02588285878300667,0.1442468762397766,XTrueNorthZVertical,-0.383897449610761,0.4882469137054578,0.7743373152707563,-0.120993099669349,0.476383239030838,-0.8490334749221802,-0.2284753918647766,-0.03145599365234375,-38.01327896118164,-17.79753112792969,2,0.0.0.0,10.83.46.32,1,0
2015-03-01 11:19:48.892,83,1425237584.831066,37.74689113158388,-122.4443926429482,174.7592,-1,-1,10,65,-9999,1425237588.872374,2.789031982421875,-39.28515625,-16.88200378417969,102.9239120483398,89.15229034423828,10,181039.31476875,0.514801025390625,-0.9467926025390625,-0.2583160400390625,181039.2802701667,0.458804865224998,-0.1498789777241334,-0.3566635826727529,181039.2802701667,2.730392569776441,1.168159971557478,1.00720737804036,0.4458829164505005,-0.1363077908754349,-0.3231418430805206,0.08578360825777054,0.01994958147406578,0.01666015759110451,XTrueNorthZVertical,-0.3906104215777279,0.492703820667047,0.7695902729157885,-0.1113425526797273,0.4915021657943726,-0.8453432321548462,-0.2093328833580017,0.4287166595458984,-38.20417404174805,-17.37872123718262,2,0.0.0.0,10.83.46.32,1,0
2015-03-01 11:19:48.926,84,1425237584.831066,37.74689113158388,-122.4443926429482,174.7592,-1,-1,10,65,-9999,1425237588.872374,2.789031982421875,-39.28515625,-16.88200378417969,102.9239120483398,89.15229034423828,10,181039.3637802917,0.3727264404296875,-0.9293670654296875,-0.230712890625,181039.3320471667,0.1635351351618417,-0.4577526502783077,-0.2664066564849865,181039.3320471667,2.694060793039116,1.180695713484525,1.000329737325762,0.1506132781505585,-0.4441815912723541,-0.2328852117061615,-0.01643608883023262,-0.1159467250108719,-0.06345270574092865,XTrueNorthZVertical,-0.3878777927659082,0.4968602705048082,0.7700465735934124,-0.09853361111241785,0.499453067779541,-0.8416491150856018,-0.2053613811731339,0.8922939300537109,-38.51816940307617,-16.65284156799316,2,0.0.0.0,10.83.46.32,1,0
2015-03-01 11:19:48.981,85,1425237584.831066,37.74689113158388,-122.4443926429482,174.7592,-1,-1,10,65,-9999,1425237588.947708,3.62457275390625,-39.47207641601562,-16.39939880371094,105.1431274414062,91.37150573730469,10,181039.41282175,0.5370941162109375,-0.7289581298828125,-0.1483001708984375,181039.3838234167,-0.3579978263788827,0.07573364349912834,-0.231232956387765,181039.3838234167,2.699120190269994,1.167273054065566,0.988386736791006,-0.3709195554256439,0.08930455148220062,-0.1977118849754333,-0.1017467305064201,-0.03059820458292961,0.04550721868872643,XTrueNorthZVertical,-0.3864506723496159,0.4926120924441312,0.7740731353100816,-0.09380774999133745,0.5058605074882507,-0.8351396918296814,-0.2159784138202667,1.166469573974609,-38.53622055053711,-16.59402275085449,2,0.0.0.0,10.83.46.32,1,0
2015-03-01 11:19:49.015,86,1425237584.831066,37.74689113158388,-122.4443926429482,174.7592,-1,-1,10,65,-9999,1425237589.000201,3.914451599121094,-39.18321228027344,-16.31618499755859,106.4593887329102,92.68776702880859,10,181039.461844125,0.6592254638671875,-0.7528533935546875,-0.209136962890625,181039.4356003334,-0.1350512957228992,0.1758804847110131,-0.1705544288469636,181039.4356003334,2.716193600924064,1.164760874565925,0.974049709631245,-0.1479728817939758,0.1894512474536896,-0.1370337009429932,0.1064319908618927,0.1251876503229141,0.05896081030368805,XTrueNorthZVertical,-0.3926008165567475,0.4846514225890174,0.7757572608976144,-0.09580280859620098,0.5162639617919922,-0.8271682262420654,-0.221955195069313,1.50316047668457,-38.34293746948242,-17.00947570800781,2,0.0.0.0,10.83.46.32,1,0
2015-03-01 11:19:49.080,87,1425237584.831066,37.74689113158388,-122.4443926429482,174.7592,-1,-1,10,65,-9999,1425237589.053493,4.255485534667969,-38.639404296875,-16.51589202880859,106.7377777099609,92.96615600585938,10,181039.51087775,0.59332275390625,-0.8391876220703125,-0.2543487548828125,181039.4873774167,0.009561813577820497,-0.1722375466558937,-0.1510169464579243,181039.4873774167,2.719473061460921,1.160689868736897,0.9687555997374773,-0.003359654918313026,-0.1586668938398361,-0.117496520280838,0.1013932228088379,0.04879099130630493,-0.02375959418714046,XTrueNorthZVertical,-0.3928880827148916,0.4824313461835976,0.777139846460677,-0.09461774818735751,0.5193648338317871,-0.8241816163063049,-0.2257979065179825,1.870096206665039,-38.20610809326172,-17.27885437011719,2,0.0.0.0,10.83.46.32,1,0
2015-03-01 11:19:49.118,88,1425237584.831066,37.74689113158388,-122.4443926429482,174.7592,-1,-1,10,65,-9999,1425237589.053493,4.255485534667969,-38.639404296875,-16.51589202880859,106.7377777099609,92.96615600585938,10,181039.559903375,0.4869384765625,-0.71649169921875,-0.3669281005859375,181039.5391535,0.1371828898593987,-0.1854787835957676,-0.4616073096400884,181039.4873774167,2.719473061460921,1.160689868736897,0.9687555997374773,-0.003359654918313026,-0.1586668938398361,-0.117496520280838,0.1013932228088379,0.04879099130630493,-0.02375959418714046,XTrueNorthZVertical,-0.3928880827148916,0.4824313461835976,0.777139846460677,-0.09461774818735751,0.5193648338317871,-0.8241816163063049,-0.2257979065179825,1.870096206665039,-38.20610809326172,-17.27885437011719,2,0.0.0.0,10.83.46.32,1,0
2015-03-01 11:19:49.164,89,1425237584.831066,37.74689113158388,-122.4443926429482,174.7592,-1,-1,10,65,-9999,1425237589.129287,5.210380554199219,-38.469482421875,-17.04842376708984,107.6554336547852,93.88381195068359,10,181039.6090587083,0.4349822998046875,-0.704345703125,-0.3528289794921875,181039.5909305417,-0.09096639230216357,-0.2540178974100469,-0.6820914815521846,181039.5909305417,2.681470824160511,1.172712232623495,0.9325997173827129,-0.1038875877857208,-0.2404475212097168,-0.6485717296600342,-0.1337278038263321,0.09565189480781555,-0.1412336975336075,XTrueNorthZVertical,-0.3958357422592107,0.4773283497952602,0.7811584853141801,-0.07254681938142843,0.5491635799407959,-0.8031714558601379,-0.23094342648983,2.717771530151367,-38.23477172851562,-17.10200881958008,2,0.0.0.0,10.83.46.32,1,0
2015-03-01 11:19:49.213,90,1425237584.831066,37.74689113158388,-122.4443926429482,174.7592,-1,-1,10,65,-9999,1425237589.180571,6.4381103515625,-38.80935668945312,-17.01513671875,109.7381820678711,95.96656036376953,10,181039.6579706667,0.404876708984375,-0.6865997314453125,-0.3595733642578125,181039.6427076667,-0.1818986961423741,0.1487434058353236,-0.7385779272210923,181039.6427076667,2.671902996237664,1.178087234811631,0.8954555541105692,-0.194819763302803,0.1623136401176453,-0.7050585150718689,-0.149060532450676,0.06314776837825775,-0.1000643074512482,XTrueNorthZVertical,-0.4032990278109003,0.4666124744391182,0.7849086633652638,-0.05950623150236569,0.5775731205940247,-0.7804939746856689,-0.2392453849315643,3.664985656738281,-38.07028198242188,-17.29115867614746,2,0.0.0.0,10.83.46.32,1,0
2015-03-01 11:19:49.262,91,1425237584.831066,37.74689113158388,-122.4443926429482,174.7592,-1,-1,10,65,-9999,1425237589.232823,7.734050750732422,-38.4014892578125,-16.84871673583984,113.5262985229492,99.75467681884766,10,181039.7070135417,0.4125518798828125,-0.597503662109375,-0.329071044921875,181039.694483875,-0.08463046575275605,0.3090859434823784,-0.7391307994633927,181039.694483875,2.66035236785378,1.199939156635456,0.8613979319281173,-0.09755142033100128,0.3226560354232788,-0.7056117057800293,-0.195336326956749,0.1357985585927963,-0.09881608188152313,XTrueNorthZVertical,-0.416154912315525,0.4569253877258156,0.7845460253607841,-0.05021674667617032,0.6070947647094727,-0.7587538957595825,-0.2360685616731644,5.894443511962891,-37.62162780761719,-17.653076171875,2,0.0.0.0,10.83.46.32,1,0
2015-03-01 11:19:49.308,92,1425237584.831066,37.74689113158388,-122.4443926429482,174.7592,-1,-1,10,65,-9999,1425237589.284034,9.166412353515625,-38.53742980957031,-17.38124084472656,114.1336669921875,100.3620452880859,10,181039.7560371667,0.3817291259765625,-0.5219879150390625,-0.2559356689453125,181039.7462608333,-0.2901988050315364,0.3774855076555375,-0.8163275836654106,181039.694483875,2.66035236785378,1.199939156635456,0.8613979319281173,-0.09755142033100128,0.3226560354232788,-0.7056117057800293,-0.195336326956749,0.1357985585927963,-0.09881608188152313,XTrueNorthZVertical,-0.416154912315525,0.4569253877258156,0.7845460253607841,-0.05021674667617032,0.6070947647094727,-0.7587538957595825,-0.2360685616731644,5.894443511962891,-37.62162780761719,-17.653076171875,2,0.0.0.0,10.83.46.32,1,0
2015-03-01 11:19:49.360,93,1425237584.831066,37.74689113158388,-122.4443926429482,174.7592,-1,-1,10,65,-9999,1425237589.336856,11.21263122558594,-37.92568969726562,-17.48109436035156,115.955078125,102.1834564208984,10,181039.8051909167,0.438690185546875,-0.4140625,-0.192474365234375,181039.798037875,-0.439176036410569,0.6160900939406418,-1.038591812450116,181039.798037875,2.660415847696857,1.241487615045694,0.7736437880931063,-0.452096700668335,0.6296599507331848,-1.005073428153992,-0.2770731151103973,0.276352733373642,0.04155369848012924,XTrueNorthZVertical,-0.4500306796842127,0.4263814356816285,0.7839274116697522,-0.03360030402650813,0.6769296526908875,-0.6987465023994446,-0.2313425242900848,8.53568172454834,-36.88765335083008,-18.116455078125,2,0.0.0.0,10.83.46.32,1,0
2015-03-01 11:19:49.408,94,1425237584.831066,37.74689113158388,-122.4443926429482,174.7592,-1,-1,10,65,-9999,1425237589.387724,13.34410095214844,-37.3309326171875,-17.79728698730469,118.3458938598633,104.5742721557617,10,181039.8541190417,0.62542724609375,-0.4640960693359375,-0.160064697265625,181039.798037875,-0.439176036410569,0.6160900939406418,-1.038591812450116,181039.798037875,2.660415847696857,1.241487615045694,0.7736437880931063,-0.452096700668335,0.6296599507331848,-1.005073428153992,-0.2770731151103973,0.276352733373642,0.04155369848012924,XTrueNorthZVertical,-0.4500306796842127,0.4263814356816285,0.7839274116697522,-0.03360030402650813,0.6769296526908875,-0.6987465023994446,-0.2313425242900848,8.53568172454834,-36.88765335083008,-18.116455078125,2,0.0.0.0,10.83.46.32,1,0
2015-03-01 11:19:49.458,95,1425237584.831066,37.74689113158388,-122.4443926429482,174.7592,-1,-1,10,65,-9999,1425237589.43987,15.83366394042969,-36.41331481933594,-18.32981872558594,117.2629013061523,103.4912796020508,10,181039.9031773334,0.7254791259765625,-0.340576171875,-0.083953857421875,181039.9015913334,-0.3113831862386807,1.005290847231438,-1.044976741163581,181039.8498140417,2.661555869022931,1.293595023356735,0.7193250789551959,-0.2727129757404327,1.221415519714355,-0.9738523960113525,-0.1193006262183189,0.1925990432500839,0.01752529852092266,XTrueNorthZVertical,-0.4811364194629597,0.4069096706868784,0.7759655236920932,-0.02845488284963973,0.7235333919525146,-0.6588771343231201,-0.2058645337820053,12.40365886688232,-35.58105850219727,-18.49054718017578,2,0.0.0.0,10.83.46.32,1,0
2015-03-01 11:19:49.513,96,1425237584.831066,37.74689113158388,-122.4443926429482,174.7592,-1,-1,10,65,-9999,1425237589.491364,18.56196212768555,-35.461669921875,-18.46295166015625,116.6284713745117,102.8568496704102,10,181039.952199,0.87744140625,-0.3923187255859375,-0.0622100830078125,181039.95336825,-0.2841060250896532,0.9752948649255484,-0.9231709434382995,181039.9015913334,2.665832240492471,1.344544573575065,0.6688116386536195,-0.3243036270141602,1.018860459327698,-1.011458992958069,-0.07381363213062286,0.2758463323116302,0.08912899345159531,XTrueNorthZVertical,-0.5111904473431523,0.3881825422427787,0.7664196309081041,-0.02448465541107258,0.7645637392997742,-0.6200540661811829,-0.1759972870349884,14.03681182861328,-35.04383850097656,-18.34829330444336,2,0.0.0.0,10.83.46.32,1,0
2015-03-01 11:19:49.557,97,1425237584.831066,37.74689113158388,-122.4443926429482,174.7592,-1,-1,10,65,-9999,1425237589.543595,21.25614929199219,-34.27212524414062,-18.130126953125,117.4051742553711,103.6335525512695,10,181040.0012510417,0.92169189453125,-0.2791290283203125,-0.011688232421875,181039.95336825,-0.2841060250896532,0.9752948649255484,-0.9231709434382995,181039.95336825,2.671375862768121,1.393582468415505,0.6183942254815038,-0.2970263063907623,0.9888642430305481,-0.8896535634994507,0.07539208978414536,0.1874087750911713,0.08143100142478943,XTrueNorthZVertical,-0.5401466888108363,0.3693521539654981,0.7559305688690158,-0.01973384214934493,0.8020493388175964,-0.5797275304794312,-0.1436410844326019,16.43849563598633,-34.09750366210938,-18.13556671142578,2,0.0.0.0,10.83.46.32,1,0
2015-03-01 11:19:49.609,98,1425237584.831066,37.74689113158388,-122.4443926429482,174.7592,-1,-1,10,65,-9999,1425237589.595439,23.42173385620117,-32.92964172363281,-17.81392669677734,117.3338775634766,103.562255859375,10,181040.050274375,0.9589996337890625,-0.414703369140625,0.0369720458984375,181040.0051445,-0.1206848732224668,0.5671965868556591,-0.8752422996162524,181040.0051445,2.676876887721283,1.427201383394505,0.5747204078673829,-0.1335297524929047,0.5807119011878967,-0.8415935635566711,0.09098624438047409,0.2644711136817932,0.1084235832095146,XTrueNorthZVertical,-0.5615105032325636,0.3530581343778713,0.7482455294426398,-0.01358104293145317,0.8307056427001953,-0.5436001420021057,-0.1201118156313896,19.81728172302246,-32.54779052734375,-17.59771728515625,2,0.0.0.0,10.83.46.32,1,0
2015-03-01 11:19:49.654,99,1425237584.831066,37.74689113158388,-122.4443926429482,174.7592,-1,-1,10,65,-9999,1425237589.64683,25.22922897338867,-32.04597473144531,-16.68229675292969,120.8614654541016,107.08984375,10,181040.0994242917,0.9514312744140625,-0.380706787109375,0.0047760009765625,181040.10869875,0.08300433959115366,0.5980319975371415,-0.8666003418789453,181040.0569214583,2.673291376614163,1.45051560443704,0.5319075440456036,-0.04942514002323151,0.2832699418067932,-0.8525839447975159,0.103385366499424,0.09247489273548126,0.1403851360082626,XTrueNorthZVertical,-0.576908847471103,0.3398082337013489,0.7427665804937542,-0.002064332536356875,0.8556142449378967,-0.5071782469749451,-0.1034130901098251,20.9202995300293,-31.98932647705078,-17.34320449829102,2,0.0.0.0,10.83.46.32,4,0
2015-03-01 11:19:49.718,100,1425237584.831066,37.74689113158388,-122.4443926429482,174.7592,-1,-1,10,65,-9999,1425237589.699781,26.95146179199219,-30.53359985351562,-16.43267822265625,122.1772384643555,108.4056167602539,10,181040.148340875,1.078140258789062,-0.3140411376953125,0.0144195556640625,181040.10869875,0.08300433959115366,0.5980319975371415,-0.8666003418789453,181040.10869875,2.665693760189976,1.475641721357627,0.489037559036584,0.07015971094369888,0.61154705286026,-0.8329522013664246,0.07263950258493423,0.08906968683004379,0.08865038305521011,XTrueNorthZVertical,-0.5920546487933727,0.3279239272968326,0.7360821363871908,0.01096301915167571,0.8787917494773865,-0.4697764813899994,-0.08387438207864761,22.39552688598633,-31.12799072265625,-17.06608963012695,2,0.0.0.0,10.83.46.32,4,0
2015-03-01 11:19:49.752,101,1425237584.831066,37.74689113158388,-122.4443926429482,174.7592,-1,-1,10,65,-9999,1425237589.699781,26.95146179199219,-30.53359985351562,-16.43267822265625,122.1772384643555,108.4056167602539,10,181040.1973927917,1.16424560546875,-0.2896881103515625,0.0037078857421875,181040.1604746667,0.1692215167213789,0.5741410457141497,-0.7022420236241601,181040.1604746667,2.655554983354216,1.513361158116331,0.4528765446303057,0.1563770323991776,0.5876559019088745,-0.6685943007469177,0.2275347709655762,0.1276326477527618,0.0715753585100174,XTrueNorthZVertical,-0.6100469243513694,0.3194281147577619,0.7248250495038649,0.02090420417833361,0.8977093696594238,-0.4375539124011993,-0.0516168586909771,24.95395088195801,-29.84639739990234,-15.75613117218018,2,0.0.0.0,10.83.46.32,4,0
2015-03-01 11:19:49.809,102,1425237584.831066,37.74689113158388,-122.4443926429482,174.7592,-1,-1,10,65,-9999,1425237589.802109,29.90142822265625,-29.191162109375,-15.01814270019531,124.262580871582,110.4909591674805,10,181040.2464218333,1.079681396484375,-0.3187713623046875,-0.024139404296875,181040.2122519583,0.2985768435048167,-0.07538530202854597,-0.5392917186376998,181040.2122519583,2.640604923701344,1.530900832547343,0.4253553541255206,0.2857324779033661,-0.06187055632472038,-0.5056443214416504,0.2234539687633514,0.1139994785189629,0.04627957940101624,XTrueNorthZVertical,-0.6183859899686438,0.3153305292768367,0.7190788244200792,0.03302994907656108,0.9101672172546387,-0.4126445055007935,-0.03633084893226624,25.70199966430664,-29.4721851348877,-15.24992084503174,2,0.0.0.0,10.83.46.32,4,0
2015-03-01 11:19:49.850,103,1425237584.831066,37.74689113158388,-122.4443926429482,174.7592,-1,-1,10,65,-9999,1425237589.802109,29.90142822265625,-29.191162109375,-15.01814270019531,124.262580871582,110.4909591674805,10,181040.2954682084,1.105209350585938,-0.3096771240234375,-0.057861328125,181040.2640289167,0.2853840760967822,-0.1294259005523249,-0.5635911993719098,181040.2640289167,2.622937716070812,1.530433765169112,0.3991971623854443,0.2725398540496826,-0.1159112751483917,-0.5299440622329712,0.1556863784790039,0.06449051946401596,0.00899590365588665,XTrueNorthZVertical,-0.6195685748322741,0.3123224893934283,0.7184949278626208,0.04852206594898086,0.9206228256225586,-0.3886787593364716,-0.0371788889169693,26.36605834960938,-29.05371856689453,-14.9155969619751,2,0.0.0.0,10.83.46.32,4,0
2015-03-01 11:19:49.909,104,1425237584.831066,37.74689113158388,-122.4443926429482,174.7592,-1,-1,10,65,-9999,1425237589.854054,30.60055541992188,-28.97027587890625,-14.43568420410156,128.2912445068359,114.5196228027344,10,181040.3444984167,1.095046997070312,-0.324462890625,-0.0836334228515625,181040.3158052083,0.1442051130217196,-0.1328224962066119,-0.5008684293783635,181040.3158052083,2.610754729038801,1.530486486053448,0.3741333417636148,0.1313610076904297,-0.1193080246448517,-0.4672217071056366,0.1667485386133194,0.05478175729513168,-0.03801977634429932,XTrueNorthZVertical,-0.6216096379440995,0.3079705218782248,0.7176107310042785,0.06156592373575474,0.9300684928894043,-0.3654659688472748,-0.03751122951507568,27.36878967285156,-28.27256774902344,-14.60732460021973,2,0.0.0.0,10.83.46.32,4,0
2015-03-01 11:19:49.949,105,1425237584.831066,37.74689113158388,-122.4443926429482,174.7592,-1,-1,10,65,-9999,1425237589.906381,31.28262710571289,-28.08662414550781,-14.66866302490234,129.0680541992188,115.2964324951172,10,181040.393650125,1.046585083007812,-0.2638397216796875,-0.027801513671875,181040.3675823333,-0.05303126047063886,-0.4072500612626991,-0.4336494445164366,181040.3675823333,2.607866108691599,1.519733957700135,0.352485532372583,-0.06587523967027664,-0.3937357068061829,-0.400003045797348,0.1212690621614456,0.01066737808287144,0.01396655384451151,XTrueNorthZVertical,-0.6206320332641311,0.3014379352246272,0.720283791788132,0.07170926251278116,0.9372941851615906,-0.3452315926551819,-0.04790209978818893,27.67991638183594,-27.93708610534668,-14.6664342880249,2,0.0.0.0,10.83.46.32,4,0
2015-03-01 11:19:50.011,106,1425237584.831066,37.74689113158388,-122.4443926429482,174.7592,-1,-1,10,65,-9999,1425237589.958023,31.26557540893555,-27.25396728515625,-14.51889038085938,131.8612670898438,118.0896377563477,10,181040.4425709167,1.002410888671875,-0.24298095703125,-0.0472412109375,181040.4193594583,-0.1271859157594592,-0.3189007573637564,-0.3073096150352955,181040.4193594583,2.611951892031797,1.498619479591637,0.3325032476459711,-0.1400284320116043,-0.3053828179836273,-0.2736745476722717,0.09699728339910507,0.07537259161472321,0.01387359481304884,XTrueNorthZVertical,-0.6166122066032717,0.2927579261780163,0.7263951476136175,0.08020088154163356,0.9427671432495117,-0.326410174369812,-0.06816436350345612,27.93024444580078,-27.40464019775391,-15.18715953826904,2,0.0.0.0,10.83.46.32,4,0
2015-03-01 11:19:50.047,107,1425237584.831066,37.74689113158388,-122.4443926429482,174.7592,-1,-1,10,65,-9999,1425237590.009167,31.50430297851562,-26.8121337890625,-14.81843566894531,134.6958160400391,120.9241943359375,10,181040.4916284583,0.9901275634765625,-0.2477264404296875,-0.058807373046875,181040.4711354167,-0.16347654561786,-0.1927100649036598,-0.1416271730865229,181040.4711354167,2.619942383209335,1.487909446285978,0.3156473891103441,-0.1763186156749725,-0.1791843920946121,-0.1080227717757225,0.0564521998167038,0.06790874898433685,0.03168937936425209,XTrueNorthZVertical,-0.6163443787330251,0.2841984387836483,0.7295216115648422,0.08455164697299469,0.947331964969635,-0.3104319274425507,-0.07870170474052429,28.40208625793457,-26.4447021484375,-15.99255752563477,2,0.0.0.0,10.83.46.32,4,0
2015-03-01 11:19:50.109,108,1425237584.831066,37.74689113158388,-122.4443926429482,174.7592,-1,-1,10,65,-9999,1425237590.061628,31.69187164306641,-26.76116943359375,-14.9349365234375,136.1844940185547,122.4128723144531,10,181040.54067575,0.902984619140625,-0.2609710693359375,0.027435302734375,181040.5229127083,-0.08828432276834476,-0.4150374106061998,0.0876976283802003,181040.5229127083,2.62444938430262,1.478878769272463,0.3054461013749686,-0.1011113896965981,-0.4014879763126373,0.1212579384446144,-0.02680468186736107,0.03964077681303024,0.09596241265535355,XTrueNorthZVertical,-0.6151480120976366,0.2789679945629862,0.7321838596956611,0.08761555439457425,0.9496867656707764,-0.3007186651229858,-0.08753956109285355,28.56534194946289,-26.13044548034668,-16.21677780151367,2,0.0.0.0,10.83.46.32,4,0
2015-03-01 11:19:50.145,109,1425237584.831066,37.74689113158388,-122.4443926429482,174.7592,-1,-1,10,65,-9999,1425237590.113582,31.48725128173828,-26.89712524414062,-15.83358001708984,136.0251007080078,122.2534790039062,10,181040.589861125,0.94586181640625,-0.1979827880859375,0.04864501953125,181040.5746898333,0.3242904627778588,-0.1827333308280049,0.2731367308757258,181040.5746898333,2.620329885127385,1.468245067068573,0.3159522976157946,0.3114756643772125,-0.1691699624061584,0.3066863119602203,-0.0214653592556715,0.09868563711643219,0.1056050732731819,XTrueNorthZVertical,-0.609152475040475,0.2833392236426374,0.7355719707359853,0.0870972497505066,0.9455071091651917,-0.3107217848300934,-0.09730429202318192,28.29508209228516,-26.14528656005859,-16.66058349609375,2,0.0.0.0,10.83.46.32,4,0
2015-03-01 11:19:50.208,110,1425237584.831066,37.74689113158388,-122.4443926429482,174.7592,-1,-1,10,65,-9999,1425237590.165745,31.14621734619141,-26.96511840820312,-16.06656646728516,135.2837371826172,121.5121154785156,10,181040.6388011667,1.030563354492188,-0.21044921875,-0.01568603515625,181040.626465875,0.5217284375647362,0.0778196975809874,0.3970885038073927,181040.5746898333,2.620329885127385,1.468245067068573,0.3159522976157946,0.3114756643772125,-0.1691699624061584,0.3066863119602203,-0.0214653592556715,0.09868563711643219,0.1056050732731819,XTrueNorthZVertical,-0.609152475040475,0.2833392236426374,0.7355719707359853,0.0870972497505066,0.9455071091651917,-0.3107217848300934,-0.09730429202318192,28.29508209228516,-26.14528656005859,-16.66058349609375,2,0.0.0.0,10.83.46.32,4,0
2015-03-01 11:19:50.243,111,1425237584.831066,37.74689113158388,-122.4443926429482,174.7592,-1,-1,10,65,-9999,1425237590.219969,30.27657318115234,-27.661865234375,-16.08320617675781,134.443115234375,120.6714859008789,10,181040.6879932084,1.034713745117188,-0.29278564453125,-0.1058502197265625,181040.678243,0.596434899831421,-0.4792552792357165,0.4893025870802584,181040.678243,2.566116245723675,1.488155552010708,0.3590131082558679,0.5836364030838013,-0.4656720161437988,0.5228285193443298,0.1312670856714249,0.07081759721040726,-0.0002002452383749187,XTrueNorthZVertical,-0.6017363696755798,0.3150736399628481,0.7284478900367948,0.08947358749949604,0.9330487251281738,-0.3513504266738892,-0.07728388905525208,27.51618194580078,-27.76527404785156,-15.28764247894287,2,0.0.0.0,10.83.46.32,4,0
2015-03-01 11:19:50.313,112,1425237584.831066,37.74689113158388,-122.4443926429482,174.7592,-1,-1,10,65,-9999,1425237590.294378,28.72485733032227,-29.208251953125,-15.63388824462891,134.6731414794922,120.9015197753906,10,181040.73693125,0.8656005859375,-0.393402099609375,-0.131805419921875,181040.730020125,0.2687736740618489,-0.7233169489105021,0.4679182024752492,181040.678243,2.566116245723675,1.488155552010708,0.3590131082558679,0.5836364030838013,-0.4656720161437988,0.5228285193443298,0.1312670856714249,0.07081759721040726,-0.0002002452383749187,XTrueNorthZVertical,-0.6017363696755798,0.3150736399628481,0.7284478900367948,0.08947358749949604,0.9330487251281738,-0.3513504266738892,-0.07728388905525208,27.51618194580078,-27.76527404785156,-15.28764247894287,2,0.0.0.0,10.83.46.32,4,0
2015-03-01 11:19:50.341,113,1425237584.831066,37.74689113158388,-122.4443926429482,174.7592,-1,-1,10,65,-9999,1425237590.294378,28.72485733032227,-29.208251953125,-15.63388824462891,134.6731414794922,120.9015197753906,10,181040.786119625,0.9264678955078125,-0.291717529296875,-0.0860595703125,181040.7817964584,0.3729083326900183,0.09726476828020096,0.2415170192532149,181040.730020125,2.542559543274693,1.461488238935172,0.3874949352061193,0.2559753060340881,-0.7097338438034058,0.5014438033103943,-0.003645760007202625,-0.01222067512571812,-0.0215256717056036,XTrueNorthZVertical,-0.5834729191762363,0.3302395352655831,0.7361276085498928,0.09282916791085592,0.9203327894210815,-0.3778702616691589,-0.1010024026036263,26.55690383911133,-28.80780792236328,-15.05336093902588,2,0.0.0.0,10.83.46.32,4,0
2015-03-01 11:19:50.411,114,1425237584.831066,37.74689113158388,-122.4443926429482,174.7592,-1,-1,10,65,-9999,1425237590.399387,27.42892074584961,-29.9559326171875,-15.10135650634766,134.7431793212891,120.9715576171875,10,181040.8350507084,1.00634765625,-0.3287353515625,-0.076080322265625,181040.8335734583,0.2909061406170614,0.05492956169564734,0.2818753613606028,181040.7817964584,2.531303966082092,1.450389764717816,0.407973533776693,0.3601100444793701,0.1108477786183357,0.2750423550605774,-0.02469930239021778,0.09195568412542343,0.02613581903278828,XTrueNorthZVertical,-0.5739777598085632,0.3397363238840289,0.7393659067014149,0.09201481421693716,0.9112807512283325,-0.3967500030994415,-0.1102575212717056,24.99494171142578,-30.02337265014648,-15.34967994689941,2,0.0.0.0,10.83.46.32,4,0
2015-03-01 11:19:50.439,115,1425237584.831066,37.74689113158388,-122.4443926429482,174.7592,-1,-1,10,65,-9999,1425237590.399387,27.42892074584961,-29.9559326171875,-15.10135650634766,134.7431793212891,120.9715576171875,10,181040.8841246667,0.8562164306640625,-0.36376953125,-0.083892822265625,181040.8853505834,0.1462142017480754,-0.1930626674319863,0.1783063581479662,181040.8335734583,2.514641946111778,1.46665795557506,0.4237659952168584,0.2781080007553101,0.0685124397277832,0.3154003620147705,0.09316267073154449,0.1137871816754341,0.0142196211963892,XTrueNorthZVertical,-0.5743082105025989,0.3504173574466807,0.734346337687252,0.09007285841795609,0.9066084623336792,-0.411196231842041,-0.09475550800561905,24.86077117919922,-30.38546371459961,-14.84683418273926,2,0.0.0.0,10.83.46.32,4,0
2015-03-01 11:19:50.478,116,1425237584.831066,37.74689113158388,-122.4443926429482,174.7592,-1,-1,10,65,-9999,1425237590.450474,26.8662109375,-30.61868286132812,-14.71860504150391,135.0467224121094,121.2750930786133,10,181040.933158875,0.89593505859375,-0.33502197265625,-0.0504608154296875,181040.8853505834,0.1462142017480754,-0.1930626674319863,0.1783063581479662,181040.8853505834,2.5068273738109,1.462802913691366,0.4378093602314256,0.1334162056446075,-0.1794799417257309,0.2118309736251831,-0.04418988525867462,0.06018693000078201,0.0137249156832695,XTrueNorthZVertical,-0.5689733080958387,0.3570161140148075,0.7354604312386401,0.08891980453976417,0.9004063010215759,-0.4239564538002014,-0.0976177379488945,24.48346138000488,-30.89125823974609,-14.42404556274414,2,0.0.0.0,10.83.46.32,4,0
2015-03-01 11:19:50.537,117,1425237584.831066,37.74689113158388,-122.4443926429482,174.7592,-1,-1,10,65,-9999,1425237590.502108,26.67864227294922,-31.41734313964844,-14.36913299560547,135.7367248535156,121.9651031494141,10,181040.9822417083,1.043655395507812,-0.3730010986328125,-0.090911865234375,181040.9889039584,0.2646702754542549,-0.05124960570137585,0.5011110433536697,181040.9371268333,2.500643975001404,1.476368944659682,0.4511981534793168,0.1295968294143677,0.4580298066139221,0.3633237481117249,1.897590482258238e-05,0.1010221242904663,0.03439053893089294,XTrueNorthZVertical,-0.5703764727459621,0.3636550598488403,0.7316615714465526,0.08424327985925471,0.8959161043167114,-0.4360440969467163,-0.08485135436058044,23.94816780090332,-31.48339462280273,-14.03722953796387,2,0.0.0.0,10.83.46.32,4,0
2015-03-01 11:19:50.578,118,1425237584.831066,37.74689113158388,-122.4443926429482,174.7592,-1,-1,10,65,-9999,1425237590.55579,26.33760833740234,-32.19903564453125,-13.60362243652344,134.7848663330078,121.0132446289062,10,181041.0312835833,0.952880859375,-0.458709716796875,-0.0905303955078125,181040.9889039584,0.2646702754542549,-0.05124960570137585,0.5011110433536697,181040.9889039584,2.492597799058275,1.490167538014616,0.4758563229688567,0.2518725395202637,-0.03766713663935661,0.5346350073814392,0.1576425284147263,0.08509870618581772,-0.01931851170957088,XTrueNorthZVertical,-0.5693088481262957,0.3742870000143149,0.7279953950665626,0.07628427345231034,0.886012852191925,-0.4580998122692108,-0.07159335166215897,23.69634437561035,-31.84419631958008,-13.64526271820068,2,0.0.0.0,10.83.46.32,4,0
2015-03-01 11:19:50.635,119,1425237584.831066,37.74689113158388,-122.4443926429482,174.7592,-1,-1,10,65,-9999,1425237590.606795,25.72373962402344,-32.5728759765625,-12.87139892578125,134.4566802978516,120.6850509643555,10,181041.0803532084,1.284866333007812,-0.43328857421875,-0.1045379638671875,181041.0406810833,0.3018035294815567,0.2802617520561237,0.2798369778622561,181041.0406810833,2.482476334812233,1.496735113000975,0.4997489459822116,0.2890750169754028,0.2937901318073273,0.3134911060333252,0.07758408784866333,0.02049548551440239,-0.02558606863021851,XTrueNorthZVertical,-0.5651870152377252,0.3848265516072705,0.7262853688311969,0.07058069534463891,0.8752967715263367,-0.4792051911354065,-0.06494432687759399,22.92258262634277,-32.54100799560547,-13.31918430328369,2,0.0.0.0,10.83.46.32,4,0
2015-03-01 11:19:50.678,120,1425237584.831066,37.74689113158388,-122.4443926429482,174.7592,-1,-1,10,65,-9999,1425237590.65771,25.62143325805664,-33.66046142578125,-12.07260131835938,134.6680145263672,120.8963928222656,10,181041.1293944583,1.134262084960938,-0.4727935791015625,0.0337982177734375,181041.0924574583,0.4954576849916495,0.08968194970841835,-0.2747061317061095,181041.0924574583,2.45801327429602,1.529596814970194,0.5010761636342572,0.4827292859554291,0.1032101884484291,-0.2410523891448975,0.4393978416919708,0.0447770319879055,-0.02535319142043591,XTrueNorthZVertical,-0.5720173861911226,0.3933622693222144,0.7160992944409371,0.07255304279503455,0.8763217329978943,-0.4803696870803833,-0.03612447157502174,22.7840461730957,-33.16994476318359,-11.933349609375,2,0.0.0.0,10.83.46.32,4,0
2015-03-01 11:19:50.733,121,1425237584.831066,37.74689113158388,-122.4443926429482,174.7592,-1,-1,10,65,-9999,1425237590.709902,25.46797180175781,-33.40557861328125,-12.15579986572266,134.7454986572266,120.973876953125,10,181041.1784775833,0.806060791015625,-0.320037841796875,-0.030059814453125,181041.1442345,0.01288091124438625,-0.9138149922127421,-0.1555429887305139,181041.1442345,2.443175243459399,1.507607587088535,0.4907131253012642,0.000152658176375553,-0.900286853313446,-0.1218895763158798,0.130459725856781,0.03560129553079605,0.07452453672885895,XTrueNorthZVertical,-0.5632528197764246,0.3935716763684899,0.7214496855559061,0.0857779478336948,0.8802366852760315,-0.471254974603653,-0.05569519475102425,22.94313049316406,-33.131591796875,-11.73342323303223,2,0.0.0.0,10.83.46.32,4,0
2015-03-01 11:19:50.786,122,1425237590.731832,37.74684691769736,-122.4444161041676,174.729,-1,-1,10,65,-9999,1425237590.761261,25.16104125976562,-32.86180114746094,-12.58847808837891,137.9256744384766,124.1540451049805,10,181041.2275278333,0.6952667236328125,-0.55615234375,0.005584716796875,181041.1960116667,0.05104028123969562,-0.9170629834782028,-0.04544071873169502,181041.1960116667,2.442631059989714,1.456775725697234,0.4846514818198783,0.03831214085221291,-0.903535008430481,-0.01178761571645737,-0.06370785087347031,0.1078220009803772,0.06070844829082489,XTrueNorthZVertical,-0.5458392694251578,0.3895175020635352,0.7353473199786562,0.09797874814812797,0.879091739654541,-0.4659000039100647,-0.1006712168455124,22.68557357788086,-32.9971923828125,-12.58224678039551,2,0.0.0.0,10.83.46.32,4,0
2015-03-01 11:19:50.832,123,1425237590.731832,37.74684691769736,-122.4444161041676,174.729,-1,-1,10,65,-9999,1425237590.813918,24.51306533813477,-32.52192687988281,-13.38726806640625,138.1333465576172,124.3617172241211,10,181041.27659525,0.8164825439453125,-0.308135986328125,0.0113983154296875,181041.247787875,0.04886288073244684,0.05886225167736735,0.16233564740687,181041.247787875,2.444330347547616,1.43566099631999,0.4950952726553005,0.03613488376140594,0.07239008694887161,0.1959883868694305,-0.1887346804141998,0.04599256068468094,0.06230325624346733,XTrueNorthZVertical,-0.536289172789432,0.3913059494619436,0.7413972144143942,0.09799824524940659,0.8719012141227722,-0.4751154780387878,-0.1185471564531326,21.8062629699707,-33.13702774047852,-13.7181339263916,2,0.0.0.0,10.83.46.32,4,0
2015-03-01 11:19:50.883,124,1425237590.731832,37.74684691769736,-122.4444161041676,174.729,-1,-1,10,65,-9999,1425237590.868764,23.91624450683594,-33.42256164550781,-13.47048187255859,136.6294097900391,122.8577880859375,10,181041.3256295,0.9303436279296875,-0.4544830322265625,-0.079498291015625,181041.299565,0.2049699269818396,0.6767156245757506,0.5550102280235655,181041.299565,2.436768817281327,1.465612126672882,0.5141432331220519,0.1922420561313629,0.6902433037757874,0.5886626243591309,-0.01176083087921143,0.1714460104703903,0.1545116901397705,XTrueNorthZVertical,-0.5419838995673131,0.4006808607180247,0.7334004024536125,0.08849891916754422,0.8659020662307739,-0.4917890429496765,-0.09141659736633301,21.71893310546875,-33.33295059204102,-13.37777900695801,2,0.0.0.0,10.83.46.32,4,0
2015-03-01 11:19:50.930,125,1425237590.731832,37.74684691769736,-122.4444161041676,174.729,-1,-1,10,65,-9999,1425237590.920212,23.35353851318359,-33.74543762207031,-12.85474395751953,134.2538299560547,120.4822082519531,10,181041.3747024584,1.153488159179688,-0.580963134765625,-0.028533935546875,181041.3513422083,0.1313396481116558,-0.1333782979261115,0.557244886494251,181041.3513422083,2.43548128967426,1.472956843694741,0.551991665882093,0.1186118945479393,-0.119850717484951,0.5908969640731812,0.1988551169633865,0.02879392541944981,0.06613161414861679,XTrueNorthZVertical,-0.536597536293306,0.4128864773315784,0.7321238897796901,0.074715188840038,0.8474095463752747,-0.5243841409683228,-0.08317568153142929,21.13740921020508,-34.00716781616211,-12.58908271789551,2,0.0.0.0,10.83.46.32,4,0
2015-03-01 11:19:50.981,126,1425237590.731832,37.74684691769736,-122.4444161041676,174.729,-1,-1,10,65,-9999,1425237590.971067,23.30238342285156,-33.69448852539062,-12.50526428222656,132.6213836669922,118.8497619628906,10,181041.4237511667,1.1612548828125,-0.6587982177734375,-0.1562652587890625,181041.4031185833,-0.01761095165647599,-0.3654687921848819,-0.3344645370902884,181041.3513422083,2.43548128967426,1.472956843694741,0.551991665882093,0.1186118945479393,-0.119850717484951,0.5908969640731812,0.1988551169633865,0.02879392541944981,0.06613161414861679,XTrueNorthZVertical,-0.536597536293306,0.4128864773315784,0.7321238897796901,0.074715188840038,0.8474095463752747,-0.5243841409683228,-0.08317568153142929,21.13740921020508,-34.00716781616211,-12.58908271789551,2,0.0.0.0,10.83.46.32,4,0
2015-03-01 11:19:51.027,127,1425237590.731832,37.74684691769736,-122.4444161041676,174.729,-1,-1,10,65,-9999,1425237590.971067,23.30238342285156,-33.69448852539062,-12.50526428222656,132.6213836669922,118.8497619628906,10,181041.4728167917,1.048110961914062,-0.5392303466796875,0.1565704345703125,181041.454895625,-0.3261837039967961,-1.151072551618484,-0.6871573465777333,181041.454895625,2.441491123946278,1.430746515819929,0.5306381962512863,-0.3389112055301666,-1.137545228004456,-0.6535059213638306,0.2438455075025558,-0.03940257057547569,0.1707807928323746,XTrueNorthZVertical,-0.5266829461144052,0.4029974442508368,0.7432422047678449,0.08825569556832519,0.8540396094322205,-0.5060839056968689,-0.1203962713479996,20.30810546875,-34.40476226806641,-12.8707389831543,2,0.0.0.0,10.83.46.32,4,0
2015-03-01 11:19:51.081,128,1425237590.731832,37.74684691769736,-122.4444161041676,174.729,-1,-1,10,65,-9999,1425237591.047099,23.35354614257812,-32.385986328125,-12.68831634521484,135.7134399414062,121.9418182373047,10,181041.5218670834,0.6240692138671875,-0.4151153564453125,0.0810089111328125,181041.5066729167,-0.05793014529583962,-1.572820329223357,-0.05193164125654515,181041.5066729167,2.44923462457233,1.348837375875606,0.514601494285764,-0.07065750658512115,-1.559293150901794,-0.01828059181571007,-0.1114479228854179,-0.0527796596288681,0.3158520460128784,XTrueNorthZVertical,-0.5006216323790856,0.3918709806623247,0.7644633741370829,0.1068212238305911,0.849134087562561,-0.4921880066394806,-0.1916302293539047,20.47173309326172,-33.70758819580078,-14.36904907226562,2,0.0.0.0,10.83.46.32,4,0
2015-03-01 11:19:51.126,129,1425237590.731832,37.74684691769736,-122.4444161041676,174.729,-1,-1,10,65,-9999,1425237591.099688,23.28533935546875,-31.36640930175781,-13.52040100097656,141.3079071044922,127.5362777709961,10,181041.5710013333,0.8823394775390625,-0.5338592529296875,0.0869598388671875,181041.5584490417,-0.1719648389602695,-1.028471800307815,-0.3174503998340992,181041.5584490417,2.453746518772976,1.292899305945156,0.5069057801928286,-0.1846920847892761,-1.014944791793823,-0.2837996482849121,0.05569838732481003,-0.08535684645175934,0.1939840167760849,XTrueNorthZVertical,-0.4814763191784994,0.3850483290288401,0.778402372534425,0.1183553689701943,0.8407096862792969,-0.4854744374752045,-0.2398366779088974,19.26710510253906,-33.38959503173828,-16.60350799560547,2,0.0.0.0,10.83.46.32,4,0
2015-03-01 11:19:51.180,130,1425237590.731832,37.74684691769736,-122.4444161041676,174.729,-1,-1,10,65,-9999,1425237591.153942,22.87609100341797,-30.48274230957031,-14.18607330322266,142.5480651855469,128.7764434814453,10,181041.620004375,0.97509765625,-0.4916534423828125,0.0056304931640625,181041.6102261667,-0.4679048866697988,-0.3959334908426254,0.08178088338637127,181041.5584490417,2.453746518772976,1.292899305945156,0.5069057801928286,-0.1846920847892761,-1.014944791793823,-0.2837996482849121,0.05569838732481003,-0.08535684645175934,0.1939840167760849,XTrueNorthZVertical,-0.4814763191784994,0.3850483290288401,0.778402372534425,0.1183553689701943,0.8407096862792969,-0.4854744374752045,-0.2398366779088974,19.26710510253906,-33.38959503173828,-16.60350799560547,2,0.0.0.0,10.83.46.32,4,0
2015-03-01 11:19:51.224,131,1425237590.731832,37.74684691769736,-122.4444161041676,174.729,-1,-1,10,65,-9999,1425237591.153942,22.87609100341797,-30.48274230957031,-14.18607330322266,142.5480651855469,128.7764434814453,10,181041.6690797917,1.015380859375,-0.5396270751953125,-0.1215667724609375,181041.662003375,-0.7738869159016898,-1.14159782340831,0.3555818066379628,181041.662003375,2.514129224995592,1.186379617897372,0.5072301657341902,-0.7866138815879822,-1.128071069717407,0.3892318308353424,0.2893402874469757,-0.03073673136532307,0.2338222414255142,XTrueNorthZVertical,-0.450510260203397,0.3648834651765615,0.8067454054670804,0.1142905140369933,0.8102995753288269,-0.4857580065727234,-0.3278011381626129,22.59077072143555,-29.91371536254883,-15.14821624755859,2,0.0.0.0,10.83.46.32,4,0
2015-03-01 11:19:51.263,132,1425237590.731832,37.74684691769736,-122.4444161041676,174.729,-1,-1,10,65,-9999,1425237591.228538,21.58015060424805,-29.3612060546875,-15.61724853515625,145.2266082763672,131.4549865722656,10,181041.7182218333,0.921844482421875,-0.0968017578125,-0.7605133056640625,181041.662003375,-0.7738869159016898,-1.14159782340831,0.3555818066379628,181041.662003375,2.514129224995592,1.186379617897372,0.5072301657341902,-0.7866138815879822,-1.128071069717407,0.3892318308353424,0.2893402874469757,-0.03073673136532307,0.2338222414255142,XTrueNorthZVertical,-0.450510260203397,0.3648834651765615,0.8067454054670804,0.1142905140369933,0.8102995753288269,-0.4857580065727234,-0.3278011381626129,22.59077072143555,-29.91371536254883,-15.14821624755859,2,0.0.0.0,10.83.46.32,4,0
2015-03-01 11:19:51.323,133,1425237590.731832,37.74684691769736,-122.4444161041676,174.729,-1,-1,10,65,-9999,1425237591.279837,19.96022415161133,-28.90237426757812,-17.89715576171875,144.584716796875,130.8130950927734,10,181041.7672014167,0.3149871826171875,-0.664886474609375,-0.551666259765625,181041.76555675,-0.04871454265972942,-0.9877091903469527,0.8139917250733021,181041.71377975,2.576981820584418,1.098817792259273,0.5131128031933182,-0.8038803339004517,-1.270818710327148,0.851569652557373,0.1829680949449539,0.3737498223781586,0.04972541704773903,XTrueNorthZVertical,-0.4248135059719033,0.3485448621011453,0.8291777101854835,0.1025387620716332,0.7759705185890198,-0.4908915460109711,-0.3960999250411987,20.87641143798828,-29.62274169921875,-17.92513275146484,2,0.0.0.0,10.83.46.32,4,0
2015-03-01 11:19:51.361,134,1425237590.731832,37.74684691769736,-122.4444161041676,174.729,-1,-1,10,65,-9999,1425237591.332629,17.40244674682617,-28.80039978027344,-19.56131744384766,141.9461822509766,128.174560546875,10,181041.8162390417,0.6011962890625,-0.8264312744140625,-0.6021575927734375,181041.8173340833,-0.3611249101308537,0.1084436532719176,1.020513476022331,181041.76555675,2.615049598558567,1.020088478945013,0.5469956619257248,-0.06144127994775772,-0.974182665348053,0.8476411104202271,-0.333575963973999,-0.01361358072608709,-0.2531050145626068,XTrueNorthZVertical,-0.3925282478362693,0.3499324403783267,0.8456497345985591,0.09135259571416254,0.7278172969818115,-0.5201236009597778,-0.4469377100467682,18.67858505249023,-29.85006332397461,-19.86771011352539,2,0.0.0.0,10.83.46.32,4,0
2015-03-01 11:19:51.423,135,1425237590.731832,37.74684691769736,-122.4444161041676,174.729,-1,-1,10,65,-9999,1425237591.383419,14.79351806640625,-29.19123840332031,-21.04243469238281,137.3130798339844,123.5414505004883,10,181041.8653085,0.736419677734375,-0.4618377685546875,-0.5296478271484375,181041.8691102084,-0.3167585105828967,0.6910490238786661,1.091350897857349,181041.8173340833,2.657075782356479,0.9875721629001712,0.5811893888228051,-0.3738515079021454,0.121969997882843,1.054162502288818,-0.09644727408885956,-0.2774128317832947,-0.1418619006872177,XTrueNorthZVertical,-0.3803068866384517,0.3538627204000555,0.8515696483117882,0.0705470744216173,0.6976435780525208,-0.5490184426307678,-0.460295706987381,16.71344375610352,-30.46384239196777,-20.67018890380859,2,0.0.0.0,10.83.46.32,4,0
2015-03-01 11:19:51.460,136,1425237590.731832,37.74684691769736,-122.4444161041676,174.729,-1,-1,10,65,-9999,1425237591.437174,12.86666107177734,-29.718017578125,-21.79130554199219,133.4134063720703,119.6417846679688,10,181041.9144806667,0.93157958984375,-0.55303955078125,-0.479644775390625,181041.8691102084,-0.3167585105828967,0.6910490238786661,1.091350897857349,181041.8691102084,2.714532091482053,0.97882947104833,0.6168122119290873,-0.3294849991798401,0.70457524061203,1.124999642372131,0.05949331074953079,0.1165999695658684,-0.07447711378335953,XTrueNorthZVertical,-0.3809834840838641,0.356743926436374,0.8521052846381126,0.0387536868794743,0.6769263744354248,-0.5784377455711365,-0.4551707208156586,14.65003490447998,-31.15070533752441,-21.20499420166016,2,0.0.0.0,10.83.46.32,4,0
2015-03-01 11:19:51.520,137,1425237590.731832,37.74684691769736,-122.4444161041676,174.729,-1,-1,10,65,-9999,1425237591.487553,10.83749389648438,-30.65266418457031,-22.70660400390625,128.0235595703125,114.2519378662109,10,181041.9634422083,0.859222412109375,-0.6222686767578125,-0.56396484375,181041.9726645834,-0.432286172354425,-1.349006407000334,0.5693731884145808,181041.9208875417,2.768985901151537,0.9454177266305593,0.6581656881346646,-0.2938211560249329,-0.6986694931983948,1.182377576828003,0.2901893854141235,0.0586271770298481,-0.01652239821851254,XTrueNorthZVertical,-0.3701156336242611,0.3625647926156379,0.8552365359575459,0.01147017936656334,0.6413902044296265,-0.611666738986969,-0.4631223678588867,13.84088230133057,-31.47364616394043,-21.27160835266113,2,0.0.0.0,10.83.46.32,4,0
2015-03-01 11:19:51.558,138,1425237590.731832,37.74684691769736,-122.4444161041676,174.729,-1,-1,10,65,-9999,1425237591.538899,8.467288970947266,-31.21343994140625,-23.68845367431641,125.8437042236328,112.0720825195312,10,181042.0125045417,0.6822967529296875,-0.456268310546875,-0.5478057861328125,181041.9726645834,-0.432286172354425,-1.349006407000334,0.5693731884145808,181041.9726645834,2.824766412770596,0.855702702660352,0.6828232433424739,-0.4450123906135559,-1.335480451583862,0.6030212640762329,0.2734729945659637,0.00871711503714323,-0.0552857294678688,XTrueNorthZVertical,-0.3380167729744096,0.3624984181169463,0.8685250276711621,-0.001934659752314234,0.5857494473457336,-0.6309857964515686,-0.5086790919303894,10.73463726043701,-31.88981246948242,-22.41537857055664,2,0.0.0.0,10.83.46.32,4,0
2015-03-01 11:19:51.625,139,1425237590.731832,37.74684691769736,-122.4444161041676,174.729,-1,-1,10,65,-9999,1425237591.59113,6.1141357421875,-31.24742126464844,-24.91993713378906,126.6729965209961,112.9013748168945,10,181042.0615541667,0.11199951171875,-0.64886474609375,-0.5801239013671875,181042.0244408333,-0.3390467720618788,-2.020704902398485,-0.3177888876086483,181042.0244408333,2.846118188913645,0.7594067786090515,0.6722529515121781,-0.3517073392868042,-2.007230043411255,-0.2840166389942169,0.05611306801438332,0.1702661961317062,0.02679685689508915,XTrueNorthZVertical,-0.3009984623329862,0.3545092243051305,0.8852438566755841,0.008146061794666083,0.5386897921562195,-0.6227503418922424,-0.5674462914466858,8.698060989379883,-31.62897491455078,-23.63458251953125,2,0.0.0.0,10.83.46.32,4,0
2015-03-01 11:19:51.657,140,1425237590.731832,37.74684691769736,-122.4444161041676,174.729,-1,-1,10,65,-9999,1425237591.643826,3.846244812011719,-30.95852661132812,-25.46910095214844,129.2415618896484,115.4699325561523,10,181042.1105934583,0.0662994384765625,-0.3470916748046875,-0.6518096923828125,181042.0762180834,-0.279664405023619,-1.668432339731055,-0.09315524440209969,181042.0762180834,2.840106010756589,0.6652890218540846,0.6533788041352383,-0.2923248410224915,-1.65495753288269,-0.0593833327293396,-0.4964791536331177,-0.02756425365805626,0.06537119299173355,XTrueNorthZVertical,-0.260215420153966,0.3463224675573652,0.9007763536964231,0.03083103548895072,0.4901467561721802,-0.6078727841377258,-0.6246973872184753,6.960222244262695,-31.21079635620117,-24.74031829833984,2,0.0.0.0,10.83.46.32,4,0
2015-03-01 11:19:51.716,141,1425237590.731832,37.74684691769736,-122.4444161041676,174.729,-1,-1,10,65,-9999,1425237591.694742,2.396835327148438,-30.97552490234375,-25.78529357910156,132.0875091552734,118.3158874511719,10,181042.1596590834,0.3070526123046875,-0.3983154296875,-0.6322174072265625,181042.1279954583,0.0362581392931018,-0.320230207379924,-0.1558910638849873,181042.1279954583,2.843384928709042,0.6251448090525709,0.646121626580599,0.02359781414270401,-0.3067554831504822,-0.1221194565296173,-0.300089955329895,0.2690865397453308,-0.01302067190408707,XTrueNorthZVertical,-0.2434883547927645,0.3420536117655867,0.9068111146973994,0.03750011424732282,0.4672499895095825,-0.6020943522453308,-0.6474254727363586,5.17360782623291,-30.84927749633789,-25.61635589599609,2,0.0.0.0,10.83.46.32,4,0
2015-03-01 11:19:51.754,142,1425237590.731832,37.74684691769736,-122.4444161041676,174.729,-1,-1,10,65,-9999,1425237591.746619,2.038749694824219,-31.23042297363281,-25.90177917480469,132.2291717529297,118.4575500488281,10,181042.2087112083,0.4161224365234375,-0.3363037109375,-0.647064208984375,181042.1797717084,0.4607931812948512,0.1410806924308386,-0.2098879865668889,181042.1797717084,2.82476623514065,0.6336177254711693,0.6501794072544046,0.4481329917907715,0.1545552760362625,-0.1761167496442795,-0.1399237364530563,0.2177101969718933,0.01642333902418613,XTrueNorthZVertical,-0.2436443563310818,0.3462699381919525,0.9048848942098237,0.04379262851556757,0.4712683260440826,-0.6053292155265808,-0.6414691209793091,5.153836250305176,-30.91523742675781,-25.54071044921875,2,0.0.0.0,10.83.46.32,4,0
2015-03-01 11:19:51.814,143,1425237590.731832,37.74684691769736,-122.4444161041676,174.729,-1,-1,10,65,-9999,1425237591.797911,2.601463317871094,-32.26702880859375,-25.15290832519531,133.2246856689453,119.4530639648438,10,181042.257789,0.4341888427734375,-0.553070068359375,-0.687896728515625,181042.23154875,0.9858742723558882,0.2251798575461239,-0.2973549851966883,181042.23154875,2.782678057032978,0.6715761349137812,0.6727746057128741,0.9732141494750977,0.238654300570488,-0.2635841071605682,0.005871913395822048,0.2106370329856873,-0.04510664567351341,XTrueNorthZVertical,-0.2504228817187591,0.3621598517903428,0.8963358816146244,0.05206263479574561,0.4866360127925873,-0.6231583952903748,-0.6122572422027588,5.635690689086914,-31.44844436645508,-24.77652359008789,2,0.0.0.0,10.83.46.32,4,0
2015-03-01 11:19:51.858,144,1425237590.731832,37.74684691769736,-122.4444161041676,174.729,-1,-1,10,65,-9999,1425237591.797911,2.601463317871094,-32.26702880859375,-25.15290832519531,133.2246856689453,119.4530639648438,10,181042.30683375,0.2166290283203125,-0.5496826171875,-0.53289794921875,181042.283326,0.8641747347581011,0.07571659926815183,0.03078667483353401,181042.283326,2.739625440218733,0.7027351824238263,0.7068252062301599,0.8515147566795349,0.08919093012809753,0.0645572692155838,-0.1778406202793121,0.07328148931264877,-0.04972472786903381,XTrueNorthZVertical,-0.2515387905849427,0.3828782939864179,0.8869251628842807,0.0591279360089461,0.4914697706699371,-0.649422824382782,-0.5802649259567261,6.222438812255859,-32.73202896118164,-22.90277862548828,2,0.0.0.0,10.83.46.32,4,0
2015-03-01 11:19:51.921,145,1425237590.731832,37.74684691769736,-122.4444161041676,174.729,-1,-1,10,65,-9999,1425237591.859181,3.21533203125,-32.98074340820312,-23.58858489990234,134.5432281494141,120.7716064453125,10,181042.3559055,-0.1722412109375,-0.278839111328125,-0.085906982421875,181042.3351022917,0.7409646521900213,0.5690932901840134,0.3219090641311099,181042.3351022917,2.716151623118993,0.7310015938112765,0.7401746375486132,0.7283048629760742,0.5825674533843994,0.3556793332099915,-0.5437005162239075,0.1954739987850189,0.05138508975505829,XTrueNorthZVertical,-0.2543904158055812,0.4005398911703509,0.8783799525188984,0.05746198299116145,0.49293452501297,-0.6744168400764465,-0.5497066378593445,6.22507381439209,-33.56584167480469,-21.66159057617188,2,0.0.0.0,10.83.46.32,4,0
2015-03-01 11:19:51.956,146,1425237590.731832,37.74684691769736,-122.4444161041676,174.729,-1,-1,10,65,-9999,1425237591.927977,3.999702453613281,-33.93232727050781,-20.89263916015625,135.3420715332031,121.5704498291016,10,181042.4049577917,0.655853271484375,-0.4994049072265625,-0.36407470703125,181042.386879625,2.273836766113862,3.343928714253544,0.2662327520658043,181042.386879625,2.670544841864656,0.8643870850338198,0.8009975766443558,2.261177062988281,3.357402563095093,0.3000026345252991,-0.4383892118930817,0.5634639859199524,0.2666524350643158,XTrueNorthZVertical,-0.2924554533481259,0.4342623396920056,0.8512144522426049,0.03633033132742727,0.5294384360313416,-0.7180507779121399,-0.4517720639705658,6.523137092590332,-34.42808532714844,-20.16921997070312,2,0.0.0.0,10.83.46.32,4,0
2015-03-01 11:19:52.018,147,1425237590.731832,37.74684691769736,-122.4444161041676,174.729,-1,-1,10,65,-9999,1425237591.978952,4.818191528320312,-35.121826171875,-17.69744873046875,129.5361633300781,115.7645416259766,10,181042.4540327083,0.7556304931640625,-0.8023223876953125,-0.35107421875,181042.4386567083,2.470276321808069,1.836253300035161,1.107590321552434,181042.4386567083,2.524258148239818,1.128886036030942,0.9040962962198157,2.457616806030273,1.849727153778076,1.141359806060791,0.3925780653953552,-0.1463080495595932,-0.1546761393547058,XTrueNorthZVertical,-0.3463553723742602,0.4977993424979476,0.7950883223985115,0.008260676152146455,0.5589905381202698,-0.7858666181564331,-0.2644675374031067,8.774484634399414,-37.02528381347656,-13.66668891906738,2,0.0.0.0,10.83.46.32,4,0
2015-03-01 11:19:52.054,148,1425237590.731832,37.74684691769736,-122.4444161041676,174.729,-1,-1,10,65,-9999,1425237592.035318,5.278594970703125,-37.07608032226562,-13.32070159912109,126.2385406494141,112.4669189453125,10,181042.5031855,0.5400238037109375,-0.925994873046875,-0.3098297119140625,181042.490433,1.399093809202,0.4934691026056874,1.317106797147257,181042.4386567083,2.524258148239818,1.128886036030942,0.9040962962198157,2.457616806030273,1.849727153778076,1.141359806060791,0.3925780653953552,-0.1463080495595932,-0.1546761393547058,XTrueNorthZVertical,-0.3463553723742602,0.4977993424979476,0.7950883223985115,0.008260676152146455,0.5589905381202698,-0.7858666181564331,-0.2644675374031067,8.774484634399414,-37.02528381347656,-13.66668891906738,2,0.0.0.0,10.83.46.32,4,0
