loggingTime,loggingSample,locationTimestamp_since1970,locationLatitude,locationLongitude,locationAltitude,locationSpeed,locationCourse,locationVerticalAccuracy,locationHorizontalAccuracy,locationFloor,locationHeadingTimestamp_since1970,locationHeadingX,locationHeadingY,locationHeadingZ,locationTrueHeading,locationMagneticHeading,locationHeadingAccuracy,accelerometerTimestamp_sinceReboot,accelerometerAccelerationX,accelerometerAccelerationY,accelerometerAccelerationZ,gyroTimestamp_sinceReboot,gyroRotationX,gyroRotationY,gyroRotationZ,motionTimestamp_sinceReboot,motionYaw,motionRoll,motionPitch,motionRotationRateX,motionRotationRateY,motionRotationRateZ,motionUserAccelerationX,motionUserAccelerationY,motionUserAccelerationZ,motionAttitudeReferenceFrame,motionQuaternionX,motionQuaternionY,motionQuaternionZ,motionQuaternionW,motionGravityX,motionGravityY,motionGravityZ,motionMagneticFieldX,motionMagneticFieldY,motionMagneticFieldZ,motionMagneticFieldCalibrationAccuracy,IP_en0,IP_pdp_ip0,deviceOrientation,state
2015-02-21 18:57:56.723,1,1424570269.491925,39.63827111267615,-106.3701769152159,2518.4,-1,-1,10,65,-9999,1424570276.706942,-4.332294464111328,-36.02149963378906,-25.41518402099609,257.7257385253906,248.5996704101562,10,22144.24213670833,-0.48529052734375,-0.67169189453125,-0.5289764404296875,22144.21016920833,-0.03217551334201033,0.03704164128580312,-0.0265650318735404,22144.21016920833,1.740382271918652,-0.7936211748342481,0.7300892889036308,-0.04068554937839508,0.04861759766936302,0.009605777449905872,0.0110640861093998,-0.002665272215381265,-0.01943615451455116,XTrueNorthZVertical,0.4882394637163743,0.01895965317281426,0.5696493052724251,0.6608800697124539,-0.5311904549598694,-0.6669361591339111,-0.5225254893302917,-1.172998428344727,-35.92991256713867,-28.22042846679688,2,192.168.1.118,10.97.20.126,1,0
2015-02-21 18:57:56.763,2,1424570269.491925,39.63827111267615,-106.3701769152159,2518.4,-1,-1,10,65,-9999,1424570276.706942,-4.332294464111328,-36.02149963378906,-25.41518402099609,257.7257385253906,248.5996704101562,10,22144.291185125,-0.5083465576171875,-0.6453094482421875,-0.5201416015625,22144.26194870834,-0.00097871170060412,-0.04217461797082184,-0.0148354051683954,22144.26194870834,1.739154260200335,-0.791349328872379,0.729761344003778,-0.009489153511822224,-0.03059345856308937,0.02132885344326496,0.01044315192848444,-0.02176952734589577,0.01092994213104248,XTrueNorthZVertical,0.4875301320800233,0.01928841861999211,0.569877010692469,0.6611978220051629,-0.5301575064659119,-0.666691780090332,-0.523884654045105,-1.0911865234375,-35.87377166748047,-28.29503059387207,2,192.168.1.118,10.97.20.126,1,0
2015-02-21 18:57:56.811,3,1424570269.491925,39.63827111267615,-106.3701769152159,2518.4,-1,-1,10,65,-9999,1424570276.782992,-4.588138580322266,-35.80076599121094,-26.36371612548828,258.7528381347656,249.6267700195312,10,22144.34025379167,-0.5319366455078125,-0.66656494140625,-0.513031005859375,22144.31372804167,0.002209358440329736,-0.1631252746700785,-0.03135952078401005,22144.31372804167,1.738748429009957,-0.794527437998085,0.7291361054026348,-0.006301671266555786,-0.1515426635742188,0.004803020041435957,0.01531718950718641,0.003689012955874205,0.001508224406279624,XTrueNorthZVertical,0.4882979420386383,0.01790503008604996,0.5691188613773607,0.6613231367810787,-0.5321171283721924,-0.6662256121635437,-0.522489070892334,-1.127109527587891,-35.86729431152344,-28.30183410644531,2,192.168.1.118,10.97.20.126,1,0
2015-02-21 18:57:56.860,4,1424570269.491925,39.63827111267615,-106.3701769152159,2518.4,-1,-1,10,65,-9999,1424570276.835003,-4.724590301513672,-35.69888305664062,-25.89777374267578,258.9859924316406,249.8599243164062,10,22144.389298,-0.521575927734375,-0.6696319580078125,-0.497772216796875,22144.36550770833,-0.01763971379624884,-0.1302996837059799,-0.02725958428583307,22144.36550770833,1.738495081551642,-0.8024111589249746,0.7285455216606135,-0.02614873833954334,-0.1187184602022171,0.008902515284717083,-0.006206836085766554,0.001341120223514736,0.01208143215626478,XTrueNorthZVertical,0.4904069319298568,0.01501537985849336,0.5672494038932135,0.6614406497824457,-0.5365025401115417,-0.6657850742340088,-0.5185511708259583,-1.30232048034668,-35.85206985473633,-28.3136043548584,2,192.168.1.118,10.97.20.126,1,0
2015-02-21 18:57:56.910,5,1424570269.491925,39.63827111267615,-106.3701769152159,2518.4,-1,-1,10,65,-9999,1424570276.886684,-5.406841278076172,-35.52906799316406,-25.89777374267578,259.3023681640625,250.1763000488281,10,22144.43848266667,-0.5319671630859375,-0.665130615234375,-0.5149078369140625,22144.41728691667,-0.009358614386647451,-0.07833794872911683,-0.02246988906532556,22144.41728691667,1.738420580888596,-0.8074624064599637,0.7282383575290725,-0.01786559261381626,-0.06675826758146286,0.01369188632816076,0.003953888081014156,0.01357833109796047,0.01220698468387127,XTrueNorthZVertical,0.4917697590982654,0.01321178948142524,0.5660591856958141,0.661486954416717,-0.5392627120018005,-0.6655558943748474,-0.5159758925437927,-1.528366088867188,-35.84235000610352,-28.31461334228516,2,192.168.1.118,10.97.20.126,1,0
2015-02-21 18:57:56.948,6,1424570269.491925,39.63827111267615,-106.3701769152159,2518.4,-1,-1,10,65,-9999,1424570276.939399,-5.509178161621094,-35.93663024902344,-25.76464080810547,258.5069885253906,249.3809204101562,10,22144.48739970833,-0.5267333984375,-0.6587982177734375,-0.506866455078125,22144.46906654167,-0.007105580104440416,-0.04662955384230639,-0.03673005143826385,22144.46906654167,1.738033145996235,-0.8095358386276177,0.7279325915929702,-0.01561115309596062,-0.03504966571927071,-0.0005703293136321008,0.006085401866585016,0.004286371171474457,0.007627037353813648,XTrueNorthZVertical,0.4922903487418805,0.01231650309089002,0.5654954340564048,0.6615991764411043,-0.5404787063598633,-0.6653276085853577,-0.5149970054626465,-1.62017822265625,-35.82889175415039,-28.32653617858887,2,192.168.1.118,10.97.20.126,1,0
2015-02-21 18:57:57.010,7,1424570269.491925,39.63827111267615,-106.3701769152159,2518.4,-1,-1,10,65,-9999,1424570276.990223,-5.423892974853516,-35.95361328125,-25.6148681640625,258.2067260742188,249.0806579589844,10,22144.53645708333,-0.5130767822265625,-0.653106689453125,-0.51055908203125,22144.52084591667,0.002711097989700664,-0.0486061520033632,-0.07094741038803792,22144.52084591667,1.73597401830419,-0.809149494456489,0.7286515119241963,-0.005794066935777664,-0.03702449798583984,-0.0347907692193985,0.02369805611670017,0.00779837416484952,0.009199308231472969,XTrueNorthZVertical,0.4923547814368608,0.01220574234826743,0.5647338064904193,0.6622035614339518,-0.5399333834648132,-0.6658641695976257,-0.514875590801239,-1.643390655517578,-35.81293487548828,-28.34537124633789,2,192.168.1.118,10.97.20.126,1,0
2015-02-21 18:57:57.047,8,1424570269.491925,39.63827111267615,-106.3701769152159,2518.4,-1,-1,10,65,-9999,1424570277.042479,-4.809864044189453,-36.12342834472656,-25.6148681640625,258.2345581054688,249.1085052490234,10,22144.5854915,-0.47406005859375,-0.6628875732421875,-0.5136260986328125,22144.57262545834,-0.01436748776486848,-0.07931133410754078,-0.191239467349718,22144.52084591667,1.73597401830419,-0.809149494456489,0.7286515119241963,-0.005794066935777664,-0.03702449798583984,-0.0347907692193985,0.02369805611670017,0.00779837416484952,0.009199308231472969,XTrueNorthZVertical,0.4923547814368608,0.01220574234826743,0.5647338064904193,0.6622035614339518,-0.5399333834648132,-0.6658641695976257,-0.514875590801239,-1.643390655517578,-35.81293487548828,-28.34537124633789,2,192.168.1.118,10.97.20.126,1,0
2015-02-21 18:57:57.105,9,1424570269.491925,39.63827111267615,-106.3701769152159,2518.4,-1,-1,10,65,-9999,1424570277.09455,-4.485801696777344,-36.378173828125,-25.53166961669922,258.1891174316406,249.0630645751953,10,22144.63455095833,-0.3330841064453125,-0.636077880859375,-0.475311279296875,22144.62440483334,0.03629249407116383,-0.1398617635999094,-0.2998905808705528,22144.62440483334,1.719057412334315,-0.8018715460300621,0.7416870577118642,0.02778860740363598,-0.1282704323530197,-0.263748437166214,0.1459775120019913,0.01545283477753401,0.01690809242427349,XTrueNorthZVertical,0.4933657255756078,0.01530678826005611,0.5577175890090358,0.6673133401104334,-0.5298886299133301,-0.6755328178405762,-0.5127119421958923,-1.203536987304688,-35.81533050537109,-28.36443138122559,2,192.168.1.118,10.97.20.126,1,0
2015-02-21 18:57:57.145,10,1424570269.491925,39.63827111267615,-106.3701769152159,2518.4,-1,-1,10,65,-9999,1424570277.09455,-4.485801696777344,-36.378173828125,-25.53166961669922,258.1891174316406,249.0630645751953,10,22144.68369108333,-0.18621826171875,-0.6189727783203125,-0.5447235107421875,22144.6761845,0.1477841352106771,-0.9209970050404678,-0.5482540546541435,22144.62440483334,1.719057412334315,-0.8018715460300621,0.7416870577118642,0.02778860740363598,-0.1282704323530197,-0.263748437166214,0.1459775120019913,0.01545283477753401,0.01690809242427349,XTrueNorthZVertical,0.4933657255756078,0.01530678826005611,0.5577175890090358,0.6673133401104334,-0.5298886299133301,-0.6755328178405762,-0.5127119421958923,-1.203536987304688,-35.81533050537109,-28.36443138122559,2,192.168.1.118,10.97.20.126,1,0
2015-02-21 18:57:57.203,11,1424570269.491925,39.63827111267615,-106.3701769152159,2518.4,-1,-1,10,65,-9999,1424570277.148475,-3.871776580810547,-36.68385314941406,-25.46509552001953,258.5789489746094,249.452880859375,10,22144.73264716667,-0.303680419921875,-0.643707275390625,-0.5166778564453125,22144.72796391667,0.1906210813446016,-1.525290626932604,-0.8315387608636161,22144.6761845,1.705324492351496,-0.8156816865320642,0.7580591989695894,0.1393352150917053,-0.9094518423080444,-0.5120244026184082,0.3227079510688782,0.06840328127145767,-0.02918810211122036,XTrueNorthZVertical,0.500972360620024,0.01333237042617857,0.5456416155369742,0.6716578065553909,-0.5287931561470032,-0.6875134110450745,-0.4976978898048401,-0.9719505310058594,-35.87870407104492,-28.29312515258789,2,192.168.1.118,10.97.20.126,1,0
2015-02-21 18:57:57.243,12,1424570269.491925,39.63827111267615,-106.3701769152159,2518.4,-1,-1,10,65,-9999,1424570277.223384,-4.571083068847656,-36.70083618164062,-25.18221282958984,263.6800231933594,254.5539703369141,10,22144.78169016667,-0.32818603515625,-0.63543701171875,-0.4926910400390625,22144.77974341667,0.1989383997450281,-1.32441025012069,-1.28676646811242,22144.72796391667,1.683502006538021,-0.8672667553271159,0.7886883807646848,0.1821722537279129,-1.513745546340942,-0.7953094244003296,0.2692026197910309,0.07007096707820892,-0.07405430823564529,XTrueNorthZVertical,0.5215676550136732,0.001604293379714359,0.5173000175015001,0.6785022765608208,-0.5374369025230408,-0.7094295024871826,-0.4559292197227478,-1.513038635253906,-36.16436767578125,-27.90298080444336,2,192.168.1.118,10.97.20.126,1,0
2015-02-21 18:57:57.301,13,1424570269.491925,39.63827111267615,-106.3701769152159,2518.4,-1,-1,10,65,-9999,1424570277.275172,-4.605201721191406,-36.80271911621094,-24.28362274169922,269.8981323242188,260.7720642089844,10,22144.830778125,-0.324859619140625,-0.669647216796875,-0.4217071533203125,22144.83152279167,0.2478854363679215,-1.535445792801294,-1.692525159164674,22144.77974341667,1.646984353242229,-0.9113934622444804,0.8353616582350474,0.190489649772644,-1.312865257263184,-1.250537395477295,0.1959235668182373,0.1088487729430199,-0.08117335289716721,XTrueNorthZVertical,0.5426294231077435,-0.006213417742762749,0.4807142918117855,0.6887877119872158,-0.5302588939666748,-0.7415391802787781,-0.4110293984413147,-1.906723022460938,-36.47049331665039,-27.47716903686523,2,192.168.1.118,10.97.20.126,1,0
2015-02-21 18:57:57.341,14,1424570269.491925,39.63827111267615,-106.3701769152159,2518.4,-1,-1,10,65,-9999,1424570277.327331,-3.922958374023438,-37.99150085449219,-23.25189971923828,272.9054870605469,263.7794189453125,10,22144.87991,-0.41998291015625,-0.661773681640625,-0.3569488525390625,22144.83152279167,0.2478854363679215,-1.535445792801294,-1.692525159164674,22144.83152279167,1.591714828614434,-0.9383502688079091,0.9011853247867231,0.2394367754459381,-1.523900985717773,-1.656296610832214,0.1757718175649643,0.1144159510731697,-0.05481048300862312,XTrueNorthZVertical,0.562582459420774,-0.007255366637362773,0.4358811331872404,0.7024642436860518,-0.5006314516067505,-0.7840631604194641,-0.3668966591358185,-1.400943756103516,-36.81900024414062,-27.03933715820312,2,192.168.1.118,10.97.20.126,1,0
2015-02-21 18:57:57.400,15,1424570269.491925,39.63827111267615,-106.3701769152159,2518.4,-1,-1,10,65,-9999,1424570277.38056,-2.865478515625,-39.28221130371094,-22.45314025878906,281.7345886230469,272.6085205078125,10,22144.92887045833,-0.47430419921875,-0.6786956787109375,-0.284759521484375,22144.93508170834,0.387048919130012,-1.831830588412866,-2.036353903279899,22144.88330233334,1.520713192401949,-0.9653502978554919,0.9806818514362865,0.2557098567485809,-1.793630003929138,-1.853792786598206,0.03756226226687431,0.1691033095121384,-0.04025356471538544,XTrueNorthZVertical,0.584437694332716,-0.009216147131666984,0.380136647124094,0.7168289987907417,-0.4575451612472534,-0.8308770060539246,-0.3166953027248383,-0.1704883575439453,-37.27895736694336,-26.43817901611328,2,192.168.1.118,10.97.20.126,1,0
2015-02-21 18:57:57.440,16,1424570269.491925,39.63827111267615,-106.3701769152159,2518.4,-1,-1,10,65,-9999,1424570277.43133,-1.671543121337891,-40.2672119140625,-21.98719787597656,293.5043640136719,284.3782958984375,10,22144.97790825,-0.4568939208984375,-0.7248687744140625,-0.2030029296875,22144.93508170834,0.387048919130012,-1.831830588412866,-2.036353903279899,22144.93508170834,1.441975058558082,-0.9895854913587315,1.069956158808746,0.3786004185676575,-1.82028603553772,-2.000125885009766,-0.07298491150140762,0.1984837800264359,-0.02113271690905094,XTrueNorthZVertical,0.6066900867102528,-0.01066474437395703,0.3179387044089386,0.7285110994848935,-0.401319295167923,-0.8771794438362122,-0.2636268138885498,0.868560791015625,-37.57799530029297,-25.9974479675293,2,192.168.1.118,10.97.20.126,1,0
2015-02-21 18:57:57.498,17,1424570269.491925,39.63827111267615,-106.3701769152159,2518.4,-1,-1,10,65,-9999,1424570277.482698,-0.1194343566894531,-40.6578369140625,-21.37148284912109,301.5793762207031,292.4533081054688,10,22145.02697295833,-0.43731689453125,-0.8937835693359375,-0.0885467529296875,22144.986861375,0.5738973664744074,-1.653731690513817,-1.981248040320089,22144.986861375,1.363481282730557,-1.007671455399935,1.167185324686478,0.5654489398002625,-1.642187237739563,-1.945020437240601,-0.1247949302196503,0.194780021905899,0.006654898170381784,XTrueNorthZVertical,0.6285654625923899,-0.008749016807026501,0.2539405593614335,0.7350803671511752,-0.3320989906787872,-0.9196488261222839,-0.2096578329801559,2.16266918182373,-37.90019607543945,-25.4484806060791,2,192.168.1.118,10.97.20.126,1,0
2015-02-21 18:57:57.537,18,1424570269.491925,39.63827111267615,-106.3701769152159,2518.4,-1,-1,10,65,-9999,1424570277.482698,-0.1194343566894531,-40.6578369140625,-21.37148284912109,301.5793762207031,292.4533081054688,10,22145.0760245,-0.2353363037109375,-1.023910522460938,-0.0378875732421875,22145.03864058333,0.782494785177044,-0.8082603360913425,-1.83905601076636,22145.03864058333,1.309944384462786,-1.015955800506623,1.264281163903611,0.7740464806556702,-0.7967159748077393,-1.802828907966614,-0.1449249386787415,0.02411535196006298,0.08946948498487473,XTrueNorthZVertical,0.6484677015265181,0.00326107366379228,0.2014446145527459,0.7340974817162562,-0.2564727663993835,-0.9533908367156982,-0.1589580178260803,4.335636138916016,-38.45537948608398,-24.31282043457031,2,192.168.1.118,10.97.20.126,1,0
2015-02-21 18:57:57.595,19,1424570269.491925,39.63827111267615,-106.3701769152159,2518.4,-1,-1,10,65,-9999,1424570277.586079,5.969627380371094,-41.65983581542969,-17.96012878417969,314.4353332519531,305.3092651367188,10,22145.12510520834,-0.0153350830078125,-1.126998901367188,0.02520751953125,22145.09042029167,0.6853527886230956,-0.3788003102857096,-1.738410892114522,22145.09042029167,1.247310401377529,-0.9826703936622379,1.358069617334236,0.6769046187400818,-0.3672561645507812,-1.702183961868286,-0.01300658378750086,-0.05447777360677719,0.08702775835990906,XTrueNorthZVertical,0.6639203309809206,0.02535979064208811,0.1601689296749267,0.7300086499587127,-0.1756530851125717,-0.9774588942527771,-0.1171333491802216,6.686189651489258,-38.83735656738281,-23.14479637145996,2,192.168.1.118,10.97.20.126,1,0
2015-02-21 18:57:57.635,20,1424570269.491925,39.63827111267615,-106.3701769152159,2518.4,-1,-1,10,65,-9999,1424570277.586079,5.969627380371094,-41.65983581542969,-17.96012878417969,314.4353332519531,305.3092651367188,10,22145.1741495,0.036529541015625,-1.305221557617188,0.0604248046875,22145.14219975,0.6093887816896754,-0.3822517670584523,-1.473974442203976,22145.14219975,1.124412669859539,-0.8775901032485106,1.440026334103461,0.6009406447410583,-0.3707077205181122,-1.437747836112976,0.1035981029272079,-0.1838006675243378,0.1354949176311493,XTrueNorthZVertical,0.6753056400018826,0.0479555364225795,0.1257596634839157,0.7251531604202403,-0.1003022044897079,-0.9914617538452148,-0.08332511782646179,9.240516662597656,-38.9311408996582,-22.08407783508301,2,192.168.1.118,10.97.20.126,1,0
2015-02-21 18:57:57.694,21,1424570269.491925,39.63827111267615,-106.3701769152159,2518.4,-1,-1,10,65,-9999,1424570277.689696,12.1098518371582,-41.62583923339844,-16.36261749267578,324.3470764160156,315.2210083007812,10,22145.22321216667,-0.0186920166015625,-1.124069213867188,0.016510009765625,22145.19397908333,0.4083275762397451,-1.030462513222649,-1.369178254361031,22145.19397908333,0.7509717468815246,-0.5394807668694859,1.503307371252734,0.3998795747756958,-1.018918633460999,-1.33295214176178,0.1033374816179276,-0.2540007531642914,0.07102873921394348,XTrueNorthZVertical,0.6836961142428977,0.06024467918571774,0.08893842914091453,0.7218172883354196,-0.03464241325855255,-0.9977234601974487,-0.05786040425300598,11.96069622039795,-38.73029708862305,-21.11002349853516,2,192.168.1.118,10.97.20.126,1,0
2015-02-21 18:57:57.733,22,1424570269.491925,39.63827111267615,-106.3701769152159,2518.4,-1,-1,10,65,-9999,1424570277.689696,12.1098518371582,-41.62583923339844,-16.36261749267578,324.3470764160156,315.2210083007812,10,22145.272359125,-0.086883544921875,-1.09027099609375,0.10693359375,22145.24575879167,0.3252875502899844,-1.101088746383223,-1.301193344369597,22145.24575879167,-0.4647559927245111,0.6140066993515431,1.522574276148784,0.3168396055698395,-1.089545011520386,-1.264967560768127,-0.0622270256280899,-0.09262363612651825,0.1144422069191933,XTrueNorthZVertical,0.690306439972402,0.06145955759518011,0.04394798228268398,0.719561224973312,0.02777267806231976,-0.9988375306129456,-0.03939948230981827,13.18702793121338,-38.34675216674805,-21.07975769042969,2,192.168.1.118,10.97.20.126,1,0
2015-02-21 18:57:57.793,23,1424570269.491925,39.63827111267615,-106.3701769152159,2518.4,-1,-1,10,65,-9999,1424570277.742142,13.86664199829102,-41.26919555664062,-16.1795654296875,332.4395751953125,323.3135070800781,10,22145.32133058333,-0.001220703125,-1.064727783203125,0.089874267578125,22145.297538375,0.01726820282418279,-0.3200885272099318,-1.091616415018029,22145.297538375,-1.060392773828086,1.175913857257594,1.480147545480875,0.008820348419249058,-0.3085448443889618,-1.055390954017639,-0.1382612138986588,-0.07997249066829681,0.1353346258401871,XTrueNorthZVertical,0.691190797690347,0.06959015250135814,0.01196631804029989,0.7192143901609293,0.08355846256017685,-0.995894193649292,-0.03482498228549957,14.3542947769165,-37.83785247802734,-21.23625373840332,2,192.168.1.118,10.97.20.126,1,0
2015-02-21 18:57:57.832,24,1424570269.491925,39.63827111267615,-106.3701769152159,2518.4,-1,-1,10,65,-9999,1424570277.793371,15.58931732177734,-41.01443481445312,-16.12964630126953,336.1053161621094,326.979248046875,10,22145.37038095833,0.07110595703125,-0.990020751953125,0.0317840576171875,22145.34931783333,-0.09784134265620312,-0.1267116067693161,-0.6045610032655798,22145.297538375,-1.060392773828086,1.175913857257594,1.480147545480875,0.008820348419249058,-0.3085448443889618,-1.055390954017639,-0.1382612138986588,-0.07997249066829681,0.1353346258401871,XTrueNorthZVertical,0.691190797690347,0.06959015250135814,0.01196631804029989,0.7192143901609293,0.08355846256017685,-0.995894193649292,-0.03482498228549957,14.3542947769165,-37.83785247802734,-21.23625373840332,2,192.168.1.118,10.97.20.126,1,0
2015-02-21 18:57:57.895,25,1424570269.491925,39.63827111267615,-106.3701769152159,2518.4,-1,-1,10,65,-9999,1424570277.845915,16.90264129638672,-40.58984375,-16.07971954345703,338.703369140625,329.5773010253906,10,22145.41946616667,0.1491546630859375,-0.9300079345703125,-0.0150909423828125,22145.40109720833,-0.08812666363181207,-0.0573178845612304,-0.08401980291480088,22145.40109720833,-1.150536529418478,1.253263027164112,1.427552703327332,-0.09657356142997742,-0.04577807709574699,-0.04778701439499855,-0.005811494309455156,0.05772081017494202,0.0585637167096138,XTrueNorthZVertical,0.686117728205089,0.08340718688642242,-0.01098667010542965,0.7226098789923614,0.1356180161237717,-0.9897581338882446,-0.0445714071393013,16.77738189697266,-36.52002716064453,-21.76083564758301,2,192.168.1.118,10.97.20.126,1,0
2015-02-21 18:57:57.930,26,1424570269.491925,39.63827111267615,-106.3701769152159,2518.4,-1,-1,10,65,-9999,1424570277.898317,17.31198883056641,-40.35208129882812,-16.21285247802734,340.5425415039062,331.4164733886719,10,22145.46861995833,0.1246490478515625,-0.87237548828125,-0.016845703125,22145.45287691667,-0.08100563719304919,0.02142220149248839,0.3041833302316515,22145.45287691667,-1.108334665159814,1.211675160484472,1.434004913384461,-0.08945244550704956,0.0329618901014328,0.340415745973587,0.01170758530497551,0.07995306700468063,0.007810512091964483,XTrueNorthZVertical,0.6852139485476123,0.08073977017760453,-0.007870297288838788,0.7238100804541356,0.1276661902666092,-0.9906586408615112,-0.04792586714029312,16.77243232727051,-36.42049789428711,-21.93080139160156,2,192.168.1.118,10.97.20.126,1,0
2015-02-21 18:57:57.992,27,1424570269.491925,39.63827111267615,-106.3701769152159,2518.4,-1,-1,10,65,-9999,1424570277.949387,17.17553329467773,-40.58984375,-16.21285247802734,340.5320739746094,331.406005859375,10,22145.51758291667,0.102081298828125,-0.88702392578125,0.0335540771484375,22145.50465620833,0.08002452864746401,0.6431901548771791,0.7542407765401753,22145.50465620833,-1.008620951629835,1.131118355913085,1.460968861346315,0.07157778739929199,0.6547297239303589,0.7904728651046753,0.03419478982686996,0.1268790811300278,0.06371340155601501,XTrueNorthZVertical,0.6860786973975858,0.07725919460466976,0.009174903838453728,0.7233553061150546,0.09918228536844254,-0.993975043296814,-0.04665407538414001,16.08088111877441,-36.75340270996094,-21.89336967468262,2,192.168.1.118,10.97.20.126,1,0
2015-02-21 18:57:58.028,28,1424570269.491925,39.63827111267615,-106.3701769152159,2518.4,-1,-1,10,65,-9999,1424570278.001001,16.74913024902344,-41.11630249023438,-15.99652862548828,337.2318420410156,328.1057739257812,10,22145.56668425,0.11614990234375,-0.931976318359375,0.14703369140625,22145.55643591667,0.2883961112896617,0.5241516478405993,0.891424997980119,22145.50465620833,-1.008620951629835,1.131118355913085,1.460968861346315,0.07157778739929199,0.6547297239303589,0.7904728651046753,0.03419478982686996,0.1268790811300278,0.06371340155601501,XTrueNorthZVertical,0.6860786973975858,0.07725919460466976,0.009174903838453728,0.7233553061150546,0.09918228536844254,-0.993975043296814,-0.04665407538414001,16.08088111877441,-36.75340270996094,-21.89336967468262,2,192.168.1.118,10.97.20.126,1,0
2015-02-21 18:57:58.092,29,1424570269.491925,39.63827111267615,-106.3701769152159,2518.4,-1,-1,10,65,-9999,1424570278.051965,15.72575759887695,-41.65975952148438,-15.23103332519531,327.9221801757812,318.7961120605469,10,22145.61572245833,-0.0180511474609375,-1.02783203125,0.1608734130859375,22145.60821533333,0.6162157951440935,-0.2613634283287035,0.8837566919373449,22145.60821533333,-0.6053802725402406,0.7680674396819401,1.556645226620575,0.6077696084976196,-0.249824270606041,0.9199880361557007,0.007546721491962671,-0.004815090913325548,0.1941093504428864,XTrueNorthZVertical,0.7008812301663023,0.06062627034459196,0.05428098306247282,0.7086208939492442,0.009833039715886116,-0.9998998641967773,-0.0101799126714468,16.84650039672852,-41.68268585205078,-17.54319953918457,2,192.168.1.118,10.97.20.126,1,0
2015-02-21 18:57:58.126,30,1424570269.491925,39.63827111267615,-106.3701769152159,2518.4,-1,-1,10,65,-9999,1424570278.106133,14.00308227539062,-42.72966003417969,-14.08283233642578,325.3457946777344,316.2197265625,10,22145.66487345834,-0.1467742919921875,-1.110275268554688,0.2293853759765625,22145.60821533333,0.6162157951440935,-0.2613634283287035,0.8837566919373449,22145.60821533333,-0.6053802725402406,0.7680674396819401,1.556645226620575,0.6077696084976196,-0.249824270606041,0.9199880361557007,0.007546721491962671,-0.004815090913325548,0.1941093504428864,XTrueNorthZVertical,0.7008812301663023,0.06062627034459196,0.05428098306247282,0.7086208939492442,0.009833039715886116,-0.9998998641967773,-0.0101799126714468,16.84650039672852,-41.68268585205078,-17.54319953918457,2,192.168.1.118,10.97.20.126,1,0
2015-02-21 18:57:58.197,31,1424570269.491925,39.63827111267615,-106.3701769152159,2518.4,-1,-1,10,65,-9999,1424570278.156489,12.2804069519043,-43.52786254882812,-12.66838073730469,323.4020385742188,314.2759704589844,10,22145.71384858333,0.173980712890625,-0.8187408447265625,0.4782562255859375,22145.711774375,1.233677683362235,1.250446277165919,-0.5181725848772624,22145.65999491667,2.420191971191563,-2.26598374269984,1.531947825544824,0.7847771048545837,0.1035597249865532,0.6148122549057007,-0.1192519888281822,-0.1602241098880768,0.1493620872497559,XTrueNorthZVertical,0.7144565851285505,0.04461837186111721,0.06429483057928212,0.6952892948540725,-0.02982637844979763,-0.9992454648017883,0.02487802319228649,14.39766120910645,-43.14677429199219,-16.12692832946777,2,192.168.1.118,10.97.20.126,1,0
2015-02-21 18:57:58.224,32,1424570269.491925,39.63827111267615,-106.3701769152159,2518.4,-1,-1,10,65,-9999,1424570278.208448,12.04162216186523,-43.56179809570312,-10.3719482421875,321.7687072753906,312.6426391601562,10,22145.762988125,-0.0058135986328125,-1.277755737304688,-0.104705810546875,22145.76355408334,0.003544667410895466,-0.6293297329838617,-0.5223313772355301,22145.711774375,2.901008710890037,-2.7214906487335,1.486678360443733,1.225282073020935,1.261943101882935,-0.481860488653183,0.09109130501747131,0.02046624384820461,0.487388551235199,XTrueNorthZVertical,0.731761456295175,0.05368403802915978,0.07297197004125527,0.6755133800665428,-0.03426757827401161,-0.9964641928672791,0.07671360671520233,13.65229892730713,-44.03037261962891,-14.28130340576172,2,192.168.1.118,10.97.20.126,1,0
2015-02-21 18:57:58.291,33,1424570269.491925,39.63827111267615,-106.3701769152159,2518.4,-1,-1,10,65,-9999,1424570278.259919,13.23555374145508,-43.29006958007812,-8.308494567871094,319.213623046875,310.0875549316406,10,22145.81194704167,0.1483917236328125,-1.40374755859375,-0.1431884765625,22145.815333375,-0.3672597680179602,0.3062123926661829,-1.022335610840163,22145.76355408334,-3.08450473716553,-2.976915310476617,1.474778602790896,-0.004850767087191343,-0.6178330779075623,-0.4860196709632874,0.009902874939143658,-0.2823618948459625,-0.1992795169353485,XTrueNorthZVertical,0.735839995286058,0.07633055346608295,0.07997978769131775,0.668069174131546,-0.01571647264063358,-0.9953938126564026,0.09457370638847351,15.248046875,-44.29721450805664,-11.58744430541992,2,192.168.1.118,10.97.20.126,1,0
2015-02-21 18:57:58.323,34,1424570269.491925,39.63827111267615,-106.3701769152159,2518.4,-1,-1,10,65,-9999,1424570278.313523,14.89000701904297,-43.06930541992188,-7.659507751464844,321.53662109375,312.4105529785156,10,22145.861025375,0.14111328125,-1.098495483398438,0.5095367431640625,22145.815333375,-0.3672597680179602,0.3062123926661829,-1.022335610840163,22145.815333375,-2.667732016024372,2.886851260600561,1.46838630374166,-0.3756551146507263,0.3177089691162109,-0.9860243201255798,0.1226298734545708,-0.408986896276474,-0.2421208471059799,XTrueNorthZVertical,0.73576254940571,0.09010913606329413,0.06431917105652232,0.668129402618623,0.02576185204088688,-0.9947606921195984,0.09893237054347992,16.69701385498047,-43.84425735473633,-11.30953979492188,2,192.168.1.118,10.97.20.126,1,0
2015-02-21 18:57:58.397,35,1424570269.491925,39.63827111267615,-106.3701769152159,2518.4,-1,-1,10,65,-9999,1424570278.313523,14.89000701904297,-43.06930541992188,-7.659507751464844,321.53662109375,312.4105529785156,10,22145.910059625,-0.04229736328125,-1.041763305664062,0.217864990234375,22145.9188925,-0.1032598102100783,0.3640730294575714,-0.5239772107891991,22145.86711308334,-2.362790544362541,2.603686435171887,1.469353399342343,-0.2947647273540497,0.3888831436634064,-0.5414948463439941,0.08922898769378662,-0.1036364063620567,0.4225682318210602,XTrueNorthZVertical,0.7294384968873371,0.1067882906328359,0.06292077190061283,0.6727233878979305,0.05188429355621338,-0.9948590993881226,0.08696851879358292,18.38738059997559,-43.09945678710938,-11.54798889160156,2,192.168.1.118,10.97.20.126,1,0
2015-02-21 18:57:58.420,36,1424570269.491925,39.63827111267615,-106.3701769152159,2518.4,-1,-1,10,65,-9999,1424570278.389466,17.02203369140625,-42.78057861328125,-8.108795166015625,322.0230407714844,312.89697265625,10,22145.95920545833,0.134185791015625,-0.9823150634765625,0.1208343505859375,22145.9188925,-0.1032598102100783,0.3640730294575714,-0.5239772107891991,22145.9188925,-2.110801763523342,2.364671152296683,1.45648719654699,-0.1116549968719482,0.3755693733692169,-0.4876665771007538,-0.1222639232873917,-0.04828948527574539,0.1365311145782471,XTrueNorthZVertical,0.7252586777819745,0.1211065272562132,0.05763226753219912,0.6752863252102458,0.07996656000614166,-0.9934738278388977,0.08133388310670853,19.62447166442871,-42.51343154907227,-11.68344497680664,2,192.168.1.118,10.97.20.126,1,0
2015-02-21 18:57:58.498,37,1424570269.491925,39.63827111267615,-106.3701769152159,2518.4,-1,-1,10,65,-9999,1424570278.441768,18.55708694458008,-41.79556274414062,-8.541450500488281,323.5442199707031,314.4181518554688,10,22146.00817370833,0.2913360595703125,-0.9283599853515625,0.1276397705078125,22145.97067208333,-0.401363942621406,0.3022642563501404,-0.5928279144510177,22145.97067208333,-1.854572098538903,2.128163738030731,1.444628198160657,-0.4097590446472168,0.3137604594230652,-0.5565176606178284,0.05698348581790924,0.03251766413450241,0.07046354562044144,XTrueNorthZVertical,0.7173078989006366,0.1369290693472823,0.05554304025005346,0.6809073496013983,0.1067890971899033,-0.992051362991333,0.06656038016080856,21.23809051513672,-41.70048522949219,-11.79101371765137,2,192.168.1.118,10.97.20.126,1,0
2015-02-21 18:57:58.518,38,1424570269.491925,39.63827111267615,-106.3701769152159,2518.4,-1,-1,10,65,-9999,1424570278.49342,20.16037368774414,-40.810546875,-8.741142272949219,323.5716857910156,314.4456176757812,10,22146.05731875,0.29388427734375,-0.9544830322265625,0.0467987060546875,22146.02245154167,-0.2703862181018919,0.176921514381125,-0.5532027405917287,22146.02245154167,-1.653272978121927,1.944494679309328,1.428079975755547,-0.2787812352180481,0.1884176135063171,-0.5168928503990173,0.1953882873058319,0.0617784857749939,0.05813804268836975,XTrueNorthZVertical,0.7092429215592049,0.1514472836549844,0.0532284432985119,0.6864437130855564,0.1324162781238556,-0.9898332953453064,0.05192360281944275,22.4424991607666,-40.95503616333008,-12.16692066192627,2,192.168.1.118,10.97.20.126,1,0
2015-02-21 18:57:58.591,39,1424570269.491925,39.63827111267615,-106.3701769152159,2518.4,-1,-1,10,65,-9999,1424570278.546008,21.11552047729492,-40.16517639160156,-9.107231140136719,324.6260986328125,315.5000305175781,10,22146.10628679167,0.271820068359375,-0.9990997314453125,0.055145263671875,22146.07423125,-0.3296713797603639,-0.3617877709261744,-0.4771127661387478,22146.07423125,-1.500994687384388,1.784472813590379,1.411295996357142,-0.3380663096904755,-0.3502917587757111,-0.4408032298088074,0.1196892037987709,0.04582422226667404,0.006588402204215527,XTrueNorthZVertical,0.7018397815642317,0.1557584414905104,0.04338540463013493,0.6937420093250638,0.1552131474018097,-0.9873067736625671,0.0336795412003994,23.39099884033203,-40.27577590942383,-12.63874053955078,2,192.168.1.118,10.97.20.126,1,0
2015-02-21 18:57:58.617,40,1424570269.491925,39.63827111267615,-106.3701769152159,2518.4,-1,-1,10,65,-9999,1424570278.597607,21.49075698852539,-39.35000610351562,-10.1722412109375,328.9396362304688,319.8135681152344,10,22146.155324625,0.2916259765625,-1.027877807617188,0.113250732421875,22146.12601058334,-0.2942920836269882,-0.5075500342372634,-0.318148946988027,22146.12601058334,-1.3915396215936,1.658433644935763,1.395141950533278,-0.3026869297027588,-0.4960541129112244,-0.2818397879600525,0.1472527682781219,0.01601498387753963,0.04743361845612526,XTrueNorthZVertical,0.6952785229825408,0.1556772524841666,0.03176044598364912,0.700959116160205,0.1740820705890656,-0.9846124053001404,0.01529526337981224,24.13407516479492,-39.4143180847168,-13.89505290985107,2,192.168.1.118,10.97.20.126,1,0
2015-02-21 18:57:58.692,41,1424570269.491925,39.63827111267615,-106.3701769152159,2518.4,-1,-1,10,65,-9999,1424570278.649591,21.90010070800781,-38.56878662109375,-11.30381011962891,331.4819030761719,322.3558349609375,10,22146.20439308334,0.17108154296875,-0.939544677734375,0.053497314453125,22146.17779033333,-0.203104382638239,-0.7191288617802436,0.06866987502380216,22146.17779033333,-1.311258669274469,1.544628382005937,1.391864152920472,-0.2114991396665573,-0.7076330780982971,0.1049786582589149,0.08848500996828079,0.01500964630395174,0.08938886970281601,XTrueNorthZVertical,0.6904952305007016,0.144526566788284,0.01945805217004526,0.7084841792678938,0.1779181808233261,-0.9840342998504639,-0.004656816367059946,24.09563255310059,-38.99758911132812,-15.08652687072754,2,192.168.1.118,10.97.20.126,1,0
2015-02-21 18:57:58.715,42,1424570269.491925,39.63827111267615,-106.3701769152159,2518.4,-1,-1,10,65,-9999,1424570278.70162,21.61014175415039,-38.00836181640625,-11.95279693603516,332.2852478027344,323.1591796875,10,22146.25349820833,0.1842193603515625,-0.9650115966796875,-0.1278839111328125,22146.22956975,-0.2384181650087988,-0.5706259393913541,0.04541302185635819,22146.22956975,-1.237927330847837,1.440104674974879,1.398300095453845,-0.2468128502368927,-0.5591303110122681,0.0817214772105217,0.05151641741394997,0.04166267439723015,0.001433352706953883,XTrueNorthZVertical,0.6868900426818912,0.1303758551886136,0.01181125920132408,0.7148739327485408,0.1701785326004028,-0.9851593971252441,-0.02236841060221195,23.39879608154297,-38.95643615722656,-16.24521255493164,2,192.168.1.118,10.97.20.126,1,0
2015-02-21 18:57:58.792,43,1424570269.491925,39.63827111267615,-106.3701769152159,2518.4,-1,-1,10,65,-9999,1424570278.753997,21.01317977905273,-37.82156372070312,-12.36881256103516,331.8698425292969,322.7437744140625,10,22146.30250270833,0.3380584716796875,-0.936859130859375,-0.193939208984375,22146.28134933333,-0.276371938967954,-0.2096810589501897,-0.1568980050931462,22146.28134933333,-1.169279459989975,1.352718364128831,1.394569854451725,-0.2847665250301361,-0.1981855183839798,-0.1205899119377136,-0.02652556076645851,0.002609183313325047,-0.09486701339483261,XTrueNorthZVertical,0.6824326903589946,0.1237760514953277,0.005250542832569017,0.7203732254356437,0.1711636185646057,-0.9845122694969177,-0.03793022409081459,22.75864219665527,-38.76604461669922,-17.55712890625,2,192.168.1.118,10.97.20.126,1,0
2015-02-21 18:57:58.813,44,1424570269.491925,39.63827111267615,-106.3701769152159,2518.4,-1,-1,10,65,-9999,1424570278.805631,20.63794326782227,-37.58381652832031,-13.40054321289062,333.1639099121094,324.037841796875,10,22146.35161733333,0.3666534423828125,-1.003326416015625,-0.0725860595703125,22146.33312879167,-0.228107204216339,0.1210675694711112,-0.2570749400253489,22146.33312879167,-1.095269343746761,1.277713308393681,1.377507381796212,-0.2365017086267471,0.132562980055809,-0.2207672595977783,0.1280234009027481,0.01105612330138683,-0.04821882769465446,XTrueNorthZVertical,0.6752997013983331,0.1273684940563664,0.0008588439503235364,0.7264618932326614,0.1838967651128769,-0.9813777804374695,-0.05549516156315804,22.97449111938477,-38.2938232421875,-18.29673004150391,2,192.168.1.118,10.97.20.126,1,0
2015-02-21 18:57:58.892,45,1424570269.491925,39.63827111267615,-106.3701769152159,2518.4,-1,-1,10,65,-9999,1424570278.856484,20.62088775634766,-37.15924072265625,-14.34906005859375,336.56787109375,327.4418029785156,10,22146.40060879167,0.2670745849609375,-0.953338623046875,-0.0550079345703125,22146.3849085,-0.172045799057408,-0.3817188685243275,0.01728391547461425,22146.3849085,-1.049683798377152,1.226793106330497,1.375660603095437,-0.180440217256546,-0.3702235817909241,0.05359124392271042,0.1323559433221817,0.03105493076145649,0.02297494187951088,XTrueNorthZVertical,0.6721114793305847,0.1247756865152408,-0.0002989565568756539,0.7298610401649477,0.1825396865606308,-0.9810213446617126,-0.06539437174797058,23.27696228027344,-37.98421478271484,-18.55794334411621,2,192.168.1.118,10.97.20.126,1,0
2015-02-21 18:57:58.911,46,1424570269.491925,39.63827111267615,-106.3701769152159,2518.4,-1,-1,10,65,-9999,1424570278.856484,20.62088775634766,-37.15924072265625,-14.34906005859375,336.56787109375,327.4418029785156,10,22146.44969366667,0.23956298828125,-0.9656982421875,-0.0568084716796875,22146.43668783333,-0.184918454502415,-0.4753175292479253,0.121196466467871,22146.3849085,-1.049683798377152,1.226793106330497,1.375660603095437,-0.180440217256546,-0.3702235817909241,0.05359124392271042,0.1323559433221817,0.03105493076145649,0.02297494187951088,XTrueNorthZVertical,0.6721114793305847,0.1247756865152408,-0.0002989565568756539,0.7298610401649477,0.1825396865606308,-0.9810213446617126,-0.06539437174797058,23.27696228027344,-37.98421478271484,-18.55794334411621,2,192.168.1.118,10.97.20.126,1,0
2015-02-21 18:57:58.993,47,1424570269.491925,39.63827111267615,-106.3701769152159,2518.4,-1,-1,10,65,-9999,1424570278.959784,19.54635238647461,-36.73469543457031,-15.59713745117188,339.1454162597656,330.0193481445312,10,22146.49871558333,0.17315673828125,-0.992462158203125,-0.1177825927734375,22146.488467625,-0.2229699664735761,-0.2807626926571676,0.09922831695191639,22146.488467625,-0.9356410752594445,1.077692420312667,1.382826572465873,-0.2313642352819443,-0.2692676186561584,0.1355349570512772,-0.01550973206758499,-0.00156211294233799,0.005721687339246273,XTrueNorthZVertical,0.6667299552079045,0.1060365317126888,-0.006118429635106146,0.7376923650876347,0.1646033674478531,-0.9823856353759766,-0.08845484256744385,21.98810768127441,-37.91432189941406,-20.20005226135254,2,192.168.1.118,10.97.20.126,1,0
2015-02-21 18:57:59.009,48,1424570269.491925,39.63827111267615,-106.3701769152159,2518.4,-1,-1,10,65,-9999,1424570278.959784,19.54635238647461,-36.73469543457031,-15.59713745117188,339.1454162597656,330.0193481445312,10,22146.54788179167,0.01092529296875,-0.9911041259765625,-0.0851593017578125,22146.54024708334,-0.3050312807227327,-0.3217868250370753,0.05515246827888697,22146.488467625,-0.9356410752594445,1.077692420312667,1.382826572465873,-0.2313642352819443,-0.2692676186561584,0.1355349570512772,-0.01550973206758499,-0.00156211294233799,0.005721687339246273,XTrueNorthZVertical,0.6667299552079045,0.1060365317126888,-0.006118429635106146,0.7376923650876347,0.1646033674478531,-0.9823856353759766,-0.08845484256744385,21.98810768127441,-37.91432189941406,-20.20005226135254,2,192.168.1.118,10.97.20.126,1,0
2015-02-21 18:57:59.091,49,1424570269.491925,39.63827111267615,-106.3701769152159,2518.4,-1,-1,10,65,-9999,1424570279.064152,18.52297973632812,-36.83656311035156,-16.79525756835938,338.4692077636719,329.3431396484375,10,22146.596933375,0.0582733154296875,-1.013992309570312,-0.202056884765625,22146.5920265,-0.2379366654837124,-0.25045751734872,0.02876693346281791,22146.54024708334,-0.8635830844008786,0.9892376128756361,1.378646996145823,-0.3134254515171051,-0.3102918565273285,0.09145870804786682,-0.1689137369394302,-0.04176516085863113,0.02066083066165447,XTrueNorthZVertical,0.6617107980822348,0.09842010545030999,-0.01003686659304488,0.7432036085572338,0.1595753580331802,-0.981596052646637,-0.1049046069383621,21.65301322937012,-37.8765983581543,-20.62825965881348,2,192.168.1.118,10.97.20.126,1,0
2015-02-21 18:57:59.107,50,1424570269.491925,39.63827111267615,-106.3701769152159,2518.4,-1,-1,10,65,-9999,1424570279.064152,18.52297973632812,-36.83656311035156,-16.79525756835938,338.4692077636719,329.3431396484375,10,22146.64587679167,0.2924041748046875,-0.9543914794921875,-0.1619415283203125,22146.64380629167,-0.1759766248263649,0.4435729153702898,-0.1405427338906426,22146.5920265,-0.804231936625304,0.917449280910801,1.372354615447907,-0.2463307529687881,-0.2389626801013947,0.06507281213998795,-0.007096798624843359,-0.07371743768453598,-0.04427597299218178,XTrueNorthZVertical,0.6568466958875232,0.09293150995502372,-0.01331105546708453,0.748157074604293,0.1565413773059845,-0.9803749918937683,-0.119832307100296,21.01213073730469,-37.5079345703125,-21.92395782470703,2,192.168.1.118,10.97.20.126,1,0
2015-02-21 18:57:59.191,51,1424570269.491925,39.63827111267615,-106.3701769152159,2518.4,-1,-1,10,65,-9999,1424570279.16749,18.89821624755859,-35.95346069335938,-17.52745819091797,337.7094116210938,328.5833435058594,10,22146.69494308333,0.2773590087890625,-0.887176513671875,0.0035247802734375,22146.69558591667,-0.2228948653308359,0.2923809992287473,-0.05468641508812311,22146.64380629167,-0.7730278005360209,0.8964304292969077,1.366726702620497,-0.1843706369400024,0.4550676345825195,-0.1042371839284897,0.1133567318320274,0.04089546203613281,0.01476842910051346,XTrueNorthZVertical,0.6537348574573262,0.09675332941792578,-0.01000340883183097,0.7504462013512475,0.1582954972982407,-0.9792499542236328,-0.1265390515327454,20.89274597167969,-37.34275817871094,-22.31650161743164,2,192.168.1.118,10.97.20.126,1,0
2015-02-21 18:57:59.207,52,1424570269.491925,39.63827111267615,-106.3701769152159,2518.4,-1,-1,10,65,-9999,1424570279.16749,18.89821624755859,-35.95346069335938,-17.52745819091797,337.7094116210938,328.5833435058594,10,22146.74400920833,0.254302978515625,-1.02972412109375,0.066864013671875,22146.69558591667,-0.2228948653308359,0.2923809992287473,-0.05468641508812311,22146.69558591667,-0.7593165107371332,0.9005012858101609,1.355793662467633,-0.2312421947717667,0.3038367629051208,-0.01830530725419521,0.1101696044206619,0.08979931473731995,0.1360615938901901,XTrueNorthZVertical,0.650066882703746,0.1055681817029629,-0.006394202822881557,0.7524809373751616,0.1671894043684006,-0.9769757986068726,-0.1325368136167526,21.28034019470215,-37.16395950317383,-22.24864196777344,2,192.168.1.118,10.97.20.126,1,0
2015-02-21 18:57:59.291,53,1424570269.491925,39.63827111267615,-106.3701769152159,2518.4,-1,-1,10,65,-9999,1424570279.271011,18.67648315429688,-35.63081359863281,-18.10988616943359,339.7486267089844,330.62255859375,10,22146.79307729167,0.1374664306640625,-0.979583740234375,0.014129638671875,22146.79914479167,-0.1626807930841443,-0.08785022751066185,0.2067851375808376,22146.747365375,-0.7308332626745847,0.8653763683279603,1.354120901966179,-0.1110712289810181,-0.4362525939941406,0.2851695120334625,0.09062709659337997,-0.05310654640197754,0.2062497586011887,XTrueNorthZVertical,0.6479994540680867,0.1019991940955994,-0.007491946757683455,0.7547428585843443,0.1636758744716644,-0.9766175746917725,-0.1393857449293137,21.7736930847168,-36.77883529663086,-22.41067886352539,2,192.168.1.118,10.97.20.126,1,0
2015-02-21 18:57:59.303,54,1424570269.491925,39.63827111267615,-106.3701769152159,2518.4,-1,-1,10,65,-9999,1424570279.271011,18.67648315429688,-35.63081359863281,-18.10988616943359,339.7486267089844,330.62255859375,10,22146.84211945834,0.3671417236328125,-0.9752655029296875,-0.0394744873046875,22146.79914479167,-0.1626807930841443,-0.08785022751066185,0.2067851375808376,22146.79914479167,-0.6600386106204156,0.7789622390438092,1.359261113269769,-0.1710279732942581,-0.07639465481042862,0.2431655526161194,-0.01004005130380392,-0.001874008448794484,0.1635471284389496,XTrueNorthZVertical,0.6457659801372004,0.09098106706278195,-0.007408562019799561,0.7580592967976416,0.1475064754486084,-0.9777097105979919,-0.1494174897670746,20.89248275756836,-36.916015625,-23.01579475402832,2,192.168.1.118,10.97.20.126,1,0
2015-02-21 18:57:59.391,55,1424570269.491925,39.63827111267615,-106.3701769152159,2518.4,-1,-1,10,65,-9999,1424570279.374586,19.1028938293457,-34.73074340820312,-18.62574005126953,337.4034729003906,328.2774047851562,10,22146.89118554167,0.410064697265625,-0.8433380126953125,-0.098114013671875,22146.85092441667,-0.3583666741898586,0.9633916001173302,0.04115223042834042,22146.85092441667,-0.6030548093063853,0.7553522546398002,1.353532137035547,-0.3667137622833252,0.9748470783233643,0.07753228396177292,0.2193662226200104,0.001225328422151506,0.1174590215086937,XTrueNorthZVertical,0.6412516983256771,0.1016341685767995,0.005318140901527778,0.7605514528738123,0.1477755010128021,-0.97649085521698,-0.1569335162639618,20.5529899597168,-36.94388580322266,-23.27528190612793,2,192.168.1.118,10.97.20.126,1,0
2015-02-21 18:57:59.401,56,1424570269.491925,39.63827111267615,-106.3701769152159,2518.4,-1,-1,10,65,-9999,1424570279.374586,19.1028938293457,-34.73074340820312,-18.62574005126953,337.4034729003906,328.2774047851562,10,22146.94024779167,0.4253692626953125,-0.9808349609375,-0.2488555908203125,22146.90270395833,-0.4052010251199921,0.5904702179379705,0.04698109110619685,22146.90270395833,-0.5279117517934321,0.7191721133114219,1.343007273049835,-0.4135480225086212,0.6019255518913269,0.08336074650287628,0.2546320855617523,0.1069042682647705,0.07556945830583572,XTrueNorthZVertical,0.6340767395534792,0.1140045779391744,0.02015597240256926,0.7645543939195067,0.1487645357847214,-0.974168062210083,-0.1698992848396301,21.67013740539551,-36.52758026123047,-22.91627502441406,2,192.168.1.118,10.97.20.126,1,0
2015-02-21 18:57:59.463,57,1424570269.491925,39.63827111267615,-106.3701769152159,2518.4,-1,-1,10,65,-9999,1424570279.426434,20.07509994506836,-34.00047302246094,-18.60910034179688,334.2765808105469,325.1505126953125,10,22146.989295875,0.2903289794921875,-0.829864501953125,-0.092620849609375,22146.95448366667,-0.697362846191026,0.1571454127584146,-0.05776023561829256,22146.95448366667,-0.4521932628325549,0.6615139636630808,1.317239281778837,-0.7057097554206848,0.1686006188392639,-0.0213809460401535,0.2375935316085815,-0.09258164465427399,0.05254992842674255,XTrueNorthZVertical,0.6216948488458013,0.1205308237030296,0.02602545345193114,0.7734924376796872,0.1540995836257935,-0.9680262804031372,-0.1979356706142426,22.1803092956543,-36.00053024291992,-23.2596321105957,2,192.168.1.118,10.97.20.126,1,0
2015-02-21 18:57:59.499,58,1424570269.491925,39.63827111267615,-106.3701769152159,2518.4,-1,-1,10,65,-9999,1424570279.478863,20.48444747924805,-32.91355895996094,-19.67411041259766,332.2643127441406,323.1382446289062,10,22147.03833379167,0.186676025390625,-0.937713623046875,-0.26568603515625,22147.006263125,-0.6905523443353663,0.4689163552518109,0.1508646136435717,22147.006263125,-0.3386301559230482,0.5750422735081603,1.292428488714665,-0.6988992094993591,0.4803714752197266,0.1872435808181763,0.2182731926441193,0.1594574898481369,0.1359728872776031,XTrueNorthZVertical,0.6073415867237161,0.1258565622661361,0.03931016823332614,0.7834226658470604,0.1494483649730682,-0.9615052342414856,-0.2305926382541656,22.3228816986084,-35.48587799072266,-23.90514755249023,2,192.168.1.118,10.97.20.126,1,0
2015-02-21 18:57:59.561,59,1424570269.491925,39.63827111267615,-106.3701769152159,2518.4,-1,-1,10,65,-9999,1424570279.530619,20.92790985107422,-31.55491638183594,-20.43959045410156,330.9733276367188,321.8472595214844,10,22147.08740245834,0.44989013671875,-0.7918548583984375,-0.63604736328125,22147.05804283333,-1.259269063541243,0.6298855347033613,-0.3806046019242383,22147.05804283333,-0.2711851185001959,0.5295037191333725,1.248542565224876,-1.267615795135498,0.6413405537605286,-0.3442260324954987,-0.02190788462758064,0.08208423107862473,-0.06055791303515434,XTrueNorthZVertical,0.5876627689221047,0.1341082198388878,0.04568377819093822,0.7966056036230404,0.1599694043397903,-0.9485240578651428,-0.2733349204063416,22.81590461730957,-34.18900299072266,-25.28955078125,2,192.168.1.118,10.97.20.126,1,0
2015-02-21 18:57:59.597,60,1424570269.491925,39.63827111267615,-106.3701769152159,2518.4,-1,-1,10,65,-9999,1424570279.589072,22.07067489624023,-29.56794738769531,-21.65435028076172,330.2494812011719,321.1234130859375,10,22147.13644770833,0.5539703369140625,-0.7872314453125,-0.590423583984375,22147.10982229167,-1.735066760733709,0.872771685072986,-0.7760861543298773,22147.10982229167,-0.2374752940941914,0.5419603674252184,1.162444584316013,-1.74341344833374,0.8842265605926514,-0.7397079467773438,0.3159227073192596,0.08305978775024414,-0.2429065406322479,XTrueNorthZVertical,0.5517876658688713,0.1594802692284243,0.05053748972212545,0.8170326906393504,0.2048292607069016,-0.9177765846252441,-0.3401928246021271,24.45245361328125,-32.0047607421875,-26.58547973632812,2,192.168.1.118,10.97.20.126,1,0
2015-02-21 18:57:59.660,61,1424570269.491925,39.63827111267615,-106.3701769152159,2518.4,-1,-1,10,65,-9999,1424570279.589072,22.07067489624023,-29.56794738769531,-21.65435028076172,330.2494812011719,321.1234130859375,10,22147.1855125,0.4818572998046875,-0.466156005859375,-0.3166656494140625,22147.16160191667,-0.7326121800632057,0.3251650448798408,0.2230687697500181,22147.16160191667,-0.1752197278098861,0.5290420730647485,1.09687215171341,-0.7409588098526001,0.3366197943687439,0.2594466507434845,0.5737383961677551,0.2563918828964233,-0.1440501362085342,XTrueNorthZVertical,0.5208105616454045,0.178217133763619,0.06371501285870138,0.8324274437853861,0.2303387671709061,-0.8897842168807983,-0.3939900100231171,26.48005867004395,-29.22097778320312,-27.82005882263184,2,192.168.1.118,10.97.20.126,1,0
2015-02-21 18:57:59.697,62,1424570269.491925,39.63827111267615,-106.3701769152159,2518.4,-1,-1,10,65,-9999,1424570279.65929,23.36694717407227,-27.15640258789062,-23.85093688964844,330.7045288085938,321.5784606933594,10,22147.234689625,-0.3126220703125,-0.6925048828125,-0.425384521484375,22147.21338141667,-0.08228608504515929,-1.17933801184804,2.248821960310857,22147.16160191667,-0.1752197278098861,0.5290420730647485,1.09687215171341,-0.7409588098526001,0.3366197943687439,0.2594466507434845,0.5737383961677551,0.2563918828964233,-0.1440501362085342,XTrueNorthZVertical,0.5208105616454045,0.178217133763619,0.06371501285870138,0.8324274437853861,0.2303387671709061,-0.8897842168807983,-0.3939900100231171,26.48005867004395,-29.22097778320312,-27.82005882263184,2,192.168.1.118,10.97.20.126,1,0
2015-02-21 18:57:59.761,63,1424570269.491925,39.63827111267615,-106.3701769152159,2518.4,-1,-1,10,65,-9999,1424570279.712018,21.71249771118164,-28.12443542480469,-25.33196258544922,330.865966796875,321.7398986816406,10,22147.283622375,-0.511627197265625,-0.7699432373046875,-0.276092529296875,22147.26516120834,0.6640443041091536,-0.5323667008551667,4.108777127731615,22147.26516120834,0.3593000305356249,-0.031929911734664,1.160342564863968,0.655697762966156,-0.5209123492240906,4.145155906677246,-0.5587944984436035,0.2489100694656372,0.1022065132856369,XTrueNorthZVertical,0.5416622073990476,0.08479974755772214,0.1408174413611733,0.8243673598688931,-0.01273868419229984,-0.9169398546218872,-0.3988220989704132,20.41653823852539,-32.01311111450195,-29.78825759887695,2,192.168.1.118,10.97.20.126,1,0
2015-02-21 18:57:59.795,64,1424570269.491925,39.63827111267615,-106.3701769152159,2518.4,-1,-1,10,65,-9999,1424570279.763662,16.40802764892578,-31.87763977050781,-25.61485290527344,319.240478515625,310.1144104003906,10,22147.332658875,-0.6218109130859375,-0.91192626953125,-0.2858123779296875,22147.31694066667,1.049357641156761,-0.5750664941929522,5.163570014357118,22147.31694066667,0.9551857581792714,-0.5956046886012307,1.128154504638624,1.041011452674866,-0.5636128783226013,5.199953556060791,-0.3022453188896179,0.02953877858817577,0.03699296340346336,XTrueNorthZVertical,0.5678878669458232,0.01470715411046646,0.2320189148421369,0.7895912444221691,-0.2402961701154709,-0.9036232233047485,-0.3545741438865662,15.77391338348389,-34.76912307739258,-29.51789855957031,2,192.168.1.118,10.97.20.126,1,0
2015-02-21 18:57:59.891,65,1424570269.491925,39.63827111267615,-106.3701769152159,2518.4,-1,-1,10,65,-9999,1424570279.866524,-3.274810791015625,-37.54994201660156,-23.51811981201172,293.2586975097656,284.1326293945312,10,22147.38174708333,-0.7591094970703125,-1.046630859375,-0.2186431884765625,22147.36872033334,1.506843442693843,-0.220342758058213,5.712801182815212,22147.36872033334,1.430398294920063,-1.033866830633081,0.9648998415366125,1.498497247695923,-0.2088892012834549,5.749184131622314,-0.2380557954311371,-0.1598806828260422,0.01160525251179934,XTrueNorthZVertical,0.5915992694726498,-0.06603693173618498,0.3319084599889214,0.7317692546923916,-0.4893611967563629,-0.8219918608665466,-0.2912988662719727,0.04452896118164062,-40.18062210083008,-26.73070335388184,2,192.168.1.118,10.97.20.126,1,0
2015-02-21 18:57:59.894,66,1424570269.491925,39.63827111267615,-106.3701769152159,2518.4,-1,-1,10,65,-9999,1424570279.866524,-3.274810791015625,-37.54994201660156,-23.51811981201172,293.2586975097656,284.1326293945312,10,22147.430795375,-0.7064666748046875,-1.077117919921875,-0.2387542724609375,22147.42049983333,1.619439763053521,0.4419382670931992,5.687317926976461,22147.36872033334,1.430398294920063,-1.033866830633081,0.9648998415366125,1.498497247695923,-0.2088892012834549,5.749184131622314,-0.2380557954311371,-0.1598806828260422,0.01160525251179934,XTrueNorthZVertical,0.5915992694726498,-0.06603693173618498,0.3319084599889214,0.7317692546923916,-0.4893611967563629,-0.8219918608665466,-0.2912988662719727,0.04452896118164062,-40.18062210083008,-26.73070335388184,2,192.168.1.118,10.97.20.126,1,0
2015-02-21 18:57:59.962,67,1424570269.491925,39.63827111267615,-106.3701769152159,2518.4,-1,-1,10,65,-9999,1424570279.918929,-14.3101692199707,-36.48002624511719,-21.17177581787109,271.7904663085938,262.6643981933594,10,22147.47998329167,-0.650238037109375,-0.7487030029296875,-0.295013427734375,22147.47227958333,1.452721617756817,-0.2526495652419642,5.247671043685166,22147.47227958333,1.904644354183477,-1.342418616612407,0.4902315400494092,1.44437563419342,-0.2411962598562241,5.284053802490234,0.2270537465810776,-0.3363445103168488,-0.0914500504732132,XTrueNorthZVertical,0.6017584826354823,-0.194987223073715,0.531442137071378,0.56341459537203,-0.8593169450759888,-0.4708301723003387,-0.1997334212064743,-17.05962371826172,-39.31583023071289,-22.18669509887695,2,192.168.1.118,10.97.20.126,1,0
2015-02-21 18:57:59.995,68,1424570269.491925,39.63827111267615,-106.3701769152159,2518.4,-1,-1,10,65,-9999,1424570279.970137,-24.64621353149414,-32.30221557617188,-18.40940856933594,256.4747924804688,247.3487243652344,10,22147.52892108334,-0.85540771484375,-0.5140533447265625,-0.3002471923828125,22147.47227958333,1.452721617756817,-0.2526495652419642,5.247671043685166,22147.47227958333,1.904644354183477,-1.342418616612407,0.4902315400494092,1.44437563419342,-0.2411962598562241,5.284053802490234,0.2270537465810776,-0.3363445103168488,-0.0914500504732132,XTrueNorthZVertical,0.6017584826354823,-0.194987223073715,0.531442137071378,0.56341459537203,-0.8593169450759888,-0.4708301723003387,-0.1997334212064743,-17.05962371826172,-39.31583023071289,-22.18669509887695,2,192.168.1.118,10.97.20.126,1,0
2015-02-21 18:58:00.048,69,1424570269.491925,39.63827111267615,-106.3701769152159,2518.4,-1,-1,10,65,-9999,1424570280.022707,-33.4130973815918,-25.57699584960938,-15.71360778808594,236.0870971679688,226.9610443115234,10,22147.57798795834,-0.83843994140625,-0.2767181396484375,-0.261322021484375,22147.575838625,1.081471369161481,-0.8840227417302438,4.361547600487068,22147.524059,2.030216876977552,-1.412188954462364,0.2509919717403813,1.323594927787781,-0.6047396659851074,4.960734367370605,0.1107438877224922,-0.3177666068077087,-0.151388019323349,XTrueNorthZVertical,0.5971435063616557,-0.258693792838602,0.5984872354881975,0.4672367956759818,-0.9565080404281616,-0.2483649700880051,-0.152994304895401,-31.73565864562988,-31.67234802246094,-17.85287475585938,2,192.168.1.118,10.97.20.126,1,0
2015-02-21 18:58:00.090,70,1424570269.491925,39.63827111267615,-106.3701769152159,2518.4,-1,-1,10,65,-9999,1424570280.074315,-40.30379867553711,-17.52708435058594,-13.51702880859375,223.4372253417969,214.3111572265625,10,22147.627021875,-0.780792236328125,-0.127838134765625,-0.2203826904296875,22147.62761820833,0.8387886842991389,-0.8041356321950278,3.95508397069427,22147.575838625,2.120960024921399,-1.462199894934721,0.02932696177225463,1.07312548160553,-0.8725696206092834,4.397929191589355,0.1686542928218842,-0.2900131940841675,-0.1727761626243591,XTrueNorthZVertical,0.5878878402277596,-0.3165748473425206,0.644739391975813,0.3721282167426136,-0.993681788444519,-0.02932275831699371,-0.1083365082740784,-38.40399932861328,-24.9643611907959,-15.19632911682129,2,192.168.1.118,10.97.20.126,1,0
2015-02-21 18:58:00.147,71,1424570269.491925,39.63827111267615,-106.3701769152159,2518.4,-1,-1,10,65,-9999,1424570280.127391,-44.84074783325195,-9.00164794921875,-10.954345703125,210.9042358398438,201.7781677246094,10,22147.67619620834,-0.67547607421875,0.0907135009765625,-0.2108306884765625,22147.67939791667,0.3701988325969717,-0.7273380558404128,3.638397898093023,22147.62761820833,2.186579735375694,-1.499526639580701,-0.1747606410588108,0.8304429650306702,-0.7926826477050781,3.991465330123901,0.2014760375022888,-0.3017105758190155,-0.1502579599618912,XTrueNorthZVertical,0.5735786249599374,-0.3687074713418663,0.6748390556686832,0.2822315546301168,-0.9822682738304138,0.1738724261522293,-0.07012472301721573,-41.76242446899414,-20.1112117767334,-13.43331146240234,2,192.168.1.118,10.97.20.126,1,0
2015-02-21 18:58:00.192,72,1424570269.491925,39.63827111267615,-106.3701769152159,2518.4,-1,-1,10,65,-9999,1424570280.177945,-47.29684829711914,-0.47625732421875,-8.59136962890625,193.885009765625,184.7589416503906,10,22147.72512783334,-0.5479888916015625,0.12371826171875,-0.1583709716796875,22147.67939791667,0.3701988325969717,-0.7273380558404128,3.638397898093023,22147.67939791667,2.22809636611384,-1.526272158660779,-0.3638156192690254,0.361896276473999,-0.7159210443496704,3.67484974861145,0.2581436634063721,-0.2651291787624359,-0.1692345589399338,XTrueNorthZVertical,0.5524441045973636,-0.4171419961395529,0.6930373227765139,0.201239597271677,-0.9336197376251221,0.3558426797389984,-0.04159613326191902,-46.64894866943359,-7.394612312316895,-9.91010570526123,2,192.168.1.118,10.97.20.126,1,0
2015-02-21 18:58:00.245,73,1424570269.491925,39.63827111267615,-106.3701769152159,2518.4,-1,-1,10,65,-9999,1424570280.230295,-47.5868034362793,8.13409423828125,-6.444717407226562,179.8943481445312,170.7682800292969,10,22147.774200875,-0.551727294921875,0.48333740234375,-0.085235595703125,22147.78295716667,-0.9246007946275631,-0.9304062194878268,3.072162446074773,22147.73117741667,2.238358133820444,-1.560858060888091,-0.5391865209089327,-0.1435385644435883,-0.8356707096099854,3.393771409988403,0.3100953996181488,-0.3897198438644409,-0.1498428136110306,XTrueNorthZVertical,0.5275799187371659,-0.4662567468283245,0.6980551424099336,0.1303193518107669,-0.8580843210220337,0.5134381055831909,-0.008528150618076324,-47.54139709472656,0.1699752807617188,-8.294677734375,2,192.168.1.118,10.97.20.126,3,0
2015-02-21 18:58:00.300,74,1424570269.491925,39.63827111267615,-106.3701769152159,2518.4,-1,-1,10,65,-9999,1424570280.281796,-46.90456008911133,16.11605834960938,-3.715629577636719,171.4124755859375,162.2864227294922,10,22147.82324554167,-0.633636474609375,0.8878021240234375,0.2815093994140625,22147.78295716667,-0.9246007946275631,-0.9304062194878268,3.072162446074773,22147.78295716667,2.199415930050306,-1.628494289226925,-0.7001000677189474,-0.9329031705856323,-0.9189894199371338,3.10861349105835,0.2117778360843658,-0.1609568148851395,-0.1293372362852097,XTrueNorthZVertical,0.5018611424335139,-0.5197943957230938,0.6877434676383005,0.07041407906104938,-0.7635051608085632,0.6442942023277283,0.04410164058208466,-47.46561813354492,5.056430816650391,-7.103698253631592,2,192.168.1.118,10.97.20.126,3,0
2015-02-21 18:58:00.343,75,1424570269.491925,39.63827111267615,-106.3701769152159,2518.4,-1,-1,10,65,-9999,1424570280.333618,-44.99426651000977,23.07904052734375,0.2781448364257812,163.1583862304688,154.0323181152344,10,22147.87241933334,-0.30517578125,1.0244140625,0.5102081298828125,22147.83473654167,-2.25650944111348,-1.258222174916732,2.834516597782097,22147.83473654167,2.059397808968431,-1.783143567110798,-0.8388860436015514,-2.264808654785156,-1.246806621551514,2.870969772338867,0.01412126049399376,0.25654336810112,0.2098926454782486,XTrueNorthZVertical,0.4773261456360662,-0.5853056362281175,0.6549847559374449,0.02391803295337273,-0.6532813906669617,0.7438991069793701,0.1408458799123764,-45.30716705322266,16.38811492919922,-2.775831699371338,2,192.168.1.118,10.97.20.126,3,0
2015-02-21 18:58:00.395,76,1424570269.491925,39.63827111267615,-106.3701769152159,2518.4,-1,-1,10,65,-9999,1424570280.385474,-42.06061172485352,29.12493896484375,5.636474609375,158.5860290527344,149.4599609375,10,22147.92135308333,-0.172027587890625,1.137542724609375,0.73626708984375,22147.88651633334,-2.518659034595975,-1.365480987819674,2.863382334521357,22147.88651633334,1.79008094108655,-2.057357735373329,-0.9280069234965561,-2.526957511901855,-1.354065775871277,2.899835824966431,0.3192166388034821,0.1394993215799332,0.2607436776161194,XTrueNorthZVertical,0.4532677147268664,-0.659311753113394,0.5997881879384429,-0.01051477633255138,-0.5298641920089722,0.8004268407821655,0.2802872061729431,-42.87255096435547,22.07860946655273,1.869220733642578,2,192.168.1.118,10.97.20.126,3,0
2015-02-21 18:58:00.441,77,1424570269.491925,39.63827111267615,-106.3701769152159,2518.4,-1,-1,10,65,-9999,1424570280.385474,-42.06061172485352,29.12493896484375,5.636474609375,158.5860290527344,149.4599609375,10,22147.970432875,-0.14599609375,1.0325927734375,0.8371124267578125,22147.93829583333,-1.958672956391705,-1.778896000689797,2.644073681914422,22147.93829583333,1.488066978135027,-2.385593414961634,-0.9784703461967816,-1.96696937084198,-1.767481565475464,2.68052864074707,0.171297088265419,0.4112156331539154,0.4003278613090515,XTrueNorthZVertical,0.4280024664195328,-0.7210526053101453,0.5419839865636866,-0.05612866773547295,-0.3829975128173828,0.8296443223953247,0.406205952167511,-40.65080261230469,25.4422721862793,5.405338287353516,2,192.168.1.118,10.97.20.126,3,0
2015-02-21 18:58:00.492,78,1424570269.491925,39.63827111267615,-106.3701769152159,2518.4,-1,-1,10,65,-9999,1424570280.437865,-37.96712875366211,33.09893798828125,11.72698974609375,150.6605224609375,141.5344543457031,10,22148.01946883334,0.0057373046875,0.902801513671875,0.8202056884765625,22147.99007533333,-1.753820474813938,-0.6200582039648599,1.804686319002234,22147.99007533333,1.236012254169009,-2.654680599509545,-0.965957230250387,-1.76211678981781,-0.6086438894271851,1.841140747070312,0.1748901009559631,0.2149430215358734,0.324344277381897,XTrueNorthZVertical,0.406758689600867,-0.7653886264070408,0.4910512992201346,-0.08715664320132976,-0.2660613656044006,0.822593629360199,0.5025447607040405,-33.93394470214844,31.30558395385742,14.05213737487793,2,192.168.1.118,10.97.20.126,3,0
2015-02-21 18:58:00.539,79,1424570269.491925,39.63827111267615,-106.3701769152159,2518.4,-1,-1,10,65,-9999,1424570280.488809,-33.37900161743164,35.76522827148438,16.96881866455078,140.9908142089844,131.86474609375,10,22148.06863020833,0.2159881591796875,0.6375732421875,0.6470489501953125,22148.04185495833,-1.748996424815369,-0.05904387926371076,1.258419248837398,22148.04185495833,1.035843758199981,-2.834677806128259,-0.9112503584696116,-1.757251024246216,-0.04764755442738533,1.294917821884155,0.3706117868423462,-0.1200587302446365,0.1331457644701004,XTrueNorthZVertical,0.3809076327310492,-0.8043453504345974,0.4457771307818335,-0.09602459139389953,-0.1851259618997574,0.7902705073356628,0.5841241478919983,-31.15942764282227,32.58516693115234,17.21370506286621,2,192.168.1.118,10.97.20.126,3,0
2015-02-21 18:58:00.596,80,1424570269.491925,39.63827111267615,-106.3701769152159,2518.4,-1,-1,10,65,-9999,1424570280.541086,-29.79719924926758,36.37664794921875,20.36354064941406,138.3567810058594,129.2307281494141,10,22148.11756845834,0.08697509765625,0.7490386962890625,0.8514251708984375,22148.09363483333,-1.244632330190167,-0.4044974179599932,1.141467328514896,22148.09363483333,0.9088865068093078,-2.947049161512683,-0.8554526953887543,-1.252881765365601,-0.3931036591529846,1.177973866462708,0.2675403356552124,-0.03141820058226585,0.07217847555875778,XTrueNorthZVertical,0.3613321458334935,-0.83137917492282,0.4097317245571415,-0.1018219117008733,-0.1267932504415512,0.7548679113388062,0.6435045003890991,-29.24654006958008,33.03317642211914,19.55668830871582,2,192.168.1.118,10.97.20.126,3,0
2015-02-21 18:58:00.638,81,1424570269.491925,39.63827111267615,-106.3701769152159,2518.4,-1,-1,10,65,-9999,1424570280.592753,-27.1193733215332,36.49551391601562,22.97613525390625,135.9952545166016,126.8691940307617,10,22148.1666665,0.0583953857421875,0.76873779296875,0.9443817138671875,22148.14541429167,-1.289026426613461,-0.2179981110345072,0.7050457996197955,22148.14541429167,0.8236540414929935,-3.025561553842754,-0.8008517234871134,-1.297274827957153,-0.2066048383712769,0.7415529489517212,0.16646409034729,0.04651609808206558,0.1998508870601654,XTrueNorthZVertical,0.3472869912128998,-0.8515275886574919,0.3779915748821103,-0.1068406323762993,-0.08058761805295944,0.7179492115974426,0.6914149522781372,-25.79288291931152,33.28364562988281,23.57839584350586,2,192.168.1.118,10.97.20.126,3,0
2015-02-21 18:58:00.692,82,1424570269.491925,39.63827111267615,-106.3701769152159,2518.4,-1,-1,10,65,-9999,1424570280.644455,-25.26025009155273,35.52749633789062,25.45560455322266,267.5260620117188,258.3999938964844,10,22148.21569075,0.1338958740234375,0.756744384765625,0.999908447265625,22148.19719375,-0.8802319982346249,-0.06625864897284442,-0.08481928387404267,22148.19719375,0.7923120696155886,-3.051837539769167,-0.7464820053240272,-0.8884803652763367,-0.054865512996912,-0.04831252619624138,0.1655306667089462,0.04123066738247871,0.2301456481218338,XTrueNorthZVertical,0.3438543630196267,-0.8644813166048511,0.3521753452002002,-0.1020235091810037,-0.06579922139644623,0.6790604591369629,0.7311275601387024,-24.73696708679199,32.5855712890625,25.5984001159668,2,192.168.1.118,10.97.20.126,3,0
2015-02-21 18:58:00.737,83,1424570269.491925,39.63827111267615,-106.3701769152159,2518.4,-1,-1,10,65,-9999,1424570280.697204,-24.62916946411133,34.18585205078125,27.7686767578125,288.7924194335938,279.6663513183594,10,22148.264896,0.1378326416015625,0.8332061767578125,1.106964111328125,22148.248973375,-0.09687488149661336,-0.1041716765673215,-0.8081847023163843,22148.248973375,0.8206437216810168,-3.037273570061632,-0.721938023285158,-0.1051231995224953,-0.09277866035699844,-0.7716782689094543,0.2284819036722183,0.1588311791419983,0.3383771777153015,XTrueNorthZVertical,0.3558045934148854,-0.8640754021818869,0.3428807901030267,-0.09596663142144178,-0.07815230637788773,0.6608404517173767,0.746446430683136,-24.69352531433105,31.86951065063477,26.52506637573242,2,192.168.1.118,10.97.20.126,3,0
2015-02-21 18:58:00.792,84,1424570269.491925,39.63827111267615,-106.3701769152159,2518.4,-1,-1,10,65,-9999,1424570280.748641,-25.31142044067383,33.37063598632812,29.09992980957031,288.2586669921875,279.1325988769531,10,22148.31383558334,0.0794219970703125,0.984649658203125,1.233749389648438,22148.300753,0.8025574429330469,0.1509370516252219,-1.580745097679106,22148.248973375,0.8206437216810168,-3.037273570061632,-0.721938023285158,-0.1051231995224953,-0.09277866035699844,-0.7716782689094543,0.2284819036722183,0.1588311791419983,0.3383771777153015,XTrueNorthZVertical,0.3558045934148854,-0.8640754021818869,0.3428807901030267,-0.09596663142144178,-0.07815230637788773,0.6608404517173767,0.746446430683136,-24.69352531433105,31.86951065063477,26.52506637573242,2,192.168.1.118,10.97.20.126,3,0
2015-02-21 18:58:00.834,85,1424570269.491925,39.63827111267615,-106.3701769152159,2518.4,-1,-1,10,65,-9999,1424570280.800221,-27.20464706420898,32.640380859375,28.450927734375,284.1989440917969,275.0728759765625,10,22148.36303029167,0.117156982421875,1.102264404296875,1.425582885742188,22148.35253275,1.603350541643916,1.049836477520757,-2.554086001312863,22148.35253275,1.057915733085708,-2.844864689581663,-0.7701389742223841,1.595102310180664,1.061229348182678,-2.517580270767212,0.2832020819187164,0.2964407801628113,0.6745480895042419,XTrueNorthZVertical,0.414606507578056,-0.8193434034423119,0.3898585025534594,-0.06919695813579774,-0.2098836004734039,0.6962350010871887,0.6864443421363831,-29.0511417388916,29.17549514770508,25.17610931396484,2,192.168.1.118,10.97.20.126,3,0
2015-02-21 18:58:00.919,86,1424570269.491925,39.63827111267615,-106.3701769152159,2518.4,-1,-1,10,65,-9999,1424570280.85191,-30.37710952758789,31.89309692382812,26.45404052734375,274.3240051269531,265.1979370117188,10,22148.41196829167,0.24395751953125,1.03271484375,1.259567260742188,22148.40431220833,2.745276732814633,2.219703489584149,-3.29512974938726,22148.35253275,1.057915733085708,-2.844864689581663,-0.7701389742223841,1.595102310180664,1.061229348182678,-2.517580270767212,0.2832020819187164,0.2964407801628113,0.6745480895042419,XTrueNorthZVertical,0.414606507578056,-0.8193434034423119,0.3898585025534594,-0.06919695813579774,-0.2098836004734039,0.6962350010871887,0.6864443421363831,-29.0511417388916,29.17549514770508,25.17610931396484,2,192.168.1.118,10.97.20.126,3,0
2015-02-21 18:58:00.932,87,1424570269.491925,39.63827111267615,-106.3701769152159,2518.4,-1,-1,10,65,-9999,1424570280.903602,-35.28928756713867,30.19485473632812,20.92931365966797,157.4009094238281,148.2748413085938,10,22148.461052125,-0.069671630859375,0.7928314208984375,1.09783935546875,22148.45609179167,3.74636111710429,1.779932236669947,-3.465636507650711,22148.40431220833,1.313452997855845,-2.57713525044535,-0.8062934105536342,2.7370285987854,2.231096029281616,-3.25862455368042,0.6023111343383789,0.3111714422702789,0.6940321326255798,XTrueNorthZVertical,0.4528322464919741,-0.7663853194061148,0.4548175600708001,-0.02715742451044551,-0.3702860176563263,0.7217265367507935,0.5848069787025452,-31.89721298217773,28.04930114746094,22.90893936157227,2,192.168.1.118,10.97.20.126,3,0
2015-02-21 18:58:00.996,88,1424570269.491925,39.63827111267615,-106.3701769152159,2518.4,-1,-1,10,65,-9999,1424570280.95516,-40.98605728149414,26.86618041992188,13.67394256591797,163.2772521972656,154.1511840820312,10,22148.51008354167,-0.684234619140625,0.6106109619140625,0.248321533203125,22148.50787141667,3.15275529329886,1.049997865082816,-3.421679702278408,22148.45609179167,1.663847398438406,-2.211790082953088,-0.8181645935941282,3.738112926483154,1.791324853897095,-3.429131507873535,0.5647067427635193,0.08005933463573456,0.7448453903198242,XTrueNorthZVertical,0.4861489895128829,-0.6841356374644829,0.5435221953879333,0.01418635211485671,-0.5478762984275818,0.7298924326896667,0.4087648093700409,-40.74565887451172,22.92554664611816,11.96767997741699,2,192.168.1.118,10.97.20.126,3,0
2015-02-21 18:58:01.030,89,1424570269.491925,39.63827111267615,-106.3701769152159,2518.4,-1,-1,10,65,-9999,1424570281.00818,-45.30126571655273,21.68643188476562,6.634895324707031,167.801025390625,158.6749572753906,10,22148.55925075,-0.91009521484375,0.3712615966796875,-0.10223388671875,22148.55965120834,2.254584241961461,1.767847077959277,-2.87673675580756,22148.50787141667,1.989125953910787,-1.912371587971809,-0.746861416446531,3.14450740814209,1.061390280723572,-3.385175228118896,0.07686731964349747,-0.03570795804262161,0.1453637629747391,XTrueNorthZVertical,0.5232342495444043,-0.5908732506132761,0.6125997436097522,0.04261825737459932,-0.6914303302764893,0.6793389320373535,0.2458105534315109,-44.54642105102539,17.73798561096191,5.476782321929932,2,192.168.1.118,10.97.20.126,3,0
2015-02-21 18:58:01.093,90,1424570269.491925,39.63827111267615,-106.3701769152159,2518.4,-1,-1,10,65,-9999,1424570281.058941,-47.48446273803711,15.09707641601562,0.4112472534179688,172.2916259765625,163.1655578613281,10,22148.60818204167,-0.784454345703125,0.2704315185546875,-0.2047576904296875,22148.55965120834,2.254584241961461,1.767847077959277,-2.87673675580756,22148.55965120834,2.206718422360323,-1.701575148903477,-0.628107103633613,2.246336460113525,1.779239416122437,-2.840232372283936,-0.1078634634613991,-0.2163525968790054,-0.2077510505914688,XTrueNorthZVertical,0.5465390914151966,-0.5040373052386137,0.6645129593444733,0.0752594397074237,-0.8022317290306091,0.5876141786575317,0.1055171638727188,-46.26618957519531,13.50518417358398,2.462597846984863,2,192.168.1.118,10.97.20.126,3,0
2015-02-21 18:58:01.128,91,1424570269.491925,39.63827111267615,-106.3701769152159,2518.4,-1,-1,10,65,-9999,1424570281.111692,-47.80852127075195,8.252960205078125,-4.697463989257812,178.0790710449219,168.9530029296875,10,22148.65729416667,-0.6650848388671875,0.093536376953125,-0.15106201171875,22148.663210375,0.4431284337843556,0.8363505603211713,-2.054883911828562,22148.61143058334,2.313296354622095,-1.557070626789812,-0.5057614757560402,1.168758988380432,1.500666260719299,-2.409258842468262,0.09026911109685898,-0.2140422016382217,-0.1927507519721985,XTrueNorthZVertical,0.5507449389561178,-0.4366652486015359,0.7017279646338968,0.1165391627210635,-0.8747234344482422,0.4844737350940704,-0.01200694590806961,-47.89859008789062,3.28758430480957,-4.892002105712891,2,192.168.1.118,10.97.20.126,3,0
2015-02-21 18:58:01.196,92,1424570269.491925,39.63827111267615,-106.3701769152159,2518.4,-1,-1,10,65,-9999,1424570281.163215,-47.19450759887695,2.27496337890625,-8.192008972167969,185.361572265625,176.2355194091797,10,22148.70628541667,-0.7438201904296875,0.0032196044921875,-0.0726776123046875,22148.663210375,0.4431284337843556,0.8363505603211713,-2.054883911828562,22148.663210375,2.346596160553666,-1.487959679708122,-0.3925469761845445,0.434918075799942,0.8477106094360352,-2.018316984176636,0.2556847631931305,-0.2890065312385559,-0.07461360841989517,XTrueNorthZVertical,0.5568851204841626,-0.3894287602223759,0.7165123185318756,0.1575891512955662,-0.9207695722579956,0.3825429081916809,-0.07644840329885483,-47.58271789550781,-2.06043815612793,-7.788088798522949,2,192.168.1.118,10.97.20.126,3,0
2015-02-21 18:58:01.226,93,1424570269.491925,39.63827111267615,-106.3701769152159,2518.4,-1,-1,10,65,-9999,1424570281.215315,-46.37581253051758,-2.853851318359375,-10.02249145507812,189.6343078613281,180.5082397460938,10,22148.75544345834,-0.7441253662109375,0.036346435546875,-0.097564697265625,22148.714989875,0.2277466122047422,0.5485984013830907,-1.665591545796267,22148.714989875,2.354343691966836,-1.451236017984014,-0.3023377298740996,0.2195363342761993,0.5599583387374878,-1.629024982452393,0.2040078490972519,-0.2945331037044525,0.0411880761384964,XTrueNorthZVertical,0.5626516420717609,-0.3556547278540749,0.7213287609376031,0.1913575260923777,-0.9478280544281006,0.29775270819664,-0.1138656884431839,-47.14197540283203,-5.089175224304199,-8.986079216003418,2,192.168.1.118,10.97.20.126,3,0
2015-02-21 18:58:01.290,94,1424570269.491925,39.63827111267615,-106.3701769152159,2518.4,-1,-1,10,65,-9999,1424570281.26608,-45.48888778686523,-6.386322021484375,-11.55343627929688,194.3139343261719,185.1878814697266,10,22148.80435954167,-0.756195068359375,-0.0445556640625,-0.1470794677734375,22148.766769375,0.1543301851700919,0.562993586023296,-1.068896987758563,22148.766769375,2.354464729398733,-1.424584573603019,-0.2342260216360525,0.1461199969053268,0.5743533968925476,-1.032330870628357,0.1888934969902039,-0.2218515574932098,0.04576589167118073,XTrueNorthZVertical,0.565555408495418,-0.3305911402665286,0.7234991928839269,0.2177281233881868,-0.9623157382011414,0.2320902049541473,-0.1417131572961807,-45.73801803588867,-10.87569236755371,-10.89807891845703,2,192.168.1.118,10.97.20.126,3,0
2015-02-21 18:58:01.323,95,1424570269.491925,39.63827111267615,-106.3701769152159,2518.4,-1,-1,10,65,-9999,1424570281.319825,-44.27789688110352,-8.373321533203125,-12.56851959228516,196.4622497558594,187.3361968994141,10,22148.85352841667,-0.8116912841796875,-0.1555938720703125,-0.2126617431640625,22148.81854904167,0.05382062141773835,0.3771456883004434,-0.5943120941265189,22148.81854904167,2.352309738309422,-1.397641423474145,-0.1971320541363056,0.04561052098870277,0.3885053992271423,-0.5577462911605835,0.2134809046983719,-0.2485768496990204,0.01262776274234056,XTrueNorthZVertical,0.5620174736944582,-0.315688661298673,0.7276625494576772,0.234487275614866,-0.9659680724143982,0.1958577334880829,-0.1689540594816208,-44.94232177734375,-12.81864452362061,-12.03681468963623,2,192.168.1.118,10.97.20.126,3,0
2015-02-21 18:58:01.395,96,1424570269.491925,39.63827111267615,-106.3701769152159,2518.4,-1,-1,10,65,-9999,1424570281.370429,-43.59564590454102,-9.6640625,-13.36727142333984,198.4094848632812,189.2834167480469,10,22148.90243775,-0.859893798828125,-0.2381439208984375,-0.3101959228515625,22148.87032866667,0.09787702901481019,0.2117447424788921,-0.5021448824888385,22148.87032866667,2.350384649651373,-1.386123070717259,-0.1724691386635582,0.08966699987649918,0.2231043428182602,-0.4655794203281403,0.1438276618719101,-0.3540799617767334,-0.06441444903612137,XTrueNorthZVertical,0.5618255700910787,-0.3064334811987703,0.7284439950534484,0.244581144779778,-0.9684126377105713,0.1716153770685196,-0.1809010952711105,-44.55874252319336,-13.61419486999512,-12.57724857330322,2,192.168.1.118,10.97.20.126,3,0
2015-02-21 18:58:01.423,97,1424570269.491925,39.63827111267615,-106.3701769152159,2518.4,-1,-1,10,65,-9999,1424570281.370429,-43.59564590454102,-9.6640625,-13.36727142333984,198.4094848632812,189.2834167480469,10,22148.951598375,-0.7935333251953125,-0.333404541015625,-0.3756561279296875,22148.92210825,0.06315846314788318,0.2748113265691676,-0.4082639266896922,22148.92210825,2.35118801315562,-1.372366782362353,-0.1507689260405362,0.05494852364063263,0.2861708104610443,-0.3716988861560822,0.1335320025682449,-0.401358038187027,-0.153937503695488,XTrueNorthZVertical,0.5606577262347917,-0.297011912287488,0.7303774542556912,0.2529736195861462,-0.9692558646202087,0.1501983851194382,-0.1948936730623245,-43.82768249511719,-15.22378540039062,-13.2810115814209,2,192.168.1.118,10.97.20.126,3,0
2015-02-21 18:58:01.495,98,1424570269.491925,39.63827111267615,-106.3701769152159,2518.4,-1,-1,10,65,-9999,1424570281.473822,-43.04984664916992,-11.70199584960938,-14.33242797851562,202.2448425292969,193.1187744140625,10,22149.00051804167,-0.7902374267578125,-0.4302520751953125,-0.452545166015625,22148.973888,-0.051523378661436,0.1906722140375312,0.001394431146765489,22148.973888,2.34762824294247,-1.358900737527703,-0.1444885536548847,-0.05973323434591293,0.2020315825939178,0.03795910254120827,0.1813749969005585,-0.4952741861343384,-0.2222064286470413,XTrueNorthZVertical,0.5562770321809002,-0.2941001406581467,0.733086127790663,0.2581583620430254,-0.9674467444419861,0.1439863294363022,-0.2081219404935837,-43.45262908935547,-15.78165245056152,-13.85003471374512,2,192.168.1.118,10.97.20.126,3,0
2015-02-21 18:58:01.520,99,1424570269.491925,39.63827111267615,-106.3701769152159,2518.4,-1,-1,10,65,-9999,1424570281.473822,-43.04984664916992,-11.70199584960938,-14.33242797851562,202.2448425292969,193.1187744140625,10,22149.04956825,-0.798736572265625,-0.4463043212890625,-0.459716796875,22149.0256675,-0.02110581795498697,-0.1487260952882381,0.146907422579823,22149.0256675,2.347143245729418,-1.359002552537356,-0.151349794151721,-0.02931559644639492,-0.1373668164014816,0.183471754193306,0.1434965580701828,-0.608978807926178,-0.2562851905822754,XTrueNorthZVertical,0.5550665517902317,-0.2966406722030094,0.7336450711901962,0.2562623345635474,-0.9664793610572815,0.1507726311683655,-0.2078108638525009,-43.37055587768555,-15.72586536407471,-14.1671028137207,2,192.168.1.118,10.97.20.126,3,0
2015-02-21 18:58:01.563,100,1424570269.491925,39.63827111267615,-106.3701769152159,2518.4,-1,-1,10,65,-9999,1424570281.525974,-42.98161697387695,-11.49819946289062,-14.56539916992188,203.3607482910156,194.2346801757812,10,22149.09859470834,-0.8013763427734375,-0.32672119140625,-0.4306488037109375,22149.07744716667,-0.2147439944985394,-0.3689130584226814,0.6213032317744719,22149.0256675,2.347143245729418,-1.359002552537356,-0.151349794151721,-0.02931559644639492,-0.1373668164014816,0.183471754193306,0.1434965580701828,-0.608978807926178,-0.2562851905822754,XTrueNorthZVertical,0.5550665517902317,-0.2966406722030094,0.7336450711901962,0.2562623345635474,-0.9664793610572815,0.1507726311683655,-0.2078108638525009,-43.37055587768555,-15.72586536407471,-14.1671028137207,2,192.168.1.118,10.97.20.126,3,0
2015-02-21 18:58:01.618,101,1424570269.491925,39.63827111267615,-106.3701769152159,2518.4,-1,-1,10,65,-9999,1424570281.577258,-43.35685348510742,-10.17355346679688,-14.09947204589844,201.8005676269531,192.6744995117188,10,22149.14764904167,-0.7585601806640625,-0.19476318359375,-0.3348541259765625,22149.12922666667,-0.6461718300336319,-0.6522486310089747,1.235941902921021,22149.12922666667,2.331854231652119,-1.400263832200228,-0.2253456152180508,-0.6543813943862915,-0.640889585018158,1.272505402565002,0.17555932700634,-0.4919368922710419,-0.2273905724287033,XTrueNorthZVertical,0.5546032797069766,-0.3312204483200397,0.7270078743429655,0.232739784556138,-0.9605782628059387,0.2234432548284531,-0.1654164344072342,-44.50504684448242,-13.1920690536499,-13.20170402526855,2,192.168.1.118,10.97.20.126,3,0
2015-02-21 18:58:01.692,102,1424570269.491925,39.63827111267615,-106.3701769152159,2518.4,-1,-1,10,65,-9999,1424570281.680689,-45.65944290161133,-3.94085693359375,-11.48686218261719,195.3297729492188,186.2037200927734,10,22149.196673625,-0.6912078857421875,-0.0057373046875,-0.1706695556640625,22149.18100641667,-0.9657016260468649,-0.9624712116445988,1.803353673192758,22149.18100641667,2.301099277641989,-1.449937953507183,-0.3098145458909465,-0.9739111661911011,-0.9511122703552246,1.839916825294495,0.2158287018537521,-0.3833732306957245,-0.1220226064324379,XTrueNorthZVertical,0.5510469309747063,-0.3727400204473699,0.7169482674844831,0.2083203751202166,-0.9454429745674133,0.3048820197582245,-0.1148243173956871,-45.20433807373047,-11.27300834655762,-12.58975982666016,2,192.168.1.118,10.97.20.126,3,0
2015-02-21 18:58:01.716,103,1424570269.491925,39.63827111267615,-106.3701769152159,2518.4,-1,-1,10,65,-9999,1424570281.680689,-45.65944290161133,-3.94085693359375,-11.48686218261719,195.3297729492188,186.2037200927734,10,22149.245742125,-0.6014862060546875,0.12933349609375,-0.059478759765625,22149.23278595833,-1.199296007373203,-1.080938204311248,2.226324640686304,22149.23278595833,2.250930353377343,-1.519193139612731,-0.4181903411237631,-1.207505464553833,-1.069579362869263,2.262887477874756,0.2883566319942474,-0.3201088607311249,-0.0496206060051918,XTrueNorthZVertical,0.5430940563069092,-0.4260060533861,0.7017121815154407,0.1765438832537883,-0.9126089811325073,0.4061073958873749,-0.0471353754401207,-47.04734802246094,-4.150866508483887,-9.91624927520752,2,192.168.1.118,10.97.20.126,3,0
2015-02-21 18:58:01.762,104,1424570269.491925,39.63827111267615,-106.3701769152159,2518.4,-1,-1,10,65,-9999,1424570281.732726,-47.05805587768555,1.12005615234375,-9.157157897949219,191.6460876464844,182.5200347900391,10,22149.29477441667,-0.5601959228515625,0.29730224609375,0.0222320556640625,22149.284565625,-1.200839042908795,-1.213201703005052,2.394799673354134,22149.23278595833,2.250930353377343,-1.519193139612731,-0.4181903411237631,-1.207505464553833,-1.069579362869263,2.262887477874756,0.2883566319942474,-0.3201088607311249,-0.0496206060051918,XTrueNorthZVertical,0.5430940563069092,-0.4260060533861,0.7017121815154407,0.1765438832537883,-0.9126089811325073,0.4061073958873749,-0.0471353754401207,-47.04734802246094,-4.150866508483887,-9.91624927520752,2,192.168.1.118,10.97.20.126,3,0
2015-02-21 18:58:01.814,105,1424570269.491925,39.63827111267615,-106.3701769152159,2518.4,-1,-1,10,65,-9999,1424570281.78429,-47.74029922485352,7.40374755859375,-6.428077697753906,187.8180541992188,178.6919860839844,10,22149.34386308333,-0.512176513671875,0.45635986328125,0.0827178955078125,22149.33634508333,-1.270234363013535,-1.305765459329045,2.463314286086384,22149.33634508333,2.094553628446251,-1.719461176742424,-0.6543444799657947,-1.278443574905396,-1.294406771659851,2.499876499176025,0.2714658081531525,-0.2058224827051163,-0.0605778768658638,XTrueNorthZVertical,0.5165268712580661,-0.5403349234983037,0.6569750680279984,0.09809159813674774,-0.7846952080726624,0.6086392402648926,0.1175236776471138,-47.65216827392578,4.961240768432617,-5.802728652954102,2,192.168.1.118,10.97.20.126,3,0
2015-02-21 18:58:01.863,106,1424570269.491925,39.63827111267615,-106.3701769152159,2518.4,-1,-1,10,65,-9999,1424570281.83636,-47.00687789916992,13.43264770507812,-2.617340087890625,181.7748107910156,172.6487579345703,10,22149.39289341667,-0.6845855712890625,0.8832550048828125,0.45721435546875,22149.33634508333,-1.270234363013535,-1.305765459329045,2.463314286086384,22149.33634508333,2.094553628446251,-1.719461176742424,-0.6543444799657947,-1.278443574905396,-1.294406771659851,2.499876499176025,0.2714658081531525,-0.2058224827051163,-0.0605778768658638,XTrueNorthZVertical,0.5165268712580661,-0.5403349234983037,0.6569750680279984,0.09809159813674774,-0.7846952080726624,0.6086392402648926,0.1175236776471138,-47.65216827392578,4.961240768432617,-5.802728652954102,2,192.168.1.118,10.97.20.126,3,0
2015-02-21 18:58:01.913,107,1424570269.491925,39.63827111267615,-106.3701769152159,2518.4,-1,-1,10,65,-9999,1424570281.887935,-45.77882766723633,19.92013549804688,1.942230224609375,177.4468994140625,168.3208312988281,10,22149.44206691667,-0.47332763671875,0.8953094482421875,0.7395782470703125,22149.43990429167,-2.40169965742242,-2.019703287512506,2.78917068758521,22149.38812479167,1.96329351899705,-1.882728623774988,-0.7620445092747989,-1.765765070915222,-1.728871583938599,2.57654857635498,0.02774859964847565,0.1177493035793304,0.1578188389539719,XTrueNorthZVertical,0.5022439798758436,-0.5989658444613986,0.6213735580246548,0.053720044246782,-0.6885151863098145,0.6904019117355347,0.2220181971788406,-46.15248870849609,14.10499858856201,-0.1077909469604492,2,192.168.1.118,10.97.20.126,3,0
2015-02-21 18:58:01.963,108,1424570269.491925,39.63827111267615,-106.3701769152159,2518.4,-1,-1,10,65,-9999,1424570281.939999,-43.6297492980957,25.21875,8.498687744140625,171.3210754394531,162.1950073242188,10,22149.4909995,-0.17803955078125,1.096527099609375,1.022994995117188,22149.49168404167,-2.180693239620559,-1.971812726894047,3.172876274282736,22149.43990429167,1.739483058189749,-2.138172757139033,-0.8360971347653545,-2.409908771514893,-2.008345127105713,2.825732231140137,0.01106703281402588,0.1768060624599457,0.3151470422744751,XTrueNorthZVertical,0.4863528189828579,-0.6660292286599742,0.5654502009720002,0.01149400616536952,-0.5653272867202759,0.7420324087142944,0.3602679967880249,-44.01538848876953,19.15338706970215,4.980760097503662,2,192.168.1.118,10.97.20.126,3,0
2015-02-21 18:58:02.011,109,1424570269.491925,39.63827111267615,-106.3701769152159,2518.4,-1,-1,10,65,-9999,1424570281.991067,-39.60449600219727,30.07589721679688,14.98857116699219,165.1419372558594,156.0158843994141,10,22149.540177125,-0.075958251953125,1.312973022460938,1.3797607421875,22149.54346358333,-1.938693389261713,-1.046112046736281,2.499548190613566,22149.49168404167,1.44839918425486,-2.458560835611173,-0.8744486486059405,-2.188902139663696,-1.96045446395874,3.209437370300293,0.2267911583185196,0.3293371200561523,0.5254693627357483,XTrueNorthZVertical,0.459326615811629,-0.7333361302655772,0.4998629910629754,-0.037070340417876,-0.4048307240009308,0.7671899795532227,0.4975256323814392,-41.85002136230469,22.27176666259766,9.031007766723633,2,192.168.1.118,10.97.20.126,3,0
2015-02-21 18:58:02.062,110,1424570269.491925,39.63827111267615,-106.3701769152159,2518.4,-1,-1,10,65,-9999,1424570282.042271,-34.69231033325195,32.79312133789062,21.17893981933594,155.6384582519531,146.5123901367188,10,22149.58921941667,0.3706817626953125,0.8563079833984375,1.1971435546875,22149.54346358333,-1.938693389261713,-1.046112046736281,2.499548190613566,22149.54346358333,1.173709735602535,-2.748713489647355,-0.8612383917430626,-1.946902394294739,-1.034753918647766,2.536108732223511,0.1734678447246552,0.5543230772018433,0.777899444103241,XTrueNorthZVertical,0.4256721490822696,-0.7872317704624077,0.4391186041783441,-0.07902058246902935,-0.2494260966777802,0.7586499452590942,0.601861298084259,-33.89622497558594,28.82766342163086,18.68224716186523,2,192.168.1.118,10.97.20.126,3,0
2015-02-21 18:58:02.109,111,1424570269.491925,39.63827111267615,-106.3701769152159,2518.4,-1,-1,10,65,-9999,1424570282.095548,-31.41752243041992,33.47244262695312,24.83990478515625,154.0951232910156,144.9690704345703,10,22149.63824358333,0.4547271728515625,0.9457855224609375,1.298126220703125,22149.64702266667,1.066038084328363,0.5197576983580776,-0.8174602260770213,22149.595243,1.011460602105704,-2.885571527902389,-0.8000053109707093,-1.381531834602356,0.1369391232728958,0.9031100273132324,0.5471101999282837,0.1389481872320175,0.5231494307518005,XTrueNorthZVertical,0.3990625078521028,-0.8232534063343273,0.3948489835810777,-0.08424526022087885,-0.1764284521341324,0.7173597812652588,0.6739941239356995,-30.21318817138672,30.2132568359375,22.4351806640625,2,192.168.1.118,10.97.20.126,3,0
2015-02-21 18:58:02.148,112,1424570269.491925,39.63827111267615,-106.3701769152159,2518.4,-1,-1,10,65,-9999,1424570282.095548,-31.41752243041992,33.47244262695312,24.83990478515625,154.0951232910156,144.9690704345703,10,22149.68723370833,0.3839263916015625,1.159576416015625,1.314590454101562,22149.64702266667,1.066038084328363,0.5197576983580776,-0.8174602260770213,22149.64702266667,1.017117476072235,-2.859199935353632,-0.8047369893294061,1.0578293800354,0.5311155915260315,-0.7809002995491028,0.6479185223579407,0.2251372039318085,0.6322859525680542,XTrueNorthZVertical,0.3954383564535948,-0.8225257625776774,0.4016874228331215,-0.07567780650859048,-0.193191334605217,0.7206483483314514,0.6658402681350708,-29.37274932861328,30.10463714599609,23.66362380981445,2,192.168.1.118,10.97.20.126,3,0
2015-02-21 18:58:02.208,113,1424570269.491925,39.63827111267615,-106.3701769152159,2518.4,-1,-1,10,65,-9999,1424570282.199367,-33.61777877807617,33.25167846679688,22.52684783935547,154.4094848632812,145.2834167480469,10,22149.73640729167,0.155517578125,1.22174072265625,1.320037841796875,22149.69880229167,1.785186120868455,0.696225410089453,-1.966906917850012,22149.69880229167,1.151661188832419,-2.729971820679313,-0.8446839062274084,1.77701210975647,0.7075533866882324,-1.930287599563599,0.6265360116958618,0.4472460448741913,0.7100793719291687,XTrueNorthZVertical,0.4159435543132068,-0.7945095392830088,0.4380448457880758,-0.06214744251435747,-0.2656503915786743,0.7477612495422363,0.6085088849067688,-31.87370681762695,29.77091026306152,20.65852165222168,2,192.168.1.118,10.97.20.126,3,0
2015-02-21 18:58:02.246,114,1424570269.491925,39.63827111267615,-106.3701769152159,2518.4,-1,-1,10,65,-9999,1424570282.199367,-33.61777877807617,33.25167846679688,22.52684783935547,154.4094848632812,145.2834167480469,10,22149.78544420833,-0.1443939208984375,1.071578979492188,1.198959350585938,22149.750581875,2.99029634153352,1.139416428159425,-3.081146886328265,22149.750581875,1.416158316491939,-2.477551400185574,-0.88581336654473,2.982122421264648,1.150744318962097,-3.044528007507324,0.5266603231430054,0.4412836730480194,0.7813010215759277,XTrueNorthZVertical,0.4494156448294125,-0.739687742804949,0.4993031842630874,-0.03979938982448931,-0.3899110853672028,0.7744297981262207,0.4982247650623322,-35.37662124633789,28.24181747436523,16.73049163818359,2,192.168.1.118,10.97.20.126,3,0
2015-02-21 18:58:02.305,115,1424570269.491925,39.63827111267615,-106.3701769152159,2518.4,-1,-1,10,65,-9999,1424570282.250476,-37.33602523803711,31.31564331054688,17.36820983886719,158.5521850585938,149.4261169433594,10,22149.83440925,-0.6141815185546875,0.6188812255859375,0.3731231689453125,22149.8023615,3.452688751062964,1.388483242786906,-3.613021168697876,22149.8023615,1.794414321396229,-2.12205716701372,-0.872277048618218,3.444514989852905,1.399811029434204,-3.57640266418457,0.2479248642921448,0.2626013457775116,0.790526807308197,XTrueNorthZVertical,0.4897627437387871,-0.6546327105199364,0.5757059488934166,-0.01229510026328864,-0.5478211045265198,0.7657952308654785,0.3368230760097504,-38.32124328613281,26.25492858886719,13.08341217041016,2,192.168.1.118,10.97.20.126,3,0
2015-02-21 18:58:02.344,116,1424570269.491925,39.63827111267615,-106.3701769152159,2518.4,-1,-1,10,65,-9999,1424570282.302861,-41.7194709777832,27.46054077148438,11.12792205810547,161.3754272460938,152.2493591308594,10,22149.88354275,-0.9152679443359375,0.567108154296875,-0.0878753662109375,22149.85414120834,3.153034126264992,1.389323203794717,-3.57947812213611,22149.85414120834,2.119848391680965,-1.814373734483168,-0.7662162859241703,3.144860506057739,1.400650858879089,-3.542859792709351,0.01115989685058594,-0.1455928534269333,0.06444338709115982,XTrueNorthZVertical,0.5247952491706951,-0.5581024644309009,0.6423450254329266,0.02246094086572364,-0.6992702484130859,0.6934139132499695,0.1737768352031708,-45.00068664550781,17.12065315246582,3.291842937469482,2,192.168.1.118,10.97.20.126,3,0
2015-02-21 18:58:02.403,117,1424570269.491925,39.63827111267615,-106.3701769152159,2518.4,-1,-1,10,65,-9999,1424570282.354383,-45.57415390014648,21.14285278320312,4.138809204101562,163.5382080078125,154.4121551513672,10,22149.932498,-0.6695709228515625,0.41217041015625,-0.23876953125,22149.905920625,2.052641530190715,1.851139837896486,-2.900494549576048,22149.905920625,2.315155056874604,-1.605166491019141,-0.6267066948130109,2.044467926025391,1.862467288970947,-2.863876819610596,-0.003686340758576989,-0.05353676155209541,-0.2257853597402573,XTrueNorthZVertical,0.5405436694874942,-0.4708811832113639,0.6943974137001209,0.06241573872046526,-0.8094850182533264,0.5864804983139038,0.02783309482038021,-47.15476989746094,10.13922882080078,-1.624382495880127,2,192.168.1.118,10.97.20.126,3,0
2015-02-21 18:58:02.443,118,1424570269.491925,39.63827111267615,-106.3701769152159,2518.4,-1,-1,10,65,-9999,1424570282.406323,-47.16038131713867,13.72134399414062,-2.034904479980469,164.5978698730469,155.4718170166016,10,22149.98163920833,-0.6007537841796875,0.1306304931640625,-0.1356353759765625,22149.95770045833,0.9286727679342942,1.139553314639456,-2.339854665324164,22149.95770045833,2.395143137745158,-1.487025875751907,-0.4976199056008409,0.9204992055892944,1.150880694389343,-2.303237199783325,0.249083399772644,-0.2239632606506348,-0.1103893741965294,XTrueNorthZVertical,0.5447779909398479,-0.4079884030279829,0.7250886154800555,0.10492351119941,-0.875639796257019,0.4773354530334473,-0.07352481037378311,-47.67560195922852,5.807102203369141,-4.7253737449646,2,192.168.1.118,10.97.20.126,3,0
2015-02-21 18:58:02.501,119,1424570269.491925,39.63827111267615,-106.3701769152159,2518.4,-1,-1,10,65,-9999,1424570282.457967,-47.46738815307617,6.38470458984375,-6.294944763183594,174.3443298339844,165.21826171875,10,22150.03060766667,-0.7132415771484375,0.004791259765625,-0.0770721435546875,22150.00947991667,0.3743624186452016,0.4345794203690923,-2.051957097790565,22150.00947991667,2.412908847063932,-1.440607161211647,-0.3892206959042974,0.3661889135837555,0.4459067285060883,-2.015340089797974,0.2724321782588959,-0.3263669312000275,-0.01453184708952904,XTrueNorthZVertical,0.5528880087199136,-0.3664136950398949,0.7344659165023215,0.14358172347594,-0.9173754453659058,0.3794675171375275,-0.1201117113232613,-47.30368041992188,-3.040946960449219,-9.0625,2,192.168.1.118,10.97.20.126,3,0
2015-02-21 18:58:02.540,120,1424570269.491925,39.63827111267615,-106.3701769152159,2518.4,-1,-1,10,65,-9999,1424570282.51031,-46.83630752563477,0.355804443359375,-8.741127014160156,182.0871887207031,172.9611206054688,10,22150.079639125,-0.5969390869140625,-0.01068115234375,-0.12396240234375,22150.061259625,0.3179595962345224,0.6528217432755596,-1.716089873754131,22150.061259625,2.415467583991369,-1.416515857953392,-0.2945712991665905,0.3097862005233765,0.6641489267349243,-1.679473161697388,0.3092844486236572,-0.259598433971405,0.05998346954584122,XTrueNorthZVertical,0.5619398158100232,-0.3327139653071397,0.7362037854497556,0.1775643176582052,-0.9455606937408447,0.29032963514328,-0.1470501273870468,-46.65943145751953,-7.358031272888184,-9.887964248657227,2,192.168.1.118,10.97.20.126,3,0
2015-02-21 18:58:02.601,121,1424570269.491925,39.63827111267615,-106.3701769152159,2518.4,-1,-1,10,65,-9999,1424570282.563618,-45.88116073608398,-4.5352783203125,-10.33864593505859,189.1907348632812,180.0646667480469,10,22150.12869858334,-0.743865966796875,-0.1495513916015625,-0.1753387451171875,22150.113039125,0.3304767196740038,0.4590560013157925,-1.262302670338952,22150.113039125,2.420236330455207,-1.383539442676955,-0.2238877516729356,0.3223034143447876,0.4703830778598785,-1.225686311721802,0.2872354984283447,-0.2927617430686951,0.05485487729310989,XTrueNorthZVertical,0.5627604419339305,-0.3042065776947987,0.7412053133959231,0.2034054237088442,-0.9579966068267822,0.2220220118761063,-0.181518092751503,-46.02727508544922,-9.820112228393555,-10.68034744262695,2,192.168.1.118,10.97.20.126,3,0
2015-02-21 18:58:02.639,122,1424570269.491925,39.63827111267615,-106.3701769152159,2518.4,-1,-1,10,65,-9999,1424570282.614325,-44.4825553894043,-8.6451416015625,-11.76974487304688,193.2509765625,184.1249084472656,10,22150.17783745833,-0.78668212890625,-0.251708984375,-0.2908935546875,22150.16481875,0.4289692052167313,0.407984294775234,-1.383511121031728,22150.113039125,2.420236330455207,-1.383539442676955,-0.2238877516729356,0.3223034143447876,0.4703830778598785,-1.225686311721802,0.2872354984283447,-0.2927617430686951,0.05485487729310989,XTrueNorthZVertical,0.5627604419339305,-0.3042065776947987,0.7412053133959231,0.2034054237088442,-0.9579966068267822,0.2220220118761063,-0.181518092751503,-46.02727508544922,-9.820112228393555,-10.68034744262695,2,192.168.1.118,10.97.20.126,3,0
2015-02-21 18:58:02.698,123,1424570269.491925,39.63827111267615,-106.3701769152159,2518.4,-1,-1,10,65,-9999,1424570282.665146,-42.8110466003418,-11.87188720703125,-12.43537902832031,196.7279052734375,187.6018524169922,10,22150.22690495833,-0.796661376953125,-0.426666259765625,-0.3855438232421875,22150.21659829167,0.1989538460793506,0.2949655970666692,-1.079335247651129,22150.21659829167,2.428307346788969,-1.342268946200861,-0.09398478269533911,0.1907806694507599,0.3062924742698669,-1.042719602584839,0.1951206028461456,-0.409520298242569,-0.1219905465841293,XTrueNorthZVertical,0.5692561128423547,-0.2513476881903945,0.7432273871990922,0.2457334093466852,-0.9697025418281555,0.09384647756814957,-0.2255436331033707,-43.22587203979492,-17.32563018798828,-12.6633825302124,2,192.168.1.118,10.97.20.126,3,0
2015-02-21 18:58:02.737,124,1424570269.491925,39.63827111267615,-106.3701769152159,2518.4,-1,-1,10,65,-9999,1424570282.717525,-41.54887771606445,-14.89486694335938,-12.93460083007812,199.3522644042969,190.2261962890625,10,22150.27591920834,-0.812774658203125,-0.602996826171875,-0.44561767578125,22150.26837804167,-0.1410575229293549,0.1027804412138641,-0.6885626966849681,22150.21659829167,2.428307346788969,-1.342268946200861,-0.09398478269533911,0.1907806694507599,0.3062924742698669,-1.042719602584839,0.1951206028461456,-0.409520298242569,-0.1219905465841293,XTrueNorthZVertical,0.5692561128423547,-0.2513476881903945,0.7432273871990922,0.2457334093466852,-0.9697025418281555,0.09384647756814957,-0.2255436331033707,-43.22587203979492,-17.32563018798828,-12.6633825302124,2,192.168.1.118,10.97.20.126,3,0
2015-02-21 18:58:02.797,125,1424570269.491925,39.63827111267615,-106.3701769152159,2518.4,-1,-1,10,65,-9999,1424570282.769112,-40.4061164855957,-16.50820922851562,-13.94969940185547,203.2863159179688,194.1602630615234,10,22150.32499379167,-0.7184906005859375,-0.6462249755859375,-0.442474365234375,22150.32015745834,-0.2951347077958893,0.04301191581754275,-0.1877073167959459,22150.26837804167,2.417301953450345,-1.335951490912368,-0.05415986067820974,-0.1492305845022202,0.1141071915626526,-0.6519474387168884,0.1417329758405685,-0.625849723815918,-0.2123817652463913,XTrueNorthZVertical,0.571479822203703,-0.2392391360463734,0.7398287197931844,0.262352727994136,-0.9711244702339172,0.05413338541984558,-0.2323509007692337,-42.53025054931641,-18.76762390136719,-12.96028137207031,2,192.168.1.118,10.97.20.126,3,0
2015-02-21 18:58:02.835,126,1424570269.491925,39.63827111267615,-106.3701769152159,2518.4,-1,-1,10,65,-9999,1424570282.820997,-39.91147994995117,-17.78192138671875,-14.46554565429688,205.1487731933594,196.0227203369141,10,22150.37392358333,-0.75164794921875,-0.57867431640625,-0.432647705078125,22150.37193725,-0.5255458126712558,-0.3826645570274146,0.3518786811422076,22150.32015745834,2.401878877925628,-1.32941972948803,-0.03810850979848133,-0.3033076822757721,0.05433855578303337,-0.1510924398899078,0.2447036802768707,-0.6803722381591797,-0.2026470601558685,XTrueNorthZVertical,0.5695947208939851,-0.2369152920056917,0.737986783891436,0.2735115081017891,-0.9703048467636108,0.03809928521513939,-0.238866001367569,-41.4512825012207,-20.63938903808594,-13.59490871429443,2,192.168.1.118,10.97.20.126,3,0
2015-02-21 18:58:02.896,127,1424570269.491925,39.63827111267615,-106.3701769152159,2518.4,-1,-1,10,65,-9999,1424570282.873943,-40.4061164855957,-17.2894287109375,-14.54875183105469,204.6881408691406,195.5620727539062,10,22150.422997125,-0.7517242431640625,-0.4501495361328125,-0.3802032470703125,22150.42371670833,-0.6355412899103625,-0.6073623824162341,0.9925939604183761,22150.37193725,2.382720837259997,-1.339434336819938,-0.05028493476437329,-0.5337187647819519,-0.3713380098342896,0.3884932398796082,0.2187982648611069,-0.6467756032943726,-0.2032831609249115,XTrueNorthZVertical,0.5691290235858808,-0.2481639687400931,0.7337846920265402,0.275802220436754,-0.9721246957778931,0.05026374757289886,-0.229013592004776,-41.43149566650391,-20.50794219970703,-13.85172462463379,2,192.168.1.118,10.97.20.126,3,0
2015-02-21 18:58:02.932,128,1424570269.491925,39.63827111267615,-106.3701769152159,2518.4,-1,-1,10,65,-9999,1424570282.92407,-41.65121841430664,-15.47225952148438,-14.19927978515625,200.0447998046875,190.9187316894531,10,22150.472033,-0.71856689453125,-0.285369873046875,-0.29217529296875,22150.42371670833,-0.6355412899103625,-0.6073623824162341,0.9925939604183761,22150.42371670833,2.361557054010266,-1.366314993496774,-0.09251151236525405,-0.6437140703201294,-0.5960359573364258,1.029208064079285,0.2232551723718643,-0.5425291657447815,-0.1780122220516205,XTrueNorthZVertical,0.569580463933807,-0.2729149752106761,0.7276691837663828,0.2675688889360113,-0.9749794006347656,0.0923796072602272,-0.202191025018692,-41.79743576049805,-19.83551788330078,-13.73104000091553,2,192.168.1.118,10.97.20.126,3,0
2015-02-21 18:58:02.994,129,1424570269.491925,39.63827111267615,-106.3701769152159,2518.4,-1,-1,10,65,-9999,1424570282.9754,-43.62972640991211,-11.7020263671875,-13.5003662109375,200.176513671875,191.0504608154297,10,22150.52110766667,-0.6975555419921875,-0.0915985107421875,-0.1727142333984375,22150.52727583333,-0.9856945089823078,-1.08141544277859,2.060820097898349,22150.47549625,2.337784562540217,-1.40750686324107,-0.1671803352471556,-0.8378614187240601,-0.918018102645874,1.660298705101013,0.2543743550777435,-0.451772540807724,-0.1318769901990891,XTrueNorthZVertical,0.5685429321533886,-0.310821148669168,0.720351447290433,0.2474731907580393,-0.9729412794113159,0.166402667760849,-0.1602983027696609,-43.77846908569336,-15.89409637451172,-12.64271068572998,2,192.168.1.118,10.97.20.126,3,0
2015-02-21 18:58:03.031,130,1424570269.491925,39.63827111267615,-106.3701769152159,2518.4,-1,-1,10,65,-9999,1424570283.027666,-45.48885726928711,-6.79400634765625,-11.55340576171875,198.0267028808594,188.9006500244141,10,22150.570148375,-0.629364013671875,0.0539093017578125,-0.067352294921875,22150.52727583333,-0.9856945089823078,-1.08141544277859,2.060820097898349,22150.52727583333,2.30344349177625,-1.466673109548772,-0.2684823329674608,-0.9938672184944153,-1.070089221000671,2.097433567047119,0.2613971829414368,-0.3568669557571411,-0.07250257581472397,XTrueNorthZVertical,0.5654680605270863,-0.3607492800371764,0.7090029008129125,0.2177630731649638,-0.9589527249336243,0.2652684450149536,-0.1002116575837135,-45.4002685546875,-11.89364147186279,-11.24151992797852,2,192.168.1.118,10.97.20.126,3,0
2015-02-21 18:58:03.092,131,1424570269.491925,39.63827111267615,-106.3701769152159,2518.4,-1,-1,10,65,-9999,1424570283.080478,-47.09214401245117,-1.019805908203125,-8.99072265625,187.624755859375,178.4987030029297,10,22150.61922645833,-0.6075286865234375,0.2537078857421875,-0.0136566162109375,22150.579055625,-1.083630660173318,-1.102353215268793,2.370996339531005,22150.579055625,2.256207579300215,-1.53517422899594,-0.3859943360984835,-1.091803312301636,-1.091027140617371,2.407609224319458,0.2964728474617004,-0.322571188211441,-0.03435808792710304,XTrueNorthZVertical,0.5566888854601131,-0.4166537899815463,0.6952027826195644,0.1821818735664591,-0.9258368611335754,0.3764804899692535,-0.03299420699477196,-46.38444519042969,-8.709688186645508,-10.08164405822754,2,192.168.1.118,10.97.20.126,3,0
2015-02-21 18:58:03.129,132,1424570269.491925,39.63827111267615,-106.3701769152159,2518.4,-1,-1,10,65,-9999,1424570283.080478,-47.09214401245117,-1.019805908203125,-8.99072265625,187.624755859375,178.4987030029297,10,22150.66837270834,-0.6043701171875,0.412384033203125,0.0768280029296875,22150.630835125,-1.11194272572195,-1.274506339718131,2.547865922270874,22150.630835125,2.194010505159102,-1.622194254779311,-0.5108845677207107,-1.120115280151367,-1.263180375099182,2.584478616714478,0.2558192312717438,-0.182232141494751,-0.04284692928195,XTrueNorthZVertical,0.5448436043408603,-0.4749243124221753,0.67654060432181,0.141014874754561,-0.8711604475975037,0.4889490604400635,0.0448153130710125,-47.82254791259766,0.4452457427978516,-6.466877937316895,2,192.168.1.118,10.97.20.126,3,0
2015-02-21 18:58:03.193,133,1424570269.491925,39.63827111267615,-106.3701769152159,2518.4,-1,-1,10,65,-9999,1424570283.183874,-48.18375778198242,12.19287109375,-2.134719848632812,174.4883422851562,165.3622741699219,10,22150.71734833334,-0.6327972412109375,0.688018798828125,0.247589111328125,22150.682614625,-1.250124034674019,-1.353795036956406,2.736043553315328,22150.682614625,2.106319724201042,-1.734130535551982,-0.6384399297767713,-1.258263945579529,-1.342496871948242,2.772712230682373,0.2059434354305267,-0.1734427809715271,-0.03673773258924484,XTrueNorthZVertical,0.5285932830469626,-0.5346763359033108,0.652286621647061,0.0960862117157676,-0.7923387289047241,0.5959433913230896,0.1305792927742004,-47.70614624023438,6.353519439697266,-3.573744773864746,2,192.168.1.118,10.97.20.126,3,0
2015-02-21 18:58:03.228,134,1424570269.491925,39.63827111267615,-106.3701769152159,2518.4,-1,-1,10,65,-9999,1424570283.183874,-48.18375778198242,12.19287109375,-2.134719848632812,174.4883422851562,165.3622741699219,10,22150.76649454167,-0.7203369140625,1.09228515625,0.6657867431640625,22150.73439429167,-1.609380204667965,-1.850080166098743,2.743100663887929,22150.73439429167,1.974403922739072,-1.901100122147696,-0.7570380393197427,-1.617520213127136,-1.838782072067261,2.779768943786621,-0.01423126552253962,0.1095999702811241,0.09878651797771454,XTrueNorthZVertical,0.5126273569218429,-0.5958915825011336,0.6163998953826162,0.04666501613521595,-0.687581479549408,0.6867715120315552,0.2357471734285355,-47.11077499389648,10.38026809692383,-1.356414318084717,2,192.168.1.118,10.97.20.126,3,0
2015-02-21 18:58:03.296,135,1424570269.491925,39.63827111267615,-106.3701769152159,2518.4,-1,-1,10,65,-9999,1424570283.236167,-47.00686264038086,18.4595947265625,2.940711975097656,161.2523803710938,152.1263122558594,10,22150.81546570834,-0.1377716064453125,0.8532867431640625,0.861419677734375,22150.78617379167,-2.251069401954775,-1.753666810419041,2.741818618139165,22150.78617379167,1.756664509091708,-2.147903897239457,-0.8352751724051564,-2.259209156036377,-1.742368817329407,2.778486728668213,0.08304240554571152,0.2251478582620621,0.3763315975666046,XTrueNorthZVertical,0.4950294050713594,-0.6618068292383608,0.5629776241478868,0.003720687563418713,-0.5623056888580322,0.7414811849594116,0.3660847842693329,-43.65291213989258,19.48910522460938,6.604000091552734,2,192.168.1.118,10.97.20.126,3,0
2015-02-21 18:58:03.326,136,1424570269.491925,39.63827111267615,-106.3701769152159,2518.4,-1,-1,10,65,-9999,1424570283.287389,-44.39727401733398,24.11489868164062,8.415512084960938,168.6039733886719,159.4779052734375,10,22150.86461266667,-0.3019866943359375,1.61199951171875,1.279754638671875,22150.83795345834,-1.81135540700401,-1.915781948087652,3.184254363723991,22150.83795345834,1.482819597459031,-2.446391310987563,-0.8808709496910166,-1.81949508190155,-1.904484152793884,3.220921993255615,0.3258273601531982,0.2154160887002945,0.4355784058570862,XTrueNorthZVertical,0.4672363241042155,-0.7253099217767435,0.503714819590955,-0.04344140022176243,-0.4076907634735107,0.7712935209274292,0.4887685179710388,-40.0732536315918,24.01898193359375,12.0928783416748,2,192.168.1.118,10.97.20.126,3,0
2015-02-21 18:58:03.397,137,1424570269.491925,39.63827111267615,-106.3701769152159,2518.4,-1,-1,10,65,-9999,1424570283.339396,-39.79209518432617,28.97198486328125,14.87212371826172,164.7918395996094,155.6657867431641,10,22150.91357420833,0.250885009765625,0.958770751953125,1.23553466796875,22150.88973320834,-2.092956995404553,-1.146783796999021,2.27851913594244,22150.88973320834,1.215183543099767,-2.738793521275717,-0.8757174138981323,-2.101096630096436,-1.135486125946045,2.315186500549316,0.01702762953937054,0.8112357258796692,0.8669872283935547,XTrueNorthZVertical,0.4369470240299619,-0.7769633654192409,0.4445074589005312,-0.0884216369931045,-0.251051664352417,0.7680031657218933,0.5891895294189453,-36.83575057983398,26.93486785888672,15.70526313781738,2,192.168.1.118,10.97.20.126,3,0
2015-02-21 18:58:03.424,138,1424570269.491925,39.63827111267615,-106.3701769152159,2518.4,-1,-1,10,65,-9999,1424570283.391308,-35.49393844604492,32.26669311523438,19.83107757568359,159.0718078613281,149.9457397460938,10,22150.96272275,0.4864044189453125,0.818817138671875,1.08001708984375,22150.94151279167,-0.9443633141287141,0.2584459353545216,0.7352119579193411,22150.88973320834,1.215183543099767,-2.738793521275717,-0.8757174138981323,-2.101096630096436,-1.135486125946045,2.315186500549316,0.01702762953937054,0.8112357258796692,0.8669872283935547,XTrueNorthZVertical,0.4369470240299619,-0.7769633654192409,0.4445074589005312,-0.0884216369931045,-0.251051664352417,0.7680031657218933,0.5891895294189453,-36.83575057983398,26.93486785888672,15.70526313781738,2,192.168.1.118,10.97.20.126,3,0
2015-02-21 18:58:03.493,139,1424570269.491925,39.63827111267615,-106.3701769152159,2518.4,-1,-1,10,65,-9999,1424570283.443814,-32.35559463500977,33.38754272460938,23.12594604492188,160.0268859863281,150.9008331298828,10,22151.011689125,0.34674072265625,1.201522827148438,1.27606201171875,22150.99329241667,0.961298888132746,0.1774677287207003,-0.8012921750991502,22150.99329241667,1.080511910365425,-2.836781737647785,-0.8303452827539616,0.9531593322753906,0.1887651830911636,-0.7646256685256958,0.5825130939483643,0.3883615434169769,0.66166752576828,XTrueNorthZVertical,0.4126902774147209,-0.8071235871483,0.4133461598015747,-0.08592579410452593,-0.2024624049663544,0.7381643652915955,0.6435235142707825,-30.13331413269043,29.97071838378906,22.86381912231445,2,192.168.1.118,10.97.20.126,3,0
2015-02-21 18:58:03.521,140,1424570269.491925,39.63827111267615,-106.3701769152159,2518.4,-1,-1,10,65,-9999,1424570283.494913,-32.13386917114258,33.37054443359375,23.37555694580078,155.6728820800781,146.5468139648438,10,22151.06074679167,0.160858154296875,1.186019897460938,1.243392944335938,22151.045071875,1.638147670763,0.6395227157400309,-1.979890360796366,22151.045071875,1.213614340872139,-2.721203471972776,-0.8632595179164444,1.630008220672607,0.6508200764656067,-1.943224191665649,0.500108540058136,0.4316547214984894,0.5881316065788269,XTrueNorthZVertical,0.4348418372565617,-0.7794859893155653,0.4441704276412387,-0.0776327260892727,-0.2652605175971985,0.759965181350708,0.5933716893196106,-30.90511703491211,29.93361854553223,21.86017227172852,2,192.168.1.118,10.97.20.126,3,0
2015-02-21 18:58:03.595,141,1424570269.491925,39.63827111267615,-106.3701769152159,2518.4,-1,-1,10,65,-9999,1424570283.549369,-34.82873916625977,32.69125366210938,21.478515625,156.3717956542969,147.2457427978516,10,22151.109784875,0.033203125,1.162887573242188,1.120956420898438,22151.096851375,2.489693429315837,1.048638055030222,-3.201500994943344,22151.096851375,1.476712544175858,-2.467905189724419,-0.8865552366837692,2.48155403137207,1.059935331344604,-3.164834976196289,0.5606153607368469,0.4123263657093048,0.6713681817054749,XTrueNorthZVertical,0.4690121655782887,-0.7259636716398649,0.5003368406632595,-0.05164708890943422,-0.394340306520462,0.7748989462852478,0.4939913153648376,-36.06759643554688,27.39471817016602,16.66351890563965,2,192.168.1.118,10.97.20.126,3,0
2015-02-21 18:58:03.620,142,1424570269.491925,39.63827111267615,-106.3701769152159,2518.4,-1,-1,10,65,-9999,1424570283.549369,-34.82873916625977,32.69125366210938,21.478515625,156.3717956542969,147.2457427978516,10,22151.15893045834,-0.4793243408203125,0.771484375,0.796478271484375,22151.14863120834,3.059545986726632,1.400641638427554,-3.710479548789325,22151.096851375,1.476712544175858,-2.467905189724419,-0.8865552366837692,2.48155403137207,1.059935331344604,-3.164834976196289,0.5606153607368469,0.4123263657093048,0.6713681817054749,XTrueNorthZVertical,0.4690121655782887,-0.7259636716398649,0.5003368406632595,-0.05164708890943422,-0.394340306520462,0.7748989462852478,0.4939913153648376,-36.06759643554688,27.39471817016602,16.66351890563965,2,192.168.1.118,10.97.20.126,3,0
2015-02-21 18:58:03.694,143,1424570269.491925,39.63827111267615,-106.3701769152159,2518.4,-1,-1,10,65,-9999,1424570283.676718,-44.56782913208008,22.654296875,8.914749145507812,140.1350708007812,131.0090026855469,10,22151.20788904167,-0.9773406982421875,0.53900146484375,0.0716552734375,22151.20041066667,2.672025155451458,1.115378203528152,-3.62062768940336,22151.20041066667,2.119270356858012,-1.863937285418162,-0.743382345069506,2.663886070251465,1.126675128936768,-3.583962678909302,-0.2006624191999435,-0.1271297037601471,-0.051290113478899,XTrueNorthZVertical,0.5464310321404946,-0.5547766924338755,0.6271610336538723,0.01746500590294467,-0.7047788500785828,0.6767818331718445,0.2127280980348587,-43.33800888061523,19.65717124938965,8.026676177978516,2,192.168.1.118,10.97.20.126,3,0
2015-02-21 18:58:03.718,144,1424570269.491925,39.63827111267615,-106.3701769152159,2518.4,-1,-1,10,65,-9999,1424570283.676718,-44.56782913208008,22.654296875,8.914749145507812,140.1350708007812,131.0090026855469,10,22151.25694325,-0.9390106201171875,0.5935516357421875,-0.1039276123046875,22151.20041066667,2.672025155451458,1.115378203528152,-3.62062768940336,22151.20041066667,2.119270356858012,-1.863937285418162,-0.743382345069506,2.663886070251465,1.126675128936768,-3.583962678909302,-0.2006624191999435,-0.1271297037601471,-0.051290113478899,XTrueNorthZVertical,0.5464310321404946,-0.5547766924338755,0.6271610336538723,0.01746500590294467,-0.7047788500785828,0.6767818331718445,0.2127280980348587,-43.33800888061523,19.65717124938965,8.026676177978516,2,192.168.1.118,10.97.20.126,3,0
2015-02-21 18:58:03.793,145,1424570269.491925,39.63827111267615,-106.3701769152159,2518.4,-1,-1,10,65,-9999,1424570283.780857,-48.6272087097168,7.91314697265625,-2.234550476074219,155.9142150878906,146.7881469726562,10,22151.30600904167,-0.647308349609375,0.279388427734375,-0.1223907470703125,22151.30396983333,0.649808110186026,1.353708217904869,-2.320296676594731,22151.25219016667,2.292033696520966,-1.674010834496706,-0.6063948603450585,1.544189810752869,2.135863304138184,-2.871057987213135,-0.2087270468473434,0.06619960069656372,-0.149908259510994,XTrueNorthZVertical,0.5633743662440072,-0.4742785717006945,0.6737226115298396,0.06137623739775459,-0.8173349499702454,0.5699087977409363,0.08466167747974396,-47.50708770751953,8.462785720825195,0.6874876022338867,2,192.168.1.118,10.97.20.126,3,0
2015-02-21 18:58:03.816,146,1424570269.491925,39.63827111267615,-106.3701769152159,2518.4,-1,-1,10,65,-9999,1424570283.780857,-48.6272087097168,7.91314697265625,-2.234550476074219,155.9142150878906,146.7881469726562,10,22151.35515266667,-0.680206298828125,0.07818603515625,-0.0609283447265625,22151.35574945833,0.3589048990461636,0.7417039457086272,-2.156316260898628,22151.30396983333,2.35622033725544,-1.546624493961022,-0.482586887012555,0.6416690349578857,1.365004897117615,-2.283632516860962,0.2468820512294769,-0.1159734278917313,-0.1277301460504532,XTrueNorthZVertical,0.5612096627189629,-0.4175393194128585,0.7058530329070877,0.1116967639189268,-0.885538637638092,0.464072197675705,-0.02140926197171211,-48.02068328857422,2.473110198974609,-4.112459182739258,2,192.168.1.118,10.97.20.126,3,0
2015-02-21 18:58:03.895,147,1424570269.491925,39.63827111267615,-106.3701769152159,2518.4,-1,-1,10,65,-9999,1424570283.883958,-46.68280410766602,-4.280609130859375,-8.058807373046875,179.8050537109375,170.6789855957031,10,22151.40410445834,-0.636871337890625,0.034942626953125,-0.03955078125,22151.40752904167,0.3137629869887755,0.7354063686789168,-1.725506278736434,22151.35574945833,2.37220060048226,-1.492878102296346,-0.372754336696935,0.3507659435272217,0.7530005574226379,-2.119652271270752,0.2482958137989044,-0.2859959602355957,0.01156566012650728,XTrueNorthZVertical,0.5674511605394115,-0.3764999043730409,0.7158919622420302,0.1540965305443354,-0.928502082824707,0.3641819953918457,-0.07249400764703751,-47.85049438476562,-0.9610347747802734,-6.198520660400391,2,192.168.1.118,10.97.20.126,3,0
2015-02-21 18:58:03.914,148,1424570269.491925,39.63827111267615,-106.3701769152159,2518.4,-1,-1,10,65,-9999,1424570283.883958,-46.68280410766602,-4.280609130859375,-8.058807373046875,179.8050537109375,170.6789855957031,10,22151.453147375,-0.60595703125,-0.05413818359375,-0.0911712646484375,22151.40752904167,0.3137629869887755,0.7354063686789168,-1.725506278736434,22151.40752904167,2.378864692216031,-1.455493267615597,-0.2748325086532891,0.3056241273880005,0.7467029094696045,-1.6888427734375,0.3192085325717926,-0.2364431023597717,0.07117930054664612,XTrueNorthZVertical,0.5735118325247445,-0.3401751579922135,0.7204132115702914,0.1907088995119026,-0.9560798406600952,0.2713857293128967,-0.1107300817966461,-46.64822387695312,-8.596264839172363,-8.891672134399414,2,192.168.1.118,10.97.20.126,3,0
