loggingTime,loggingSample,locationTimestamp_since1970,locationLatitude,locationLongitude,locationAltitude,locationSpeed,locationCourse,locationVerticalAccuracy,locationHorizontalAccuracy,locationFloor,locationHeadingTimestamp_since1970,locationHeadingX,locationHeadingY,locationHeadingZ,locationTrueHeading,locationMagneticHeading,locationHeadingAccuracy,accelerometerTimestamp_sinceReboot,accelerometerAccelerationX,accelerometerAccelerationY,accelerometerAccelerationZ,gyroTimestamp_sinceReboot,gyroRotationX,gyroRotationY,gyroRotationZ,motionTimestamp_sinceReboot,motionYaw,motionRoll,motionPitch,motionRotationRateX,motionRotationRateY,motionRotationRateZ,motionUserAccelerationX,motionUserAccelerationY,motionUserAccelerationZ,motionAttitudeReferenceFrame,motionQuaternionX,motionQuaternionY,motionQuaternionZ,motionQuaternionW,motionGravityX,motionGravityY,motionGravityZ,motionMagneticFieldX,motionMagneticFieldY,motionMagneticFieldZ,motionMagneticFieldCalibrationAccuracy,IP_en0,IP_pdp_ip0,deviceOrientation,state
2015-03-01 20:04:49.787,1,1425269087.734268,37.76574330768847,-122.4603393582673,81.73787,-1,-1,10,65,-9999,1425269089.781505,39.57963943481445,13.602294921875,1.683235168457031,290.0572204589844,276.2801513671875,10,196211.0462357083,0.859649658203125,0.3828277587890625,-0.4176025390625,196211.0139605,-0.1655069396329364,0.3527846885450526,0.003622698030834788,196211.0139605,0.7122995687186339,1.129779526609378,-0.4662119157057267,-0.1840924918651581,0.3712026178836823,0.03581753373146057,-0.06128598749637604,0.03186330944299698,0.001100454828701913,XTrueNorthZVertical,-0.3644717538426018,0.4201291345864436,0.1706368434694942,0.8133479765796146,0.8078069686889648,0.4495057165622711,-0.3813036978244781,39.40162658691406,14.99391174316406,-0.06449317932128906,2,0.0.0.0,10.83.46.32,4,0
2015-03-01 20:04:49.825,2,1425269087.734268,37.76574330768847,-122.4603393582673,81.73787,-1,-1,10,65,-9999,1425269089.781505,39.57963943481445,13.602294921875,1.683235168457031,290.0572204589844,276.2801513671875,10,196211.095287875,0.7681884765625,0.483551025390625,-0.3587493896484375,196211.0657310833,-0.05595834082474496,-0.08477880382547347,0.02792723877111593,196211.0657310833,0.7164264462335447,1.138326267960664,-0.4711337551345033,-0.07454109191894531,-0.06636475026607513,0.06012241914868355,0.02617199905216694,-0.05490999668836594,-0.03447450324892998,XTrueNorthZVertical,-0.3678512644792413,0.4218512358891729,0.1693750981283422,0.8111960740577195,0.8090178370475769,0.4538968205451965,-0.3734539747238159,39.35787582397461,15.09763145446777,0.5732526779174805,2,0.0.0.0,10.83.46.32,4,0
2015-03-01 20:04:49.886,3,1425269087.734268,37.76574330768847,-122.4603393582673,81.73787,-1,-1,10,65,-9999,1425269089.833513,39.68194961547852,13.33038330078125,2.016075134277344,289.5587158203125,275.7816467285156,10,196211.1443659167,0.75958251953125,0.4312744140625,-0.3285980224609375,196211.1175042083,-0.03854126729562674,-0.1170736267843193,0.06907733867058428,196211.1175042083,0.7216260960623126,1.133521446826359,-0.4684709674248308,-0.05712548270821571,-0.09865960478782654,0.1012688204646111,-0.06170886754989624,0.02526886202394962,0.02675783075392246,XTrueNorthZVertical,-0.367570418802395,0.4194857965151827,0.1731120830469634,0.8117609702858579,0.8083061575889587,0.4515225291252136,-0.3778473138809204,39.42243194580078,14.93330192565918,0.42181396484375,2,0.0.0.0,10.83.46.32,4,0
2015-03-01 20:04:49.924,4,1425269087.734268,37.76574330768847,-122.4603393582673,81.73787,-1,-1,10,65,-9999,1425269089.886469,39.66489410400391,13.48333740234375,2.332267761230469,290.1894226074219,276.412353515625,10,196211.19342175,0.7820587158203125,0.441131591796875,-0.3602142333984375,196211.169277,-0.09854867824172817,0.2596201230791376,0.1134967351242339,196211.169277,0.7287738035468851,1.14261226689531,-0.4659560299548769,-0.1171343475580215,0.2780352830886841,0.1456861793994904,-0.04110115393996239,-0.01347084250301123,0.03513853251934052,XTrueNorthZVertical,-0.3689580940492775,0.422365889451159,0.1750380272046828,0.8092210339139667,0.8127381205558777,0.4492771029472351,-0.3709539473056793,39.47998428344727,14.77977085113525,0.445958137512207,2,0.0.0.0,10.83.46.32,4,0
2015-03-01 20:04:49.985,5,1425269087.734268,37.76574330768847,-122.4603393582673,81.73787,-1,-1,10,65,-9999,1425269089.938372,39.63079071044922,13.17742919921875,2.631828308105469,289.687255859375,275.9101867675781,10,196211.2424983333,0.8339080810546875,0.43206787109375,-0.3665313720703125,196211.2210477084,-0.07610142604566827,0.201656954585781,0.08800921822773958,196211.2210477084,0.7375822836423448,1.1609306217314,-0.4621344467437828,-0.09468730539083481,0.2200717628002167,0.1201972439885139,-0.01639997027814388,0.001039743539877236,-0.01048613060265779,XTrueNorthZVertical,-0.3710713800343767,0.428909053104778,0.1762802215703568,0.8045298944104519,0.8209654092788696,0.4458596706390381,-0.3566861152648926,39.56224060058594,14.52842712402344,1.031374931335449,2,0.0.0.0,10.83.46.32,4,0
2015-03-01 20:04:50.023,6,1425269087.734268,37.76574330768847,-122.4603393582673,81.73787,-1,-1,10,65,-9999,1425269089.99035,39.61374664306641,12.92254638671875,2.91473388671875,289.1755981445312,275.3985290527344,10,196211.2915443333,0.7974395751953125,0.4222412109375,-0.3363494873046875,196211.2728205417,-0.0476617950808211,-0.03211772274635561,0.06572575043871957,196211.2728205417,0.7437196090325212,1.166800081248611,-0.4582171605420775,-0.06624650955200195,-0.01370383240282536,0.09791457653045654,-0.01531826891005039,-0.0184149481356144,0.005651924293488264,XTrueNorthZVertical,-0.3715153772626008,0.43093352964166,0.1787687720606284,0.8026919434358265,0.8246444463729858,0.4423498809337616,-0.3525452315807343,39.6571159362793,14.22792434692383,1.479598045349121,2,0.0.0.0,10.83.46.32,4,0
2015-03-01 20:04:50.085,7,1425269087.734268,37.76574330768847,-122.4603393582673,81.73787,-1,-1,10,65,-9999,1425269090.040573,39.4432258605957,12.51473999023438,3.114433288574219,288.6197509765625,274.8426818847656,10,196211.3406315,0.79248046875,0.423736572265625,-0.32293701171875,196211.3245934584,-0.07682607217827885,0.1161614941109672,0.05347254626326499,196211.3245934584,0.7501825806454939,1.172820047199938,-0.4554765837007381,-0.09541061520576477,0.1345754861831665,0.0856613889336586,-0.03936831280589104,-0.005121683701872826,0.01201401557773352,XTrueNorthZVertical,-0.3724786843873614,0.4327101749272548,0.18102038184058,0.8007828469582854,0.82786625623703,0.4398903548717499,-0.3480430543422699,39.71892547607422,14.04639530181885,1.554194450378418,2,0.0.0.0,10.83.46.32,4,0
2015-03-01 20:04:50.117,8,1425269087.734268,37.76574330768847,-122.4603393582673,81.73787,-1,-1,10,65,-9999,1425269090.092311,39.3238639831543,12.32781982421875,3.330780029296875,288.3586120605469,274.58154296875,10,196211.38968175,0.7309112548828125,0.407196044921875,-0.2801666259765625,196211.376364125,-0.09719286293076883,0.242124219981753,0.1469628163304967,196211.3245934584,0.7501825806454939,1.172820047199938,-0.4554765837007381,-0.09541061520576477,0.1345754861831665,0.0856613889336586,-0.03936831280589104,-0.005121683701872826,0.01201401557773352,XTrueNorthZVertical,-0.3724786843873614,0.4327101749272548,0.18102038184058,0.8007828469582854,0.82786625623703,0.4398903548717499,-0.3480430543422699,39.71892547607422,14.04639530181885,1.554194450378418,2,0.0.0.0,10.83.46.32,4,0
2015-03-01 20:04:50.182,9,1425269087.734268,37.76574330768847,-122.4603393582673,81.73787,-1,-1,10,65,-9999,1425269090.145224,39.32386779785156,12.12393188476562,3.563766479492188,288.0000610351562,274.2229919433594,10,196211.4387709583,0.701904296875,0.3974609375,-0.2391510009765625,196211.4281372083,-0.2016455029930936,0.8629957533435231,0.2550205775604618,196211.4281372083,0.7715922962531764,1.219701664765355,-0.4444677510706589,-0.2202315181493759,0.8814111351966858,0.2872070968151093,-0.1432652473449707,-0.0332488901913166,0.04761626198887825,XTrueNorthZVertical,-0.3776188295460222,0.4496098862315058,0.1839176395282305,0.7883078612308708,0.8477635383605957,0.4299774169921875,-0.3105099499225616,39.86298370361328,13.42304611206055,2.841493606567383,2,0.0.0.0,10.83.46.32,4,0
2015-03-01 20:04:50.218,10,1425269087.734268,37.76574330768847,-122.4603393582673,81.73787,-1,-1,10,65,-9999,1425269090.196095,39.56259155273438,11.71609497070312,4.695396423339844,287.5021057128906,273.7250366210938,10,196211.4878285833,0.7338714599609375,0.36962890625,-0.196746826171875,196211.47991,-0.4128693311627663,1.669293073395368,0.3426873132720171,196211.4281372083,0.7715922962531764,1.219701664765355,-0.4444677510706589,-0.2202315181493759,0.8814111351966858,0.2872070968151093,-0.1432652473449707,-0.0332488901913166,0.04761626198887825,XTrueNorthZVertical,-0.3776188295460222,0.4496098862315058,0.1839176395282305,0.7883078612308708,0.8477635383605957,0.4299774169921875,-0.3105099499225616,39.86298370361328,13.42304611206055,2.841493606567383,2,0.0.0.0,10.83.46.32,4,0
2015-03-01 20:04:50.282,11,1425269087.734268,37.76574330768847,-122.4603393582673,81.73787,-1,-1,10,65,-9999,1425269090.248221,39.95478439331055,10.54351806640625,7.740821838378906,285.6239624023438,271.8468933105469,10,196211.5369280833,0.8972930908203125,0.3365020751953125,-0.1670684814453125,196211.53168075,-0.5931352432408128,2.019517665184527,0.2852410643462449,196211.47991,0.7944702061231232,1.29567075779829,-0.4333982612838949,-0.431455135345459,1.687708258628845,0.3748734891414642,-0.1468649059534073,-0.04706300422549248,0.04136550053954124,XTrueNorthZVertical,-0.38609654837681,0.4771312580979667,0.1816268392371888,0.7683013221249294,0.8734121322631836,0.4199572801589966,-0.246550440788269,39.86139297485352,12.83527755737305,4.861531257629395,2,0.0.0.0,10.83.46.32,4,0
2015-03-01 20:04:50.321,12,1425269087.734268,37.76574330768847,-122.4603393582673,81.73787,-1,-1,10,65,-9999,1425269090.299894,39.15334320068359,9.40496826171875,11.58504486083984,285.0467834472656,271.2697143554688,10,196211.5859764584,1.003158569335938,0.372711181640625,-0.0765533447265625,196211.5834535834,-0.6724114236219646,1.72722534922008,0.2670748436024874,196211.53168075,0.8282765050180345,1.409752781585583,-0.4231553559137342,-0.611720860004425,2.037932634353638,0.3174269199371338,-0.03688615933060646,-0.07178761065006256,-0.03499286249279976,XTrueNorthZVertical,-0.4013526178072502,0.5155709920578997,0.1751045520734368,0.7365059650835846,0.8999995589256287,0.4106395244598389,-0.146205261349678,39.53863906860352,12.06179237365723,8.277616500854492,2,0.0.0.0,10.83.46.32,4,0
2015-03-01 20:04:50.371,13,1425269087.734268,37.76574330768847,-122.4603393582673,81.73787,-1,-1,10,65,-9999,1425269090.352188,37.80625152587891,8.6402587890625,15.89522552490234,286.1451416015625,272.3680725097656,10,196211.6350554583,1.0272216796875,0.3817138671875,-0.0214385986328125,196211.6352265,-0.7784214802897678,1.359709385105254,-0.0427144407237809,196211.5834535834,0.8650695024100837,1.517922122944657,-0.4113804919722089,-0.6909965872764587,1.74564003944397,0.2992610037326813,0.0831548348069191,-0.04466567561030388,-0.04494347423315048,XTrueNorthZVertical,-0.4169225124847415,0.5495047419161947,0.1701115245137945,0.7037629138107954,0.9152887463569641,0.3998750150203705,-0.04844031482934952,38.47179412841797,10.92736053466797,13.33504486083984,2,0.0.0.0,10.83.46.32,4,0
2015-03-01 20:04:50.416,14,1425269087.734268,37.76574330768847,-122.4603393582673,81.73787,-1,-1,10,65,-9999,1425269090.403795,36.45915603637695,8.11346435546875,19.17362976074219,286.1288146972656,272.3517456054688,10,196211.6841112083,1.011810302734375,0.3975830078125,0.0714874267578125,196211.6352265,-0.7784214802897678,1.359709385105254,-0.0427144407237809,196211.6352265,0.9062923573840292,1.613009079298856,-0.4040171056896982,-0.7970024943351746,1.37811815738678,-0.01048138178884983,0.1085515394806862,-0.01140132267028093,-0.06024124473333359,XTrueNorthZVertical,-0.4344399774962244,0.5750332414892028,0.1665886531431387,0.6729390092811504,0.918670117855072,0.3931151926517487,0.03880264610052109,37.4509162902832,10.01458930969238,16.56643104553223,2,0.0.0.0,10.83.46.32,4,0
2015-03-01 20:04:50.469,15,1425269087.734268,37.76574330768847,-122.4603393582673,81.73787,-1,-1,10,65,-9999,1425269090.456103,35.43604278564453,7.36578369140625,21.57001495361328,284.7600708007812,270.9830017089844,10,196211.73330025,0.9747467041015625,0.3812103271484375,0.1759185791015625,196211.73877025,-0.8315102650399523,0.9202377378136862,-0.8987803825948089,196211.6869971667,0.9522886632851195,1.690169669273656,-0.4082688463916259,-0.8247808814048767,1.071625351905823,-0.3133898973464966,0.1005324125289917,0.0005619533476419747,-0.03781453892588615,XTrueNorthZVertical,-0.4553173950619102,0.5893530796734383,0.1631071600782957,0.6471051568311792,0.9112778902053833,0.3970210552215576,0.1093019619584084,36.36466598510742,9.409343719482422,19.14118957519531,2,0.0.0.0,10.83.46.32,4,0
2015-03-01 20:04:50.523,16,1425269087.734268,37.76574330768847,-122.4603393582673,81.73787,-1,-1,10,65,-9999,1425269090.456103,35.43604278564453,7.36578369140625,21.57001495361328,284.7600708007812,270.9830017089844,10,196211.7822421667,0.939697265625,0.4267730712890625,0.266693115234375,196211.73877025,-0.8315102650399523,0.9202377378136862,-0.8987803825948089,196211.73877025,1.001787158489013,1.759475325648252,-0.4327987538341917,-0.8500908613204956,0.9386460781097412,-0.8665478825569153,0.08306198567152023,-0.03820281103253365,0.005651094019412994,XTrueNorthZVertical,-0.4814430397646237,0.5944294256340042,0.1537972230804066,0.6254699705087557,0.8916847109794617,0.419413149356842,0.1702674925327301,34.84605026245117,9.275884628295898,21.84079360961914,2,0.0.0.0,10.83.46.32,4,0
2015-03-01 20:04:50.567,17,1425269087.734268,37.76574330768847,-122.4603393582673,81.73787,-1,-1,10,65,-9999,1425269090.55967,31.20719528198242,8.725250244140625,26.0965461730957,289.4962768554688,275.7192077636719,10,196211.8314267917,0.9903564453125,0.47650146484375,0.3057098388671875,196211.7905430833,-0.7887865032523561,1.290059466800303,-1.639673129435398,196211.7905430833,1.061556530542165,1.84036575008461,-0.4859574077420071,-0.8073669075965881,1.308467626571655,-1.607440948486328,0.08740238100290298,-0.04028207063674927,0.03120861016213894,XTrueNorthZVertical,-0.5166343316769044,0.5923100703531216,0.132485139171525,0.603908476693763,0.8522948622703552,0.4670551419258118,0.2354845106601715,33.4054069519043,10.00429344177246,23.69182205200195,2,0.0.0.0,10.83.46.32,4,0
2015-03-01 20:04:50.615,18,1425269087.734268,37.76574330768847,-122.4603393582673,81.73787,-1,-1,10,65,-9999,1425269090.55967,31.20719528198242,8.725250244140625,26.0965461730957,289.4962768554688,275.7192077636719,10,196211.880362375,0.8828125,0.536102294921875,0.34075927734375,196211.8423138333,-0.7200380649763967,1.03889408123384,-2.203471522740116,196211.8423138333,1.139660587235419,1.94261542933155,-0.5649538183754704,-0.7386183142662048,1.057301998138428,-2.171239614486694,0.1994746923446655,-0.06812217086553574,0.009823731146752834,XTrueNorthZVertical,-0.5601811923517189,0.5827740730333256,0.09855890794856487,0.5803943190903763,0.786899209022522,0.5353767871856689,0.306857168674469,31.15302276611328,11.52372932434082,25.96155738830566,2,0.0.0.0,10.83.46.32,4,0
2015-03-01 20:04:50.664,19,1425269087.734268,37.76574330768847,-122.4603393582673,81.73787,-1,-1,10,65,-9999,1425269090.611439,28.15492248535156,10.81539916992188,27.84391784667969,296.0884704589844,282.3114013671875,10,196211.9294399584,0.7032623291015625,0.5555877685546875,0.4209442138671875,196211.8940868333,-0.7176798358311315,0.4254008356721342,-2.49623734874638,196211.8940868333,1.238886635209216,2.035158774248705,-0.6579164755995067,-0.736259937286377,0.4438086152076721,-2.464005708694458,0.1350355744361877,-0.04222517088055611,0.001341268536634743,XTrueNorthZVertical,-0.6056991076828614,0.5570587060748877,0.06489698377505605,0.5644489196270094,0.7074784636497498,0.611469566822052,0.3543716073036194,27.88397979736328,14.23416137695312,28.23441505432129,2,0.0.0.0,10.83.46.32,4,0
2015-03-01 20:04:50.717,20,1425269087.734268,37.76574330768847,-122.4603393582673,81.73787,-1,-1,10,65,-9999,1425269090.663815,25.29021453857422,13.1944580078125,29.80763244628906,303.8276977539062,290.0506286621094,10,196211.9784845,0.5537261962890625,0.5047760009765625,0.43463134765625,196211.94585975,-0.8955385165998554,0.1799077169114309,-2.586354192660808,196211.94585975,1.369958234188572,2.132933435364573,-0.7482581261849622,-0.9141184091567993,0.1983153373003006,-2.554123163223267,0.03967597708106041,-0.1434827297925949,0.02423670329153538,XTrueNorthZVertical,-0.652339315945945,0.5193871806044662,0.03677706645015166,0.5507611399791041,0.6200988292694092,0.6803632378578186,0.3906192481517792,25.69381904602051,16.23834419250488,29.21392822265625,2,0.0.0.0,10.83.46.32,4,0
2015-03-01 20:04:50.763,21,1425269087.734268,37.76574330768847,-122.4603393582673,81.73787,-1,-1,10,65,-9999,1425269090.714025,23.10758209228516,14.96176147460938,30.77284622192383,309.3635864257812,295.5865173339844,10,196212.02766575,0.4271697998046875,0.782440185546875,0.4771270751953125,196211.9976304584,-0.6182235522899042,-0.3338725163799638,-2.11640080248052,196211.9976304584,1.508098332345315,2.231271182314074,-0.8212821998041496,-0.6368032693862915,-0.3154650926589966,-2.084169864654541,0.01219139341264963,-0.1681161671876907,0.0326150469481945,XTrueNorthZVertical,-0.6916964915205296,0.4801425105022111,0.01457425640744632,0.5392649967407811,0.5380100011825562,0.7320199608802795,0.4179617464542389,23.54266357421875,17.84774589538574,30.0750846862793,2,0.0.0.0,10.83.46.32,4,0
2015-03-01 20:04:50.813,22,1425269087.734268,37.76574330768847,-122.4603393582673,81.73787,-1,-1,10,65,-9999,1425269090.766543,21.01020431518555,16.50811767578125,31.12232208251953,314.2960815429688,300.5190124511719,10,196212.076594125,0.2647552490234375,0.808685302734375,0.6009063720703125,196212.049403375,-0.4932978613475953,-1.051650090223101,-1.847747236983834,196212.049403375,1.634553155437313,2.286415380350907,-0.8770805402732198,-0.5118778944015503,-1.033242225646973,-1.815517663955688,-0.1433735936880112,0.02777065895497799,0.1102244630455971,XTrueNorthZVertical,-0.7213045707235636,0.4352809950919332,0.009429892363164131,0.538666187102859,0.4825459420681,0.7688754796981812,0.4194996654987335,22.08249473571777,19.49118423461914,30.1623420715332,2,0.0.0.0,10.83.46.32,4,0
2015-03-01 20:04:50.861,23,1425269087.734268,37.76574330768847,-122.4603393582673,81.73787,-1,-1,10,65,-9999,1425269090.824288,20.22582244873047,17.90158081054688,30.82277297973633,316.5075073242188,302.7304382324219,10,196212.1257728334,0.1914825439453125,0.85345458984375,0.5655975341796875,196212.101176375,-0.4609923857443891,-0.2696687625042246,-1.421074209258969,196212.101176375,1.749803782513705,2.34377147775929,-0.9195399641269015,-0.4795723855495453,-0.2512609958648682,-1.388845205307007,-0.1854712218046188,0.08770328760147095,0.1910689622163773,XTrueNorthZVertical,-0.7442724845905669,0.3971129187565598,0.005009027949881196,0.5369680814628268,0.4339300990104675,0.7953228354454041,0.4232804179191589,21.72628402709961,20.52824783325195,29.72994232177734,2,0.0.0.0,10.83.46.32,4,0
2015-03-01 20:04:50.919,24,1425269087.734268,37.76574330768847,-122.4603393582673,81.73787,-1,-1,10,65,-9999,1425269090.896486,18.82757568359375,19.60092163085938,30.75621032714844,319.508544921875,305.7314758300781,10,196212.1747090833,0.1794891357421875,0.8079681396484375,0.5504302978515625,196212.1529468333,-0.3902519029730503,0.2307258905162139,-1.220994911302951,196212.1529468333,1.853955176899472,2.430648974885152,-0.9466647979725284,-0.4088319540023804,0.2491337060928345,-1.188766837120056,-0.182660311460495,0.07404235005378723,0.1032600030303001,XTrueNorthZVertical,-0.7626007612223941,0.3739663733301545,-0.008766752585179787,0.5277427281197424,0.3813450038433075,0.8114709258079529,0.4428215324878693,20.22859954833984,21.38923645019531,30.17638206481934,2,0.0.0.0,10.83.46.32,4,0
2015-03-01 20:04:50.959,25,1425269087.734268,37.76574330768847,-122.4603393582673,81.73787,-1,-1,10,65,-9999,1425269090.948462,16.95187377929688,20.07672119140625,31.68814086914062,323.9217834472656,310.1447143554688,10,196212.2238899583,0.1942138671875,0.82794189453125,0.559539794921875,196212.2047199583,-0.1827847298370435,0.6709448208096579,-0.9670441255523738,196212.2047199583,1.945847514141238,2.529660591464352,-0.9683431052902434,-0.2013671398162842,0.689355194568634,-0.934820830821991,-0.1601310074329376,-0.02290729060769081,0.1180099248886108,XTrueNorthZVertical,-0.7764797003422901,0.3591634531280581,-0.02949200573819724,0.5169246781919551,0.3255210220813751,0.8239479660987854,0.4638382196426392,18.62371063232422,21.91479110717773,30.82546043395996,2,0.0.0.0,10.83.46.32,4,0
2015-03-01 20:04:51.016,26,1425269087.734268,37.76574330768847,-122.4603393582673,81.73787,-1,-1,10,65,-9999,1425269091.001112,14.51345825195312,20.70547485351562,31.97104644775391,329.5809936523438,315.8039245605469,10,196212.2728242917,0.2431488037109375,0.784637451171875,0.5520172119140625,196212.25649275,0.04761652134228975,0.9544417809580099,-0.9342486283085931,196212.25649275,2.019366047401641,2.635810535169066,-0.9869660386451243,0.02903291024267673,0.9728536009788513,-0.9020276069641113,-0.03250531479716301,-0.02193372324109077,0.06153864413499832,XTrueNorthZVertical,-0.7849980457844683,0.3533867844700061,-0.05748627058198101,0.5055602731662484,0.2670634090900421,0.8343574404716492,0.4822083115577698,16.58308219909668,22.37657737731934,31.64806175231934,2,0.0.0.0,10.83.46.32,2,0
2015-03-01 20:04:51.057,27,1425269087.734268,37.76574330768847,-122.4603393582673,81.73787,-1,-1,10,65,-9999,1425269091.001112,14.51345825195312,20.70547485351562,31.97104644775391,329.5809936523438,315.8039245605469,10,196212.3218965833,0.1999969482421875,0.89105224609375,0.4911346435546875,196212.308263625,0.2368034904398837,0.7404125788960478,-0.9903451871939132,196212.308263625,2.091690809291268,2.739443845691929,-1.01490126457929,0.2182194441556931,0.7588250637054443,-0.9581242799758911,0.006318606436252594,0.0108468160033226,0.02506116963922977,XTrueNorthZVertical,-0.7897063161390391,0.3452047170325719,-0.08758694598123745,0.4995259521937686,0.206541508436203,0.8494284749031067,0.4856047332286835,13.54743003845215,23.37241363525391,32.36521530151367,2,0.0.0.0,10.83.46.32,2,0
2015-03-01 20:04:51.122,28,1425269087.734268,37.76574330768847,-122.4603393582673,81.73787,-1,-1,10,65,-9999,1425269091.104767,9.807151794433594,23.0166015625,33.00282669067383,343.2344970703125,329.4574279785156,10,196212.3709275833,0.1183624267578125,0.7968597412109375,0.466064453125,196212.360036375,0.2011373718571065,0.3355404541706805,-1.118283179645211,196212.308263625,2.091690809291268,2.739443845691929,-1.01490126457929,0.2182194441556931,0.7588250637054443,-0.9581242799758911,0.006318606436252594,0.0108468160033226,0.02506116963922977,XTrueNorthZVertical,-0.7897063161390391,0.3452047170325719,-0.08758694598123745,0.4995259521937686,0.206541508436203,0.8494284749031067,0.4856047332286835,13.54743003845215,23.37241363525391,32.36521530151367,2,0.0.0.0,10.83.46.32,2,0
2015-03-01 20:04:51.156,29,1425269087.734268,37.76574330768847,-122.4603393582673,81.73787,-1,-1,10,65,-9999,1425269091.104767,9.807151794433594,23.0166015625,33.00282669067383,343.2344970703125,329.4574279785156,10,196212.4201107083,-0.0904693603515625,0.792205810546875,0.494781494140625,196212.4118095417,0.1890556752558531,0.1291305559874351,-0.8512839698176816,196212.4118095417,2.266924142568259,2.928338393045591,-1.062654970495857,0.170472040772438,0.1475426107645035,-0.819063663482666,-0.1668026298284531,-0.08147505670785904,0.02071375958621502,XTrueNorthZVertical,-0.7993968662351482,0.3142147984154639,-0.1302552628693697,0.4952446765365857,0.1029751151800156,0.8736503720283508,0.475532591342926,9.917774200439453,25.00025177001953,32.46436309814453,2,0.0.0.0,10.83.46.32,2,0
2015-03-01 20:04:51.214,30,1425269087.734268,37.76574330768847,-122.4603393582673,81.73787,-1,-1,10,65,-9999,1425269091.208638,5.62945556640625,24.25701904296875,33.25244140625,353.8093566894531,340.0322875976562,10,196212.46903625,-0.1158294677734375,0.8653106689453125,0.510345458984375,196212.4118095417,0.1890556752558531,0.1291305559874351,-0.8512839698176816,196212.4118095417,2.266924142568259,2.928338393045591,-1.062654970495857,0.170472040772438,0.1475426107645035,-0.819063663482666,-0.1668026298284531,-0.08147505670785904,0.02071375958621502,XTrueNorthZVertical,-0.7993968662351482,0.3142147984154639,-0.1302552628693697,0.4952446765365857,0.1029751151800156,0.8736503720283508,0.475532591342926,9.917774200439453,25.00025177001953,32.46436309814453,2,0.0.0.0,10.83.46.32,2,0
2015-03-01 20:04:51.254,31,1425269087.734268,37.76574330768847,-122.4603393582673,81.73787,-1,-1,10,65,-9999,1425269091.208638,5.62945556640625,24.25701904296875,33.25244140625,353.8093566894531,340.0322875976562,10,196212.5181345417,0.017791748046875,0.9171295166015625,0.4832305908203125,196212.5153532083,-0.07426837226736674,0.6363421024501493,-0.5932865107907294,196212.4635800833,2.338730190713389,3.011788832049125,-1.072798746361374,-0.03306332603096962,0.705901026725769,-0.6884557008743286,-0.194427952170372,-0.01628190092742443,0.04696576297283173,XTrueNorthZVertical,-0.8025070066681502,0.3046423049474968,-0.1479473417829686,0.4912099009354327,0.06182907521724701,0.8785408139228821,0.4736488461494446,8.241729736328125,25.67705154418945,32.40482330322266,2,0.0.0.0,10.83.46.32,2,0
2015-03-01 20:04:51.313,32,1425269087.734268,37.76574330768847,-122.4603393582673,81.73787,-1,-1,10,65,-9999,1425269091.260018,3.515029907226562,24.29104614257812,33.41885375976562,359.7690734863281,345.9920043945312,10,196212.5671854583,-0.077362060546875,0.9276580810546875,0.5310821533203125,196212.5671260833,-0.007939948473962241,0.4231201045145903,-0.7115665495488546,196212.5153532083,2.408151129308958,3.114515045859902,-1.070001432426497,-0.0928516611456871,0.6547538042068481,-0.5610668063163757,0.01704556122422218,0.03564060479402542,-0.003094592364504933,XTrueNorthZVertical,-0.8054687577713244,0.3019827559245887,-0.1719178783921093,0.4800736931977296,0.01299899350851774,0.8772011995315552,0.4799470007419586,6.229031562805176,25.77274322509766,32.77613067626953,2,0.0.0.0,10.83.46.32,2,0
2015-03-01 20:04:51.352,33,1425269087.734268,37.76574330768847,-122.4603393582673,81.73787,-1,-1,10,65,-9999,1425269091.312198,1.707534790039062,24.52896118164062,33.6518440246582,4.261988639831543,350.4849243164062,10,196212.6162705417,-0.046417236328125,0.894989013671875,0.47613525390625,196212.6188968334,0.0458636287127996,0.2478518805381864,-0.8479076141876791,196212.5671260833,2.46766951961167,-3.094505058662728,-1.068778441740424,-0.02652304992079735,0.441531628370285,-0.6793472170829773,-0.06679705530405045,0.02815654687583447,0.06151319667696953,XTrueNorthZVertical,-0.8079946804431378,0.2957628174186485,-0.1874638960821482,0.4738420119688828,-0.02264996431767941,0.8766133785247803,0.4806621074676514,4.773608207702637,25.83584976196289,32.97015762329102,2,0.0.0.0,10.83.46.32,2,0
2015-03-01 20:04:51.417,34,1425269087.734268,37.76574330768847,-122.4603393582673,81.73787,-1,-1,10,65,-9999,1425269091.364398,0.4798126220703125,24.83486938476562,34.15109252929688,7.784052848815918,354.0069885253906,10,196212.6653119167,-0.1437835693359375,0.8034515380859375,0.4921875,196212.6188968334,0.0458636287127996,0.2478518805381864,-0.8479076141876791,196212.6188968334,2.545586863027983,-3.004734512170717,-1.065919738496637,0.02728079445660114,0.2662631273269653,-0.8156886100769043,0.01957451738417149,0.01975483819842339,-0.003041398013010621,XTrueNorthZVertical,-0.8112175029100011,0.2855074236018192,-0.2051273046311671,0.4672627476787637,-0.06599175184965134,0.8752341866493225,0.4791766405105591,2.793846607208252,25.99542808532715,33.07176971435547,2,0.0.0.0,10.83.46.32,2,0
2015-03-01 20:04:51.450,35,1425269087.734268,37.76574330768847,-122.4603393582673,81.73787,-1,-1,10,65,-9999,1425269091.415949,-1.140113830566406,24.98779296875,34.00131225585938,11.71053600311279,357.9334716796875,10,196212.714512625,-0.1813812255859375,0.823760986328125,0.43890380859375,196212.7224428334,-0.3019390843810417,-0.1202361305787884,-0.908937678992371,196212.67066975,2.625952776872124,-2.933203354090236,-1.058515263203214,-0.08023759722709656,-0.02057231776416302,-0.7800723910331726,-0.04237574711441994,-0.06817713379859924,0.01262525841593742,XTrueNorthZVertical,-0.8167365926211396,0.2696710202675252,-0.214844948309171,0.4626667696305347,-0.1014078259468079,0.8716287016868591,0.4795622527599335,1.701428890228271,26.09476661682129,33.06777954101562,2,0.0.0.0,10.83.46.32,2,0
2015-03-01 20:04:51.512,36,1425269087.734268,37.76574330768847,-122.4603393582673,81.73787,-1,-1,10,65,-9999,1425269091.469216,-2.436050415039062,24.4100341796875,34.00131225585938,14.73958873748779,0.9625244140625,10,196212.763454375,-0.2046661376953125,0.7393341064453125,0.5014801025390625,196212.7224428334,-0.3019390843810417,-0.1202361305787884,-0.908937678992371,196212.7224428334,2.699850147541265,-2.871382400335466,-1.038000549281157,-0.3205157220363617,-0.1018362194299698,-0.8766714930534363,-0.04579377174377441,-0.03762935474514961,-0.05060896649956703,XTrueNorthZVertical,-0.8248641359381457,0.2536839481813477,-0.2217920764631948,0.4539293986173684,-0.1355874538421631,0.8613903522491455,0.4895127713680267,0.8099274635314941,25.93376922607422,33.22789764404297,2,0.0.0.0,10.83.46.32,2,0
2015-03-01 20:04:51.548,37,1425269087.734268,37.76574330768847,-122.4603393582673,81.73787,-1,-1,10,65,-9999,1425269091.524027,-3.766098022460938,23.59432983398438,34.06787872314453,18.13498497009277,4.35792064666748,10,196212.8125299583,-0.2073974609375,0.7850799560546875,0.532379150390625,196212.774213375,-0.5534320387615845,0.03564721013903763,-0.8977428150341139,196212.774213375,2.767713730669879,-2.814299594477141,-1.003300313525987,-0.572008490562439,0.05404692143201828,-0.8654769659042358,-0.01710770651698112,-0.08584905415773392,-0.005463694222271442,XTrueNorthZVertical,-0.8354443172910282,0.2377541377952423,-0.2285328986074974,0.4396344951823795,-0.1728031784296036,0.8432495594024658,0.5089884996414185,-0.4339284896850586,25.17478561401367,33.81348419189453,2,0.0.0.0,10.83.46.32,2,0
2015-03-01 20:04:51.616,38,1425269087.734268,37.76574330768847,-122.4603393582673,81.73787,-1,-1,10,65,-9999,1425269091.597689,-5.079086303710938,21.94598388671875,34.88331604003906,22.42695236206055,8.649887084960938,10,196212.8615767084,-0.33746337890625,0.775634765625,0.6787567138671875,196212.8259863333,-0.6056166803216871,-0.4751777132906962,-0.9826105684399961,196212.8259863333,2.82448464827138,-2.775396652440528,-0.9581694207769611,-0.6241929531097412,-0.4567781686782837,-0.9503450393676758,-0.02118652500212193,-0.03203802928328514,0.02954404801130295,XTrueNorthZVertical,-0.8483863492042509,0.2206512238008098,-0.2311169635917406,0.4220646887528773,-0.2058947682380676,0.8181403279304504,0.5368927121162415,-1.345640182495117,24.19247817993164,34.49960708618164,2,0.0.0.0,10.83.46.32,2,0
2015-03-01 20:04:51.646,39,1425269087.734268,37.76574330768847,-122.4603393582673,81.73787,-1,-1,10,65,-9999,1425269091.597689,-5.079086303710938,21.94598388671875,34.88331604003906,22.42695236206055,8.649887084960938,10,196212.9107557917,-0.383941650390625,0.7746124267578125,0.675140380859375,196212.8777594167,-0.4941530023736198,-0.2327661382273236,-1.047644429627513,196212.8777594167,2.88548349678089,-2.748248071470374,-0.913512526896829,-0.5127292275428772,-0.214366614818573,-1.015379309654236,-0.1115006431937218,-0.03417785838246346,0.1086630597710609,XTrueNorthZVertical,-0.8619736508836717,0.1978805489207326,-0.2291764378790227,0.406599171537557,-0.2341719716787338,0.791654646396637,0.5643105506896973,-1.64324426651001,23.18235206604004,35.17368698120117,2,0.0.0.0,10.83.46.32,2,0
2015-03-01 20:04:51.715,40,1425269087.734268,37.76574330768847,-122.4603393582673,81.73787,-1,-1,10,65,-9999,1425269091.702295,-5.914627075195312,19.88980102539062,35.36592102050781,26.51396942138672,12.73690605163574,10,196212.95969825,-0.4277496337890625,0.7575225830078125,0.7183990478515625,196212.9295302083,-0.199540540467495,-0.006643787971420676,-1.023301006735317,196212.9295302083,2.945936668248784,-2.702619451843784,-0.8771340963135108,-0.2181166112422943,0.01175554562360048,-0.9910362362861633,-0.1180828288197517,-0.01277566887438297,0.1068231239914894,XTrueNorthZVertical,-0.8703854650322209,0.1783217498464097,-0.2366611381850704,0.3932200578532955,-0.2717334628105164,0.7689096927642822,0.5787389874458313,-2.707544803619385,22.12566184997559,35.78315353393555,2,0.0.0.0,10.83.46.32,2,0
2015-03-01 20:04:51.744,41,1425269087.734268,37.76574330768847,-122.4603393582673,81.73787,-1,-1,10,65,-9999,1425269091.702295,-5.914627075195312,19.88980102539062,35.36592102050781,26.51396942138672,12.73690605163574,10,196213.0087911667,-0.465484619140625,0.725189208984375,0.6673431396484375,196212.981303125,0.0646916449874418,-0.003141198505748461,-0.6923739465209805,196212.981303125,3.001996470415556,-2.66290010586839,-0.8558721485806322,0.04611577466130257,0.01525793317705393,-0.6601095199584961,-0.1611101925373077,-0.0145576223731041,0.1184892952442169,XTrueNorthZVertical,-0.8748745467283321,0.1597856646369183,-0.2432818662826351,0.3871395288966441,-0.3019635379314423,0.7551429271697998,0.5818738341331482,-3.522273063659668,21.79137229919434,35.91711807250977,2,0.0.0.0,10.83.46.32,2,0
2015-03-01 20:04:51.784,42,1425269087.734268,37.76574330768847,-122.4603393582673,81.73787,-1,-1,10,65,-9999,1425269091.754921,-7.005943298339844,19.58389282226562,35.86516952514648,29.52310943603516,15.74604606628418,10,196213.05784075,-0.421478271484375,0.7342376708984375,0.5934295654296875,196213.03307625,0.2282922939120995,0.3857399754542381,-0.3856733964269861,196213.03307625,3.037537775081156,-2.624700129806007,-0.8517196127176594,0.2097166031599045,0.4041389226913452,-0.3534093201160431,-0.1281926035881042,-0.04979274794459343,0.07222859561443329,XTrueNorthZVertical,-0.873756529454656,0.1512240151230659,-0.2532060464972376,0.3867396216260964,-0.3255122303962708,0.7524142265319824,0.5726383328437805,-4.228354454040527,21.83452224731445,35.81458282470703,2,0.0.0.0,10.83.46.32,2,0
2015-03-01 20:04:51.843,43,1425269087.734268,37.76574330768847,-122.4603393582673,81.73787,-1,-1,10,65,-9999,1425269091.830839,-8.591766357421875,19.73681640625,35.84852981567383,33.83440017700195,20.05733680725098,10,196213.1070395834,-0.4061279296875,0.709747314453125,0.5349884033203125,196213.0848468333,0.2431436780470353,0.3632256115987082,-0.4267206983083774,196213.0848468333,3.068811716473568,-2.579224689699022,-0.8522928395911659,0.2245681583881378,0.3816244006156921,-0.3944569230079651,-0.05273934826254845,-0.01789786480367184,0.008149301633238792,XTrueNorthZVertical,-0.8700528681288631,0.1464576225509231,-0.2669571512644184,0.3876752033327643,-0.3509776890277863,0.7527916431427002,0.5568836331367493,-5.581475734710693,22.18612289428711,35.41091156005859,2,0.0.0.0,10.83.46.32,2,0
2015-03-01 20:04:51.914,44,1425269087.734268,37.76574330768847,-122.4603393582673,81.73787,-1,-1,10,65,-9999,1425269091.882385,-9.563720703125,19.51593017578125,35.69875717163086,36.84041976928711,23.06335639953613,10,196213.1559822084,-0.4425506591796875,0.699493408203125,0.5061492919921875,196213.1366200417,0.1211360127111262,0.2226842092886106,-0.5171408762709657,196213.1366200417,3.104691650382242,-2.53781342897729,-0.8471432801985459,0.1025606915354729,0.2410827875137329,-0.4848774373531342,-0.04184295609593391,-0.06085435673594475,-0.02201913855969906,XTrueNorthZVertical,-0.8679968928026501,0.1382438019236185,-0.2782433417218922,0.3873637831998825,-0.3759274184703827,0.7493919730186462,0.5450599193572998,-9.44766902923584,19.78706550598145,35.65297698974609,2,0.0.0.0,10.83.46.32,2,0
2015-03-01 20:04:51.941,45,1425269087.734268,37.76574330768847,-122.4603393582673,81.73787,-1,-1,10,65,-9999,1425269091.934321,-10.39926147460938,19.29501342773438,35.68211364746094,39.17471694946289,25.39765167236328,10,196213.2050716667,-0.4757080078125,0.6586761474609375,0.5175628662109375,196213.188392875,-0.04881920489056954,0.0930077052777093,-0.5783925160783522,196213.188392875,3.136540748497984,-2.505490580446966,-0.8318499035168773,-0.06739433109760284,0.1114061027765274,-0.5461294054985046,-0.05536681413650513,-0.05680551752448082,-0.02801941521465778,XTrueNorthZVertical,-0.8685436964577183,0.128542867480991,-0.2870232005251735,0.3830486566435866,-0.4001080393791199,0.7391785383224487,0.5417828559875488,-10.23500537872314,19.66799926757812,35.5012092590332,2,0.0.0.0,10.83.46.32,2,0
2015-03-01 20:04:52.013,46,1425269087.734268,37.76574330768847,-122.4603393582673,81.73787,-1,-1,10,65,-9999,1425269091.986035,-10.75735473632812,19.21005249023438,35.56562042236328,39.5812873840332,25.80422210693359,10,196213.2541017917,-0.5158843994140625,0.64678955078125,0.5364227294921875,196213.24016375,-0.1817101443371965,-0.05646354248353298,-0.4777471311104046,196213.188392875,3.136540748497984,-2.505490580446966,-0.8318499035168773,-0.06739433109760284,0.1114061027765274,-0.5461294054985046,-0.05536681413650513,-0.05680551752448082,-0.02801941521465778,XTrueNorthZVertical,-0.8685436964577183,0.128542867480991,-0.2870232005251735,0.3830486566435866,-0.4001080393791199,0.7391785383224487,0.5417828559875488,-10.23500537872314,19.66799926757812,35.5012092590332,2,0.0.0.0,10.83.46.32,2,0
2015-03-01 20:04:52.039,47,1425269087.734268,37.76574330768847,-122.4603393582673,81.73787,-1,-1,10,65,-9999,1425269091.986035,-10.75735473632812,19.21005249023438,35.56562042236328,39.5812873840332,25.80422210693359,10,196213.303208375,-0.5630645751953125,0.615234375,0.5868988037109375,196213.29193675,-0.2598502201973205,-0.1237040989502896,-0.3964008756139343,196213.29193675,-3.109389050635639,-2.479852999523632,-0.7859157292845774,-0.2784284651279449,-0.1053011640906334,-0.3641535937786102,-0.1234997510910034,-0.06852612644433975,0.01586026139557362,XTrueNorthZVertical,-0.8755644345679029,0.1103151705132783,-0.2942347235981502,0.3669379020166472,-0.4342852830886841,0.7074726819992065,0.5575650334358215,-11.36622905731201,18.44386863708496,35.81275939941406,2,0.0.0.0,10.83.46.32,2,0
2015-03-01 20:04:52.084,48,1425269087.734268,37.76574330768847,-122.4603393582673,81.73787,-1,-1,10,65,-9999,1425269092.039238,-11.43943023681641,18.70028686523438,35.59890365600586,42.66948699951172,28.89242172241211,10,196213.35223775,-0.5414581298828125,0.649810791015625,0.594940185546875,196213.34370975,-0.2823957430376042,-0.03632844674587989,-0.2358788409094082,196213.29193675,-3.109389050635639,-2.479852999523632,-0.7859157292845774,-0.2784284651279449,-0.1053011640906334,-0.3641535937786102,-0.1234997510910034,-0.06852612644433975,0.01586026139557362,XTrueNorthZVertical,-0.8755644345679029,0.1103151705132783,-0.2942347235981502,0.3669379020166472,-0.4342852830886841,0.7074726819992065,0.5575650334358215,-11.36622905731201,18.44386863708496,35.81275939941406,2,0.0.0.0,10.83.46.32,2,0
2015-03-01 20:04:52.137,49,1425269087.734268,37.76574330768847,-122.4603393582673,81.73787,-1,-1,10,65,-9999,1425269092.089341,-11.74635314941406,17.88458251953125,35.86516952514648,44.85744857788086,31.08038520812988,10,196213.4013299167,-0.5572357177734375,0.5955352783203125,0.6109771728515625,196213.3954805417,-0.2621602461268552,-0.1164608334174921,-0.08099125612316277,196213.34370975,-3.107094798342031,-2.479530212312112,-0.7660046197974077,-0.3009738028049469,-0.01792571693658829,-0.2036319077014923,-0.09726027399301529,-0.04251978546380997,0.0215723030269146,XTrueNorthZVertical,-0.8791526602877605,0.1063137691583253,-0.2953292095823964,0.3585647121463347,-0.4430381953716278,0.6932613849639893,0.5684240460395813,-11.52344512939453,17.8250675201416,36.07489776611328,2,0.0.0.0,10.83.46.32,2,0
2015-03-01 20:04:52.214,50,1425269087.734268,37.76574330768847,-122.4603393582673,81.73787,-1,-1,10,65,-9999,1425269092.193057,-11.54173278808594,16.66104125976562,36.66395950317383,47.06490325927734,33.28783798217773,10,196213.45038575,-0.6279144287109375,0.608734130859375,0.647125244140625,196213.4472535,-0.2392964755363069,-0.216109663505532,0.1587856536737944,196213.3954805417,-3.112737296168516,-2.487182883309269,-0.7503479425552994,-0.2807381153106689,-0.09805828332901001,-0.04874464869499207,-0.1103596687316895,-0.05779357254505157,0.02941734157502651,XTrueNorthZVertical,-0.8826860239463123,0.1050473554356844,-0.2940050640362218,0.3512712214225919,-0.445228099822998,0.6818932890892029,0.5803391337394714,-11.59864234924316,17.04768753051758,36.42483901977539,2,0.0.0.0,10.83.46.32,2,0
2015-03-01 20:04:52.236,51,1425269087.734268,37.76574330768847,-122.4603393582673,81.73787,-1,-1,10,65,-9999,1425269092.193057,-11.54173278808594,16.66104125976562,36.66395950317383,47.06490325927734,33.28783798217773,10,196213.4995718334,-0.5967254638671875,0.64117431640625,0.6991424560546875,196213.499026625,-0.210698652802709,-0.2345533856348758,0.550627197501513,196213.4472535,-3.122706391394657,-2.495635972617072,-0.73236095029281,-0.2578894793987274,-0.1976906210184097,0.1909914463758469,-0.1717208176851273,-0.07695229351520538,0.03514055162668228,XTrueNorthZVertical,-0.8864577170452853,0.105276755327083,-0.293130285441134,0.342321732977481,-0.447618156671524,0.6686270833015442,0.5937809348106384,-11.73669624328613,16.30349922180176,36.72011566162109,2,0.0.0.0,10.83.46.32,2,0
2015-03-01 20:04:52.282,52,1425269087.734268,37.76574330768847,-122.4603393582673,81.73787,-1,-1,10,65,-9999,1425269092.245498,-10.72324371337891,16.04925537109375,36.96350860595703,46.56665420532227,32.78958892822266,10,196213.5485089167,-0.5699615478515625,0.637115478515625,0.689300537109375,196213.499026625,-0.210698652802709,-0.2345533856348758,0.550627197501513,196213.499026625,3.135375158393287,-2.518184475013848,-0.7268932207172021,-0.2293010652065277,-0.2161231637001038,0.5828034281730652,-0.1574597656726837,-0.0131841404363513,0.09066049754619598,XTrueNorthZVertical,-0.8892939906395521,0.111789569035356,-0.2876982811134236,0.3374744463577882,-0.4362444579601288,0.664551317691803,0.6066814064979553,-11.4984245300293,15.81155586242676,37.00948715209961,2,0.0.0.0,10.83.46.32,2,0
2015-03-01 20:04:52.333,53,1425269087.734268,37.76574330768847,-122.4603393582673,81.73787,-1,-1,10,65,-9999,1425269092.29741,-9.887702941894531,16.2362060546875,36.58075714111328,44.34444046020508,30.56737518310547,10,196213.597709125,-0.5759124755859375,0.7169036865234375,0.7667388916015625,196213.602570375,0.2641986296252018,-0.6825902916243564,1.438126962350964,196213.550797125,3.081372579955203,-2.570142932113536,-0.7431139928114878,-0.1135815903544426,-0.4146184623241425,1.049979567527771,-0.1716969162225723,-0.03946874663233757,0.06993061304092407,XTrueNorthZVertical,-0.8905013156027852,0.1291989560664601,-0.2729883714748737,0.3402828208026182,-0.3982646465301514,0.6765842437744141,0.6193699240684509,-10.24979019165039,15.80057048797607,37.37920379638672,2,0.0.0.0,10.83.46.32,2,0
2015-03-01 20:04:52.384,54,1425269087.734268,37.76574330768847,-122.4603393582673,81.73787,-1,-1,10,65,-9999,1425269092.3492,-8.284835815429688,16.77999877929688,36.61404037475586,39.16964340209961,25.39258003234863,10,196213.646622125,-0.502593994140625,0.73004150390625,0.76416015625,196213.602570375,0.2641986296252018,-0.6825902916243564,1.438126962350964,196213.602570375,3.007496782266319,-2.649142770779693,-0.779960514890856,0.2455964684486389,-0.6641603112220764,1.470302104949951,-0.2397893071174622,0.01365233864635229,0.1402735710144043,XTrueNorthZVertical,-0.8887968162385237,0.1525545111043586,-0.2496391193412372,0.3527714034801436,-0.3361231684684753,0.7032513618469238,0.6264653205871582,-8.554487228393555,16.30966377258301,37.58638763427734,2,0.0.0.0,10.83.46.32,2,0
2015-03-01 20:04:52.431,55,1425269087.734268,37.76574330768847,-122.4603393582673,81.73787,-1,-1,10,65,-9999,1425269092.400934,-5.795265197753906,17.52774047851562,36.84702301025391,31.62470626831055,17.84764289855957,10,196213.6957013333,-0.4188385009765625,0.8154296875,0.7306060791015625,196213.6543432084,0.5280489177798213,-0.5931365748213578,2.009080736872507,196213.6543432084,2.902948326231273,-2.755630451835353,-0.8346591032932594,0.50945645570755,-0.5747244954109192,2.041308641433716,-0.2498335391283035,-0.01102616265416145,0.1421224474906921,XTrueNorthZVertical,-0.8815716524747469,0.1839844390979583,-0.2214321967137617,0.3740975038865086,-0.2527604699134827,0.74106764793396,0.6220377087593079,-6.264021396636963,17.32320022583008,37.58444213867188,2,0.0.0.0,10.83.46.32,2,0
2015-03-01 20:04:52.471,56,1425269087.734268,37.76574330768847,-122.4603393582673,81.73787,-1,-1,10,65,-9999,1425269092.454124,-2.401947021484375,18.56436157226562,36.83037948608398,20.44299507141113,6.66593074798584,10,196213.74474275,-0.41607666015625,0.9625091552734375,0.7871856689453125,196213.706114125,0.8602806606121873,-0.8440803853851263,2.5346838075072,196213.706114125,2.747789668486929,-2.909776141806967,-0.9045946729101985,0.841688334941864,-0.8256685137748718,2.566911458969116,-0.2658072412014008,0.0747719332575798,0.1304452121257782,XTrueNorthZVertical,-0.8662596780372434,0.2243451098254256,-0.1869337607914552,0.4053630760360854,-0.1419839113950729,0.7861747145652771,0.6014730930328369,-2.432256698608398,19.26485443115234,37.07924652099609,2,0.0.0.0,10.83.46.32,2,0
2015-03-01 20:04:52.531,57,1425269087.734268,37.76574330768847,-122.4603393582673,81.73787,-1,-1,10,65,-9999,1425269092.504462,1.485870361328125,20.36563110351562,35.66546249389648,7.080409049987793,353.3033447265625,10,196213.7938605833,-0.2863922119140625,0.806427001953125,0.7954254150390625,196213.757887,1.193048231455877,-0.8231804297824025,2.643647842456119,196213.757887,2.532242613009526,-3.128641027040099,-0.9707797240983839,1.174456119537354,-0.8047687411308289,2.675875425338745,-0.4239766597747803,0.1169192418456078,0.2663542926311493,XTrueNorthZVertical,-0.8428333235672243,0.2682096470783776,-0.1454191630226477,0.4433383057636199,-0.007313011679798365,0.8253262639045715,0.5646088719367981,1.434167265892029,20.83805084228516,36.27175140380859,2,0.0.0.0,10.83.46.32,2,0
2015-03-01 20:04:52.570,58,1425269087.734268,37.76574330768847,-122.4603393582673,81.73787,-1,-1,10,65,-9999,1425269092.556571,5.407787322998047,21.69110107421875,34.70025253295898,356.2763977050781,342.4993286132812,10,196213.8429780834,0.0342864990234375,0.86553955078125,0.6951446533203125,196213.80966025,1.461955329888339,0.4074069214509047,2.845732234396857,196213.80966025,2.266322843887325,2.928123208984694,-1.023672226849516,1.443363308906555,0.4258184432983398,2.877959251403809,-0.327207624912262,0.002100687241181731,0.2583597004413605,XTrueNorthZVertical,-0.8072995773856645,0.3201247809189545,-0.1222598982259802,0.4804581633328111,0.1102124005556107,0.8540241718292236,0.5084249377250671,4.860376358032227,22.43630599975586,34.99871444702148,2,0.0.0.0,10.83.46.32,2,0
2015-03-01 20:04:52.627,59,1425269087.734268,37.76574330768847,-122.4603393582673,81.73787,-1,-1,10,65,-9999,1425269092.60814,9.125083923339844,23.08456420898438,32.83638381958008,347.9273681640625,334.1502990722656,10,196213.891935875,0.23345947265625,0.8672332763671875,0.5431976318359375,196213.8614308333,1.710586717677592,0.1359391936303317,3.022165591350171,196213.8614308333,1.93590367953016,2.657049332231644,-1.049227584080534,1.691994905471802,0.1543505191802979,3.054392337799072,-0.1368221491575241,-0.05838384851813316,0.2520753145217896,XTrueNorthZVertical,-0.7602601857729466,0.3774229837851537,-0.1046556613857194,0.5182697620081267,0.2320827692747116,0.8670386075973511,0.4408873319625854,8.324467658996582,24.42781448364258,32.95309448242188,2,0.0.0.0,10.83.46.32,2,0
2015-03-01 20:04:52.667,60,1425269087.734268,37.76574330768847,-122.4603393582673,81.73787,-1,-1,10,65,-9999,1425269092.660557,12.36492919921875,24.10418701171875,31.03908920288086,341.7459106445312,327.9688415527344,10,196213.9410913333,0.719512939453125,0.758026123046875,0.0303497314453125,196213.913204,1.886142030419506,0.7277561721315553,2.817312577140186,196213.913204,1.592240860373429,2.380069923562603,-1.03806001694405,1.867550492286682,0.7461672425270081,2.849538803100586,0.08081628382205963,-0.4165200293064117,0.1004426330327988,XTrueNorthZVertical,-0.7050320380725651,0.4321256271579591,-0.09151593024681723,0.5548171902424183,0.3504581153392792,0.8614205718040466,0.3676054775714874,11.29076957702637,25.67888259887695,31.06501007080078,2,0.0.0.0,10.83.46.32,2,0
2015-03-01 20:04:52.725,61,1425269087.734268,37.76574330768847,-122.4603393582673,81.73787,-1,-1,10,65,-9999,1425269092.711489,15.55361938476562,24.42706298828125,29.25843048095703,336.7570495605469,322.97998046875,10,196213.9900575833,0.5803680419921875,0.80517578125,0.212860107421875,196213.9649769167,1.441975762758347,-0.5881878888837726,2.355930570928318,196213.9649769167,1.304652694655489,2.157725326807074,-0.9847973358024577,1.423384308815002,-0.5697769522666931,2.388156652450562,0.3141328990459442,0.288940817117691,-0.2628004848957062,XTrueNorthZVertical,-0.648934192978153,0.4816853709945477,-0.07846759938794425,0.5837006637248043,0.4604795277118683,0.8331600427627563,0.3062727749347687,13.66194725036621,26.4821605682373,29.39332580566406,2,0.0.0.0,10.83.46.32,2,0
2015-03-01 20:04:52.765,62,1425269087.734268,37.76574330768847,-122.4603393582673,81.73787,-1,-1,10,65,-9999,1425269092.711489,15.55361938476562,24.42706298828125,29.25843048095703,336.7570495605469,322.97998046875,10,196214.0391570833,0.6241607666015625,0.7634735107421875,0.16326904296875,196214.0167478333,0.7045965243438992,-0.341605803553336,2.023208540139268,196214.0167478333,1.136377009557978,1.979038982272492,-0.9136250063242698,0.6860052943229675,-0.3231950402259827,2.055434465408325,-0.06755934655666351,-0.07109654694795609,-0.03585241734981537,XTrueNorthZVertical,-0.6077585687888097,0.5018846973719856,-0.04555043838830798,0.6137315721087576,0.5606776475906372,0.791723370552063,0.2425174564123154,18.47290802001953,26.38492012023926,26.73029708862305,2,0.0.0.0,10.83.46.32,2,0
2015-03-01 20:04:52.823,63,1425269087.734268,37.76574330768847,-122.4603393582673,81.73787,-1,-1,10,65,-9999,1425269092.815492,22.10152053833008,22.65975952148438,26.16308212280273,324.9159545898438,311.1388854980469,10,196214.0881735834,0.7608489990234375,0.785186767578125,0.1493377685546875,196214.06852075,0.02807797368881442,-0.01842854211113031,1.562453175731896,196214.06852075,1.066251723032452,1.930035145937978,-0.8377750888275268,0.009486954659223557,-1.795740536181256e-05,1.594678640365601,0.1242057383060455,0.03080006688833237,-0.0819922611117363,XTrueNorthZVertical,-0.5811319414612887,0.5290593589630075,-0.02359874951105189,0.6179198756808568,0.6264045834541321,0.7431562542915344,0.2352362722158432,20.64500427246094,25.26702117919922,26.21607208251953,2,0.0.0.0,10.83.46.32,2,0
2015-03-01 20:04:52.863,64,1425269087.734268,37.76574330768847,-122.4603393582673,81.73787,-1,-1,10,65,-9999,1425269092.815492,22.10152053833008,22.65975952148438,26.16308212280273,324.9159545898438,311.1388854980469,10,196214.1373229584,0.5632476806640625,0.737030029296875,0.299530029296875,196214.120294,-0.1238274033087603,-0.7084897995414861,1.291469077965282,196214.120294,1.038306058822827,1.883728434574511,-0.7675379163688654,-0.1424180865287781,-0.6900794506072998,1.323694229125977,-0.06626579910516739,0.09191982448101044,0.04485240578651428,XTrueNorthZVertical,-0.5632678509116826,0.5417537212122014,0.007760494000858921,0.6238365337552586,0.6846740245819092,0.6943655610084534,0.2215355336666107,22.6334171295166,23.7224235534668,26.01723098754883,2,0.0.0.0,10.83.46.32,2,0
2015-03-01 20:04:52.921,65,1425269087.734268,37.76574330768847,-122.4603393582673,81.73787,-1,-1,10,65,-9999,1425269092.86776,24.50582885742188,21.07940673828125,25.9134521484375,319.2970581054688,305.5199890136719,10,196214.1862947917,0.65582275390625,0.688690185546875,0.2342376708984375,196214.1720645833,-0.1847725132746786,-0.1979381164395943,1.144136348559373,196214.1720645833,1.024926718902977,1.854760151290714,-0.7068437093720679,-0.2033637464046478,-0.1795274019241333,1.176360249519348,-0.1302770525217056,0.05907443538308144,0.06779778748750687,XTrueNorthZVertical,-0.549008533045365,0.5523673994196991,0.03464681828973998,0.62632219912513,0.7299627065658569,0.649436891078949,0.2130402326583862,25.19845771789551,21.65870094299316,25.45308494567871,2,0.0.0.0,10.83.46.32,2,0
2015-03-01 20:04:52.961,66,1425269087.734268,37.76574330768847,-122.4603393582673,81.73787,-1,-1,10,65,-9999,1425269092.924241,26.21101379394531,19.0062255859375,25.51406097412109,313.9085693359375,300.1315002441406,10,196214.2354340417,0.5972747802734375,0.5498504638671875,0.1552886962890625,196214.2238377917,-0.2512149203627385,-0.3905318012036177,1.019457266334005,196214.1720645833,1.024926718902977,1.854760151290714,-0.7068437093720679,-0.2033637464046478,-0.1795274019241333,1.176360249519348,-0.1302770525217056,0.05907443538308144,0.06779778748750687,XTrueNorthZVertical,-0.549008533045365,0.5523673994196991,0.03464681828973998,0.62632219912513,0.7299627065658569,0.649436891078949,0.2130402326583862,25.19845771789551,21.65870094299316,25.45308494567871,2,0.0.0.0,10.83.46.32,2,0
2015-03-01 20:04:53.020,67,1425269087.734268,37.76574330768847,-122.4603393582673,81.73787,-1,-1,10,65,-9999,1425269092.996996,28.95635223388672,15.62457275390625,24.79846954345703,305.1815795898438,291.4045104980469,10,196214.2844005417,0.7108001708984375,0.4531402587890625,0.1712493896484375,196214.2756107083,-0.3210158399014973,-0.231199933190248,0.9421675378099438,196214.2756107083,1.021648574923775,1.821255677279251,-0.5995557111166437,-0.3396070599555969,-0.2127892374992371,0.9743900299072266,-0.1298441141843796,-0.1051540225744247,-0.01318400260061026,XTrueNorthZVertical,-0.5269303731344567,0.569784842838973,0.0829617063607956,0.6251455690076525,0.7998270392417908,0.5642757415771484,0.2046207636594772,27.84621810913086,18.53081321716309,25.16184234619141,2,0.0.0.0,10.83.46.32,2,0
2015-03-01 20:04:53.060,68,1425269087.734268,37.76574330768847,-122.4603393582673,81.73787,-1,-1,10,65,-9999,1425269093.048313,30.38871002197266,13.51742553710938,24.96488952636719,300.5003051757812,286.7232360839844,10,196214.333566625,0.7947998046875,0.4188995361328125,0.186676025390625,196214.2756107083,-0.3210158399014973,-0.231199933190248,0.9421675378099438,196214.2756107083,1.021648574923775,1.821255677279251,-0.5995557111166437,-0.3396070599555969,-0.2127892374992371,0.9743900299072266,-0.1298441141843796,-0.1051540225744247,-0.01318400260061026,XTrueNorthZVertical,-0.5269303731344567,0.569784842838973,0.0829617063607956,0.6251455690076525,0.7998270392417908,0.5642757415771484,0.2046207636594772,27.84621810913086,18.53081321716309,25.16184234619141,2,0.0.0.0,10.83.46.32,2,0
2015-03-01 20:04:53.124,69,1425269087.734268,37.76574330768847,-122.4603393582673,81.73787,-1,-1,10,65,-9999,1425269093.100273,31.29245758056641,11.80108642578125,24.84839630126953,296.5694274902344,282.7923583984375,10,196214.3826209583,0.8750762939453125,0.4646453857421875,0.1279144287109375,196214.3791545834,-0.4664071248727382,-0.1946134261347394,0.5390688120544601,196214.3273816667,1.029528412766241,1.81739345620276,-0.5499626353656764,-0.3737902939319611,-0.2683850824832916,0.7495608925819397,-0.05098140239715576,-0.07026279717683792,-0.03792937844991684,XTrueNorthZVertical,-0.5190100113465597,0.5785187419411998,0.1048971898365391,0.6204363507581255,0.8267534971237183,0.5226553678512573,0.2081106603145599,29.1435546875,16.36008262634277,25.19766235351562,2,0.0.0.0,10.83.46.32,2,0
2015-03-01 20:04:53.158,70,1425269087.734268,37.76574330768847,-122.4603393582673,81.73787,-1,-1,10,65,-9999,1425269093.152605,32.24735641479492,9.863861083984375,24.88168334960938,292.1194458007812,278.3423767089844,10,196214.43169875,0.7965545654296875,0.3555450439453125,0.1735076904296875,196214.43092775,-0.5984077695669517,-0.5302928973143221,0.2224061752708064,196214.3791545834,1.044880923839014,1.815825535723935,-0.5127793036490762,-0.4849978387355804,-0.1762033700942993,0.5712915062904358,0.01610913313925266,-0.05334512144327164,-0.07922811061143875,XTrueNorthZVertical,-0.5157024839105837,0.5828749337605953,0.123819764151576,0.6156106221633368,0.8453563451766968,0.490600973367691,0.2113844752311707,29.87979507446289,14.96714019775391,25.20126533508301,2,0.0.0.0,10.83.46.32,2,0
2015-03-01 20:04:53.216,71,1425269087.734268,37.76574330768847,-122.4603393582673,81.73787,-1,-1,10,65,-9999,1425269093.152605,32.24735641479492,9.863861083984375,24.88168334960938,292.1194458007812,278.3423767089844,10,196214.4806159167,0.8157958984375,0.400634765625,0.193634033203125,196214.4826984167,-0.7343943674646868,-0.5807656589257217,0.2704064581261765,196214.43092775,1.067521254995737,1.800251060619465,-0.4877076990155789,-0.6169801950454712,-0.5118935704231262,0.2546383738517761,-0.02991818264126778,-0.09918680042028427,-0.02584909647703171,XTrueNorthZVertical,-0.5159713907213104,0.5781329823220209,0.1440160866518421,0.6154633684687486,0.8602557182312012,0.4686020910739899,0.2009284496307373,30.67290115356445,13.74349021911621,24.94415473937988,2,0.0.0.0,10.83.46.32,2,0
2015-03-01 20:04:53.256,72,1425269087.734268,37.76574330768847,-122.4603393582673,81.73787,-1,-1,10,65,-9999,1425269093.203921,32.86122894287109,8.77630615234375,24.51557159423828,289.1553649902344,275.3782958984375,10,196214.5296610417,0.8311004638671875,0.3663177490234375,0.1828155517578125,196214.4826984167,-0.7343943674646868,-0.5807656589257217,0.2704064581261765,196214.4826984167,1.102091238417504,1.791584007557191,-0.4663248561700511,-0.7529665231704712,-0.5623665452003479,0.3026382327079773,-0.05574794858694077,-0.04897182807326317,-0.001981052337214351,XTrueNorthZVertical,-0.5207133104682041,0.5715463157524536,0.1646462088606163,0.612441095609785,0.871543824672699,0.4496065974235535,0.1956150829792023,31.61493682861328,12.26608085632324,24.53487968444824,2,0.0.0.0,10.83.46.32,2,0
2015-03-01 20:04:53.320,73,1425269087.734268,37.76574330768847,-122.4603393582673,81.73787,-1,-1,10,65,-9999,1425269093.3075,34.54935836791992,5.564605712890625,22.50193023681641,279.3776550292969,265.6005859375,10,196214.578725875,0.822021484375,0.345458984375,0.22027587890625,196214.5862445833,-0.7244008554741644,-0.592942164061782,0.4248202665544968,196214.534471625,1.140044010601699,1.779304632811322,-0.4388638838043936,-0.7798411250114441,-0.5758354067802429,0.4045526385307312,-0.05452786758542061,-0.05859353765845299,-0.004568770527839661,XTrueNorthZVertical,-0.5245710496636179,0.5643734358615652,0.1892953582602071,0.6086666727549733,0.885628342628479,0.4249112904071808,0.1873843222856522,32.43410110473633,10.89249229431152,24.11024284362793,2,0.0.0.0,10.83.46.32,4,0
2015-03-01 20:04:53.354,74,1425269087.734268,37.76574330768847,-122.4603393582673,81.73787,-1,-1,10,65,-9999,1425269093.3075,34.54935836791992,5.564605712890625,22.50193023681641,279.3776550292969,265.6005859375,10,196214.627769875,0.907684326171875,0.360809326171875,0.1751708984375,196214.5862445833,-0.7244008554741644,-0.592942164061782,0.4248202665544968,196214.5862445833,1.176784496905501,1.765036234191116,-0.4111425110263379,-0.7429729700088501,-0.574543297290802,0.457051545381546,-0.07740515470504761,-0.05419790372252464,0.04334050789475441,XTrueNorthZVertical,-0.5275001188216929,0.5569661658230157,0.2139899093849958,0.6047649509402464,0.8994266390800476,0.3996568918228149,0.1769353747367859,33.24374389648438,9.468671798706055,23.60337066650391,2,0.0.0.0,10.83.46.32,4,0
2015-03-01 20:04:53.412,75,1425269087.734268,37.76574330768847,-122.4603393582673,81.73787,-1,-1,10,65,-9999,1425269093.359477,35.38489532470703,3.440460205078125,21.88619232177734,274.61328125,260.8362121582031,10,196214.676837,0.8753204345703125,0.2673492431640625,0.171844482421875,196214.6380155,-0.583430151596346,-0.7482590504157483,0.4382737574332501,196214.6380155,1.207190443702344,1.746423718950749,-0.38084599774854,-0.6019919514656067,-0.7298820018768311,0.4705586433410645,-0.01801267825067043,-0.02330205403268337,0.01732802018523216,XTrueNorthZVertical,-0.5272478951136228,0.5505570844836059,0.2385943680122173,0.6016388400102383,0.9140698313713074,0.3717059791088104,0.1622068881988525,34.29481887817383,7.521634101867676,22.78621482849121,2,0.0.0.0,10.83.46.32,4,0
2015-03-01 20:04:53.452,76,1425269087.734268,37.76574330768847,-122.4603393582673,81.73787,-1,-1,10,65,-9999,1425269093.410642,36.25453567504883,1.9620361328125,20.77119445800781,270.2627868652344,256.4857177734375,10,196214.7258805,0.9329833984375,0.2215423583984375,0.137298583984375,196214.6897884167,-0.4433667867019177,-0.5683137829329473,0.3221676570729566,196214.6897884167,1.232223840800224,1.720752174383885,-0.3559933196037743,-0.4619285762310028,-0.549936830997467,0.35445237159729,-0.05408615618944168,-0.07895980775356293,0.02383657731115818,XTrueNorthZVertical,-0.525389924285287,0.5421984933995274,0.2613569215032824,0.6013973671624763,0.9267820715904236,0.3485215902328491,0.1400275528430939,35.16823577880859,6.253010272979736,21.81779670715332,2,0.0.0.0,10.83.46.32,4,0
2015-03-01 20:04:53.520,77,1425269087.734268,37.76574330768847,-122.4603393582673,81.73787,-1,-1,10,65,-9999,1425269093.462979,37.05596923828125,0.755523681640625,19.88918304443359,266.7726135253906,252.9955444335938,10,196214.774944875,0.9618682861328125,0.119873046875,0.06982421875,196214.7415616667,-0.3282489854221525,-0.3283930624371258,0.1813514165383628,196214.7415616667,1.25098531411767,1.706734437339631,-0.3341367964979839,-0.3468126356601715,-0.3100201785564423,0.213653564453125,0.0005295565933920443,-0.1152463108301163,-0.02041975595057011,XTrueNorthZVertical,-0.5236583418196408,0.5383254673765649,0.2779966652867755,0.5989202774483323,0.9359786510467529,0.3279538154602051,0.1280247420072556,35.72208404541016,5.302470684051514,21.15980529785156,2,0.0.0.0,10.83.46.32,4,0
2015-03-01 20:04:53.550,78,1425269087.734268,37.76574330768847,-122.4603393582673,81.73787,-1,-1,10,65,-9999,1425269093.514587,37.5163688659668,0.19476318359375,18.80747985839844,263.798095703125,250.0210418701172,10,196214.824089,0.9709930419921875,0.0340728759765625,-0.007171630859375,196214.7933324167,-0.1441750193014017,-0.3191284576369582,0.02910888334678409,196214.7933324167,1.260991483491524,1.689674713138214,-0.3120350921505717,-0.1627404540777206,-0.3007692992687225,0.06146299093961716,0.02383241057395935,-0.2039229720830917,-0.05421676859259605,XTrueNorthZVertical,-0.5188643280510442,0.5359249811009742,0.2927532312527011,0.5982138260956601,0.9449939131736755,0.306996077299118,0.1128715500235558,36.36805725097656,3.837139129638672,20.36079597473145,2,0.0.0.0,10.83.46.32,4,0
2015-03-01 20:04:53.614,79,1425269087.734268,37.76574330768847,-122.4603393582673,81.73787,-1,-1,10,65,-9999,1425269093.566624,37.70393753051758,-0.29803466796875,18.29158782958984,262.279296875,248.5022430419922,10,196214.873059,1.000289916992188,-0.0171356201171875,-0.0533447265625,196214.8451054583,-0.03490631872377759,-0.1222899604114576,-0.06535024472501839,196214.8451054583,1.26516417409002,1.681238960333968,-0.3110950477602331,-0.05347153916954994,-0.1039310172200203,-0.03299649059772491,0.05312979221343994,-0.2932839095592499,-0.127022385597229,XTrueNorthZVertical,-0.5185189844938144,0.5325428542484779,0.2964990390750412,0.5996870045021918,0.9461988210678101,0.3061012923717499,0.104927659034729,36.59340286254883,3.683334350585938,19.98192596435547,2,0.0.0.0,10.83.46.32,4,0
2015-03-01 20:04:53.649,80,1425269087.734268,37.76574330768847,-122.4603393582673,81.73787,-1,-1,10,65,-9999,1425269093.619645,38.1813850402832,-0.433990478515625,17.35965728759766,260.9542541503906,247.1771850585938,10,196214.9221099583,1.001602172851562,0.035919189453125,-0.04541015625,196214.8968784584,0.02209172019053431,-0.01450277634824451,-0.1709230103418306,196214.8968784584,1.267035499030362,1.680060312553706,-0.3149865560801085,0.003526685759425163,0.003855986753478646,-0.1385695785284042,0.06355167180299759,-0.286823958158493,-0.1677533239126205,XTrueNorthZVertical,-0.519742048385279,0.5307626939587492,0.2960924989945953,0.6004068706418236,0.9451305866241455,0.309803694486618,0.103681668639183,36.65441131591797,3.721283912658691,19.86271095275879,2,0.0.0.0,10.83.46.32,4,0
2015-03-01 20:04:53.713,81,1425269087.734268,37.76574330768847,-122.4603393582673,81.73787,-1,-1,10,65,-9999,1425269093.670532,38.50536727905273,-0.179107666015625,17.57599639892578,261.8063354492188,248.0292816162109,10,196214.9711948333,0.9986419677734375,0.08026123046875,-0.031707763671875,196214.9486492084,0.01103480797674332,0.1615510801497327,-0.4212130148579845,196214.9486492084,1.268020127172845,1.684236018892013,-0.3290118097477409,-0.007530059199780226,0.1799096763134003,-0.3888598680496216,0.06988287717103958,-0.3040497601032257,-0.127968430519104,XTrueNorthZVertical,-0.5238375890308007,0.5283527630927667,0.2906977554085884,0.6016081494493671,0.940279483795166,0.3231079876422882,0.107124924659729,38.41684341430664,0.1056661605834961,17.60889625549316,2,0.0.0.0,10.83.46.32,4,0
2015-03-01 20:04:53.746,82,1425269087.734268,37.76574330768847,-122.4603393582673,81.73787,-1,-1,10,65,-9999,1425269093.722267,38.69293975830078,0.653564453125,17.89218902587891,263.9924621582031,250.2153930664062,10,196215.02033725,0.903717041015625,0.1684112548828125,0.0256500244140625,196215.0004225,0.07205368750485684,0.192750012320011,-0.7474838042224262,196215.0004225,1.270821762750317,1.697074121578884,-0.3571234548158687,0.05348900333046913,0.2111084163188934,-0.7151309847831726,0.03692340105772018,-0.2103899568319321,-0.1361694931983948,XTrueNorthZVertical,-0.5327380584860042,0.5245839315669661,0.2788622847301383,0.6026920427301503,0.9294462203979492,0.3495806157588959,0.1179962828755379,38.22366714477539,0.9405965805053711,18.0001335144043,2,0.0.0.0,10.83.46.32,4,0
2015-03-01 20:04:53.813,83,1425269087.734268,37.76574330768847,-122.4603393582673,81.73787,-1,-1,10,65,-9999,1425269093.774374,38.26664352416992,1.588226318359375,18.50792694091797,266.6382751464844,252.8612213134766,10,196215.069313875,0.7733001708984375,0.2853851318359375,0.076568603515625,196215.0521955417,0.2253798609439888,0.4042358955409474,-0.9512579718748202,196215.0521955417,1.269700540905416,1.711283254713625,-0.399741481041232,0.2068153768777847,0.4225941002368927,-0.91890549659729,-0.09101086109876633,-0.1563463509082794,-0.07503082603216171,XTrueNorthZVertical,-0.5436642077524484,0.5185770722738048,0.2604538630575599,0.6063586784833478,0.9120863080024719,0.3891802132129669,0.1289858967065811,37.9765739440918,2.321085929870605,18.39376831054688,2,0.0.0.0,10.83.46.32,4,0
2015-03-01 20:04:53.844,84,1425269087.734268,37.76574330768847,-122.4603393582673,81.73787,-1,-1,10,65,-9999,1425269093.826252,37.24353790283203,3.11761474609375,18.84075164794922,269.7909851074219,256.013916015625,10,196215.11847275,0.7339935302734375,0.3741912841796875,0.1117095947265625,196215.103966375,0.3076369175332663,0.6042592671140737,-1.001714221887462,196215.0521955417,1.269700540905416,1.711283254713625,-0.399741481041232,0.2068153768777847,0.4225941002368927,-0.91890549659729,-0.09101086109876633,-0.1563463509082794,-0.07503082603216171,XTrueNorthZVertical,-0.5436642077524484,0.5185770722738048,0.2604538630575599,0.6063586784833478,0.9120863080024719,0.3891802132129669,0.1289858967065811,37.9765739440918,2.321085929870605,18.39376831054688,2,0.0.0.0,10.83.46.32,4,0
2015-03-01 20:04:53.918,85,1425269087.734268,37.76574330768847,-122.4603393582673,81.73787,-1,-1,10,65,-9999,1425269093.876923,36.03285598754883,4.799957275390625,19.95574188232422,273.5328063964844,259.7557373046875,10,196215.16744325,0.69927978515625,0.457244873046875,0.130828857421875,196215.15573925,0.4119715795593006,0.6163026141956301,-0.9765177884981128,196215.15573925,1.254208801602712,1.76272477957192,-0.4993178206342069,0.3934074342250824,0.6346604824066162,-0.9441659450531006,-0.1516606509685516,-0.06441330909729004,-0.04655259102582932,XTrueNorthZVertical,-0.566002887572487,0.5131981574635092,0.2073232723421949,0.6109709122485593,0.8617894053459167,0.4788267612457275,0.1674632281064987,36.44511032104492,6.574435234069824,20.3585090637207,2,0.0.0.0,10.83.46.32,4,0
2015-03-01 20:04:53.943,86,1425269087.734268,37.76574330768847,-122.4603393582673,81.73787,-1,-1,10,65,-9999,1425269093.929103,34.90743255615234,7.14495849609375,20.95424652099609,278.7440795898438,264.9670104980469,10,196215.216592375,0.65435791015625,0.497039794921875,0.20391845703125,196215.207512375,0.411347068283677,0.5254414167565247,-0.8996070277971694,196215.15573925,1.254208801602712,1.76272477957192,-0.4993178206342069,0.3934074342250824,0.6346604824066162,-0.9441659450531006,-0.1516606509685516,-0.06441330909729004,-0.04655259102582932,XTrueNorthZVertical,-0.566002887572487,0.5131981574635092,0.2073232723421949,0.6109709122485593,0.8617894053459167,0.4788267612457275,0.1674632281064987,36.44511032104492,6.574435234069824,20.3585090637207,2,0.0.0.0,10.83.46.32,4,0
2015-03-01 20:04:54.014,87,1425269087.734268,37.76574330768847,-122.4603393582673,81.73787,-1,-1,10,65,-9999,1425269093.9811,33.8502197265625,9.795928955078125,22.21901702880859,285.3523254394531,271.5752563476562,10,196215.265567375,0.72589111328125,0.60357666015625,0.2003631591796875,196215.2592831667,0.470802672251914,0.8530557708909113,-0.8040115288882301,196215.207512375,1.241796952615382,1.784423730589898,-0.5476230597844463,0.392783135175705,0.5437990427017212,-0.8672555088996887,-0.1849734783172607,-0.002089408226311207,0.02093141339719296,XTrueNorthZVertical,-0.5740624013466512,0.5108366276611696,0.1803560638566663,0.6139788285135385,0.8343570232391357,0.520659327507019,0.1810034066438675,35.57234191894531,8.456934928894043,21.19026184082031,2,0.0.0.0,10.83.46.32,4,0
2015-03-01 20:04:54.039,88,1425269087.734268,37.76574330768847,-122.4603393582673,81.73787,-1,-1,10,65,-9999,1425269093.9811,33.8502197265625,9.795928955078125,22.21901702880859,285.3523254394531,271.5752563476562,10,196215.3146308333,0.687408447265625,0.5887603759765625,0.2298126220703125,196215.3110564167,0.4754381704453059,0.4885244114097373,-0.8987902362908421,196215.2592831667,1.228870928917725,1.814817522974988,-0.5920006948184454,0.452238917350769,0.8714132308959961,-0.7716603875160217,-0.08900943398475647,0.009528292343020439,0.003335454966872931,XTrueNorthZVertical,-0.5812448796787028,0.512250050779162,0.1517675512963865,0.61377593479248,0.8052417039871216,0.5580223798751831,0.2004914432764053,34.2333984375,10.74950885772705,22.32623672485352,2,0.0.0.0,10.83.46.32,4,0
2015-03-01 20:04:54.121,89,1425269087.734268,37.76574330768847,-122.4603393582673,81.73787,-1,-1,10,65,-9999,1425269094.087699,30.98551177978516,13.67041015625,24.31587219238281,296.0973815917969,282.3203125,10,196215.36370675,0.6998443603515625,0.626678466796875,0.2127227783203125,196215.3628293333,0.378007487229193,0.7568717133810645,-0.8797022954938082,196215.3110564167,1.213728885492242,1.840072040007365,-0.63769582924209,0.4568746984004974,0.5068818330764771,-0.8664400577545166,-0.07195529341697693,0.005301280412822962,0.01406401209533215,XTrueNorthZVertical,-0.5868607759967496,0.5123175614867911,0.1231941327937928,0.6147750514348761,0.7745157480239868,0.595345675945282,0.2137497067451477,33.02592086791992,12.43301582336426,23.2518196105957,2,0.0.0.0,10.83.46.32,4,0
2015-03-01 20:04:54.138,90,1425269087.734268,37.76574330768847,-122.4603393582673,81.73787,-1,-1,10,65,-9999,1425269094.087699,30.98551177978516,13.67041015625,24.31587219238281,296.0973815917969,282.3203125,10,196215.4127455,0.7147369384765625,0.7571563720703125,0.2155609130859375,196215.3628293333,0.378007487229193,0.7568717133810645,-0.8797022954938082,196215.3628293333,1.203310345417169,1.866840529023747,-0.6839406560522158,0.3594441115856171,0.7752290368080139,-0.8473525643348694,-0.04790477082133293,0.007780898362398148,0.000316949124680832,XTrueNorthZVertical,-0.5930552194877442,0.5112213286958828,0.09514339768012969,0.6147243333686152,0.7413709759712219,0.6318522691726685,0.2261234819889069,31.90308570861816,14.14762210845947,23.83225250244141,2,0.0.0.0,10.83.46.32,4,0
2015-03-01 20:04:54.224,91,1425269094.158682,37.76574054635136,-122.4603647048616,81.68233,-1,-1,10,65,-9999,1425269094.165005,27.89913177490234,16.84814453125,25.06474304199219,305.3742065429688,291.5971374511719,10,196215.4618249167,0.5921630859375,0.8306732177734375,0.2175445556640625,196215.46637325,0.1589321275337488,0.5886866989559445,-1.321534835091731,196215.414600125,1.204034900763944,1.901271207474077,-0.7333164636445031,0.2512769997119904,0.5686184763908386,-1.060897827148438,0.01198097411543131,0.08781906217336655,-0.02552342042326927,XTrueNorthZVertical,-0.6019374155905047,0.5081471384021876,0.06679100637609603,0.6123698288991778,0.7027559876441956,0.6693373322486877,0.2410843372344971,30.03662490844727,16.29117202758789,24.86638641357422,2,0.0.0.0,10.83.46.32,4,0
2015-03-01 20:04:54.242,92,1425269094.158682,37.76574054635136,-122.4603647048616,81.68233,-1,-1,10,65,-9999,1425269094.165005,27.89913177490234,16.84814453125,25.06474304199219,305.3742065429688,291.5971374511719,10,196215.5108719583,0.54022216796875,0.879913330078125,0.2838592529296875,196215.46637325,0.1589321275337488,0.5886866989559445,-1.321534835091731,196215.46637325,1.220384340038295,1.940841144508612,-0.7911569024935327,0.1403698176145554,0.6070435047149658,-1.289186954498291,-0.06327313929796219,0.1195061430335045,-0.03670880571007729,XTrueNorthZVertical,-0.6147158752375319,0.4992505120167652,0.03815539010714945,0.6094403150601154,0.6554362177848816,0.7111670970916748,0.2542533576488495,28.54687690734863,17.98526382446289,25.44689559936523,2,0.0.0.0,10.83.46.32,4,0
2015-03-01 20:04:54.327,93,1425269094.158682,37.76574054635136,-122.4603647048616,81.68233,-1,-1,10,65,-9999,1425269094.294823,22.57897186279297,22.38790893554688,26.06325531005859,321.0029296875,307.2258605957031,10,196215.5599439583,0.4161224365234375,1.005844116210938,0.3040618896484375,196215.5181464583,0.1270037555408978,0.549046078762333,-1.716796676707439,196215.5181464583,1.255838675449848,1.995131934629522,-0.8645056143569914,0.1084416210651398,0.5674028396606445,-1.684449315071106,-0.05123451352119446,0.1191388368606567,0.01664923131465912,XTrueNorthZVertical,-0.6320245061366209,0.4838905195484867,0.004485091843285776,0.6052890921847686,0.5914567112922668,0.7607744932174683,0.2672100365161896,26.69334983825684,19.88094329833984,26.04134559631348,2,0.0.0.0,10.83.46.32,4,0
2015-03-01 20:04:54.337,94,1425269094.158682,37.76574054635136,-122.4603647048616,81.68233,-1,-1,10,65,-9999,1425269094.294823,22.57897186279297,22.38790893554688,26.06325531005859,321.0029296875,307.2258605957031,10,196215.6089884583,0.2300872802734375,0.9574127197265625,0.326171875,196215.5699171667,0.08394603335260568,0.5342149346516817,-1.986674497357234,196215.5699171667,1.315855752350218,2.072121460933056,-0.947972152137653,0.06538409739732742,0.5525715351104736,-1.954327940940857,-0.1193232536315918,0.1473604589700699,0.02780915424227715,XTrueNorthZVertical,-0.6521691015908834,0.4635153808515136,-0.0334798765348266,0.5989224198043329,0.5115504264831543,0.8122342824935913,0.2803421020507812,23.53027725219727,22.66353416442871,26.8072509765625,2,0.0.0.0,10.83.46.32,4,0
2015-03-01 20:04:54.421,95,1425269094.158682,37.76574054635136,-122.4603647048616,81.68233,-1,-1,10,65,-9999,1425269094.396231,15.34900665283203,27.65582275390625,27.22815704345703,343.25439453125,329.4773254394531,10,196215.658053875,0.1704864501953125,0.9380340576171875,0.3329620361328125,196215.6216904167,0.1285723574229545,0.4545856191099855,-2.11195811715005,196215.6216904167,1.406272762665384,2.171479433074021,-1.03718743596661,0.1100103333592415,0.4729427695274353,-2.079613447189331,-0.2269786447286606,0.09899915754795074,0.05298073589801788,XTrueNorthZVertical,-0.6731052415929839,0.4366619353182067,-0.07263533995047071,0.5924354883085059,0.4196055829524994,0.8609770536422729,0.2874886095523834,20.78418922424316,24.75946044921875,27.21994018554688,2,0.0.0.0,10.83.46.32,4,0
2015-03-01 20:04:54.433,96,1425269094.158682,37.76574054635136,-122.4603647048616,81.68233,-1,-1,10,65,-9999,1425269094.396231,15.34900665283203,27.65582275390625,27.22815704345703,343.25439453125,329.4773254394531,10,196215.7072055,0.1255035400390625,0.952484130859375,0.30712890625,196215.6734633333,0.08293749424779268,0.701061177996819,-1.96152786508027,196215.6734633333,1.532785162504362,2.316522690908258,-1.118402772257356,0.06438767164945602,0.7193936109542847,-1.929132699966431,-0.1318817287683487,0.0661727637052536,0.001843317062593997,XTrueNorthZVertical,-0.6918114429057817,0.4119356347276464,-0.1144168507561718,0.5819061410588832,0.3211059868335724,0.8994033932685852,0.2965880930423737,17.70742416381836,26.65981674194336,27.59782218933105,2,0.0.0.0,10.83.46.32,4,0
2015-03-01 20:04:54.519,97,1425269094.158682,37.76574054635136,-122.4603647048616,81.68233,-1,-1,10,65,-9999,1425269094.500156,7.061817169189453,30.10284423828125,27.52770614624023,1.080958366394043,347.3038940429688,10,196215.756181125,0.076934814453125,1.136795043945312,0.309112548828125,196215.725234125,0.09519416053266436,0.2994695351022112,-2.015018787155057,196215.725234125,1.70136836567026,2.493112402786291,-1.18694549558379,0.07664452493190765,0.3178017437458038,-1.982623934745789,-0.1332592368125916,0.02870321646332741,0.03778533264994621,XTrueNorthZVertical,-0.7082125383050522,0.384280239232779,-0.1510456936696547,0.5726682365728131,0.2261852622032166,0.9272294044494629,0.2984726130962372,13.5494327545166,28.60838317871094,27.9984245300293,2,0.0.0.0,10.83.46.32,4,0
2015-03-01 20:04:54.531,98,1425269094.158682,37.76574054635136,-122.4603647048616,81.68233,-1,-1,10,65,-9999,1425269094.500156,7.061817169189453,30.10284423828125,27.52770614624023,1.080958366394043,347.3038940429688,10,196215.80522025,-0.11346435546875,1.026763916015625,0.316162109375,196215.7770072917,-0.03716414669594676,0.4502057843812411,-2.050389827489053,196215.7770072917,1.945928610053352,2.747891653370959,-1.23694358431611,-0.05571357905864716,0.4685377776622772,-2.017995357513428,-0.1039898246526718,0.1073218956589699,-0.005039249546825886,XTrueNorthZVertical,-0.7242700597049059,0.3560069628278498,-0.1883192731632254,0.559667568134215,0.1257030814886093,0.9447868466377258,0.302616149187088,10.3674488067627,29.72842788696289,28.18997764587402,2,0.0.0.0,10.83.46.32,4,0
2015-03-01 20:04:54.592,99,1425269094.158682,37.76574054635136,-122.4603647048616,81.68233,-1,-1,10,65,-9999,1425269094.552353,2.884124755859375,30.83355712890625,27.54434967041016,9.606013298034668,355.8289489746094,10,196215.854299125,-0.139404296875,0.9101104736328125,0.3044586181640625,196215.8287805,-0.07355997141740567,0.3661931720013835,-2.160738972520922,196215.8287805,2.275833313858855,3.078708450816022,-1.258394124136046,-0.09210921823978424,0.3845250010490417,-2.128344774246216,-0.1326567232608795,0.128281757235527,0.03051173686981201,XTrueNorthZVertical,-0.7413234341838729,0.3221933815136375,-0.2236717141863028,0.5446117585440546,0.01931444182991982,0.9515979886054993,0.306738018989563,7.041157722473145,30.4688835144043,28.42547416687012,2,0.0.0.0,10.83.46.32,4,0
2015-03-01 20:04:54.629,100,1425269094.158682,37.76574054635136,-122.4603647048616,81.68233,-1,-1,10,65,-9999,1425269094.603724,-1.310623168945312,31.44528198242188,28.11016464233398,18.18529891967773,4.408233642578125,10,196215.9033337084,-0.274627685546875,1.061004638671875,0.3302154541015625,196215.8805511667,-0.1925715805269757,0.1675959231919946,-1.94756624306553,196215.8805511667,2.579857899940611,-2.899077263829181,-1.239590785763093,-0.2111206650733948,0.1859275847673416,-1.915172457695007,-0.1598696112632751,-0.1270780116319656,0.01120628695935011,XTrueNorthZVertical,-0.7568824602773495,0.291483596917324,-0.2544317798406557,0.5267169409584355,-0.07809120416641235,0.9456509947776794,0.3156674802303314,2.69254732131958,30.80362701416016,28.80668449401855,2,0.0.0.0,10.83.46.32,4,0
2015-03-01 20:04:54.727,101,1425269094.158682,37.76574054635136,-122.4603647048616,81.68233,-1,-1,10,65,-9999,1425269094.707975,-8.353034973144531,30.85052490234375,28.8923225402832,31.7386589050293,17.96159362792969,10,196215.9524159167,-0.4122772216796875,1.02166748046875,0.3437957763671875,196215.9323242083,-0.3070723273821694,0.2113473988442523,-1.970482744245662,196215.9323242083,2.832461788806177,-2.647398712095681,-1.192855482450416,-0.3256212174892426,0.2296788841485977,-1.93808913230896,-0.08162440359592438,0.2893998324871063,0.002566884970292449,XTrueNorthZVertical,-0.7715040326763423,0.2592482071397088,-0.2837947817940318,0.5069836574469799,-0.1750284284353256,0.9294264316558838,0.3248562216758728,-0.3635039329528809,30.6331729888916,29.11039161682129,2,0.0.0.0,10.83.46.32,2,0
2015-03-01 20:04:54.732,102,1425269094.158682,37.76574054635136,-122.4603647048616,81.68233,-1,-1,10,65,-9999,1425269094.707975,-8.353034973144531,30.85052490234375,28.8923225402832,31.7386589050293,17.96159362792969,10,196216.0014561667,-0.4756622314453125,0.7979888916015625,0.3721160888671875,196215.984097375,-0.1177093233365213,0.186063613771149,-1.85153318678949,196215.984097375,3.010185305810268,-2.480898173793295,-1.130023017049108,-0.1362580060958862,0.2043948918581009,-1.819139957427979,-0.2351041436195374,-0.09721680730581284,0.04068844020366669,XTrueNorthZVertical,-0.7857888538929102,0.2257559860273153,-0.3066206989104353,0.4873949848972883,-0.2618135809898376,0.9044219851493835,0.3368597626686096,-2.302118301391602,30.27021980285645,29.39987182617188,2,0.0.0.0,10.83.46.32,2,0
2015-03-01 20:04:54.822,103,1425269094.158682,37.76574054635136,-122.4603647048616,81.68233,-1,-1,10,65,-9999,1425269094.76097,-11.69518280029297,29.76296997070312,29.15859603881836,38.22572708129883,24.44866180419922,10,196216.0505447084,-0.5570220947265625,0.811798095703125,0.280609130859375,196216.0358682917,-0.05978903173671493,0.3665886514232602,-1.725311069028531,196216.0358682917,-3.129997505212406,-2.331390470840479,-1.068813580229273,-0.07833753526210785,0.3849197328090668,-1.692918181419373,-0.1349978297948837,-0.0601019375026226,-0.005077426787465811,XTrueNorthZVertical,-0.7920689876587161,0.1961443910435934,-0.336441487798225,0.4700651384355158,-0.348568469285965,0.8766302466392517,0.3316918015480042,-12.83782291412354,29.48935508728027,28.9645881652832,2,0.0.0.0,10.83.46.32,2,0
2015-03-01 20:04:54.827,104,1425269094.158682,37.76574054635136,-122.4603647048616,81.68233,-1,-1,10,65,-9999,1425269094.811978,-14.83271789550781,28.607421875,28.82576370239258,44.93315124511719,31.15608596801758,10,196216.0995973333,-0.7390594482421875,0.6930084228515625,0.3026580810546875,196216.0876412917,-0.2941703771651716,-0.02342010494226583,-1.295483526992467,196216.0358682917,-3.129997505212406,-2.331390470840479,-1.068813580229273,-0.07833753526210785,0.3849197328090668,-1.692918181419373,-0.1349978297948837,-0.0601019375026226,-0.005077426787465811,XTrueNorthZVertical,-0.7920689876587161,0.1961443910435934,-0.336441487798225,0.4700651384355158,-0.348568469285965,0.8766302466392517,0.3316918015480042,-12.83782291412354,29.48935508728027,28.9645881652832,2,0.0.0.0,10.83.46.32,2,0
2015-03-01 20:04:54.917,105,1425269094.158682,37.76574054635136,-122.4603647048616,81.68233,-1,-1,10,65,-9999,1425269094.864837,-17.23703002929688,27.09503173828125,28.77584457397461,50.56526565551758,36.78820037841797,10,196216.14868075,-0.8178253173828125,0.7516326904296875,0.3337554931640625,196216.1394143333,-0.3827532402917142,0.06238161905790707,-0.6846622309524381,196216.1394143333,-3.023938180244811,-2.232695764566742,-0.9580875523541513,-0.4013013541698456,0.08071234822273254,-0.6522700190544128,-0.3494121730327606,-0.06865781545639038,-0.01686336472630501,XTrueNorthZVertical,-0.807880782203461,0.1551036355048743,-0.364532008963713,0.4363346546782916,-0.4536426365375519,0.8180932402610779,0.3534570038318634,-16.20226097106934,27.41304779052734,29.31536483764648,2,0.0.0.0,10.83.46.32,2,0
2015-03-01 20:04:54.926,106,1425269094.158682,37.76574054635136,-122.4603647048616,81.68233,-1,-1,10,65,-9999,1425269094.915658,-18.56707000732422,25.73553466796875,29.07539367675781,54.39833831787109,40.62127304077148,10,196216.197729,-0.9164886474609375,0.740509033203125,0.41552734375,196216.1911851667,-0.3489864881983816,-0.1596690242073737,0.09639737671316215,196216.1394143333,-3.023938180244811,-2.232695764566742,-0.9580875523541513,-0.4013013541698456,0.08071234822273254,-0.6522700190544128,-0.3494121730327606,-0.06865781545639038,-0.01686336472630501,XTrueNorthZVertical,-0.807880782203461,0.1551036355048743,-0.364532008963713,0.4363346546782916,-0.4536426365375519,0.8180932402610779,0.3534570038318634,-16.20226097106934,27.41304779052734,29.31536483764648,2,0.0.0.0,10.83.46.32,2,0
2015-03-01 20:04:54.987,107,1425269094.158682,37.76574054635136,-122.4603647048616,81.68233,-1,-1,10,65,-9999,1425269094.973302,-18.44770812988281,24.93682861328125,29.79098510742188,55.07803344726562,41.30096817016602,10,196216.24680125,-0.9633331298828125,0.8599395751953125,0.4720458984375,196216.2429584167,-0.1738389054193583,-0.3576425606894661,1.356094143925471,196216.1911851667,-3.036202443659477,-2.24557412705018,-0.9359395638466608,-0.3675344288349152,-0.1413384824991226,0.1287892460823059,-0.4574421048164368,-0.0517081655561924,0.0437149852514267,XTrueNorthZVertical,-0.8135824994906765,0.152753288309986,-0.3646496306776174,0.426357372063057,-0.4630901217460632,0.8051566481590271,0.3705000877380371,-17.38212585449219,25.83584785461426,30.06242942810059,2,0.0.0.0,10.83.46.32,2,0
2015-03-01 20:04:55.022,108,1425269094.158682,37.76574054635136,-122.4603647048616,81.68233,-1,-1,10,65,-9999,1425269094.973302,-18.44770812988281,24.93682861328125,29.79098510742188,55.07803344726562,41.30096817016602,10,196216.295844625,-0.8952484130859375,0.9070281982421875,0.4454803466796875,196216.294731375,0.1725667133666275,-0.6443656741823401,2.617724099773069,196216.2429584167,-3.100393372213257,-2.308208346347978,-0.9591361971639334,-0.1923866719007492,-0.3393121957778931,1.388485670089722,-0.5022118091583252,-0.009690117090940475,0.08115875720977783,XTrueNorthZVertical,-0.8149539866186702,0.1699939453545152,-0.3503142539986096,0.4292225461405651,-0.4250495135784149,0.8186958432197571,0.3860958814620972,-16.54631614685059,25.80857849121094,30.55348968505859,2,0.0.0.0,10.83.46.32,2,0
2015-03-01 20:04:55.126,109,1425269094.158682,37.76574054635136,-122.4603647048616,81.68233,-1,-1,10,65,-9999,1425269095.048002,-15.41248321533203,25.92245483398438,30.4566535949707,48.92166900634766,35.14460372924805,10,196216.3449240417,-0.723480224609375,0.925140380859375,0.5131683349609375,196216.3465021667,0.509487750246405,-0.4579859431897987,3.149403438750887,196216.294731375,3.04668157334749,-2.446914060694061,-1.027761356741786,0.1540191173553467,-0.6260354518890381,2.650115489959717,-0.5795714855194092,0.07712896913290024,0.03454588353633881,XTrueNorthZVertical,-0.8099788223569583,0.2059812406607702,-0.3180249408395422,0.4476228158460419,-0.3307831287384033,0.8561443686485291,0.3969879150390625,-15.09923553466797,26.31559181213379,30.86878204345703,2,0.0.0.0,10.83.46.32,2,0
2015-03-01 20:04:55.128,110,1425269094.158682,37.76574054635136,-122.4603647048616,81.68233,-1,-1,10,65,-9999,1425269095.122737,-8.318923950195312,28.81130981445312,30.29023742675781,32.65670394897461,18.87964057922363,10,196216.393970375,-0.31463623046875,0.815338134765625,0.4378814697265625,196216.3465021667,0.509487750246405,-0.4579859431897987,3.149403438750887,196216.3465021667,2.793956636191165,-2.702504564077065,-1.124655873273238,0.4909403622150421,-0.4396559298038483,3.181794166564941,-0.5400489568710327,0.02302121929824352,0.1226122975349426,XTrueNorthZVertical,-0.7931859947750168,0.2571653114612168,-0.2714661361178823,0.4806538563747293,-0.1834312826395035,0.9021191596984863,0.3905560374259949,-8.178442001342773,29.02992630004883,31.04441261291504,2,0.0.0.0,10.83.46.32,2,0
2015-03-01 20:04:55.224,111,1425269094.158682,37.76574054635136,-122.4603647048616,81.68233,-1,-1,10,65,-9999,1425269095.175349,-2.657730102539062,30.44268798828125,29.19189071655273,21.40338897705078,7.626325130462646,10,196216.4430450833,0.0132293701171875,1.054641723632812,0.3168487548828125,196216.4500485834,0.6033655102522432,-0.1072843792494061,3.534254983665474,196216.3982752917,2.392886518240856,-3.064241929300632,-1.204037876505121,0.7711630463600159,0.3860768377780914,3.775712966918945,-0.2869265675544739,-0.1181565076112747,0.08036228269338608,XTrueNorthZVertical,-0.7585332810979383,0.3215382608854209,-0.2365881389996057,0.5150402636407452,-0.02770965360105038,0.9334946274757385,0.3575191795825958,-3.574207782745361,30.79086685180664,30.20805740356445,2,0.0.0.0,10.83.46.32,2,0
2015-03-01 20:04:55.227,112,1425269094.158682,37.76574054635136,-122.4603647048616,81.68233,-1,-1,10,65,-9999,1425269095.175349,-2.657730102539062,30.44268798828125,29.19189071655273,21.40338897705078,7.626325130462646,10,196216.492073875,0.4180145263671875,1.048385620117188,0.1717987060546875,196216.4500485834,0.6033655102522432,-0.1072843792494061,3.534254983665474,196216.4500485834,1.863180519371613,2.72768212007933,-1.204112372994093,0.5848144888877869,-0.0889492854475975,3.566635131835938,-0.1309655010700226,0.1211203709244728,-0.01139773614704609,XTrueNorthZVertical,-0.7167639548174889,0.3877791621047404,-0.194727741405759,0.5458551764631351,0.1441948711872101,0.9335213303565979,0.3282465040683746,-0.453346848487854,31.65721702575684,29.51261138916016,2,0.0.0.0,10.83.46.32,2,0
2015-03-01 20:04:55.290,113,1425269094.158682,37.76574054635136,-122.4603647048616,81.68233,-1,-1,10,65,-9999,1425269095.227039,2.338455200195312,31.139404296875,28.30988311767578,12.16323375701904,358.3861694335938,10,196216.54115325,0.3168487548828125,0.8679351806640625,0.293243408203125,196216.50181925,0.5022010751878392,-0.705800273156615,2.802164783175924,196216.50181925,1.489735683714601,2.369653077004165,-1.133860270615707,0.4836502969264984,-0.6874653100967407,2.83454442024231,0.1228455007076263,0.1423331499099731,-0.1314243227243423,XTrueNorthZVertical,-0.6783910385847421,0.4374895547753954,-0.1505102854023401,0.5707321216221295,0.2951690256595612,0.9060524702072144,0.3032230138778687,8.043001174926758,31.83580780029297,28.19876670837402,2,0.0.0.0,10.83.46.32,2,0
2015-03-01 20:04:55.327,114,1425269094.158682,37.76574054635136,-122.4603647048616,81.68233,-1,-1,10,65,-9999,1425269095.278626,8.187232971191406,30.34072875976562,27.02847290039062,1.663355827331543,347.8862915039062,10,196216.5901925417,0.538177490234375,0.9001007080078125,0.1688079833984375,196216.5535922917,0.5089274211530523,-0.2602496943608323,2.198871444589222,196216.5535922917,1.273488709008111,2.143072580924076,-1.053374361356909,0.4903768002986908,-0.2419149279594421,2.231250524520874,-0.07409444451332092,-0.02517942152917385,-0.006503703538328409,XTrueNorthZVertical,-0.6447662695503565,0.4671318960879259,-0.1087410762878894,0.5951803424744614,0.4158302843570709,0.8690972924232483,0.2678714990615845,12.7686653137207,31.24711227416992,27.09165954589844,2,0.0.0.0,10.83.46.32,2,0
2015-03-01 20:04:55.374,115,1425269094.158682,37.76574054635136,-122.4603647048616,81.68233,-1,-1,10,65,-9999,1425269095.330843,12.9446907043457,28.93026733398438,26.51258850097656,351.7189636230469,337.94189453125,10,196216.6392592917,0.521728515625,0.8433837890625,0.2515869140625,196216.6053654584,0.1876319493370967,-0.3784642193561416,1.795103466451802,196216.6053654584,1.155813458623951,2.034544644378757,-0.9753185488504508,0.169081524014473,-0.3601296246051788,1.827482342720032,0.05377230793237686,0.0542757660150528,-0.07370953261852264,XTrueNorthZVertical,-0.6168481151284309,0.4949198912125055,-0.08017044960771755,0.6067333974549696,0.5016628503799438,0.8278806209564209,0.2508946061134338,15.01344680786133,30.70224761962891,26.55837631225586,2,0.0.0.0,10.83.46.32,2,0
2015-03-01 20:04:55.428,116,1425269094.158682,37.76574054635136,-122.4603647048616,81.68233,-1,-1,10,65,-9999,1425269095.382726,16.83250045776367,27.46884155273438,25.64722442626953,344.5885009765625,330.8114318847656,10,196216.6883088333,0.5968780517578125,0.838470458984375,0.198089599609375,196216.6571362917,-0.05870965254690581,-0.2781743663937196,1.637666171237914,196216.6571362917,1.093494789332432,1.963719926709648,-0.8958969270136159,-0.07724642008543015,-0.2598679959774017,1.670096039772034,-0.04592308402061462,0.06339217722415924,0.008382227271795273,XTrueNorthZVertical,-0.5951829817286124,0.5151465023929028,-0.04734288788869011,0.614930860123483,0.5772035717964172,0.7807698249816895,0.2392373979091644,19.74639892578125,28.58962440490723,25.80876159667969,2,0.0.0.0,10.83.46.32,2,0
2015-03-01 20:04:55.486,117,1425269094.158682,37.76574054635136,-122.4603647048616,81.68233,-1,-1,10,65,-9999,1425269095.436272,20.02119064331055,25.378662109375,25.76372528076172,337.2377319335938,323.4606628417969,10,196216.737409,0.5703887939453125,0.735137939453125,0.1942291259765625,196216.708909375,-0.1582106771944463,-0.2958399128525422,1.425451913458841,196216.708909375,1.059473112132413,1.928248979678733,-0.8213122833413732,-0.1767470389604568,-0.2775337100028992,1.457881093025208,-0.01608334854245186,0.01856988482177258,-0.04157321527600288,XTrueNorthZVertical,-0.5770288181553855,0.5349959358659405,-0.01887908031863027,0.6168149514921788,0.6381994485855103,0.7320404648780823,0.2383658140897751,21.9737663269043,26.96036720275879,25.76181793212891,2,0.0.0.0,10.83.46.32,2,0
2015-03-01 20:04:55.523,118,1425269094.158682,37.76574054635136,-122.4603647048616,81.68233,-1,-1,10,65,-9999,1425269095.486798,22.66422271728516,23.0166015625,25.38096618652344,330.5467834472656,316.7697143554688,10,196216.7864600417,0.56597900390625,0.7526092529296875,0.1967010498046875,196216.7606824583,-0.2676136010910104,-0.4991251241287977,1.232620142093365,196216.7606824583,1.042995113863838,1.894347073036513,-0.7537918795452161,-0.2861495912075043,-0.4808191061019897,1.265048623085022,-0.1141041219234467,0.05959496647119522,-0.01093514822423458,XTrueNorthZVertical,-0.5623778115909404,0.5473885794712996,0.01145990268172499,0.6196495970772143,0.6912677884101868,0.6844083070755005,0.2318061143159866,23.34921646118164,25.83217620849609,25.70781707763672,2,0.0.0.0,10.83.46.32,2,0
2015-03-01 20:04:55.573,119,1425269094.158682,37.76574054635136,-122.4603647048616,81.68233,-1,-1,10,65,-9999,1425269095.539084,24.94916915893555,20.67153930664062,25.24783325195312,324.1000061035156,310.3229370117188,10,196216.835546375,0.5545654296875,0.66229248046875,0.211761474609375,196216.8124532917,-0.3852851075400526,-0.5724880216255375,0.8713903034155619,196216.8124532917,1.044341213782497,1.870356936277912,-0.6965946219810917,-0.4038208723068237,-0.5541813373565674,0.9038158655166626,-0.1928184628486633,0.08174877613782883,-0.05319459363818169,XTrueNorthZVertical,-0.5528759595840173,0.5545302877560027,0.04027875572415163,0.6206464110469523,0.7328727841377258,0.6416093707084656,0.226351335644722,26.50912284851074,22.96848297119141,25.35930252075195,2,0.0.0.0,10.83.46.32,2,0
2015-03-01 20:04:55.624,120,1425269094.158682,37.76574054635136,-122.4603647048616,81.68233,-1,-1,10,65,-9999,1425269095.590951,26.80781936645508,18.68328857421875,25.16462707519531,318.2107238769531,304.4336547851562,10,196216.88458025,0.6410064697265625,0.6359710693359375,0.1618804931640625,196216.8642264583,-0.5033875134534695,-0.3494197845077374,0.774230197366201,196216.8642264583,1.057197281212158,1.856276598650116,-0.6514572176807419,-0.5219231247901917,-0.3311132490634918,0.8066554069519043,-0.1736457943916321,0.01743346638977528,-0.0173391867429018,XTrueNorthZVertical,-0.5480937539262207,0.5581799284969803,0.06516194370167966,0.6195016851115418,0.7630165219306946,0.6063458323478699,0.2239431887865067,27.90910911560059,21.46871757507324,25.17051315307617,2,0.0.0.0,10.83.46.32,2,0
2015-03-01 20:04:55.673,121,1425269094.158682,37.76574054635136,-122.4603647048616,81.68233,-1,-1,10,65,-9999,1425269095.643492,28.01849746704102,16.76309204101562,24.74858093261719,313.3854675292969,299.6083984375,10,196216.9336575417,0.7458953857421875,0.5694122314453125,0.1832275390625,196216.9159997083,-0.6067514532621699,-0.5086144997249681,0.8603895839007716,196216.9159997083,1.076303850364127,1.846395222848892,-0.6037064881131439,-0.6252867579460144,-0.4903081059455872,0.8928141593933105,-0.07241304963827133,-0.0009099647868424654,-0.03569801524281502,XTrueNorthZVertical,-0.5442922380261576,0.5619225514017868,0.09164044754118107,0.6161096060425336,0.7921701073646545,0.5676977038383484,0.2240219861268997,28.67441940307617,20.38937759399414,25.20773696899414,2,0.0.0.0,10.83.46.32,2,0
2015-03-01 20:04:55.737,122,1425269094.158682,37.76574054635136,-122.4603647048616,81.68233,-1,-1,10,65,-9999,1425269095.724711,30.30343627929688,13.60235595703125,24.04962921142578,304.8410949707031,291.0640258789062,10,196216.9826863334,0.754302978515625,0.5394439697265625,0.2022857666015625,196216.967770375,-0.7161708887574926,-0.6885150261014557,0.8785827025715388,196216.9159997083,1.076303850364127,1.846395222848892,-0.6037064881131439,-0.6252867579460144,-0.4903081059455872,0.8928141593933105,-0.07241304963827133,-0.0009099647868424654,-0.03569801524281502,XTrueNorthZVertical,-0.5442922380261576,0.5619225514017868,0.09164044754118107,0.6161096060425336,0.7921701073646545,0.5676977038383484,0.2240219861268997,28.67441940307617,20.38937759399414,25.20773696899414,2,0.0.0.0,10.83.46.32,2,0
2015-03-01 20:04:55.767,123,1425269094.158682,37.76574054635136,-122.4603647048616,81.68233,-1,-1,10,65,-9999,1425269095.724711,30.30343627929688,13.60235595703125,24.04962921142578,304.8410949707031,291.0640258789062,10,196217.0318647083,0.7968292236328125,0.5686492919921875,0.208251953125,196217.0195435,-0.7296917576118248,-0.5122691556888838,0.6172837227412153,196217.0195435,1.130588487452645,1.815054724333624,-0.5035654983472648,-0.748226523399353,-0.4939625263214111,0.6497054696083069,-0.07960551232099533,0.08277137577533722,0.01538634672760963,XTrueNorthZVertical,-0.5383123945500377,0.562252858733104,0.1536363560783287,0.6086767378864427,0.8498691916465759,0.4825515151023865,0.2118170261383057,32.23900985717773,15.22051811218262,24.54304885864258,2,0.0.0.0,10.83.46.32,2,0
2015-03-01 20:04:55.825,124,1425269094.158682,37.76574054635136,-122.4603647048616,81.68233,-1,-1,10,65,-9999,1425269095.797108,32.92942047119141,10.40762329101562,23.11769866943359,295.4871826171875,281.7101135253906,10,196217.0807899584,0.781890869140625,0.4888763427734375,0.2261810302734375,196217.0713165833,-0.6652866687576756,-0.6304935343802264,0.3131267578043556,196217.0195435,1.130588487452645,1.815054724333624,-0.5035654983472648,-0.748226523399353,-0.4939625263214111,0.6497054696083069,-0.07960551232099533,0.08277137577533722,0.01538634672760963,XTrueNorthZVertical,-0.5383123945500377,0.562252858733104,0.1536363560783287,0.6086767378864427,0.8498691916465759,0.4825515151023865,0.2118170261383057,32.23900985717773,15.22051811218262,24.54304885864258,2,0.0.0.0,10.83.46.32,2,0
2015-03-01 20:04:55.865,125,1425269094.158682,37.76574054635136,-122.4603647048616,81.68233,-1,-1,10,65,-9999,1425269095.84947,34.20830917358398,8.351409912109375,22.83479309082031,290.1460266113281,276.3689575195312,10,196217.129963875,0.7658233642578125,0.3596038818359375,0.219573974609375,196217.1230875833,-0.6017095566864319,-0.5848197890531494,0.3020741066483087,196217.0713165833,1.164035058981019,1.804216726728717,-0.4714520120671958,-0.6838210821151733,-0.6121870875358582,0.3455478250980377,-0.0771830826997757,0.03625236451625824,0.0001493030431447551,XTrueNorthZVertical,-0.5403456013377194,0.5577304426717175,0.1782925348086102,0.6042972521007864,0.866749107837677,0.4541803896427155,0.2060732245445251,32.87702941894531,14.07008361816406,24.38262939453125,2,0.0.0.0,10.83.46.32,2,0
2015-03-01 20:04:55.925,126,1425269094.158682,37.76574054635136,-122.4603647048616,81.68233,-1,-1,10,65,-9999,1425269095.901907,35.00974655151367,6.737060546875,21.65323638916016,285.4433898925781,271.6663208007812,10,196217.178908375,0.852264404296875,0.372100830078125,0.177276611328125,196217.1748605417,-0.4253214734716498,-0.6857258974918157,0.5379380338556125,196217.1230875833,1.196267388074658,1.786763127389122,-0.4502625796488208,-0.6202439665794373,-0.5665133595466614,0.334494560956955,-0.1204914525151253,-0.05139763653278351,0.03408624976873398,XTrueNorthZVertical,-0.5433210173452792,0.5488800230399019,0.2002898197733377,0.6028407691477279,0.8794178366661072,0.4352019727230072,0.1929340213537216,34.30678176879883,11.9464225769043,23.53096961975098,2,0.0.0.0,10.83.46.32,2,0
2015-03-01 20:04:55.964,127,1425269094.158682,37.76574054635136,-122.4603647048616,81.68233,-1,-1,10,65,-9999,1425269095.953159,35.86233520507812,5.47955322265625,20.85443115234375,282.0122985839844,268.2352294921875,10,196217.2281135833,0.8361358642578125,0.304107666015625,0.1414794921875,196217.2266338333,-0.2589918833779879,-0.566758230540232,0.5884571344699796,196217.1748605417,1.220071907392493,1.767455021582623,-0.4220021587502423,-0.4438557028770447,-0.6674195528030396,0.5703582167625427,-0.04637425765395164,-0.01905433647334576,-0.005796960089355707,XTrueNorthZVertical,-0.5419690923190246,0.543502897868292,0.2226012788471126,0.6011013109852151,0.8946866393089294,0.4095877707004547,0.178251788020134,35.10613250732422,10.70451736450195,22.94235610961914,2,0.0.0.0,10.83.46.32,2,0
2015-03-01 20:04:56.025,128,1425269094.158682,37.76574054635136,-122.4603647048616,81.68233,-1,-1,10,65,-9999,1425269096.004861,36.57851028442383,3.882232666015625,19.82264709472656,278.3912353515625,264.6141662597656,10,196217.2770302084,0.888946533203125,0.2186431884765625,0.0760650634765625,196217.2266338333,-0.2589918833779879,-0.566758230540232,0.5884571344699796,196217.2266338333,1.232699327766809,1.73936713546309,-0.3877012117830878,-0.2775260806083679,-0.5484520792961121,0.6208770871162415,-0.06986948102712631,-0.06960482150316238,0.01466137729585171,XTrueNorthZVertical,-0.534836594064125,0.5400098001099773,0.2457897706899403,0.6016033863702126,0.912658154964447,0.3780612349510193,0.1553215384483337,35.73817443847656,9.796133041381836,22.3650951385498,2,0.0.0.0,10.83.46.32,2,0
2015-03-01 20:04:56.062,129,1425269094.158682,37.76574054635136,-122.4603647048616,81.68233,-1,-1,10,65,-9999,1425269096.05649,37.32878875732422,2.99859619140625,19.09041595458984,275.9209594726562,262.1438903808594,10,196217.3261237083,0.9109039306640625,0.1611328125,0.03900146484375,196217.3301775834,-0.1763361515735256,-0.4541075816943163,0.3114660105485822,196217.2784045,1.240690376227854,1.72105021735971,-0.3596621683490898,-0.2358224093914032,-0.354935884475708,0.4654659628868103,-0.03652327135205269,-0.133314847946167,-0.06404636055231094,XTrueNorthZVertical,-0.5285336366312817,0.539173355611821,0.2625844439330492,0.6008275208284195,0.9254698157310486,0.3519580364227295,0.140111431479454,37.00127410888672,7.726495742797852,21.08521461486816,2,0.0.0.0,10.83.46.32,4,0
2015-03-01 20:04:56.128,130,1425269094.158682,37.76574054635136,-122.4603647048616,81.68233,-1,-1,10,65,-9999,1425269096.108637,38.07907104492188,1.91107177734375,18.09191131591797,273.2323608398438,259.4552917480469,10,196217.37518525,0.9263916015625,0.0522918701171875,-0.0054779052734375,196217.3301775834,-0.1763361515735256,-0.4541075816943163,0.3114660105485822,196217.3301775834,1.247329577005878,1.701875490514947,-0.3333537038616987,-0.1948684006929398,-0.4358098804950714,0.3439071774482727,-0.02594003267586231,-0.1660811305046082,-0.08450743556022644,XTrueNorthZVertical,-0.5218211400503902,0.5380122195376011,0.2784311576467091,0.6006010758474392,0.9368439912796021,0.3272139430046082,0.1235089004039764,37.56446838378906,6.618682861328125,20.45685195922852,2,0.0.0.0,10.83.46.32,4,0
2015-03-01 20:04:56.161,131,1425269094.158682,37.76574054635136,-122.4603647048616,81.68233,-1,-1,10,65,-9999,1425269096.108637,38.07907104492188,1.91107177734375,18.09191131591797,273.2323608398438,259.4552917480469,10,196217.4242520417,1.01971435546875,0.06964111328125,-0.04583740234375,196217.38195075,-0.09650177262789326,-0.2590078623445284,0.2672548732921767,196217.38195075,1.2541145544356,1.687057979068231,-0.3155246312475108,-0.1150338500738144,-0.2407103329896927,0.299695760011673,-0.01782460510730743,-0.2580233812332153,-0.1157513335347176,XTrueNorthZVertical,-0.5174460013605504,0.5360842764606778,0.290222000739654,0.6005285063401516,0.9442161917686462,0.3103152513504028,0.1102734282612801,37.88986968994141,6.094607353210449,20.01480484008789,2,0.0.0.0,10.83.46.32,4,0
2015-03-01 20:04:56.215,132,1425269094.158682,37.76574054635136,-122.4603647048616,81.68233,-1,-1,10,65,-9999,1425269096.161418,38.43715667724609,0.908447265625,17.34304046630859,271.0906982421875,257.3136291503906,10,196217.4732805,1.038436889648438,0.107635498046875,-0.0497589111328125,196217.4337215417,-0.03688930847145058,-0.1735960251279431,0.1964917536515723,196217.4337215417,1.257702812420793,1.678185680815999,-0.3012223917325488,-0.05542119592428207,-0.1552986651659012,0.2289323210716248,0.07024112343788147,-0.2270466685295105,-0.1481944918632507,XTrueNorthZVertical,-0.5137721941276976,0.5359260030534317,0.2982792496481498,0.5998757816869871,0.9494732022285461,0.2966877818107605,0.1023570969700813,38.30078887939453,0.6035785675048828,17.24291229248047,2,0.0.0.0,10.83.46.32,4,0
2015-03-01 20:04:56.258,133,1425269094.158682,37.76574054635136,-122.4603647048616,81.68233,-1,-1,10,65,-9999,1425269096.212315,38.31779479980469,0.279693603515625,16.79386901855469,270.230712890625,256.4536437988281,10,196217.5224537083,1.019912719726562,0.050567626953125,-0.03564453125,196217.4854947084,0.007978031677550373,-0.1046624971562231,-0.05364005909583098,196217.4854947084,1.258194709704643,1.671721827781308,-0.2965032332298055,-0.01055365148931742,-0.08636533468961716,-0.02119985222816467,0.07427467405796051,-0.2024103552103043,-0.1380447596311569,XTrueNorthZVertical,-0.5118251219112216,0.5349896402567499,0.3016243363546889,0.6007028396386709,0.9514974355697632,0.292177826166153,0.09635774046182632,38.41758346557617,0.3084144592285156,16.98902893066406,2,0.0.0.0,10.83.46.32,4,0
2015-03-01 20:04:56.318,134,1425269094.158682,37.76574054635136,-122.4603647048616,81.68233,-1,-1,10,65,-9999,1425269096.264685,38.43715667724609,0.330657958984375,17.11006927490234,271.214111328125,257.4370422363281,10,196217.5713988334,0.9973907470703125,0.1417083740234375,-0.0150146484375,196217.537268,-0.002662362141752214,0.2066490500491345,-0.2743183754513939,196217.537268,1.259696333371121,1.677126320457911,-0.3029927786493272,-0.0211938600987196,0.2249460220336914,-0.241878479719162,0.07410548627376556,-0.2171401977539062,-0.1385877877473831,XTrueNorthZVertical,-0.5145621799182242,0.5346713136046657,0.298571028028666,0.6001730609256175,0.9490573406219482,0.2983779907226562,0.1012952998280525,38.44932556152344,0.3414649963378906,16.91642570495605,2,0.0.0.0,10.83.46.32,4,0
2015-03-01 20:04:56.356,135,1425269094.158682,37.76574054635136,-122.4603647048616,81.68233,-1,-1,10,65,-9999,1425269096.316447,38.42010498046875,1.095367431640625,17.79237365722656,273.4918518066406,259.7147827148438,10,196217.6205145833,0.85479736328125,0.172943115234375,0.0208892822265625,196217.5890387083,0.06660006622459258,0.2948297758510752,-0.6069354776934944,196217.5890387083,1.262319654156414,1.691190412546404,-0.3242450343951009,0.04806873947381973,0.3131265938282013,-0.5744959115982056,0.0352424681186676,-0.1824390739202499,-0.1221305653452873,XTrueNorthZVertical,-0.5222430241194548,0.5330898100703795,0.2887363894636303,0.5997572742285444,0.9410300850868225,0.3185932636260986,0.1138450428843498,38.16730117797852,1.144556999206543,17.50943183898926,2,0.0.0.0,10.83.46.32,4,0
2015-03-01 20:04:56.420,136,1425269094.158682,37.76574054635136,-122.4603647048616,81.68233,-1,-1,10,65,-9999,1425269096.368731,38.02791213989258,1.89410400390625,18.30825805664062,275.2597045898438,261.4826354980469,10,196217.6695005,0.7541961669921875,0.2738800048828125,0.0362396240234375,196217.6408119584,0.2372951099771123,0.484514756072514,-0.7429138197918502,196217.6408119584,1.258985980376361,1.710583973340627,-0.3588613081240437,0.2187639772891998,0.5028113722801208,-0.7104746103286743,-0.1178839579224586,-0.1621824353933334,-0.1015415638685226,XTrueNorthZVertical,-0.5318564405813595,0.5313729481130869,0.271125524331856,0.6010511451734898,0.9271643757820129,0.3512082993984222,0.1304569691419601,37.82444381713867,2.329379081726074,18.12506866455078,2,0.0.0.0,10.83.46.32,4,0
2015-03-01 20:04:56.454,137,1425269094.158682,37.76574054635136,-122.4603647048616,81.68233,-1,-1,10,65,-9999,1425269096.423611,37.24352645874023,3.52545166015625,18.34154510498047,277.7088317871094,263.9317626953125,10,196217.7186954167,0.670684814453125,0.3139190673828125,0.12689208984375,196217.6925849583,0.4272645158029716,0.5473477809351894,-0.7582965045642569,196217.6925849583,1.24814048488289,1.73433014138707,-0.396914308169462,0.4087481200695038,0.5656132698059082,-0.7258059978485107,-0.2074389457702637,-0.07244168967008591,-0.08969374746084213,XTrueNorthZVertical,-0.5403295916833537,0.5320887768264695,0.2486486042123279,0.6025772564432937,0.9099535942077637,0.386574387550354,0.1501490622758865,37.48401260375977,3.258306503295898,18.68060684204102,2,0.0.0.0,10.83.46.32,4,0
2015-03-01 20:04:56.518,138,1425269094.158682,37.76574054635136,-122.4603647048616,81.68233,-1,-1,10,65,-9999,1425269096.473644,36.49324798583984,5.22479248046875,19.57302856445312,281.6290893554688,267.8520202636719,10,196217.767632375,0.722320556640625,0.440521240234375,0.1786956787109375,196217.7443559583,0.421059883095305,0.7781029662233943,-0.5537185948948771,196217.7443559583,1.231543483456512,1.761909612212308,-0.4314361950437646,0.4025436639785767,0.7963682413101196,-0.5212283730506897,-0.1880772262811661,-0.0508204773068428,-0.04260214045643806,XTrueNorthZVertical,-0.5463987699367868,0.5363966609992047,0.2242858875916846,0.6028456347528232,0.8918278217315674,0.4181758165359497,0.1725459843873978,36.35746383666992,5.722202301025391,20.24905204772949,2,0.0.0.0,10.83.46.32,4,0
2015-03-01 20:04:56.553,139,1425269094.158682,37.76574054635136,-122.4603647048616,81.68233,-1,-1,10,65,-9999,1425269096.523868,35.41898727416992,6.873138427734375,20.85443878173828,285.7588806152344,271.9818115234375,10,196217.8166984167,0.79296875,0.4756011962890625,0.205413818359375,196217.7961289583,0.4773974580592772,0.8115424158187562,-0.4751550764214305,196217.7961289583,1.213623562414634,1.795033656189076,-0.4599892647238396,0.4588814079761505,0.8298075199127197,-0.4426652193069458,-0.1372038871049881,-0.02703785337507725,-0.005890476051717997,XTrueNorthZVertical,-0.5508466789585577,0.5442360349891205,0.1998126753719076,0.6003748676395629,0.8736235499382019,0.4439384937286377,0.1992498487234116,35.45555114746094,6.944377899169922,21.43157196044922,2,0.0.0.0,10.83.46.32,4,0
2015-03-01 20:04:56.613,140,1425269094.158682,37.76574054635136,-122.4603647048616,81.68233,-1,-1,10,65,-9999,1425269096.575015,34.31061935424805,8.31756591796875,22.56852722167969,290.0803527832031,276.3032836914062,10,196217.8657299583,0.7613983154296875,0.57305908203125,0.2552032470703125,196217.8479022917,0.5978900510510403,0.583629356045884,-0.535671151135737,196217.8479022917,1.191990193236263,1.821592261221049,-0.4876313416159535,0.5793747305870056,0.6018947958946228,-0.5031843185424805,-0.08871690183877945,0.1116350516676903,-0.003459268715232611,XTrueNorthZVertical,-0.5528251815204148,0.551369976080366,0.1761539954134175,0.5994541270913064,0.8558067679405212,0.4685346186161041,0.2192490696907043,34.82032775878906,7.712808609008789,22.19663238525391,2,0.0.0.0,10.83.46.32,4,0
2015-03-01 20:04:56.650,141,1425269094.158682,37.76574054635136,-122.4603647048616,81.68233,-1,-1,10,65,-9999,1425269096.628281,33.11699295043945,9.507110595703125,22.96791839599609,290.8156433105469,277.03857421875,10,196217.914923625,0.793975830078125,0.569610595703125,0.2298736572265625,196217.8996730833,0.617005688723411,0.660259685884042,-0.6428356881360896,196217.8996730833,1.166341906167474,1.838963054685934,-0.5252565878914877,0.5984901785850525,0.6785257458686829,-0.6103508472442627,-0.05967457965016365,0.03752066940069199,0.04312365502119064,XTrueNorthZVertical,-0.5543036566762367,0.5544098860844374,0.1500426990169271,0.6023822169617583,0.8342717289924622,0.5014350414276123,0.229245737195015,33.37827301025391,10.08453178405762,23.42703247070312,2,0.0.0.0,10.83.46.32,4,0
2015-03-01 20:04:56.716,142,1425269094.158682,37.76574054635136,-122.4603647048616,81.68233,-1,-1,10,65,-9999,1425269096.678931,31.37770843505859,11.27438354492188,23.86656951904297,297.2952270507812,283.5181579589844,10,196217.9638316667,0.8185577392578125,0.5879669189453125,0.218994140625,196217.9514460417,0.7328507992968768,0.5709899935123679,-0.8891016562451338,196217.8996730833,1.166341906167474,1.838963054685934,-0.5252565878914877,0.5984901785850525,0.6785257458686829,-0.6103508472442627,-0.05967457965016365,0.03752066940069199,0.04312365502119064,XTrueNorthZVertical,-0.5543036566762367,0.5544098860844374,0.1500426990169271,0.6023822169617583,0.8342717289924622,0.5014350414276123,0.229245737195015,33.37827301025391,10.08453178405762,23.42703247070312,2,0.0.0.0,10.83.46.32,4,0
2015-03-01 20:04:56.749,143,1425269094.158682,37.76574054635136,-122.4603647048616,81.68233,-1,-1,10,65,-9999,1425269096.731299,29.97945404052734,13.65347290039062,24.19940948486328,304.6248168945312,290.8477478027344,10,196218.01300675,0.7337646484375,0.6465606689453125,0.1785888671875,196218.00321925,0.7834964000630227,0.4950470255515593,-1.177176323991223,196218.00321925,1.113866608697484,1.871342192831743,-0.6291963929541639,0.7649823427200317,0.5133136510848999,-1.144697427749634,-0.04275224357843399,0.04030420631170273,-0.06629995256662369,XTrueNorthZVertical,-0.5604642389654314,0.5527700949586618,0.08675627096932108,0.6105722077204658,0.7722597122192383,0.5884952545166016,0.2393498867750168,31.55225372314453,13.13114643096924,24.42664527893066,2,0.0.0.0,10.83.46.32,4,0
2015-03-01 20:04:56.814,144,1425269094.158682,37.76574054635136,-122.4603647048616,81.68233,-1,-1,10,65,-9999,1425269096.782603,28.30838012695312,16.54232788085938,24.53224945068359,312.1036071777344,298.3265380859375,10,196218.0619362083,0.6456298828125,0.7451934814453125,0.16363525390625,196218.0549900417,0.6368462388445013,0.5553710863512712,-1.391274768241527,196218.00321925,1.113866608697484,1.871342192831743,-0.6291963929541639,0.7649823427200317,0.5133136510848999,-1.144697427749634,-0.04275224357843399,0.04030420631170273,-0.06629995256662369,XTrueNorthZVertical,-0.5604642389654314,0.5527700949586618,0.08675627096932108,0.6105722077204658,0.7722597122192383,0.5884952545166016,0.2393498867750168,31.55225372314453,13.13114643096924,24.42664527893066,2,0.0.0.0,10.83.46.32,4,0
2015-03-01 20:04:56.847,145,1425269094.158682,37.76574054635136,-122.4603647048616,81.68233,-1,-1,10,65,-9999,1425269096.83464,25.98933029174805,19.70306396484375,24.76522064208984,320.2466735839844,306.4696044921875,10,196218.111126375,0.60357666015625,0.8819580078125,0.17913818359375,196218.1067634167,0.5002742781391669,0.5566118531031391,-1.786157375718007,196218.0549900417,1.097000527467009,1.88666137207412,-0.7008124059490916,0.6183331608772278,0.5736373066902161,-1.358797192573547,-0.06453418731689453,0.0621771551668644,-0.06744413077831268,XTrueNorthZVertical,-0.5684138240469996,0.5437087855092301,0.0503881388401153,0.6154246737736695,0.726506233215332,0.644838809967041,0.2374270409345627,29.26669311523438,17.15677642822266,24.77374458312988,2,0.0.0.0,10.83.46.32,4,0
2015-03-01 20:04:56.917,146,1425269094.158682,37.76574054635136,-122.4603647048616,81.68233,-1,-1,10,65,-9999,1425269096.894102,23.22693634033203,23.06771850585938,25.06477355957031,329.4598693847656,315.6828002929688,10,196218.1600653334,0.4775238037109375,0.9633941650390625,0.1929168701171875,196218.158536375,0.3798514599679639,0.5316878610933056,-2.143712851039828,196218.1067634167,1.092199918432161,1.909133868870046,-0.7942666067411159,0.4817757904529572,0.5748772025108337,-1.753712177276611,-0.04517200589179993,0.1509995311498642,-0.06438362598419189,XTrueNorthZVertical,-0.5818736632180188,0.5269999324493844,0.007081248252174101,0.619390006060505,0.6610777378082275,0.7133498191833496,0.2326117753982544,27.30315017700195,20.07454490661621,24.82304191589355,2,0.0.0.0,10.83.46.32,4,0
2015-03-01 20:04:56.945,147,1425269094.158682,37.76574054635136,-122.4603647048616,81.68233,-1,-1,10,65,-9999,1425269096.894102,23.22693634033203,23.06771850585938,25.06477355957031,329.4598693847656,315.6828002929688,10,196218.2092485834,0.299835205078125,0.96527099609375,0.228546142578125,196218.2103074584,0.3316509073986197,0.3607613886420579,-2.34725665525793,196218.158536375,1.116518129968795,1.956977578263881,-0.8921381429888686,0.3613532483577728,0.5499531030654907,-2.111268520355225,-0.07654364407062531,0.1809195876121521,-0.05291128903627396,XTrueNorthZVertical,-0.6007604692313581,0.5072562073474511,-0.0368016548751181,0.6167849295724593,0.5815179944038391,0.7784157395362854,0.2364439964294434,25.75556182861328,21.83956909179688,24.98634338378906,2,0.0.0.0,10.83.46.32,4,0
2015-03-01 20:04:56.984,148,1425269094.158682,37.76574054635136,-122.4603647048616,81.68233,-1,-1,10,65,-9999,1425269096.96457,17.61688613891602,27.57095336914062,25.38097381591797,343.4992980957031,329.7222290039062,10,196218.2581897083,0.164947509765625,0.975616455078125,0.2643585205078125,196218.2103074584,0.3316509073986197,0.3607613886420579,-2.34725665525793,196218.2103074584,1.169024573691478,2.022847117797073,-1.001277872454491,0.3131529688835144,0.3790265917778015,-2.314813375473022,-0.1852277964353561,0.1231102645397186,-0.006994101218879223,XTrueNorthZVertical,-0.6227166082983387,0.479577050865746,-0.08241267066232938,0.6127299912518419,0.4850630164146423,0.8421607613563538,0.2355402410030365,20.91578674316406,26.2152214050293,25.29673767089844,2,0.0.0.0,10.83.46.32,4,0
2015-03-01 20:04:57.043,149,1425269094.158682,37.76574054635136,-122.4603647048616,81.68233,-1,-1,10,65,-9999,1425269097.015594,12.92763519287109,30.51077270507812,24.931640625,354.3643493652344,340.5872802734375,10,196218.3072687083,0.039642333984375,1.047119140625,0.2220916748046875,196218.3138537084,0.5052477314748899,0.2892866723581843,-2.366558447890497,196218.2620804167,1.262335211879596,2.126823793936331,-1.123574020087509,0.4213793575763702,0.5497257709503174,-2.363383531570435,-0.2023684233427048,0.07396462559700012,0.03609765693545341,XTrueNorthZVertical,-0.6454469964449993,0.4444419042642068,-0.1332362680519021,0.6067270208442914,0.3673159182071686,0.9016517996788025,0.2282608598470688,17.24710273742676,28.83829498291016,25.20957946777344,2,0.0.0.0,10.83.46.32,4,0
2015-03-01 20:04:57.084,150,1425269094.158682,37.76574054635136,-122.4603647048616,81.68233,-1,-1,10,65,-9999,1425269097.068083,8.545318603515625,32.90679931640625,24.44902801513672,3.842432975769043,350.0653686523438,10,196218.35631475,0.08990478515625,1.264938354492188,0.1372833251953125,196218.3138537084,0.5052477314748899,0.2892866723581843,-2.366558447890497,196218.3138537084,1.389280499113677,2.266762439588152,-1.230087717921539,0.4867470860481262,0.3075635731220245,-2.334146499633789,-0.2167998701334,0.1046010255813599,0.007855763658881187,XTrueNorthZVertical,-0.6613650678357235,0.4119638366062478,-0.1800980041541849,0.6003721893191269,0.2564421892166138,0.9425181150436401,0.2142359167337418,14.75699234008789,30.27927207946777,25.10039329528809,2,0.0.0.0,10.83.46.32,4,0
