loggingTime,loggingSample,locationTimestamp_since1970,locationLatitude,locationLongitude,locationAltitude,locationSpeed,locationCourse,locationVerticalAccuracy,locationHorizontalAccuracy,locationFloor,locationHeadingTimestamp_since1970,locationHeadingX,locationHeadingY,locationHeadingZ,locationTrueHeading,locationMagneticHeading,locationHeadingAccuracy,accelerometerTimestamp_sinceReboot,accelerometerAccelerationX,accelerometerAccelerationY,accelerometerAccelerationZ,gyroTimestamp_sinceReboot,gyroRotationX,gyroRotationY,gyroRotationZ,motionTimestamp_sinceReboot,motionYaw,motionRoll,motionPitch,motionRotationRateX,motionRotationRateY,motionRotationRateZ,motionUserAccelerationX,motionUserAccelerationY,motionUserAccelerationZ,motionAttitudeReferenceFrame,motionQuaternionX,motionQuaternionY,motionQuaternionZ,motionQuaternionW,motionGravityX,motionGravityY,motionGravityZ,motionMagneticFieldX,motionMagneticFieldY,motionMagneticFieldZ,motionMagneticFieldCalibrationAccuracy,IP_en0,IP_pdp_ip0,deviceOrientation,state
2015-02-27 17:08:09.508,1,1425085683.698414,37.78758687610561,-122.396188344496,12.47059,-1,-1,10,65,-9999,1425085689.503707,-0.661773681640625,-34.9515380859375,-17.16305541992188,185.8192138671875,172.0459594726562,10,137333.7284634583,0.138397216796875,-0.5620574951171875,-0.8410797119140625,137333.6827580833,-0.07791184295470414,0.08579133767192158,-0.01915105771486881,137333.6827580833,1.781387629997328,0.06653138546794421,0.6384001527405825,-0.07969754189252853,0.09507151693105698,0.01861679181456566,0.03083988279104233,0.001459542661905289,0.01274504419416189,XTrueNorthZVertical,0.1726822452129647,0.2637121514031263,0.7443889517792199,0.5886610484654462,0.05338863283395767,-0.59591144323349,-0.8012734651565552,-0.9858270883560181,-36.63720703125,-15.35047245025635,2,10.3.35.51,10.83.46.32,1,0
2015-02-27 17:08:09.573,2,1425085683.698414,37.78758687610561,-122.396188344496,12.47059,-1,-1,10,65,-9999,1425085689.554759,-0.934600830078125,-35.08746337890625,-17.36274719238281,185.0172424316406,171.2439880371094,10,137333.7774890834,0.004547119140625,-0.5968170166015625,-0.7381591796875,137333.734542375,-0.05149514915388115,-0.2256243391320581,-0.1128631691009041,137333.734542375,1.779137227098294,0.06924213205492838,0.6314236902466316,-0.05328026413917542,-0.2163451910018921,-0.07509482651948929,0.08255045115947723,0.02823704667389393,-0.03582603111863136,XTrueNorthZVertical,0.1698557140377493,0.261767445004059,0.7447329629443278,0.5899149541839026,0.05584676191210747,-0.5902945399284363,-0.8052536845207214,-0.8306024074554443,-36.53963470458984,-15.59033870697021,2,10.3.35.51,10.83.46.32,1,0
2015-02-27 17:08:09.597,3,1425085683.698414,37.78758687610561,-122.396188344496,12.47059,-1,-1,10,65,-9999,1425085689.554759,-0.934600830078125,-35.08746337890625,-17.36274719238281,185.0172424316406,171.2439880371094,10,137333.8266059167,0.0380096435546875,-0.567352294921875,-0.7855987548828125,137333.7863282917,-0.05772508189190352,-0.2026548410462337,-0.02780739652206237,137333.7863282917,1.775810776157076,0.05672115389562399,0.6294816154031174,-0.05950827151536942,-0.1933715343475342,0.009957717731595039,-0.04127787053585052,-0.008091206662356853,0.06887365132570267,XTrueNorthZVertical,0.1743547762750379,0.2570680773455988,0.7428870276714986,0.5929884297675503,0.04582498967647552,-0.5887258052825928,-0.8070328235626221,-0.7875139713287354,-36.48208999633789,-15.72673988342285,2,10.3.35.51,10.83.46.32,1,0
2015-02-27 17:08:09.656,4,1425085683.698414,37.78758687610561,-122.396188344496,12.47059,-1,-1,10,65,-9999,1425085689.607023,-1.019851684570312,-35.2064208984375,-17.54580688476562,185.5188903808594,171.7456359863281,10,137333.8756216667,0.0718994140625,-0.5672760009765625,-0.7996368408203125,137333.8381127084,-0.00339153564821591,0.1505777911941702,-0.01847408216577067,137333.8381127084,1.775778220309889,0.05871292391809024,0.6269515657212528,-0.005158900748938322,0.1597954928874969,0.0193825401365757,0.009105795063078403,0.01180392783135176,0.02938683703541756,XTrueNorthZVertical,0.1728512452230518,0.2567299960280864,0.7433314327989323,0.5930181576462944,0.04751957207918167,-0.5866788029670715,-0.8084242939949036,-0.9649903774261475,-36.4698486328125,-15.74523735046387,2,10.3.35.51,10.83.46.32,1,0
2015-02-27 17:08:09.695,5,1425085683.698414,37.78758687610561,-122.396188344496,12.47059,-1,-1,10,65,-9999,1425085689.660687,-1.122161865234375,-35.34234619140625,-17.71222686767578,185.1894989013672,171.4162445068359,10,137333.9246494583,0.0713348388671875,-0.573944091796875,-0.79498291015625,137333.8898973333,-0.01699283196746859,-0.03366555197190967,-0.007682420796551579,137333.8898973333,1.777185303283767,0.06208985384759193,0.6259814492408871,-0.018761046230793,-0.02444279193878174,0.03016973100602627,0.009484097361564636,0.01716732420027256,0.02609680034220219,XTrueNorthZVertical,0.1711201321218809,0.2574965031339767,0.7441458743294699,0.5921658273622793,0.05028457939624786,-0.585892915725708,-0.8088269233703613,-0.8695739507675171,-36.44064331054688,-15.81824493408203,2,10.3.35.51,10.83.46.32,1,0
2015-02-27 17:08:09.754,6,1425085683.698414,37.78758687610561,-122.396188344496,12.47059,-1,-1,10,65,-9999,1425085689.711349,-0.96868896484375,-35.1214599609375,-17.52916717529297,185.4545135498047,171.6812591552734,10,137333.9737026667,0.0458984375,-0.58489990234375,-0.78619384765625,137333.941683125,0.002522013552305039,-0.0109131015149267,-0.0009526127219213435,137333.941683125,1.779193824046925,0.06196326186164104,0.6256911902000469,0.0007550058071501553,-0.001687150332145393,0.03689691051840782,0.01525222975760698,0.004450387321412563,0.01325711235404015,XTrueNorthZVertical,0.1708206040699037,0.2575244459453129,0.7447613663665871,0.5914659637328146,0.05019271746277809,-0.5856576561927795,-0.8090029358863831,-0.9131776094436646,-36.4265251159668,-15.8482780456543,2,10.3.35.51,10.83.46.32,1,0
2015-02-27 17:08:09.793,7,1425085683.698414,37.78758687610561,-122.396188344496,12.47059,-1,-1,10,65,-9999,1425085689.764366,-1.207412719726562,-34.7816162109375,-17.52916717529297,184.7576141357422,170.9843597412109,10,137334.0225994167,0.055419921875,-0.57244873046875,-0.80181884765625,137333.9934675834,0.0173829850671652,-0.03049372711362529,0.003184608031516753,137333.9934675834,1.781301214928483,0.05950931027008193,0.6266635271794162,0.0156537126749754,-0.02135629579424858,0.04103878140449524,-0.01197957433760166,0.006718349177390337,0.01814959198236465,XTrueNorthZVertical,0.171757822178902,0.2573360017277169,0.745066643274973,0.5908918073006066,0.04817342385649681,-0.5864455103874207,-0.8085548877716064,-0.9671430587768555,-36.42642974853516,-15.84529209136963,2,10.3.35.51,10.83.46.32,1,0
2015-02-27 17:08:09.852,8,1425085683.698414,37.78758687610561,-122.396188344496,12.47059,-1,-1,10,65,-9999,1425085689.815914,-1.412033081054688,-34.91754150390625,-17.59571838378906,184.39208984375,170.6188354492188,10,137334.07172525,0.0375213623046875,-0.586151123046875,-0.8036041259765625,137334.0452520417,0.01321913270282631,0.05134920792614481,0.04149178346732552,137334.0452520417,1.784281015178455,0.06022506120302041,0.6283743913747366,0.01149195712059736,0.06049048900604248,0.07934296131134033,0.02276523597538471,-0.02062902972102165,0.006415801122784615,XTrueNorthZVertical,0.1716239950718449,0.2584307672059502,0.7458174243480872,0.5895041225780933,0.04869167506694794,-0.5878304243087769,-0.8075174689292908,-1.075162291526794,-36.4422607421875,-15.80187606811523,2,10.3.35.51,10.83.46.32,1,0
2015-02-27 17:08:09.891,9,1425085683.698414,37.78758687610561,-122.396188344496,12.47059,-1,-1,10,65,-9999,1425085689.867443,-1.070991516113281,-35.08746337890625,-17.62899780273438,184.3601379394531,170.5868835449219,10,137334.1206459167,0.077850341796875,-0.5816650390625,-0.81195068359375,137334.0970382083,-0.02829315710489282,0.003312173447731549,-0.0416220120446304,137334.0970382083,1.787048364501395,0.05970849599000805,0.628384303170862,-0.03001914173364639,0.01245191227644682,-0.003769766306504607,-0.00896754302084446,0.02497225068509579,0.007396333385258913,XTrueNorthZVertical,0.1714620712242782,0.2585196336225483,0.7465870271996824,0.5885373107128754,0.04827418550848961,-0.5878384709358215,-0.8075367212295532,-1.10377824306488,-36.47447967529297,-15.72537422180176,2,10.3.35.51,10.83.46.32,1,0
2015-02-27 17:08:09.949,10,1425085683.698414,37.78758687610561,-122.396188344496,12.47059,-1,-1,10,65,-9999,1425085689.919451,-1.053947448730469,-35.07044982910156,-17.91190338134766,184.4068145751953,170.6335601806641,10,137334.1696801667,0.02459716796875,-0.56402587890625,-0.786529541015625,137334.1488225,-0.01727619230745303,0.01450464056100756,0.01189634058938396,137334.1488225,1.787470441783187,0.06261543169883595,0.6264958096817613,-0.01894170977175236,0.02350256964564323,0.04968483000993729,0.003554185852408409,-0.004922635387629271,0.003247410524636507,XTrueNorthZVertical,0.1697524728698304,0.2587167467569467,0.7471689532113986,0.5882076983344584,0.05069081112742424,-0.5863096714019775,-0.8084995150566101,-1.100513339042664,-36.43335723876953,-15.82064151763916,2,10.3.35.51,10.83.46.32,1,0
2015-02-27 17:08:09.989,11,1425085683.698414,37.78758687610561,-122.396188344496,12.47059,-1,-1,10,65,-9999,1425085689.970924,-1.036895751953125,-35.223388671875,-17.92854309082031,184.4356994628906,170.6624450683594,10,137334.2188105,0.0825347900390625,-0.572479248046875,-0.8006134033203125,137334.200607125,-0.02505049216161234,0.07798934094242545,-0.0141562990904252,137334.200607125,1.790704279788689,0.06294914396147129,0.6253837946007988,-0.02671532146632671,0.08698046952486038,0.02363697811961174,0.01833434216678143,0.02675368823111057,0.009099149145185947,XTrueNorthZVertical,0.168874302854389,0.2586795519546319,0.7482704286534119,0.5870755683552952,0.05100159719586372,-0.5854084491729736,-0.8091326951980591,-1.165322184562683,-36.41271209716797,-15.8634672164917,2,10.3.35.51,10.83.46.32,1,0
2015-02-27 17:08:10.049,12,1425085683.698414,37.78758687610561,-122.396188344496,12.47059,-1,-1,10,65,-9999,1425085690.022481,-1.412033081054688,-35.15541076660156,-17.96182250976562,184.4303131103516,170.6570587158203,10,137334.267747125,0.0353546142578125,-0.553985595703125,-0.7909088134765625,137334.2523929584,-0.03825551011066123,0.03782833907181252,0.08229141136733946,137334.2523929584,1.79561343247798,0.06363606785055825,0.6243389076803835,-0.03992103040218353,0.04682202637195587,0.1200822070240974,0.007256882265210152,0.01585069671273232,0.02108750492334366,XTrueNorthZVertical,0.1676676138863057,0.2589089061715248,0.7498825835088688,0.5852605049289246,0.0515962690114975,-0.5845610499382019,-0.8097075223922729,-1.157720804214478,-36.39245986938477,-15.91043758392334,2,10.3.35.51,10.83.46.32,1,0
2015-02-27 17:08:10.088,13,1425085683.698414,37.78758687610561,-122.396188344496,12.47059,-1,-1,10,65,-9999,1425085690.075933,-1.036895751953125,-35.25736999511719,-17.89525604248047,184.4489593505859,170.6757049560547,10,137334.316867625,0.086395263671875,-0.5883026123046875,-0.778594970703125,137334.3041775833,-0.02986362319971254,0.06954152764858509,0.06435076036791165,137334.2523929584,1.79561343247798,0.06363606785055825,0.6243389076803835,-0.03992103040218353,0.04682202637195587,0.1200822070240974,0.007256882265210152,0.01585069671273232,0.02108750492334366,XTrueNorthZVertical,0.1676676138863057,0.2589089061715248,0.7498825835088688,0.5852605049289246,0.0515962690114975,-0.5845610499382019,-0.8097075223922729,-1.157720804214478,-36.39245986938477,-15.91043758392334,2,10.3.35.51,10.83.46.32,1,0
2015-02-27 17:08:10.146,14,1425085683.698414,37.78758687610561,-122.396188344496,12.47059,-1,-1,10,65,-9999,1425085690.131243,-1.360877990722656,-35.27438354492188,-17.67890930175781,184.4452056884766,170.6719512939453,10,137334.3657899167,0.0133514404296875,-0.542633056640625,-0.7685394287109375,137334.3559619167,0.04505482668974253,0.07838641826095627,0.1557339373806726,137334.3559619167,1.811468718718203,0.06053748996796557,0.6244522954423926,0.04344020783901215,0.08721545338630676,0.193403422832489,-0.02558453567326069,0.008237001486122608,0.04434016719460487,XTrueNorthZVertical,0.1668122610146562,0.2593742644931109,0.7542285359787462,0.5796878247212476,0.04908307269215584,-0.5846530199050903,-0.8097973465919495,-1.479278206825256,-36.33296203613281,-16.01939582824707,2,10.3.35.51,10.83.46.32,1,0
2015-02-27 17:08:10.185,15,1425085683.698414,37.78758687610561,-122.396188344496,12.47059,-1,-1,10,65,-9999,1425085690.131243,-1.360877990722656,-35.27438354492188,-17.67890930175781,184.4452056884766,170.6719512939453,10,137334.4148075417,0.0927886962890625,-0.609832763671875,-0.796630859375,137334.4077480417,0.07202386010064796,0.08872401066431684,0.1774421623742355,137334.3559619167,1.811468718718203,0.06053748996796557,0.6244522954423926,0.04344020783901215,0.08721545338630676,0.193403422832489,-0.02558453567326069,0.008237001486122608,0.04434016719460487,XTrueNorthZVertical,0.1668122610146562,0.2593742644931109,0.7542285359787462,0.5796878247212476,0.04908307269215584,-0.5846530199050903,-0.8097973465919495,-1.479278206825256,-36.33296203613281,-16.01939582824707,2,10.3.35.51,10.83.46.32,1,0
2015-02-27 17:08:10.252,16,1425085683.698414,37.78758687610561,-122.396188344496,12.47059,-1,-1,10,65,-9999,1425085690.203687,-1.667816162109375,-35.30836486816406,-17.37936401367188,183.728515625,169.9552612304688,10,137334.4638375833,0.0395965576171875,-0.5960235595703125,-0.753143310546875,137334.4595324167,0.07461431689296803,0.07735151386135147,0.2841435756610233,137334.4077480417,1.823340255381253,0.06034089029993558,0.6265150263786193,0.07040619850158691,0.09755096584558487,0.2151122391223907,0.04158780723810196,0.005606237333267927,-0.001686029485426843,XTrueNorthZVertical,0.1659525130501692,0.2610728641156186,0.7574072662740622,0.5750086557182528,0.04885103553533554,-0.5863252282142639,-0.808601438999176,-1.728452086448669,-36.34445953369141,-15.96828937530518,2,10.3.35.51,10.83.46.32,1,0
2015-02-27 17:08:10.282,17,1425085683.698414,37.78758687610561,-122.396188344496,12.47059,-1,-1,10,65,-9999,1425085690.254286,-2.0941162109375,-35.2913818359375,-17.66226959228516,182.5329437255859,168.7596893310547,10,137334.5128705,0.083282470703125,-0.6237335205078125,-0.7729949951171875,137334.5113169167,0.1034611451884883,0.1821735343668703,0.3071335800872413,137334.4595324167,1.840365268280248,0.05407676956612333,0.6326339820090873,0.0730023980140686,0.08618274331092834,0.3218109607696533,-0.005321154370903969,0.001946090487763286,0.04092023521661758,XTrueNorthZVertical,0.1678925526535275,0.2629925544445537,0.7610521652320887,0.5687236648730378,0.04359019920229912,-0.5912710428237915,-0.8052940368652344,-1.988011717796326,-36.38153839111328,-15.85323143005371,2,10.3.35.51,10.83.46.32,1,0
2015-02-27 17:08:10.349,18,1425085690.277788,37.78753887505528,-122.3960089024766,12.60079,-1,-1,10,65,-9999,1425085690.308601,-2.588623046875,-34.90055847167969,-18.01173400878906,180.9983215332031,167.2250671386719,10,137334.5619181667,0.0728912353515625,-0.6307525634765625,-0.73687744140625,137334.5631029583,0.05836903424348468,0.1328722973189964,0.3855210636126336,137334.5113169167,1.859598598297996,0.05055701935429277,0.6379453865982185,0.101852647960186,0.191007599234581,0.3447988927364349,0.04244210943579674,-0.0179486870765686,0.02348604425787926,XTrueNorthZVertical,0.1682293508782945,0.265615447836063,0.7655674590055537,0.5612965198596499,0.04059622064232826,-0.5955461859703064,-0.8022946119308472,-2.591885566711426,-36.41734313964844,-15.68288040161133,2,10.3.35.51,10.83.46.32,1,0
2015-02-27 17:08:10.382,19,1425085690.277788,37.78753887505528,-122.3960089024766,12.60079,-1,-1,10,65,-9999,1425085690.36127,-3.236587524414062,-34.56068420410156,-17.51248168945312,179.1714172363281,165.3981628417969,10,137334.6109515,0.0031890869140625,-0.6790924072265625,-0.64544677734375,137334.5631029583,0.05836903424348468,0.1328722973189964,0.3855210636126336,137334.5631029583,1.883206726821274,0.04489812576576353,0.6443917024479265,0.05676653981208801,0.1417110115289688,0.423183262348175,0.03700879961252213,-0.03004032745957375,0.06178222224116325,XTrueNorthZVertical,0.1690845695040323,0.2684782607448448,0.7708888001890817,0.5523226301057713,0.03588243573904037,-0.6007122397422791,-0.7986596822738647,-2.997082710266113,-36.47492218017578,-15.47549629211426,2,10.3.35.51,10.83.46.32,1,0
2015-02-27 17:08:10.449,20,1425085690.277788,37.78753887505528,-122.3960089024766,12.60079,-1,-1,10,65,-9999,1425085690.411346,-3.748138427734375,-34.59466552734375,-17.94515991210938,177.7821350097656,164.0088806152344,10,137334.6599703333,-0.00531005859375,-0.7176361083984375,-0.5596923828125,137334.6666719583,-0.1823200082268246,0.3497047427443759,0.601880265312306,137334.6148875833,1.909354716538378,0.03324563995761234,0.6495685523466005,-0.07279804348945618,0.04576874151825905,0.4307305514812469,-0.023281030356884,-0.07424952834844589,0.1504580080509186,XTrueNorthZVertical,0.1715195327366059,0.269497048293335,0.7764181363751315,0.5432561702177193,0.0264701172709465,-0.6048429012298584,-0.7959047555923462,-3.563294887542725,-36.47671890258789,-15.35075092315674,2,10.3.35.51,10.83.46.32,1,0
2015-02-27 17:08:10.481,21,1425085690.277788,37.78753887505528,-122.3960089024766,12.60079,-1,-1,10,65,-9999,1425085690.463766,-4.191482543945312,-34.90055847167969,-17.94515991210938,177.1873779296875,163.4141235351562,10,137334.7089865417,-0.0338287353515625,-0.69384765625,-0.668182373046875,137334.6666719583,-0.1823200082268246,0.3497047427443759,0.601880265312306,137334.6666719583,1.942400521035639,0.02547603266661359,0.6439463684508195,-0.1838963180780411,0.3585492074489594,0.6395417451858521,-0.02568187192082405,-0.1172799617052078,0.2397808730602264,XTrueNorthZVertical,0.168579498770432,0.2680379182934343,0.7853513062132708,0.5319398000725277,0.02037181332707405,-0.6003561615943909,-0.7994732260704041,-4.466515064239502,-36.35039520263672,-15.41404151916504,2,10.3.35.51,10.83.46.32,1,0
2015-02-27 17:08:10.552,22,1425085690.277788,37.78753887505528,-122.3960089024766,12.60079,-1,-1,10,65,-9999,1425085690.514792,-5.35101318359375,-34.32279968261719,-18.27799224853516,173.8418426513672,160.0685882568359,10,137334.7580327917,0.0338592529296875,-0.6089630126953125,-0.801422119140625,137334.718458125,-0.005431517043216606,0.7664337932749941,0.8246755284183729,137334.718458125,1.990054149639147,0.02436176338012494,0.6374249211871448,-0.007006581407040358,0.7752782106399536,0.8623368144035339,-0.05340466648340225,-0.09871964901685715,0.1352100819349289,XTrueNorthZVertical,0.1608947756354957,0.2691034044119501,0.7985518017669235,0.51382024767691,0.0195759292691946,-0.5951279997825623,-0.8033924698829651,-5.26750373840332,-36.07674026489258,-15.79923248291016,2,10.3.35.51,10.83.46.32,1,0
2015-02-27 17:08:10.579,23,1425085690.277788,37.78753887505528,-122.3960089024766,12.60079,-1,-1,10,65,-9999,1425085690.567156,-6.749267578125,-34.11886596679688,-18.37784576416016,169.4281158447266,155.6548614501953,10,137334.8070577083,-0.006103515625,-0.454742431640625,-0.6929168701171875,137334.7702425,0.5404549874018464,0.2960497699464405,1.082659139007657,137334.7702425,2.052113728819507,0.01716378614641708,0.6540886977834733,0.5388805866241455,0.3048942685127258,1.120319962501526,0.0028741923160851,0.03195923194289207,-0.001603888347744942,XTrueNorthZVertical,0.1595110965525832,0.2789503421746068,0.8113287437999966,0.4883529300434687,0.01362055912613869,-0.6084362864494324,-0.7934858202934265,-6.149814605712891,-35.86227798461914,-15.96778964996338,2,10.3.35.51,10.83.46.32,1,0
2015-02-27 17:08:10.646,24,1425085690.277788,37.78753887505528,-122.3960089024766,12.60079,-1,-1,10,65,-9999,1425085690.619838,-8.778427124023438,-33.59205627441406,-18.12822723388672,163.9885864257812,150.21533203125,10,137334.8560944167,0.1598968505859375,-0.52716064453125,-0.6978607177734375,137334.822027125,0.7100283077032248,0.3106494853583639,1.375556525171771,137334.822027125,2.132115276089494,-0.02287125113706621,0.6869150854979656,0.708453893661499,0.3194938898086548,1.413216948509216,0.04176101461052895,0.197219505906105,0.06168481335043907,XTrueNorthZVertical,0.1722567362507984,0.2895267261557282,0.8222637288337512,0.4586766290351441,-0.0176826473325491,-0.6341549158096313,-0.7730037569999695,-8.247567176818848,-35.87110137939453,-14.97115135192871,2,10.3.35.51,10.83.46.32,1,0
2015-02-27 17:08:10.679,25,1425085690.277788,37.78753887505528,-122.3960089024766,12.60079,-1,-1,10,65,-9999,1425085690.670111,-11.25094604492188,-33.13327026367188,-17.21292877197266,158.2738952636719,144.5006408691406,10,137334.905116875,0.02337646484375,-0.503570556640625,-0.7463531494140625,137334.8738130417,0.5364205646664854,0.6158528062875157,1.716778034579808,137334.8738130417,2.239469500630621,-0.06659133497533959,0.714655534260801,0.5348461866378784,0.6246970891952515,1.754438161849976,0.2187175750732422,0.1122817099094391,0.07401849329471588,XTrueNorthZVertical,0.1804561627271032,0.3010200906547409,0.8375940960940969,0.4186389932450068,-0.05026053637266159,-0.655357301235199,-0.7536449432373047,-10.35280418395996,-35.71248626708984,-14.01182651519775,2,10.3.35.51,10.83.46.32,1,0
2015-02-27 17:08:10.783,26,1425085690.277788,37.78753887505528,-122.3960089024766,12.60079,-1,-1,10,65,-9999,1425085690.737554,-13.8087158203125,-32.14764404296875,-16.71368408203125,151.6572113037109,137.8839569091797,10,137334.954154,0.143951416015625,-0.6318817138671875,-0.7082977294921875,137334.9255975834,0.7715132404221021,0.7241411972678817,1.636560426753313,137334.9255975834,2.361380256069216,-0.109997006070055,0.7372243318215974,0.7700213193893433,0.7327582240104675,1.674007296562195,0.09067018330097198,0.1365300118923187,0.00193053251132369,XTrueNorthZVertical,0.1842438317981282,0.3132454255825657,0.8539067969328337,0.3725247563165535,-0.08127076923847198,-0.6722355484962463,-0.7358630299568176,-12.71739959716797,-32.41960144042969,-16.71370887756348,2,10.3.35.51,10.83.46.32,1,0
2015-02-27 17:08:10.788,27,1425085690.277788,37.78753887505528,-122.3960089024766,12.60079,-1,-1,10,65,-9999,1425085690.737554,-13.8087158203125,-32.14764404296875,-16.71368408203125,151.6572113037109,137.8839569091797,10,137335.0031726667,-0.0434417724609375,-0.5725250244140625,-0.7669830322265625,137334.977382125,0.9541285932138166,-0.0467272918543123,1.311970890985039,137334.977382125,2.468604612837758,-0.1666475891505994,0.7705730453836571,0.9526366591453552,-0.03811033070087433,1.349417328834534,0.2320407629013062,0.0893993005156517,-0.06781911104917526,XTrueNorthZVertical,0.1964598795681824,0.3280514589056963,0.8613577418656123,0.3344377291498844,-0.1190189048647881,-0.6965464949607849,-0.7075715065002441,-14.5767297744751,-32.03945541381836,-15.90921115875244,2,10.3.35.51,10.83.46.32,1,0
2015-02-27 17:08:10.848,28,1425085690.277788,37.78753887505528,-122.3960089024766,12.60079,-1,-1,10,65,-9999,1425085690.805977,-17.50896453857422,-30.53329467773438,-14.99959564208984,142.0667572021484,128.2935028076172,10,137335.0522191667,-0.1067962646484375,-0.6429443359375,-0.6573486328125,137335.0291680833,1.017651643114932,-0.4375091638842884,0.8458934654552522,137335.0291680833,2.562701736326905,-0.2478159176465642,0.8089216465918766,1.016159772872925,-0.4288922548294067,0.8833395838737488,0.0848744735121727,0.1330586075782776,0.004976273514330387,XTrueNorthZVertical,0.2203514154716112,0.3418326682836405,0.860436622454147,0.3069926667761019,-0.1693166047334671,-0.7235432267189026,-0.6691913604736328,-16.5137825012207,-31.77790451049805,-14.47654438018799,2,10.3.35.51,10.83.46.32,1,0
2015-02-27 17:08:10.871,29,1425085690.277788,37.78753887505528,-122.3960089024766,12.60079,-1,-1,10,65,-9999,1425085690.805977,-17.50896453857422,-30.53329467773438,-14.99959564208984,142.0667572021484,128.2935028076172,10,137335.1012381667,-0.076080322265625,-0.65057373046875,-0.5628662109375,137335.080952625,1.160773115889098,-0.172516645938134,0.5576086742991557,137335.080952625,2.631651492702388,-0.3151943204614665,0.8506797678862471,1.159281253814697,-0.1638998538255692,0.5950544476509094,0.07762142270803452,0.1241348758339882,0.004028834402561188,XTrueNorthZVertical,0.241122309621399,0.3582847380166853,0.8541925504819794,0.28956374622716,-0.2044372260570526,-0.751728892326355,-0.626984179019928,-18.38080978393555,-31.74549102783203,-12.10290431976318,2,10.3.35.51,10.83.46.32,1,0
2015-02-27 17:08:10.955,30,1425085690.277788,37.78753887505528,-122.3960089024766,12.60079,-1,-1,10,65,-9999,1425085690.930325,-22.04473876953125,-29.95553588867188,-10.27337646484375,134.5999450683594,120.8266906738281,10,137335.15027175,-0.0785980224609375,-0.7312469482421875,-0.5756683349609375,137335.1327371667,1.211836566630277,-0.09123803473335164,0.5236616262000248,137335.1327371667,2.708095698287947,-0.3708048670151525,0.8988141169972194,1.210344672203064,-0.08262133598327637,0.5611069798469543,0.18797367811203,0.1077692583203316,-0.01681764423847198,XTrueNorthZVertical,0.2539785170678448,0.3812883236666969,0.8473325742405583,0.2685919467429825,-0.2255865931510925,-0.7825891971588135,-0.5802282691001892,-19.25531005859375,-31.84036636352539,-10.36989498138428,2,10.3.35.51,10.83.46.32,1,0
2015-02-27 17:08:10.969,31,1425085690.277788,37.78753887505528,-122.3960089024766,12.60079,-1,-1,10,65,-9999,1425085690.930325,-22.04473876953125,-29.95553588867188,-10.27337646484375,134.5999450683594,120.8266906738281,10,137335.1992974167,-0.040740966796875,-0.779083251953125,-0.593353271484375,137335.18452325,0.8423293569683992,-0.1225658639003898,0.4823035334194212,137335.1327371667,2.708095698287947,-0.3708048670151525,0.8988141169972194,1.210344672203064,-0.08262133598327637,0.5611069798469543,0.18797367811203,0.1077692583203316,-0.01681764423847198,XTrueNorthZVertical,0.2539785170678448,0.3812883236666969,0.8473325742405583,0.2685919467429825,-0.2255865931510925,-0.7825891971588135,-0.5802282691001892,-19.25531005859375,-31.84036636352539,-10.36989498138428,2,10.3.35.51,10.83.46.32,1,0
2015-02-27 17:08:11.043,32,1425085690.277788,37.78753887505528,-122.3960089024766,12.60079,-1,-1,10,65,-9999,1425085691.033201,-23.80107879638672,-29.2587890625,-7.161384582519531,130.381591796875,116.6083374023438,10,137335.2483388333,-0.0048980712890625,-0.9083099365234375,-0.6450347900390625,137335.2363077917,0.3881402825447265,-0.359824754886677,0.4829919605612067,137335.2363077917,2.841750639303601,-0.4967400031164798,0.950251321221663,0.3866484761238098,-0.3512082099914551,0.5204365849494934,0.2292896211147308,-0.06870151311159134,-0.1285383850336075,XTrueNorthZVertical,0.2823718094639798,0.4057897930604017,0.8354840583777413,0.2399316389840041,-0.2771106660366058,-0.8135616779327393,-0.5112016201019287,-21.1320915222168,-31.5792179107666,-6.949703216552734,2,10.3.35.51,10.83.46.32,1,0
2015-02-27 17:08:11.069,33,1425085690.277788,37.78753887505528,-122.3960089024766,12.60079,-1,-1,10,65,-9999,1425085691.033201,-23.80107879638672,-29.2587890625,-7.161384582519531,130.381591796875,116.6083374023438,10,137335.29745525,-0.0419921875,-0.7764434814453125,-0.583709716796875,137335.2880925417,0.05364325488913907,-1.087846976811131,0.494631838737616,137335.2363077917,2.841750639303601,-0.4967400031164798,0.950251321221663,0.3866484761238098,-0.3512082099914551,0.5204365849494934,0.2292896211147308,-0.06870151311159134,-0.1285383850336075,XTrueNorthZVertical,0.2823718094639798,0.4057897930604017,0.8354840583777413,0.2399316389840041,-0.2771106660366058,-0.8135616779327393,-0.5112016201019287,-21.1320915222168,-31.5792179107666,-6.949703216552734,2,10.3.35.51,10.83.46.32,1,0
2015-02-27 17:08:11.146,34,1425085690.277788,37.78753887505528,-122.3960089024766,12.60079,-1,-1,10,65,-9999,1425085691.136766,-25.59152984619141,-28.9359130859375,-4.182525634765625,132.1530609130859,118.3798065185547,10,137335.3464036667,-0.22967529296875,-0.7029571533203125,-0.36956787109375,137335.339878375,-0.03399125657322636,-1.4251461825657,0.4140096967415382,137335.2880925417,2.886666859988388,-0.5668581981539296,0.9449194875839777,0.05215144157409668,-1.079230546951294,0.5320760607719421,0.2844184041023254,0.01978509873151779,-0.1363710165023804,XTrueNorthZVertical,0.3025348828975147,0.4017226030486099,0.8318116601597966,0.2349062684840413,-0.3145697712898254,-0.8104497790336609,-0.4941831827163696,-21.98553085327148,-31.17079925537109,-6.093302726745605,2,10.3.35.51,10.83.46.32,1,0
2015-02-27 17:08:11.166,35,1425085690.277788,37.78753887505528,-122.3960089024766,12.60079,-1,-1,10,65,-9999,1425085691.136766,-25.59152984619141,-28.9359130859375,-4.182525634765625,132.1530609130859,118.3798065185547,10,137335.3954320833,-0.1222686767578125,-0.3550567626953125,-0.399017333984375,137335.3916629167,0.3061316988851535,-0.5800119843372293,0.7394559714324913,137335.339878375,2.920447730753503,-0.667752154354776,0.926248393480103,-0.03548305109143257,-1.416529893875122,0.4514535367488861,0.1221892014145851,0.1118714660406113,0.05337541177868843,XTrueNorthZVertical,0.3379716296941171,0.3871457666144142,0.8239403092579579,0.238779600919338,-0.372051864862442,-0.7993714809417725,-0.4717866778373718,-23.04611587524414,-30.61667442321777,-4.858658790588379,2,10.3.35.51,10.83.46.32,1,0
2015-02-27 17:08:11.247,36,1425085690.277788,37.78753887505528,-122.3960089024766,12.60079,-1,-1,10,65,-9999,1425085691.241712,-27.41606903076172,-26.77777099609375,-0.8375625610351562,131.5724182128906,117.7991638183594,10,137335.4444804583,-0.0848388671875,-0.361968994140625,-0.2330474853515625,137335.4434475,0.254222694497874,-1.320986756539393,0.8047367076530587,137335.3916629167,2.966170455184907,-0.7495982393599524,0.9129280075140408,0.3046399056911469,-0.5713956952095032,0.7768994569778442,0.2641755640506744,0.3660196959972382,0.06886762380599976,XTrueNorthZVertical,0.3632724511688066,0.3798165744987236,0.8179590525492956,0.233913407976924,-0.4165956079959869,-0.7912973761558533,-0.4475449919700623,-24.29014587402344,-29.87883567810059,-3.058547973632812,2,10.3.35.51,10.83.46.32,1,0
2015-02-27 17:08:11.265,37,1425085690.277788,37.78753887505528,-122.3960089024766,12.60079,-1,-1,10,65,-9999,1425085691.241712,-27.41606903076172,-26.77777099609375,-0.8375625610351562,131.5724182128906,117.7991638183594,10,137335.49349825,-0.366302490234375,-0.352325439453125,-0.1046600341796875,137335.4434475,0.254222694497874,-1.320986756539393,0.8047367076530587,137335.4434475,3.030521352910877,-0.8442743600145849,0.8914615441931341,0.2527309358119965,-1.312370538711548,0.8421798348426819,0.3938541412353516,0.4292664527893066,0.1258889436721802,XTrueNorthZVertical,0.3909399449739094,0.37214569638929,0.8120147968587544,0.2220484359008662,-0.4696292877197266,-0.7779908180236816,-0.4173470735549927,-25.44994354248047,-28.99518585205078,-1.921032905578613,2,10.3.35.51,10.83.46.32,1,0
2015-02-27 17:08:11.346,38,1425085690.277788,37.78753887505528,-122.3960089024766,12.60079,-1,-1,10,65,-9999,1425085691.297841,-28.66084289550781,-25.40133666992188,1.442344665527344,127.5851364135742,113.811882019043,10,137335.5425265833,-0.684783935546875,-0.6325531005859375,0.027374267578125,137335.5470181667,0.6294889900170485,-2.742871632034182,-0.3110819827193927,137335.49523375,3.089912833114842,-0.9723108290732476,0.874278350194117,0.346390038728714,-1.792349219322205,0.5630042552947998,0.1637400686740875,0.4147552847862244,0.2567843496799469,XTrueNorthZVertical,0.4328243700998189,0.3632366686524335,0.7956193110071479,0.2184309897137919,-0.5300425887107849,-0.7670807242393494,-0.3614443838596344,-26.56142807006836,-28.0462703704834,0.08848953247070312,2,10.3.35.51,10.83.46.32,1,0
2015-02-27 17:08:11.366,39,1425085690.277788,37.78753887505528,-122.3960089024766,12.60079,-1,-1,10,65,-9999,1425085691.297841,-28.66084289550781,-25.40133666992188,1.442344665527344,127.5851364135742,113.811882019043,10,137335.5915437917,-2.833694458007812,-0.4418487548828125,1.811187744140625,137335.5470181667,0.6294889900170485,-2.742871632034182,-0.3110819827193927,137335.5470181667,3.126317540383035,-1.118168772999485,0.8828699522899175,0.6279972791671753,-2.73425555229187,-0.2736396193504333,-0.1137848123908043,0.140011191368103,0.3050510585308075,XTrueNorthZVertical,0.4823170460119066,0.358513414280669,0.7647231511185186,0.2324583815898812,-0.5709991455078125,-0.7725642919540405,-0.2776767909526825,-27.10905075073242,-27.37358283996582,2.810155868530273,2,10.3.35.51,10.83.46.32,1,0
2015-02-27 17:08:11.448,40,1425085690.277788,37.78753887505528,-122.3960089024766,12.60079,-1,-1,10,65,-9999,1425085691.421655,-28.49031829833984,-24.48370361328125,5.33648681640625,123.8349304199219,110.0616760253906,10,137335.6406030833,1.891036987304688,-0.4792633056640625,-2.078704833984375,137335.5988027084,3.719805139978456,0.5700392450032097,-0.762331726247945,137335.5988027084,-3.07527988361549,-1.267161452824971,0.9389744550685134,3.718313217163086,0.5786551237106323,-0.7248896956443787,-2.270095586776733,0.365104079246521,1.987776398658752,XTrueNorthZVertical,0.5155990260666281,0.3819205306699833,0.7271977306542358,0.2438807315555901,-0.5635987520217896,-0.8069528341293335,-0.176588699221611,-25.76507377624512,-27.79841423034668,7.45115852355957,2,10.3.35.51,10.83.46.32,1,0
2015-02-27 17:08:11.467,41,1425085690.277788,37.78753887505528,-122.3960089024766,12.60079,-1,-1,10,65,-9999,1425085691.421655,-28.49031829833984,-24.48370361328125,5.33648681640625,123.8349304199219,110.0616760253906,10,137335.68963525,-0.869232177734375,-1.157211303710938,-0.0454559326171875,137335.6505887917,-0.773995306558056,1.299245508348313,-1.458896156744165,137335.6505887917,-3.072297834092627,-0.9472490040876361,0.837376377241126,-0.7754870057106018,1.307861328125,-1.421454548835754,3.697293043136597,-0.7435455322265625,-1.585907936096191,XTrueNorthZVertical,0.4039336841060068,0.3760264421866241,0.8189880334603881,0.1571632679431247,-0.5434386134147644,-0.742889404296875,-0.3908833861351013,-28.37235641479492,-25.80389213562012,4.612949371337891,2,10.3.35.51,10.83.46.32,1,0
2015-02-27 17:08:11.545,42,1425085690.277788,37.78753887505528,-122.3960089024766,12.60079,-1,-1,10,65,-9999,1425085691.47902,-30.12728881835938,-23.90594482421875,3.938591003417969,124.6258239746094,110.8525695800781,10,137335.7386869167,-0.7825775146484375,-0.6022796630859375,-0.5266876220703125,137335.7023735417,0.5922231105674607,-2.578289874563939,0.6609513088191356,137335.7023735417,-3.079343959896112,-1.100228122829639,0.8337010127781036,0.5907314419746399,-2.569674015045166,0.6983925700187683,-0.6200610399246216,-0.2024165391921997,0.3676249384880066,XTrueNorthZVertical,0.4670454306424347,0.3598566863337455,0.7856765747895145,0.1873073649507506,-0.5990856885910034,-0.7404240369796753,-0.3047434687614441,-28.72834777832031,-25.7171630859375,2.32816219329834,2,10.3.35.51,10.83.46.32,1,0
2015-02-27 17:08:11.562,43,1425085690.277788,37.78753887505528,-122.3960089024766,12.60079,-1,-1,10,65,-9999,1425085691.551313,-30.75820922851562,-23.48112487792969,4.820587158203125,124.0901947021484,110.3169403076172,10,137335.7878431667,-0.639068603515625,-0.6446075439453125,0.1982879638671875,137335.7541579583,-0.2649962463716806,-0.2713540108420267,-0.2495485804686759,137335.7541579583,-3.082800690296217,-1.118148778347251,0.8241851470041029,-0.2664878964424133,-0.2627383470535278,-0.2121076881885529,0.1638444811105728,0.07867539674043655,-0.195557028055191,XTrueNorthZVertical,0.4758091870674488,0.3536835021315592,0.782685476021221,0.1895179188585139,-0.6107591390609741,-0.7339946031570435,-0.297027200460434,-28.98772811889648,-25.1385555267334,4.458193778991699,2,10.3.35.51,10.83.46.32,1,0
2015-02-27 17:08:11.645,44,1425085690.277788,37.78753887505528,-122.3960089024766,12.60079,-1,-1,10,65,-9999,1425085691.602967,-30.26370239257812,-23.29420471191406,5.7691650390625,125.3847808837891,111.6115264892578,10,137335.8367559583,-0.6352081298828125,-0.8047027587890625,-0.151275634765625,137335.805944,0.2432432802718043,-0.6189737647689796,-0.07288219691998049,137335.805944,-3.081446183475321,-1.171346707125508,0.8316457919271952,0.2417516112327576,-0.6103581190109253,-0.03544167429208755,-0.2038363218307495,0.07919000089168549,0.4167945683002472,XTrueNorthZVertical,0.4953062954536054,0.3516739871396928,0.7686955050572144,0.2002605779453096,-0.6206265687942505,-0.7390410900115967,-0.2619941532611847,-28.68486785888672,-25.38271713256836,5.000674247741699,2,10.3.35.51,10.83.46.32,1,0
2015-02-27 17:08:11.662,45,1425085690.277788,37.78753887505528,-122.3960089024766,12.60079,-1,-1,10,65,-9999,1425085691.602967,-30.26370239257812,-23.29420471191406,5.7691650390625,125.3847808837891,111.6115264892578,10,137335.8857761667,-1.0140380859375,-0.4631805419921875,-0.129486083984375,137335.857728625,-0.1513911205910804,-0.3748191507721502,-0.2826133232986637,137335.857728625,-3.080081537059415,-1.181340546840521,0.8385268193453658,-0.1528827697038651,-0.3662036657333374,-0.2451732009649277,0.01854953169822693,-0.01599979400634766,-0.05337859690189362,XTrueNorthZVertical,0.4980448621691969,0.3535963575454493,0.7652441877148406,0.2032787802181254,-0.6184945702552795,-0.7436590194702148,-0.2538418769836426,-28.40263366699219,-25.44921493530273,6.143159866333008,2,10.3.35.51,10.83.46.32,1,0
2015-02-27 17:08:11.727,46,1425085690.277788,37.78753887505528,-122.3960089024766,12.60079,-1,-1,10,65,-9999,1425085691.662543,-29.70098876953125,-23.51510620117188,6.817588806152344,126.8078994750977,113.0346450805664,10,137335.934816375,-0.41949462890625,-0.8199615478515625,-0.31695556640625,137335.909513375,0.07125766865503216,0.3852555464519527,-0.1113803210059479,137335.909513375,-3.09670544114517,-1.190274918327855,0.8468408071723121,0.06983919441699982,0.3936682045459747,-0.07412241399288177,-0.258910208940506,0.01873815432190895,0.2873371243476868,XTrueNorthZVertical,0.5033491157406377,0.3516235604659572,0.7599228433307725,0.2133490326045426,-0.6149758696556091,-0.7491916418075562,-0.2460010796785355,-27.93024063110352,-25.85027885437012,6.616312026977539,2,10.3.35.51,10.83.46.32,1,0
2015-02-27 17:08:11.763,47,1425085690.277788,37.78753887505528,-122.3960089024766,12.60079,-1,-1,10,65,-9999,1425085691.738138,-29.30879974365234,-23.83795166015625,7.566459655761719,128.6606903076172,114.8874435424805,10,137335.9838402084,-0.6339111328125,-0.74884033203125,-0.2446746826171875,137335.9612992917,0.1884431482051348,-0.09285350825059371,-0.05548509709903787,137335.9612992917,-3.078612279240647,-1.1828852377974,0.8534774859430871,0.1870246976613998,-0.0844409242272377,-0.01822751946747303,0.2235305458307266,-0.06776390224695206,-0.2351578772068024,XTrueNorthZVertical,0.4964877219942728,0.3594073820442462,0.7625821831686064,0.206868769212995,-0.6085250377655029,-0.7535709142684937,-0.2486525475978851,-27.93507194519043,-25.91119575500488,6.352350234985352,2,10.3.35.51,10.83.46.32,1,0
2015-02-27 17:08:11.845,48,1425085690.277788,37.78753887505528,-122.3960089024766,12.60079,-1,-1,10,65,-9999,1425085691.811381,-29.49636840820312,-24.19479370117188,7.949211120605469,128.7196502685547,114.946403503418,10,137336.032878625,-0.8085784912109375,-0.6759490966796875,0.0397491455078125,137336.013084,0.284405897028396,-0.5170993309579605,-0.02293008330169125,137336.013084,-3.071888531978225,-1.210361764066014,0.8573701830951174,0.2829874455928802,-0.5086868405342102,0.01432712096720934,-0.09161772578954697,0.09810413420200348,0.1754454374313354,XTrueNorthZVertical,0.505205849499617,0.3596733036466073,0.7557688507479551,0.2102750737374252,-0.6123770475387573,-0.7561241388320923,-0.2308043241500854,-27.81067657470703,-25.92142105102539,6.837916374206543,2,10.3.35.51,10.83.46.32,1,0
2015-02-27 17:08:11.852,49,1425085690.277788,37.78753887505528,-122.3960089024766,12.60079,-1,-1,10,65,-9999,1425085691.811381,-29.49636840820312,-24.19479370117188,7.949211120605469,128.7196502685547,114.946403503418,10,137336.0818946667,-0.817352294921875,-0.7364044189453125,-0.0335693359375,137336.0648685,-0.09591268139476773,-0.1663266606164628,0.1511556971507174,137336.0648685,-3.061057038531213,-1.23204096682616,0.8543500434361141,-0.09733111411333084,-0.1579142510890961,0.1884124875068665,-0.1818363666534424,0.1480803936719894,0.09724622964859009,XTrueNorthZVertical,0.5118322106546951,0.3590420664023747,0.7518762630854259,0.2092813078595289,-0.6193873882293701,-0.7541442513465881,-0.2182331681251526,-27.7260913848877,-25.79867553710938,7.602822780609131,2,10.3.35.51,10.83.46.32,1,0
2015-02-27 17:08:11.948,50,1425085690.277788,37.78753887505528,-122.3960089024766,12.60079,-1,-1,10,65,-9999,1425085691.914688,-28.72903442382812,-23.8719482421875,8.365257263183594,129.2260589599609,115.4528121948242,10,137336.13093575,-0.7635650634765625,-0.861083984375,0.1531982421875,137336.11665475,-0.08967902023121926,0.1781284589871489,-0.2624332201385883,137336.11665475,-3.069555713425804,-1.221323172554851,0.852968046166019,-0.09109743684530258,0.1865407824516296,-0.2251767665147781,-0.1408585757017136,-0.1383808702230453,0.3619648814201355,XTrueNorthZVertical,0.5095039813331784,0.3574882999598222,0.7539416050041693,0.2101900634237337,-0.6179915070533752,-0.753235936164856,-0.2252156138420105,-27.85519981384277,-25.65991020202637,7.600496292114258,2,10.3.35.51,10.83.46.32,1,0
2015-02-27 17:08:11.951,51,1425085690.277788,37.78753887505528,-122.3960089024766,12.60079,-1,-1,10,65,-9999,1425085691.914688,-28.72903442382812,-23.8719482421875,8.365257263183594,129.2260589599609,115.4528121948242,10,137336.1799508333,-0.704376220703125,-0.5050811767578125,-0.0699615478515625,137336.1684392084,-0.4285521541900249,-0.05605661146896888,-0.4455111640116495,137336.11665475,-3.069555713425804,-1.221323172554851,0.852968046166019,-0.09109743684530258,0.1865407824516296,-0.2251767665147781,-0.1408585757017136,-0.1383808702230453,0.3619648814201355,XTrueNorthZVertical,0.5095039813331784,0.3574882999598222,0.7539416050041693,0.2101900634237337,-0.6179915070533752,-0.753235936164856,-0.2252156138420105,-27.85519981384277,-25.65991020202637,7.600496292114258,2,10.3.35.51,10.83.46.32,1,0
2015-02-27 17:08:12.050,52,1425085690.277788,37.78753887505528,-122.3960089024766,12.60079,-1,-1,10,65,-9999,1425085692.017682,-28.38800048828125,-25.02748107910156,7.433334350585938,131.3252258300781,117.5519714355469,10,137336.2289897084,-0.4624786376953125,-0.81756591796875,-0.0847625732421875,137336.2202239167,-0.4993613465174877,0.6742604563668065,-0.4589276369512507,137336.2202239167,3.135183098104599,-1.142489832737027,0.8696109740666723,-0.5007797479629517,0.6826726198196411,-0.4216719567775726,0.09144297242164612,-0.07733737677335739,0.282115250825882,XTrueNorthZVertical,0.4915036627952771,0.3527807076835762,0.7622200747713932,0.2301966061466876,-0.5868500471115112,-0.7640780210494995,-0.2679398357868195,-27.12457084655762,-26.74845695495605,6.394413948059082,2,10.3.35.51,10.83.46.32,1,0
2015-02-27 17:08:12.053,53,1425085690.277788,37.78753887505528,-122.3960089024766,12.60079,-1,-1,10,65,-9999,1425085692.017682,-28.38800048828125,-25.02748107910156,7.433334350585938,131.3252258300781,117.5519714355469,10,137336.2780012917,-0.4644622802734375,-0.693634033203125,-0.454833984375,137336.2720099583,-0.9212342926935939,0.3874145711476799,-0.3261615997597485,137336.2202239167,3.135183098104599,-1.142489832737027,0.8696109740666723,-0.5007797479629517,0.6826726198196411,-0.4216719567775726,0.09144297242164612,-0.07733737677335739,0.282115250825882,XTrueNorthZVertical,0.4915036627952771,0.3527807076835762,0.7622200747713932,0.2301966061466876,-0.5868500471115112,-0.7640780210494995,-0.2679398357868195,-27.12457084655762,-26.74845695495605,6.394413948059082,2,10.3.35.51,10.83.46.32,1,0
2015-02-27 17:08:12.117,54,1425085690.277788,37.78753887505528,-122.3960089024766,12.60079,-1,-1,10,65,-9999,1425085692.069657,-28.5244140625,-26.01307678222656,5.8690185546875,132.2479553222656,118.4747009277344,10,137336.32703975,-0.8088531494140625,-1.154205322265625,-0.275482177734375,137336.3237947084,-0.2375403871135086,0.02554291064716799,-0.5775738603592618,137336.2720099583,3.069304443246345,-1.061302328522042,0.8714094996211272,-0.9226526618003845,0.3958266377449036,-0.2889062762260437,0.1197872832417488,0.1183864772319794,-0.1761789917945862,XTrueNorthZVertical,0.4716662569503647,0.3471907249668216,0.7736695728052443,0.2417125002718241,-0.5619869828224182,-0.765237033367157,-0.3139790892601013,-26.78815269470215,-27.39487838745117,4.901657104492188,2,10.3.35.51,10.83.46.32,1,0
2015-02-27 17:08:12.151,55,1425085690.277788,37.78753887505528,-122.3960089024766,12.60079,-1,-1,10,65,-9999,1425085692.121302,-27.92760467529297,-26.94772338867188,4.720748901367188,134.4126281738281,120.6393737792969,10,137336.3760657083,-0.3125762939453125,-1.344833374023438,-0.609771728515625,137336.3755791667,0.7847629994774644,-0.6920679493117304,-0.972291351848157,137336.3237947084,3.011110289782626,-1.018153853638769,0.8709938233559297,-0.2389587461948395,0.03395491093397141,-0.5403188467025757,-0.01726911030709743,-0.3695825934410095,0.2493958175182343,XTrueNorthZVertical,0.4649560006036053,0.3387747627000138,0.7766026655657347,0.2567798193342025,-0.5481910705566406,-0.7649694085121155,-0.3380951583385468,-26.26424598693848,-28.14201927185059,3.213533401489258,2,10.3.35.51,10.83.46.32,1,0
2015-02-27 17:08:12.245,56,1425085690.277788,37.78753887505528,-122.3960089024766,12.60079,-1,-1,10,65,-9999,1425085692.225472,-25.30161285400391,-29.29278564453125,4.787307739257812,138.4682312011719,124.6949844360352,10,137336.42511425,-0.7100372314453125,-1.383636474609375,-0.7137603759765625,137336.4273654167,0.0712052043815576,-1.501340020301194,-1.059446227998199,137336.3755791667,2.998936885864214,-1.024261198108444,0.9137883225721023,0.7833446264266968,-0.6836559772491455,-0.9350367784500122,0.112541988492012,-0.440018892288208,-0.2533753216266632,XTrueNorthZVertical,0.4660597558231038,0.3522436271191389,0.764893130792035,0.2713875968869633,-0.5217826962471008,-0.791823148727417,-0.3174254596233368,-25.41423225402832,-28.90300941467285,3.292956352233887,2,10.3.35.51,10.83.46.32,1,0
2015-02-27 17:08:12.247,57,1425085690.277788,37.78753887505528,-122.3960089024766,12.60079,-1,-1,10,65,-9999,1425085692.225472,-25.30161285400391,-29.29278564453125,4.787307739257812,138.4682312011719,124.6949844360352,10,137336.47413325,-1.065658569335938,0.337982177734375,0.226806640625,137336.4273654167,0.0712052043815576,-1.501340020301194,-1.059446227998199,137336.4273654167,3.001832737420508,-1.072322078494221,0.97537786640599,0.06978687644004822,-1.492928266525269,-1.022192001342773,-0.2174307554960251,-0.5557225942611694,-0.4456233382225037,XTrueNorthZVertical,0.4783104380061429,0.3703384952317172,0.7408862467544567,0.2918151663893332,-0.4926064610481262,-0.8279138803482056,-0.2681370377540588,-24.07991981506348,-29.78394889831543,5.018427848815918,2,10.3.35.51,10.83.46.32,1,0
2015-02-27 17:08:12.314,58,1425085690.277788,37.78753887505528,-122.3960089024766,12.60079,-1,-1,10,65,-9999,1425085692.278671,-25.69380187988281,-28.59608459472656,3.97186279296875,136.8148193359375,123.0415649414062,10,137336.523182375,1.862442016601562,0.0731658935546875,0.17742919921875,137336.5309345,1.102995836039829,0.09611241847652367,1.161312672325948,137336.4791499167,2.968232173256971,-1.004179316903932,0.9073841199567865,-1.288272976875305,2.611071109771729,2.485109329223633,-0.5460872054100037,1.125877737998962,0.5573610663414001,XTrueNorthZVertical,0.464208092075398,0.3453022517644697,0.7666811660210238,0.2783472470990316,-0.5195713639259338,-0.7878955602645874,-0.3305543959140778,-23.47452735900879,-30.27434730529785,4.951891899108887,2,10.3.35.51,10.83.46.32,1,0
2015-02-27 17:08:12.346,59,1425085690.277788,37.78753887505528,-122.3960089024766,12.60079,-1,-1,10,65,-9999,1425085692.329313,-27.94464111328125,-27.16864013671875,2.973365783691406,135.3896789550781,121.6164245605469,10,137336.5722062083,0.808807373046875,-0.097869873046875,-0.18170166015625,137336.5309345,1.102995836039829,0.09611241847652367,1.161312672325948,137336.5309345,3.021596182775927,-0.9418148290877099,0.8171993007457713,1.101577520370483,0.1045240759849548,1.198566198348999,2.415758371353149,0.802398145198822,0.579997718334198,XTrueNorthZVertical,0.436828279292498,0.3284764690144157,0.8055146907767428,0.2289767341410177,-0.5533162355422974,-0.7292322516441345,-0.402568519115448,-26.78335762023926,-27.83265495300293,0.3251466751098633,2,10.3.35.51,10.83.46.32,1,0
2015-02-27 17:08:12.414,60,1425085690.277788,37.78753887505528,-122.3960089024766,12.60079,-1,-1,10,65,-9999,1425085692.38287,-29.90560913085938,-26.47193908691406,2.091354370117188,128.3743133544922,114.6010589599609,10,137336.6213463334,1.357391357421875,-0.2305145263671875,-0.7776031494140625,137336.5827208333,1.331214626705842,-1.923583678501039,-1.409448445836337,137336.5827208333,3.101394249551587,-1.058737161198684,0.8624407353745395,1.329796433448792,-1.915172100067139,-1.372195363044739,-0.8027330040931702,0.2281369566917419,-0.9358384609222412,XTrueNorthZVertical,0.4659179799451511,0.351476287699037,0.7797118463964432,0.2267912914091807,-0.5671400427818298,-0.7594327330589294,-0.3187697231769562,-27.82618522644043,-26.74555206298828,1.577859878540039,2,10.3.35.51,10.83.46.32,1,0
2015-02-27 17:08:12.449,61,1425085690.277788,37.78753887505528,-122.3960089024766,12.60079,-1,-1,10,65,-9999,1425085692.38287,-29.90560913085938,-26.47193908691406,2.091354370117188,128.3743133544922,114.6010589599609,10,137336.6702580834,-1.37841796875,-0.792266845703125,-0.1995849609375,137336.6345055,-0.8273112589492243,3.866574877129922,-0.6184368714932196,137336.6345055,3.043491297812539,-0.8733148389523767,0.7661726314027676,-0.8287295699119568,3.874986171722412,-0.5811841487884521,2.059110164642334,-0.6975172162055969,-0.2854461967945099,XTrueNorthZVertical,0.4083938729125822,0.3190725444535339,0.8317253448427073,0.1990982290492559,-0.5522894859313965,-0.6933824419975281,-0.4628143012523651,-28.6439094543457,-25.91499137878418,-0.2244997024536133,2,10.3.35.51,10.83.46.32,1,0
2015-02-27 17:08:12.499,62,1425085690.277788,37.78753887505528,-122.3960089024766,12.60079,-1,-1,10,65,-9999,1425085692.462077,-31.2015380859375,-25.04449462890625,0.8598709106445312,127.5763397216797,113.8030853271484,10,137336.7192959583,-0.3961029052734375,-0.6941986083984375,-0.6253509521484375,137336.6862899167,0.1574458173293755,-1.451408146707189,-0.1079810621905708,137336.6862899167,3.056469184502994,-0.9703030016659804,0.7559756798474585,0.1560275554656982,-1.442996740341187,-0.07072870433330536,-1.178723931312561,-0.1039486080408096,0.2119738012552261,XTrueNorthZVertical,0.4469210316128527,0.3077268812384192,0.8140918984716812,0.2069302709344731,-0.6003135442733765,-0.6859989166259766,-0.4111315310001373,-28.98994445800781,-25.48031997680664,-1.56430721282959,2,10.3.35.51,10.83.46.32,1,0
2015-02-27 17:08:12.545,63,1425085690.277788,37.78753887505528,-122.3960089024766,12.60079,-1,-1,10,65,-9999,1425085692.536068,-31.40615844726562,-24.4327392578125,-0.2384719848632812,125.8756866455078,112.1024322509766,10,137336.7683220417,-0.820281982421875,-0.653472900390625,-0.022613525390625,137336.7380760833,0.04844796023461249,0.04501354769284631,-0.6629803712536669,137336.7380760833,3.025465778449044,-0.9095560856415308,0.7721076256353104,0.04702971130609512,0.05342487245798111,-0.6257283687591553,0.3729486763477325,0.08015410602092743,-0.2272416055202484,XTrueNorthZVertical,0.4258780867972528,0.3140792104467108,0.8212405996238745,0.2134150425845427,-0.5654382705688477,-0.6976467967033386,-0.4399642050266266,-28.8941650390625,-25.62700271606445,-0.7032470703125,2,10.3.35.51,10.83.46.32,1,0
2015-02-27 17:08:12.597,64,1425085690.277788,37.78753887505528,-122.3960089024766,12.60079,-1,-1,10,65,-9999,1425085692.588123,-30.21253204345703,-25.28239440917969,0.1942214965820312,127.9526748657227,114.1794204711914,10,137336.8173705,-0.481781005859375,-0.51983642578125,-0.3531646728515625,137336.7898609167,0.4384077144360811,-0.4273904833225323,-0.3447286262475628,137336.7898609167,3.028745287371954,-0.9678749066837109,0.8084429534489126,0.4369894862174988,-0.4189792573451996,-0.3074770271778107,-0.5414497256278992,0.2840189933776855,0.4146912395954132,XTrueNorthZVertical,0.4467237765854748,0.3234623596592205,0.8022182827952613,0.228595262826646,-0.5688560605049133,-0.723212718963623,-0.3916199505329132,-27.97073936462402,-26.6404857635498,0.1811084747314453,2,10.3.35.51,10.83.46.32,1,0
2015-02-27 17:08:12.654,65,1425085690.277788,37.78753887505528,-122.3960089024766,12.60079,-1,-1,10,65,-9999,1425085692.588123,-30.21253204345703,-25.28239440917969,0.1942214965820312,127.9526748657227,114.1794204711914,10,137336.8663869583,-0.141326904296875,-0.6809234619140625,-0.4597625732421875,137336.841645375,-0.2448089526766619,0.6746178525850952,0.08004183919454952,137336.841645375,3.030817571899348,-0.9285102541944463,0.8108533858155277,-0.2462271749973297,0.6830289959907532,0.117293044924736,0.36247318983078,0.0834568589925766,-0.2215734273195267,XTrueNorthZVertical,0.4303513861098683,0.3293457415071594,0.8106334269164515,0.2218163932421723,-0.5516058802604675,-0.7248753309249878,-0.4126581251621246,-27.75358009338379,-26.86598587036133,0.2612009048461914,2,10.3.35.51,10.83.46.32,1,0
2015-02-27 17:08:12.696,66,1425085690.277788,37.78753887505528,-122.3960089024766,12.60079,-1,-1,10,65,-9999,1425085692.691773,-29.66687774658203,-25.55426025390625,1.092864990234375,129.7621154785156,115.9888687133789,10,137336.91553375,-1.078964233398438,-0.8631134033203125,-0.2425689697265625,137336.8934316667,-0.1533892903569669,-1.385878937556918,0.3704201412835573,137336.8934316667,3.032413795113283,-0.9705259374313265,0.7960108640168402,-0.1548074930906296,-1.37746787071228,0.4076710045337677,-0.01532307453453541,0.05618490278720856,0.1331350356340408,XTrueNorthZVertical,0.4480474055072355,0.3188636704889869,0.8043334405897706,0.2250048811257413,-0.5772672295570374,-0.7145711183547974,-0.395158976316452,-27.90806579589844,-26.70520782470703,-0.2871809005737305,2,10.3.35.51,10.83.46.32,1,0
2015-02-27 17:08:12.743,67,1425085690.277788,37.78753887505528,-122.3960089024766,12.60079,-1,-1,10,65,-9999,1425085692.691773,-29.66687774658203,-25.55426025390625,1.092864990234375,129.7621154785156,115.9888687133789,10,137336.964442125,-0.4980621337890625,-0.9627227783203125,-0.389373779296875,137336.945216125,0.06435528774176479,0.6691719544719922,-0.5209713008668266,137336.945216125,3.024007094537315,-0.9716624695384447,0.791302795997363,0.06308339536190033,0.6773635745048523,-0.4838535487651825,-0.05082927644252777,-0.5059850215911865,0.06271623820066452,XTrueNorthZVertical,0.450151492188566,0.3149061992491584,0.803987787379857,0.2275991116409734,-0.580487847328186,-0.7112696170806885,-0.3963954448699951,-28.2847785949707,-26.29446792602539,0.8264455795288086,2,10.3.35.51,10.83.46.32,1,0
2015-02-27 17:08:12.794,68,1425085690.277788,37.78753887505528,-122.3960089024766,12.60079,-1,-1,10,65,-9999,1425085692.743452,-29.68392944335938,-25.70721435546875,1.808464050292969,131.1214141845703,117.3481597900391,10,137337.0134793333,-0.4839630126953125,-0.7242279052734375,-0.284637451171875,137336.9970007917,0.376392013711951,0.2377806042438338,-0.6941225780927265,137336.9970007917,3.017358625171589,-0.9467076087926218,0.828706330288959,0.3751201331615448,0.2459721714258194,-0.6570051908493042,-0.01510441116988659,-0.05017375946044922,0.07888653874397278,XTrueNorthZVertical,0.4387356940252461,0.3317343836871449,0.8017615310828309,0.2337557162177485,-0.5484331846237183,-0.7370576858520508,-0.3949265778064728,-27.62019348144531,-27.00125503540039,0.4097652435302734,2,10.3.35.51,10.83.46.32,1,0
2015-02-27 17:08:12.850,69,1425085690.277788,37.78753887505528,-122.3960089024766,12.60079,-1,-1,10,65,-9999,1425085692.795871,-29.07006072998047,-26.28500366210938,1.875030517578125,131.3091735839844,117.5359268188477,10,137337.062502125,-0.3261871337890625,-0.4782257080078125,-0.3615264892578125,137337.048787,0.3232406446761495,0.5504106825048896,-0.1172248943342358,137336.9970007917,3.017358625171589,-0.9467076087926218,0.828706330288959,0.3751201331615448,0.2459721714258194,-0.6570051908493042,-0.01510441116988659,-0.05017375946044922,0.07888653874397278,XTrueNorthZVertical,0.4387356940252461,0.3317343836871449,0.8017615310828309,0.2337557162177485,-0.5484331846237183,-0.7370576858520508,-0.3949265778064728,-27.62019348144531,-27.00125503540039,0.4097652435302734,2,10.3.35.51,10.83.46.32,1,0
2015-02-27 17:08:12.892,70,1425085690.277788,37.78753887505528,-122.3960089024766,12.60079,-1,-1,10,65,-9999,1425085692.848427,-28.405029296875,-26.74383544921875,0.8266143798828125,130.9573211669922,117.1840667724609,10,137337.1115360833,-0.1043548583984375,-0.8888702392578125,-0.4431304931640625,137337.10057175,-0.3081160202133715,0.4009905674365769,0.2558658648904529,137337.10057175,3.028608550941812,-0.9015618688648525,0.8461494466195814,-0.309380829334259,0.4091798067092896,0.2929823398590088,0.3235375881195068,0.2003479152917862,-0.07986834645271301,XTrueNorthZVertical,0.4174880777947885,0.3465340006833431,0.8093367919294066,0.2249263137560571,-0.5198876857757568,-0.7487335205078125,-0.4112357795238495,-26.88069915771484,-27.73982810974121,-0.2018203735351562,2,10.3.35.51,10.83.46.32,1,0
2015-02-27 17:08:12.953,71,1425085690.277788,37.78753887505528,-122.3960089024766,12.60079,-1,-1,10,65,-9999,1425085692.899971,-28.3538818359375,-26.82879638671875,0.6768417358398438,130.5251159667969,116.7518692016602,10,137337.1605577084,-0.5089263916015625,-1.137481689453125,-0.5985107421875,137337.1523562917,-0.5948670968976913,-0.4988641343419699,0.303561482117118,137337.10057175,3.028608550941812,-0.9015618688648525,0.8461494466195814,-0.309380829334259,0.4091798067092896,0.2929823398590088,0.3235375881195068,0.2003479152917862,-0.07986834645271301,XTrueNorthZVertical,0.4174880777947885,0.3465340006833431,0.8093367919294066,0.2249263137560571,-0.5198876857757568,-0.7487335205078125,-0.4112357795238495,-26.88069915771484,-27.73982810974121,-0.2018203735351562,2,10.3.35.51,10.83.46.32,1,0
2015-02-27 17:08:12.989,72,1425085690.277788,37.78753887505528,-122.3960089024766,12.60079,-1,-1,10,65,-9999,1425085692.952197,-29.08710479736328,-26.5399169921875,-0.205169677734375,129.9145050048828,116.1412506103516,10,137337.2096025833,-0.817169189453125,-0.7182159423828125,-0.2581939697265625,137337.2041424583,0.2061015041290142,-0.4100538372583345,-0.4744093913162083,137337.1523562917,3.007500838084173,-0.8871595084463638,0.813858675729054,-0.5961319208145142,-0.4906750023365021,0.3406775295734406,0.1384174823760986,-0.3798386752605438,-0.1725624352693558,XTrueNorthZVertical,0.4171938428969198,0.3302789048187769,0.8162207795369264,0.2250528374706799,-0.5323841571807861,-0.7269423007965088,-0.433730274438858,-27.23060607910156,-27.37282180786133,-1.154781341552734,2,10.3.35.51,10.83.46.32,1,0
2015-02-27 17:08:13.043,73,1425085690.277788,37.78753887505528,-122.3960089024766,12.60079,-1,-1,10,65,-9999,1425085693.002648,-28.98479461669922,-26.57389831542969,-0.2051773071289062,130.9335479736328,117.1603012084961,10,137337.2586229167,-0.3975372314453125,-0.7508392333984375,-0.316162109375,137337.2559270417,0.1444634396474573,0.655082234408819,-0.2039478057554671,137337.2041424583,2.993462220122044,-0.9056115361118752,0.8131715867036747,0.2048367112874985,-0.401864767074585,-0.4372937083244324,-0.2715056836605072,-0.05178894475102425,0.1121756732463837,XTrueNorthZVertical,0.4270379251104249,0.324911991021525,0.8108481238434838,0.2336581408557747,-0.5406891107559204,-0.7264703512191772,-0.4241416156291962,-27.52621650695801,-27.07475852966309,-1.172852516174316,2,10.3.35.51,10.83.46.32,1,0
2015-02-27 17:08:13.088,74,1425085690.277788,37.78753887505528,-122.3960089024766,12.60079,-1,-1,10,65,-9999,1425085693.055567,-29.10415649414062,-26.65885925292969,-0.2883834838867188,130.0574645996094,116.2842102050781,10,137337.3077764583,-0.346527099609375,-0.3521575927734375,-0.31268310546875,137337.307711875,-0.4747228453765107,-0.2070565136959167,0.8770039806773399,137337.2559270417,2.985722146734334,-0.8852897342009687,0.8408094622761165,0.1431932598352432,0.6632913947105408,-0.1668636947870255,0.01186641119420528,0.002934626769274473,0.1618203371763229,XTrueNorthZVertical,0.4185596168674606,0.3372313025659164,0.8088235405198576,0.2385107421464393,-0.5162151455879211,-0.7451831698417664,-0.4221657812595367,-26.71318817138672,-27.8946533203125,-0.6361198425292969,2,10.3.35.51,10.83.46.32,1,0
2015-02-27 17:08:13.152,75,1425085690.277788,37.78753887505528,-122.3960089024766,12.60079,-1,-1,10,65,-9999,1425085693.107135,-29.30877685546875,-26.62484741210938,0.01116180419921875,130.3393707275391,116.5661239624023,10,137337.3566860417,-0.261688232421875,-0.225860595703125,-0.309234619140625,137337.307711875,-0.4747228453765107,-0.2070565136959167,0.8770039806773399,137337.307711875,2.992828154321332,-0.87712928721479,0.8228217295626973,-0.4759929776191711,-0.1988473981618881,0.91408771276474,0.2542992234230042,0.3023123443126678,0.09119118750095367,XTrueNorthZVertical,0.4150369309512317,0.3321323523821909,0.8149023677757025,0.2310120680009417,-0.5229759812355042,-0.7330679893493652,-0.43486487865448,-26.66302108764648,-27.92355728149414,-1.21199893951416,2,10.3.35.51,10.83.46.32,1,0
2015-02-27 17:08:13.186,76,1425085690.277788,37.78753887505528,-122.3960089024766,12.60079,-1,-1,10,65,-9999,1425085693.161515,-31.01396942138672,-24.3477783203125,-1.320167541503906,126.3141860961914,112.5409317016602,10,137337.4057254167,0.3108673095703125,-0.4981536865234375,-0.3430938720703125,137337.4112827083,-2.368193362483697,0.4799359832103408,2.321125452325964,137337.3594979583,3.021027692564767,-0.8925406720972877,0.7337349868152581,-1.309006333351135,0.5966576337814331,2.35356616973877,0.3166120052337646,0.4437876045703888,0.1567483693361282,XTrueNorthZVertical,0.4216448906066796,0.2987040204264541,0.8311794063244164,0.2052615088841734,-0.5783002376556396,-0.6696481704711914,-0.4659830033779144,-27.92139053344727,-26.64286804199219,-1.632292747497559,2,10.3.35.51,10.83.46.32,1,0
2015-02-27 17:08:13.248,77,1425085690.277788,37.78753887505528,-122.3960089024766,12.60079,-1,-1,10,65,-9999,1425085693.237031,-35.83963775634766,-17.36357116699219,-5.264236450195312,117.8856353759766,104.1123809814453,10,137337.4547456667,-0.493988037109375,-0.60052490234375,-0.5510406494140625,137337.4112827083,-2.368193362483697,0.4799359832103408,2.321125452325964,137337.4112827083,3.024847519842337,-0.8510713549924337,0.5684304065837995,-2.369463443756104,0.4881449341773987,2.358208417892456,0.9446020722389221,0.04015625640749931,0.2124262750148773,XTrueNorthZVertical,0.4104725229955133,0.2318452881611529,0.8660355055160551,0.1665610144349015,-0.6337347626686096,-0.5383099317550659,-0.5555201172828674,-31.26560592651367,-22.09006881713867,-5.157654762268066,2,10.3.35.51,10.83.46.32,1,0
2015-02-27 17:08:13.284,78,1425085690.277788,37.78753887505528,-122.3960089024766,12.60079,-1,-1,10,65,-9999,1425085693.237031,-35.83963775634766,-17.36357116699219,-5.264236450195312,117.8856353759766,104.1123809814453,10,137337.50388725,-0.6168975830078125,-0.4761810302734375,-0.77392578125,137337.46306725,-2.745211219051817,-0.6443920394771319,3.140379051081044,137337.46306725,3.028331599549169,-0.890825515731874,0.3767417074172851,-2.74648118019104,-0.6361831426620483,3.177461624145508,0.2290692329406738,-0.2326322644948959,0.03363292664289474,XTrueNorthZVertical,0.4320956330984995,0.1447638612104373,0.880482016350978,0.1307218625480492,-0.7230572700500488,-0.3678926527500153,-0.5846735835075378,-33.73456573486328,-17.53899383544922,-6.817150115966797,2,10.3.35.51,10.83.46.32,1,0
2015-02-27 17:08:13.349,79,1425085690.277788,37.78753887505528,-122.3960089024766,12.60079,-1,-1,10,65,-9999,1425085693.289279,-39.26705932617188,-11.534912109375,-6.778633117675781,111.8954315185547,98.12217712402344,10,137337.5527918334,-1.55548095703125,0.05108642578125,-0.35943603515625,137337.5148535833,-2.694276931623506,-1.788396295246437,2.648080407774446,137337.5148535833,2.993765376790118,-0.9340857878180571,0.1841495271885827,-2.695546865463257,-1.780187487602234,2.685162544250488,0.1523996293544769,-0.07535812258720398,-0.0954761803150177,XTrueNorthZVertical,0.4531791339904448,0.04876529396256615,0.8836366657361854,0.1069432546162433,-0.7904611825942993,-0.1831105053424835,-0.5845012664794922,-35.9508171081543,-11.97096157073975,-7.506360054016113,2,10.3.35.51,10.83.46.32,1,0
2015-02-27 17:08:13.382,80,1425085690.277788,37.78753887505528,-122.3960089024766,12.60079,-1,-1,10,65,-9999,1425085693.342082,-41.67136383056641,-5.230377197265625,-5.863334655761719,110.21142578125,96.43817138671875,10,137337.6019464167,-1.650970458984375,0.6532745361328125,-0.3255615234375,137337.566638125,-1.744835768244338,-1.690377852377744,1.741172856481043,137337.566638125,2.967816904579482,-1.031629226354657,0.02600408656549039,-1.746105790138245,-1.682169079780579,1.778254628181458,-0.6844813823699951,0.02171343564987183,0.2507356405258179,XTrueNorthZVertical,0.49232287203373,-0.03153199020297609,0.865979888153628,0.08187035300151015,-0.8578464984893799,-0.02600115537643433,-0.5132478475570679,-37.94660568237305,-5.302365779876709,-4.904157638549805,2,10.3.35.51,10.83.46.32,1,0
2015-02-27 17:08:13.442,81,1425085690.277788,37.78753887505528,-122.3960089024766,12.60079,-1,-1,10,65,-9999,1425085693.395255,-43.18898010253906,-0.285400390625,-4.348945617675781,106.0828247070312,92.3095703125,10,137337.660669125,-1.310333251953125,0.3852081298828125,-0.7147979736328125,137337.6184229583,-0.2299011095266164,-0.406609038388317,1.575162313085972,137337.6184229583,2.971522303187291,-1.065470540472554,-0.08336456025484508,-0.231171190738678,-0.3984003961086273,1.61224377155304,-1.082306623458862,0.7120352983474731,-0.05520154535770416,XTrueNorthZVertical,0.5025680255837573,-0.07886503703307374,0.8593604912361938,0.05201182382656117,-0.8719780445098877,0.08326803147792816,-0.4824113845825195,-38.46461868286133,-1.695472717285156,-3.115966796875,2,10.3.35.51,10.83.46.32,1,0
2015-02-27 17:08:13.493,82,1425085690.277788,37.78753887505528,-122.3960089024766,12.60079,-1,-1,10,65,-9999,1425085693.447305,-43.90516662597656,3.623016357421875,-3.749847412109375,103.1622467041016,89.38899230957031,10,137337.7098275417,-1.078659057617188,0.2991485595703125,-0.57818603515625,137337.670209,0.4725635543646744,0.8234504743169365,-0.2246890369572223,137337.670209,2.997571342014328,-1.049886608431811,-0.1026787705042948,0.4712935090065002,0.8316589593887329,-0.1876078993082047,-0.4475347399711609,0.2827096879482269,-0.2197497189044952,XTrueNorthZVertical,0.4960114685617499,-0.08030250973569739,0.8638228350179715,0.03652722009324898,-0.8627985119819641,0.1024984419345856,-0.4950482547283173,-38.52941131591797,0.756608247756958,-2.650079727172852,2,10.3.35.51,10.83.46.32,1,0
2015-02-27 17:08:13.544,83,1425085690.277788,37.78753887505528,-122.3960089024766,12.60079,-1,-1,10,65,-9999,1425085693.52676,-43.63233947753906,4.2008056640625,-4.282379150390625,100.0908966064453,86.31764221191406,10,137337.7587514167,-0.9223175048828125,0.020416259765625,-0.7553253173828125,137337.7219938333,0.8309344896122771,0.1855626731701051,-1.016547230210876,137337.7219938333,3.006144312293622,-1.019252594237516,-0.05338807292096056,0.829664409160614,0.1937711238861084,-0.9794664978981018,-0.1618870496749878,0.08703340590000153,0.1558244377374649,XTrueNorthZVertical,0.4849825965570007,-0.05624806021615583,0.8714966703430475,0.0460607040826873,-0.8505030870437622,0.05336271598935127,-0.5232560634613037,-38.38861083984375,-0.1177177429199219,-4.290834426879883,2,10.3.35.51,10.83.46.32,1,0
2015-02-27 17:08:13.588,84,1425085690.277788,37.78753887505528,-122.3960089024766,12.60079,-1,-1,10,65,-9999,1425085693.52676,-43.63233947753906,4.2008056640625,-4.282379150390625,100.0908966064453,86.31764221191406,10,137337.807801,-0.9805908203125,-0.053192138671875,-0.4691619873046875,137337.7737782917,0.9821474447264312,-0.2764363874663339,-1.392913411260253,137337.7737782917,3.010673226609897,-1.020324564266943,0.01563324347881753,0.9808773994445801,-0.2682280242443085,-1.355832934379578,-0.1182242557406425,0.09122464805841446,-0.1967316418886185,XTrueNorthZVertical,0.4877043388117285,-0.02513479835082205,0.8705199844509717,0.06089067751651289,-0.8521736860275269,-0.01563260704278946,-0.5230254530906677,-38.30782318115234,-2.014389038085938,-4.534722328186035,2,10.3.35.51,10.83.46.32,1,0
2015-02-27 17:08:13.643,85,1425085690.277788,37.78753887505528,-122.3960089024766,12.60079,-1,-1,10,65,-9999,1425085693.600173,-43.30836486816406,-0.50628662109375,-4.332290649414062,103.8045120239258,90.03125762939453,10,137337.8568187917,-0.92633056640625,-0.2131805419921875,-0.406768798828125,137337.8255646667,0.7389792655973672,0.2811845373738362,-1.817552582860624,137337.8255646667,3.001541972243873,-1.019687172731891,0.1048791311292807,0.7377092242240906,0.2893928289413452,-1.78047251701355,-0.1059993132948875,0.01334785390645266,0.05325646325945854,XTrueNorthZVertical,0.4893764174094299,0.01153689553134206,0.8676950461861676,0.08650391361006053,-0.8472630381584167,-0.1046869680285454,-0.5207552313804626,-38.13472747802734,-4.597743988037109,-4.088275909423828,2,10.3.35.51,10.83.46.32,1,0
2015-02-27 17:08:13.686,86,1425085690.277788,37.78753887505528,-122.3960089024766,12.60079,-1,-1,10,65,-9999,1425085693.651055,-42.67744445800781,-4.227813720703125,-4.149238586425781,106.3619003295898,92.58864593505859,10,137337.9059689583,-0.75628662109375,-0.2778472900390625,-0.3798980712890625,137337.8773493333,0.9484936106633179,-0.04119643890243574,-1.852602179651048,137337.8773493333,2.9941101392586,-1.014780671617369,0.2082120257261611,0.9472236037254333,-0.03298823907971382,-1.81552255153656,-0.2114143967628479,0.03195196390151978,0.09114426374435425,XTrueNorthZVertical,0.4886454995620794,0.05497471652296654,0.8632009720664058,0.114400333239981,-0.8310202956199646,-0.2067108750343323,-0.5164067149162292,-37.36993408203125,-8.888376235961914,-4.073759078979492,2,10.3.35.51,10.83.46.32,1,0
2015-02-27 17:08:13.750,87,1425085690.277788,37.78753887505528,-122.3960089024766,12.60079,-1,-1,10,65,-9999,1425085693.704092,-41.125732421875,-8.459136962890625,-3.566787719726562,111.4730834960938,97.6998291015625,10,137337.9548757084,-0.854095458984375,-0.2030792236328125,-0.09344482421875,137337.929134,0.7338702573621592,0.4855440678338296,-2.099147513358442,137337.929134,2.971568530904557,-0.9947659424120815,0.316649484074837,0.7326536774635315,0.4935910701751709,-2.062198400497437,0.2438070327043533,-0.04149038344621658,0.2626140713691711,XTrueNorthZVertical,0.4812233326439485,0.09805420693423003,0.8583209796589679,0.1486424253693458,-0.7969381213188171,-0.311384379863739,-0.5176189541816711,-36.41651916503906,-12.29202461242676,-3.854109764099121,2,10.3.35.51,10.83.46.32,1,0
2015-02-27 17:08:13.784,88,1425085690.277788,37.78753887505528,-122.3960089024766,12.60079,-1,-1,10,65,-9999,1425085693.755439,-39.57402801513672,-12.5885009765625,-3.583442687988281,114.9179840087891,101.1447296142578,10,137338.0039197083,-0.7314453125,-0.504974365234375,-0.4315948486328125,137337.9809202084,1.019810934126768,0.3584644122018645,-1.720927239558151,137337.9809202084,2.965845034683422,-0.9741615854748732,0.420219748397491,1.01859438419342,0.366511344909668,-1.68397843837738,-0.3041715621948242,0.1010000333189964,0.1638125777244568,XTrueNorthZVertical,0.4721639764230193,0.1434275239278932,0.8523666804114495,0.1730917819930887,-0.7552614212036133,-0.4079611003398895,-0.5129794478416443,-35.09793090820312,-15.65049648284912,-3.91254711151123,2,10.3.35.51,10.83.46.32,1,0
2015-02-27 17:08:13.844,89,1425085690.277788,37.78753887505528,-122.3960089024766,12.60079,-1,-1,10,65,-9999,1425085693.807605,-37.39139556884766,-16.90480041503906,-3.417022705078125,119.350830078125,105.5775756835938,10,137338.05293825,-0.287261962890625,-0.6459503173828125,-0.4994964599609375,137338.0327049167,0.8034429439954982,0.5312519016228596,-2.349961361661014,137338.0327049167,2.94207822974763,-0.9412701922425197,0.5290987935753136,0.8022264242172241,0.5392987728118896,-2.313012838363647,0.1595726013183594,-0.272542417049408,0.05903711542487144,XTrueNorthZVertical,0.4587106194238856,0.1882993206086357,0.8441880263351447,0.2036529101174726,-0.6977806091308594,-0.5047555565834045,-0.5082558393478394,-33.07857894897461,-19.60838508605957,-3.664663314819336,2,10.3.35.51,10.83.46.32,1,0
2015-02-27 17:08:13.884,90,1425085690.277788,37.78753887505528,-122.3960089024766,12.60079,-1,-1,10,65,-9999,1425085693.86297,-34.57785797119141,-20.76226806640625,-2.634864807128906,125.2029876708984,111.4297332763672,10,137338.10201625,-0.3514404296875,-0.6614837646484375,-0.4494171142578125,137338.084489625,0.979482685739698,0.3208145049230873,-1.771278827339953,137338.084489625,2.90827702183195,-0.89001115085099,0.6343864759084527,0.9782669544219971,0.3288623690605164,-1.734333157539368,0.2953814268112183,0.06778112798929214,-0.1177662909030914,XTrueNorthZVertical,0.438976861919767,0.2320073657572325,0.8361252745839478,0.233166078699803,-0.6258867979049683,-0.5926834940910339,-0.5069438219070435,-30.87084197998047,-22.89844512939453,-3.842265129089355,2,10.3.35.51,10.83.46.32,1,0
2015-02-27 17:08:13.950,91,1425085690.277788,37.78753887505528,-122.3960089024766,12.60079,-1,-1,10,65,-9999,1425085693.936656,-31.09927368164062,-25.48638916015625,-1.303535461425781,131.0802612304688,117.3070068359375,10,137338.1509977917,-0.3091888427734375,-0.565826416015625,-0.2888031005859375,137338.136275625,1.146911096099126,0.09503863192500372,-1.370783075233913,137338.084489625,2.90827702183195,-0.89001115085099,0.6343864759084527,0.9782669544219971,0.3288623690605164,-1.734333157539368,0.2953814268112183,0.06778112798929214,-0.1177662909030914,XTrueNorthZVertical,0.438976861919767,0.2320073657572325,0.8361252745839478,0.233166078699803,-0.6258867979049683,-0.5926834940910339,-0.5069438219070435,-30.87084197998047,-22.89844512939453,-3.842265129089355,2,10.3.35.51,10.83.46.32,1,0
2015-02-27 17:08:13.980,92,1425085690.277788,37.78753887505528,-122.3960089024766,12.60079,-1,-1,10,65,-9999,1425085693.936656,-31.09927368164062,-25.48638916015625,-1.303535461425781,131.0802612304688,117.3070068359375,10,137338.20014525,0.306854248046875,-0.63507080078125,-0.6233978271484375,137338.1880604583,0.578219943239715,1.823860013586368,-0.1706252689319597,137338.1880604583,2.916304151637053,-0.8424949622992907,0.7913331217738556,0.5770043134689331,1.831907749176025,-0.1336802393198013,0.6504313349723816,0.1128717660903931,0.07666116952896118,XTrueNorthZVertical,0.4144529077929993,0.3070886111147281,0.8190216227974106,0.2512547544957354,-0.5245768427848816,-0.7112909555435181,-0.4678507447242737,-27.01134872436523,-27.53390312194824,-2.093325614929199,2,10.3.35.51,10.83.46.32,1,0
2015-02-27 17:08:14.045,93,1425085690.277788,37.78753887505528,-122.3960089024766,12.60079,-1,-1,10,65,-9999,1425085693.988168,-29.61576843261719,-27.20269775390625,-1.420021057128906,132.3531951904297,118.5799407958984,10,137338.249049875,0.36212158203125,-0.503509521484375,-0.5973968505859375,137338.2398449584,-0.8531726836627658,0.657203175900958,1.226497534747272,137338.1880604583,2.916304151637053,-0.8424949622992907,0.7913331217738556,0.5770043134689331,1.831907749176025,-0.1336802393198013,0.6504313349723816,0.1128717660903931,0.07666116952896118,XTrueNorthZVertical,0.4144529077929993,0.3070886111147281,0.8190216227974106,0.2512547544957354,-0.5245768427848816,-0.7112909555435181,-0.4678507447242737,-27.01134872436523,-27.53390312194824,-2.093325614929199,2,10.3.35.51,10.83.46.32,1,0
2015-02-27 17:08:14.078,94,1425085690.277788,37.78753887505528,-122.3960089024766,12.60079,-1,-1,10,65,-9999,1425085694.03923,-29.83744049072266,-26.913818359375,-2.967704772949219,130.061767578125,116.2885131835938,10,137338.29808875,-0.140838623046875,-0.46356201171875,0.097564697265625,137338.291631375,-1.342090177649399,-1.813883279510713,2.371074636467053,137338.2398449584,2.943519202647022,-0.7797739391064354,0.7536626372632232,-0.8543882966041565,0.665250837802887,1.263442158699036,0.8970436453819275,0.1533540040254593,-0.1655616909265518,XTrueNorthZVertical,0.3853366938737351,0.3037483957333034,0.8420098571646886,0.224214056210279,-0.5127052664756775,-0.6843140721321106,-0.5185050964355469,-27.09009552001953,-27.23392677307129,-4.068267822265625,2,10.3.35.51,10.83.46.32,1,0
2015-02-27 17:08:14.144,95,1425085690.277788,37.78753887505528,-122.3960089024766,12.60079,-1,-1,10,65,-9999,1425085694.091789,-32.02008056640625,-23.88900756835938,-4.498733520507812,126.2141571044922,112.4409027099609,10,137338.3470992083,-0.7940521240234375,-0.36700439453125,-0.4967498779296875,137338.3434158333,-2.269442550315232,-0.1317684170471586,3.031173733737364,137338.291631375,2.962061739978717,-0.8339422890307342,0.6376993024535209,-1.343305826187134,-1.805835723876953,2.408018827438354,0.6128439903259277,0.1773949861526489,0.4519170224666595,XTrueNorthZVertical,0.4087252338315298,0.2509862210484786,0.8533584479557947,0.204276668996986,-0.5950369834899902,-0.5953484773635864,-0.5398991703987122,-28.68274307250977,-25.23970603942871,-5.689309120178223,2,10.3.35.51,10.83.46.32,1,0
2015-02-27 17:08:14.177,96,1425085690.277788,37.78753887505528,-122.3960089024766,12.60079,-1,-1,10,65,-9999,1425085694.143445,-35.48160552978516,-18.842041015625,-5.147758483886719,120.5404586791992,106.767204284668,10,137338.396131625,-0.5448760986328125,-0.565399169921875,-0.7883148193359375,137338.39520075,-2.486314676840853,-0.2231593172270808,2.949468484125951,137338.3434158333,2.985475134592107,-0.9034374681430253,0.4623901571400049,-2.270657539367676,-0.1237219423055649,3.068118572235107,-0.1641799062490463,0.1842782348394394,0.3942223191261292,XTrueNorthZVertical,0.4396805864745012,0.1723965892735148,0.8652936753058457,0.1680096767476819,-0.7029770612716675,-0.4460885524749756,-0.5539208054542542,-32.64952087402344,-19.94416427612305,-5.324435234069824,2,10.3.35.51,10.83.46.32,1,0
2015-02-27 17:08:14.245,97,1425085690.277788,37.78753887505528,-122.3960089024766,12.60079,-1,-1,10,65,-9999,1425085694.195969,-39.11363983154297,-12.29965209960938,-5.796783447265625,115.1554870605469,101.3822326660156,10,137338.4451419583,-1.474166870117188,0.152130126953125,-0.4676361083984375,137338.39520075,-2.486314676840853,-0.2231593172270808,2.949468484125951,137338.39520075,2.989097965807103,-0.9067810242408594,0.2714681521168607,-2.487529754638672,-0.2151129245758057,2.98641300201416,0.3402264714241028,-0.4307217001914978,0.02727779746055603,XTrueNorthZVertical,0.4419925453387779,0.08823438998877696,0.8835959539085955,0.1269467236500296,-0.7586835026741028,-0.2681460976600647,-0.5937145352363586,-35.08699798583984,-14.62988662719727,-6.854178428649902,2,10.3.35.51,10.83.46.32,1,0
2015-02-27 17:08:14.275,98,1425085690.277788,37.78753887505528,-122.3960089024766,12.60079,-1,-1,10,65,-9999,1425085694.246847,-41.46678924560547,-5.84222412109375,-6.229469299316406,111.0062561035156,97.23300170898438,10,137338.4942293333,-1.306304931640625,0.320892333984375,-0.281768798828125,137338.498771625,-1.122680857553259,-0.2449040275275777,1.331709708352488,137338.4469868334,2.983372259568977,-0.9672657937660165,0.09786804329205082,-1.764662742614746,-1.581656575202942,2.485070705413818,-0.6547697782516479,0.2498420178890228,0.09720082581043243,XTrueNorthZVertical,0.4664115464571434,0.006465350492724238,0.8796886649231199,0.09255441373107164,-0.8193970918655396,-0.09771188348531723,-0.5648369193077087,-36.81756591796875,-9.145673751831055,-7.275569915771484,2,10.3.35.51,10.83.46.32,1,0
2015-02-27 17:08:14.342,99,1425085690.277788,37.78753887505528,-122.3960089024766,12.60079,-1,-1,10,65,-9999,1425085694.299337,-42.86502838134766,-0.676300048828125,-5.530517578125,106.4231414794922,92.64988708496094,10,137338.5431930833,-1.67803955078125,0.5234375,-0.9467315673828125,137338.498771625,-1.122680857553259,-0.2449040275275777,1.331709708352488,137338.498771625,2.972429407260441,-1.009510429846015,-0.01557819698164502,-1.123895883560181,-0.2368578016757965,1.368653535842896,-0.4598363041877747,0.3053147792816162,0.25044184923172,XTrueNorthZVertical,0.4812738223970914,-0.04764640612141036,0.8724555553733514,0.07018995567774662,-0.8464686274528503,0.01557756680995226,-0.532210648059845,-38.13541030883789,-3.481621265411377,-5.067495346069336,2,10.3.35.51,10.83.46.32,1,0
2015-02-27 17:08:14.372,100,1425085690.277788,37.78753887505528,-122.3960089024766,12.60079,-1,-1,10,65,-9999,1425085694.35061,-43.1549072265625,2.025634765625,-5.181037902832031,104.1644134521484,90.39115905761719,10,137338.592331125,-1.176376342773438,0.1823577880859375,-0.546783447265625,137338.5505561667,0.2794731900573513,-0.07059853628523755,0.4122786420329867,137338.5505561667,2.985172957245067,-1.009090376611459,-0.07081305177410377,0.2782582342624664,-0.06255237758159637,0.4492220878601074,-0.833812952041626,0.4526836276054382,-0.4154356420040131,XTrueNorthZVertical,0.4792084890882592,-0.06863864313136414,0.873508502307791,0.05129186262647872,-0.844226598739624,0.07075388729572296,-0.5312958955764771,-38.29559707641602,-0.9903354644775391,-4.957533836364746,2,10.3.35.51,10.83.46.32,1,0
2015-02-27 17:08:14.413,101,1425085690.277788,37.78753887505528,-122.3960089024766,12.60079,-1,-1,10,65,-9999,1425085694.402824,-43.03555297851562,1.838714599609375,-5.330818176269531,103.5587158203125,89.78546142578125,10,137338.6412351667,-0.8794403076171875,0.0976104736328125,-0.51934814453125,137338.602342375,0.3169206970932825,0.4633215864337724,-1.29541295322358,137338.602342375,2.981518429008744,-1.002039774645791,-0.03517927442796438,0.3157057464122772,0.4713676571846008,-1.258469820022583,-0.1816316395998001,0.006148782093077898,-0.01515422761440277,XTrueNorthZVertical,0.47747521862978,-0.05377404883059435,0.8748255443547471,0.06169304930127439,-0.8420500159263611,0.03517201915383339,-0.538251519203186,-38.31130981445312,-0.6909892559051514,-4.886387825012207,2,10.3.35.51,10.83.46.32,1,0
2015-02-27 17:08:14.472,102,1425085690.277788,37.78753887505528,-122.3960089024766,12.60079,-1,-1,10,65,-9999,1425085694.454432,-42.72861480712891,-0.812225341796875,-5.064552307128906,106.0237045288086,92.25045013427734,10,137338.69025875,-1.155670166015625,-0.034759521484375,-0.379302978515625,137338.6541270833,0.7324457324950758,-0.5989657018153233,-1.242430694916999,137338.6541270833,2.978198927722977,-1.002946442746196,0.03203490370866335,0.7312307953834534,-0.5909197330474854,-1.205487966537476,-0.1956728100776672,0.2891400158405304,-0.1647563427686691,XTrueNorthZVertical,0.480199210657637,-0.02522657495102088,0.8732102007742637,0.07922298520412961,-0.8426267504692078,-0.03202942386269569,-0.5375446677207947,-38.09682846069336,-3.474768400192261,-5.354277610778809,2,10.3.35.51,10.83.46.32,1,0
2015-02-27 17:08:14.515,103,1425085690.277788,37.78753887505528,-122.3960089024766,12.60079,-1,-1,10,65,-9999,1425085694.505726,-42.40463256835938,-4.46575927734375,-4.149261474609375,109.0277404785156,95.25448608398438,10,137338.739267125,-0.8275909423828125,-0.224151611328125,-0.5216217041015625,137338.7059119167,1.189181587869191,-0.05592132288559285,-2.052045781054864,137338.7059119167,2.972438711734179,-1.031171554766394,0.132926178938556,1.187966585159302,-0.04787541180849075,-2.015103578567505,-0.2735221982002258,0.02232083678245544,0.3292734920978546,XTrueNorthZVertical,0.4950785767936032,0.01601549992525356,0.8622140620511961,0.1059604449037563,-0.8503333926200867,-0.1325350701808929,-0.5092813968658447,-37.9130744934082,-6.158926963806152,-4.095978736877441,2,10.3.35.51,10.83.46.32,1,0
2015-02-27 17:08:14.568,104,1425085690.277788,37.78753887505528,-122.3960089024766,12.60079,-1,-1,10,65,-9999,1425085694.561691,-41.26216125488281,-8.4931640625,-3.73321533203125,111.7224655151367,97.94921112060547,10,137338.7883613333,-0.7849884033203125,-0.37109375,-0.5929107666015625,137338.757698,1.191414648443223,0.6065360035299825,-1.793551109852394,137338.757698,2.970947819401267,-0.9939757505860639,0.2406473003478667,1.190199732780457,0.614581823348999,-1.756609082221985,0.1297972649335861,0.02356386743485928,-0.1129316166043282,XTrueNorthZVertical,0.4806025535399434,0.06479144740796824,0.8646156028668339,0.1313891596508221,-0.8140471577644348,-0.2383313179016113,-0.5296465158462524,-37.18699264526367,-9.643581390380859,-4.029839515686035,2,10.3.35.51,10.83.46.32,1,0
2015-02-27 17:08:14.614,105,1425085690.277788,37.78753887505528,-122.3960089024766,12.60079,-1,-1,10,65,-9999,1425085694.561691,-41.26216125488281,-8.4931640625,-3.73321533203125,111.7224655151367,97.94921112060547,10,137338.8373159167,-0.865447998046875,-0.635467529296875,-0.5233154296875,137338.8094828333,1.56022144673841,0.1068566755783393,-2.204829202263838,137338.8094828333,2.974047796379268,-0.9943900794519058,0.3640022947833735,1.559006571769714,0.1149024218320847,-2.167887687683105,-0.210785448551178,-0.135041207075119,0.1295287162065506,XTrueNorthZVertical,0.4807505240710442,0.1192752217345645,0.8541521897704519,0.158355264884974,-0.7834925055503845,-0.356017142534256,-0.5093047022819519,-35.73852920532227,-14.11820125579834,-3.942671775817871,2,10.3.35.51,10.83.46.32,1,0
2015-02-27 17:08:14.667,106,1425085690.277788,37.78753887505528,-122.3960089024766,12.60079,-1,-1,10,65,-9999,1425085694.635801,-38.12462615966797,-15.15447998046875,-3.20068359375,118.8447494506836,105.0714950561523,10,137338.8863465417,-0.4020233154296875,-0.8923187255859375,-0.41595458984375,137338.861267375,1.972886779761676,1.073190802384098,-2.54555296686414,137338.861267375,2.979446771634382,-0.9592928069690925,0.5097718102818328,1.971672773361206,1.08123791217804,-2.508614540100098,0.1503967046737671,-0.1834238916635513,-0.02965588308870792,XTrueNorthZVertical,0.4632045780131734,0.1867849054290845,0.8462534433988848,0.1854940043987358,-0.7146819829940796,-0.48797807097435,-0.5011058449745178,-34.07160949707031,-17.88354873657227,-3.378585815429688,2,10.3.35.51,10.83.46.32,1,0
2015-02-27 17:08:14.744,107,1425085690.277788,37.78753887505528,-122.3960089024766,12.60079,-1,-1,10,65,-9999,1425085694.687895,-35.31107330322266,-20.26945495605469,-1.819435119628906,122.6000747680664,108.8268203735352,10,137338.9353596667,-0.091217041015625,-0.447113037109375,-0.22967529296875,137338.9130537084,2.046837436910996,0.8386057251322504,-2.462701492719557,137338.9130537084,2.993273245101125,-0.9189588798800933,0.6757724251703563,2.045672416687012,0.8465096950531006,-2.425875902175903,0.4005590081214905,-0.09537080675363541,0.1696868240833282,XTrueNorthZVertical,0.4392695746007903,0.2652951382933248,0.8323888195580814,0.2092596034200876,-0.6202550530433655,-0.6255001425743103,-0.4733214676380157,-31.65956687927246,-21.91398429870605,-3.091903686523438,2,10.3.35.51,10.83.46.32,1,0
2015-02-27 17:08:14.766,108,1425085690.277788,37.78753887505528,-122.3960089024766,12.60079,-1,-1,10,65,-9999,1425085694.742941,-32.32700347900391,-24.63671875,-0.970703125,125.5738830566406,111.8006286621094,10,137338.984387125,0.020538330078125,-0.2709503173828125,-0.3264312744140625,137338.9648382917,1.152605733458043,0.3666336588456826,-1.38376571923194,137338.9648382917,2.99801196773774,-0.8956897910287496,0.8061384019775824,1.151440978050232,0.3745375275611877,-1.346940398216248,0.5811553597450256,0.3260351121425629,0.2242938429117203,XTrueNorthZVertical,0.4226565427593481,0.3240794920700253,0.8148280207413878,0.2288869249605245,-0.5404296517372131,-0.721619188785553,-0.4326678514480591,-28.14226722717285,-26.41551208496094,-1.531060218811035,2,10.3.35.51,10.83.46.32,1,0
2015-02-27 17:08:14.814,109,1425085690.277788,37.78753887505528,-122.3960089024766,12.60079,-1,-1,10,65,-9999,1425085694.742941,-32.32700347900391,-24.63671875,-0.970703125,125.5738830566406,111.8006286621094,10,137339.0334135,-0.5089111328125,-0.0904693603515625,-0.288482666015625,137339.0166230833,0.07853715317865476,-0.3289563210076776,0.6173212733125855,137339.0166230833,3.023581606943314,-0.9149505523019954,0.8290706161221643,0.07737234979867935,-0.3210525214672089,0.6541461944580078,0.168735533952713,0.5955191850662231,-0.007791905198246241,XTrueNorthZVertical,0.4248809429299131,0.3368790486737672,0.8092635456389928,0.226011510150067,-0.5354042053222656,-0.7373038530349731,-0.4119773805141449,-27.07427978515625,-27.54312705993652,-0.6857843399047852,2,10.3.35.51,10.83.46.32,1,0
2015-02-27 17:08:14.862,110,1425085690.277788,37.78753887505528,-122.3960089024766,12.60079,-1,-1,10,65,-9999,1425085694.817074,-29.68398284912109,-26.86283874511719,0.410552978515625,128.9890441894531,115.2157897949219,10,137339.0824470833,0.2612457275390625,-0.5268402099609375,0.051544189453125,137339.0684092084,-2.202801471409852,0.09724293035926231,1.824080523324627,137339.0684092084,3.018291025124208,-0.9146842166805298,0.7344478064511137,-2.20396614074707,0.1051466539502144,1.860905051231384,0.331978976726532,0.3977775275707245,0.1370837837457657,XTrueNorthZVertical,0.4311886977961771,0.2961247590606007,0.8260504643771207,0.2098262671529581,-0.5880977511405945,-0.6701774001121521,-0.452772855758667,-28.09723281860352,-26.50045967102051,-0.6180000305175781,2,10.3.35.51,10.83.46.32,1,0
2015-02-27 17:08:14.913,111,1425085690.277788,37.78753887505528,-122.3960089024766,12.60079,-1,-1,10,65,-9999,1425085694.8691,-30.65593719482422,-25.38444519042969,-0.3050384521484375,128.3083953857422,114.5351409912109,10,137339.13157075,-0.333648681640625,-0.7043609619140625,-0.6831512451171875,137339.1201940417,-2.512490620879133,1.038830165367678,2.931112113680362,137339.0684092084,3.018291025124208,-0.9146842166805298,0.7344478064511137,-2.20396614074707,0.1051466539502144,1.860905051231384,0.331978976726532,0.3977775275707245,0.1370837837457657,XTrueNorthZVertical,0.4311886977961771,0.2961247590606007,0.8260504643771207,0.2098262671529581,-0.5880977511405945,-0.6701774001121521,-0.452772855758667,-28.09723281860352,-26.50045967102051,-0.6180000305175781,2,10.3.35.51,10.83.46.32,1,0
2015-02-27 17:08:14.962,112,1425085690.277788,37.78753887505528,-122.3960089024766,12.60079,-1,-1,10,65,-9999,1425085694.920863,-33.79347229003906,-21.50997924804688,-3.100845336914062,122.930549621582,109.1572952270508,10,137339.180504,-0.4514312744140625,-0.596343994140625,-0.7072601318359375,137339.1719785834,-2.548287234355324,-0.4687818656167619,3.584510165015815,137339.1719785834,3.037999539018189,-0.8846192677052799,0.3761192748476621,-2.549451589584351,-0.4608731269836426,3.621326446533203,0.4327570497989655,-0.2727161049842834,-0.06179779767990112,XTrueNorthZVertical,0.4286651426675871,0.1469654059715682,0.8824973779504295,0.1258798670990317,-0.7195917367935181,-0.3673138022422791,-0.5892947316169739,-33.69607162475586,-17.56890869140625,-6.929572105407715,2,10.3.35.51,10.83.46.32,1,0
2015-02-27 17:08:15.000,113,1425085690.277788,37.78753887505528,-122.3960089024766,12.60079,-1,-1,10,65,-9999,1425085694.972768,-37.66422271728516,-15.91920471191406,-5.946571350097656,117.2788391113281,103.5055847167969,10,137339.2295292083,-1.183273315429688,-0.323486328125,-0.476715087890625,137339.1719785834,-2.548287234355324,-0.4687818656167619,3.584510165015815,137339.1719785834,3.037999539018189,-0.8846192677052799,0.3761192748476621,-2.549451589584351,-0.4608731269836426,3.621326446533203,0.4327570497989655,-0.2727161049842834,-0.06179779767990112,XTrueNorthZVertical,0.4286651426675871,0.1469654059715682,0.8824973779504295,0.1258798670990317,-0.7195917367935181,-0.3673138022422791,-0.5892947316169739,-33.69607162475586,-17.56890869140625,-6.929572105407715,2,10.3.35.51,10.83.46.32,1,0
2015-02-27 17:08:15.061,114,1425085690.277788,37.78753887505528,-122.3960089024766,12.60079,-1,-1,10,65,-9999,1425085695.027063,-40.49482727050781,-9.121917724609375,-7.078193664550781,111.2708969116211,97.49764251708984,10,137339.2785555834,-1.65350341796875,0.4792327880859375,-0.480133056640625,137339.2755495417,-1.238731031530661,-0.267296684921291,2.136132429313026,137339.2237649584,3.018298086243915,-0.9274445791018733,0.1850464358317884,-2.439625263214111,-1.484628200531006,2.219484567642212,-0.2691575288772583,-0.3148176372051239,-0.05222179368138313,XTrueNorthZVertical,0.4496122042762559,0.05503890803447432,0.8863306049615188,0.09611264847890971,-0.7864302396774292,-0.1839921772480011,-0.5896391868591309,-36.04672241210938,-11.46475219726562,-7.829699516296387,2,10.3.35.51,10.83.46.32,1,0
2015-02-27 17:08:15.098,115,1425085690.277788,37.78753887505528,-122.3960089024766,12.60079,-1,-1,10,65,-9999,1425085695.027063,-40.49482727050781,-9.121917724609375,-7.078193664550781,111.2708969116211,97.49764251708984,10,137339.3275727917,-1.369964599609375,0.4105682373046875,-0.8557891845703125,137339.3273343333,-0.4596387009623018,-0.2556799762463653,0.9564897518362808,137339.2755495417,3.014580887605936,-0.9722397602438532,0.04160182152150987,-1.239895343780518,-0.2593856155872345,2.172944784164429,-0.8907515406608582,0.4517918527126312,0.1943412274122238,XTrueNorthZVertical,0.4673232206148837,-0.01129074262897647,0.8815624178203767,0.06579687084181024,-0.8254349827766418,-0.04158982262015343,-0.56296306848526,-37.73973846435547,-5.324564456939697,-6.28265380859375,2,10.3.35.51,10.83.46.32,1,0
2015-02-27 17:08:15.157,116,1425085690.277788,37.78753887505528,-122.3960089024766,12.60079,-1,-1,10,65,-9999,1425085695.101481,-42.71156311035156,-0.6593017578125,-6.945068359375,105.0828018188477,91.30954742431641,10,137339.376596375,-1.1910400390625,0.2430572509765625,-1.011123657226562,137339.3791205834,0.2170055508962347,0.221385651941088,-0.4084146616073908,137339.3273343333,3.017429522929821,-0.9765078212016985,-0.04259358875056309,-0.4608029723167419,-0.2477689832448959,0.9933016300201416,-0.3734220266342163,0.2973240613937378,-0.2403931319713593,XTrueNorthZVertical,0.4669078945938566,-0.04786688157514019,0.8818717879735055,0.04480990193561683,-0.8277956247329712,0.04258071258664131,-0.5594115853309631,-38.07713317871094,-1.862300038337708,-6.226899147033691,2,10.3.35.51,10.83.46.32,1,0
2015-02-27 17:08:15.196,117,1425085690.277788,37.78753887505528,-122.3960089024766,12.60079,-1,-1,10,65,-9999,1425085695.157451,-43.12080383300781,2.16156005859375,-6.512382507324219,102.3197326660156,88.54647827148438,10,137339.4257146667,-1.10247802734375,0.049285888671875,-0.7476806640625,137339.3791205834,0.2170055508962347,0.221385651941088,-0.4084146616073908,137339.3791205834,3.025710669849023,-0.9721074934015614,-0.05166480591222704,0.2158412933349609,0.2292965352535248,-0.3716031908988953,-0.3660670518875122,0.1914154291152954,-0.4483157992362976,XTrueNorthZVertical,0.4648782988789727,-0.0498421179384046,0.8831036586446623,0.03913894122331005,-0.8249729871749878,0.05164182558655739,-0.5628078579902649,-38.15716171264648,-0.33289635181427,-6.002577781677246,2,10.3.35.51,10.83.46.32,1,0
2015-02-27 17:08:15.255,118,1425085690.277788,37.78753887505528,-122.3960089024766,12.60079,-1,-1,10,65,-9999,1425085695.232646,-42.86502838134766,0.649139404296875,-5.330825805664062,103.2622299194336,89.48897552490234,10,137339.4747311667,-1.159942626953125,0.0409698486328125,-0.494903564453125,137339.48269,1.294349020368093,0.2161671877850777,-2.073781969239873,137339.4309053333,3.01140011783446,-0.992180560787038,0.009270188492832454,0.7823859453201294,-0.7609258890151978,-1.688260316848755,-0.2652935683727264,0.05855594575405121,-0.2008386105298996,XTrueNorthZVertical,0.4752426900949785,-0.02689532537238531,0.8774346355118948,0.05940947322921854,-0.8371844887733459,-0.009270056150853634,-0.5468420386314392,-38.12982177734375,-1.861788153648376,-5.895859718322754,2,10.3.35.51,10.83.46.32,1,0
2015-02-27 17:08:15.295,119,1425085690.277788,37.78753887505528,-122.3960089024766,12.60079,-1,-1,10,65,-9999,1425085695.283773,-42.60924530029297,-3.514190673828125,-4.681800842285156,106.274169921875,92.50091552734375,10,137339.5236354167,-0.806488037109375,-0.427459716796875,-0.375457763671875,137339.48269,1.294349020368093,0.2161671877850777,-2.073781969239873,137339.48269,3.008605386948375,-1.002315578434228,0.1173738080710931,1.293184757232666,0.2240779250860214,-2.036971092224121,-0.3230210244655609,0.1580743342638016,0.03974472358822823,XTrueNorthZVertical,0.4819722032796571,0.01945898384434926,0.8717098590256397,0.08629057313438603,-0.8369215726852417,-0.1171044930815697,-0.5346482992172241,-37.98918151855469,-5.028117656707764,-4.863192558288574,2,10.3.35.51,10.83.46.32,1,0
2015-02-27 17:08:15.353,120,1425085690.277788,37.78753887505528,-122.3960089024766,12.60079,-1,-1,10,65,-9999,1425085695.33545,-41.31330871582031,-8.340240478515625,-4.215835571289062,110.6148223876953,96.84156799316406,10,137339.572768,-0.9083404541015625,-0.2610931396484375,-0.4369354248046875,137339.5344760417,1.741438906273942,0.5710355335670083,-2.465184357803838,137339.5344760417,3.009564129503425,-0.983900810414432,0.2588357596843941,1.740274667739868,0.5789461731910706,-2.428374052047729,0.03812678158283234,-0.04192681238055229,0.1350477635860443,XTrueNorthZVertical,0.4748793554754173,0.0826063583331091,0.8681171058139711,0.1184840749646619,-0.8049266934394836,-0.2559552788734436,-0.5353315472602844,-37.28809356689453,-8.918462753295898,-4.70847225189209,2,10.3.35.51,10.83.46.32,1,0
2015-02-27 17:08:15.392,121,1425085690.277788,37.78753887505528,-122.3960089024766,12.60079,-1,-1,10,65,-9999,1425085695.33545,-41.31330871582031,-8.340240478515625,-4.215835571289062,110.6148223876953,96.84156799316406,10,137339.6216807083,-0.6201934814453125,-0.807373046875,-0.14068603515625,137339.5862609167,2.133449560830881,0.9200766165677364,-2.606805938252072,137339.5862609167,3.023482075121414,-0.9516233479298819,0.4138742913239095,2.132285356521606,0.9279871582984924,-2.569995880126953,-0.1870608776807785,0.05412179976701736,0.08669006079435349,XTrueNorthZVertical,0.4582854658445147,0.1558639997367745,0.8628846236118597,0.1452961452923403,-0.7456020712852478,-0.4021595120429993,-0.5313616991043091,-35.40995407104492,-14.69645595550537,-4.718069076538086,2,10.3.35.51,10.83.46.32,1,0
2015-02-27 17:08:15.451,122,1425085690.277788,37.78753887505528,-122.3960089024766,12.60079,-1,-1,10,65,-9999,1425085695.439332,-35.80555725097656,-18.9949951171875,-3.134124755859375,118.9787139892578,105.2054595947266,10,137339.6707195,-0.1661224365234375,-0.4348297119140625,-0.1815338134765625,137339.6380455417,2.035876664812557,1.184230505086625,-2.864057179541584,137339.6380455417,3.027075943039038,-0.9031386847343067,0.5928916595958705,2.034712553024292,1.192140936851501,-2.827247381210327,0.1532337367534637,-0.2281190007925034,0.4117164015769958,XTrueNorthZVertical,0.431701338633685,0.2385274035727862,0.8518111019773029,0.1765119730663773,-0.6512501239776611,-0.5587614774703979,-0.5134772658348083,-33.14896392822266,-19.32196998596191,-4.463020324707031,2,10.3.35.51,10.83.46.32,1,0
2015-02-27 17:08:15.493,123,1425085690.277788,37.78753887505528,-122.3960089024766,12.60079,-1,-1,10,65,-9999,1425085695.439332,-35.80555725097656,-18.9949951171875,-3.134124755859375,118.9787139892578,105.2054595947266,10,137339.7198300833,0.1658782958984375,-0.364776611328125,-0.4105377197265625,137339.689831625,1.357293099048225,0.9511791423065539,-2.229449593909403,137339.689831625,3.007708353805634,-0.8345606296792223,0.7448338785949379,1.356128931045532,0.9590895771980286,-2.19264030456543,0.4783937335014343,0.236870676279068,0.3085394501686096,XTrueNorthZVertical,0.3989001381992098,0.3066494501901725,0.839755462330385,0.2040969280755115,-0.5447847247123718,-0.6778497099876404,-0.4936895966529846,-30.2552375793457,-23.64872360229492,-4.179624557495117,2,10.3.35.51,10.83.46.32,1,0
2015-02-27 17:08:15.549,124,1425085690.277788,37.78753887505528,-122.3960089024766,12.60079,-1,-1,10,65,-9999,1425085695.543299,-29.71804809570312,-26.14910888671875,-2.984344482421875,126.0147933959961,112.2415390014648,10,137339.768866125,0.0888824462890625,-0.303619384765625,-0.3566436767578125,137339.7416163333,0.138301683833341,0.4702780295171684,-0.08306692387677053,137339.7416163333,2.987979678625531,-0.7854239332063332,0.8036647989082497,0.1371375024318695,0.4781883656978607,-0.04625804349780083,0.5987066030502319,0.4356180727481842,0.01887781545519829,XTrueNorthZVertical,0.3788990877281236,0.3332415311738159,0.8362927468235002,0.2144761127748108,-0.4907964169979095,-0.7199045419692993,-0.4907711148262024,-27.29053688049316,-27.03589820861816,-4.049384117126465,2,10.3.35.51,10.83.46.32,1,0
2015-02-27 17:08:15.588,125,1425085690.277788,37.78753887505528,-122.3960089024766,12.60079,-1,-1,10,65,-9999,1425085695.543299,-29.71804809570312,-26.14910888671875,-2.984344482421875,126.0147933959961,112.2415390014648,10,137339.817885375,0.504638671875,-0.5124359130859375,-0.5593414306640625,137339.79340125,-1.667501298613963,0.1055296224071529,1.61863468945599,137339.79340125,3.000951521759236,-0.785998218947582,0.7452131531525408,-1.668665528297424,0.1134398877620697,1.65544319152832,0.6243042945861816,0.3148472309112549,0.206505298614502,XTrueNorthZVertical,0.3794296428899144,0.3103987613512321,0.8484553822250113,0.1995224737775816,-0.5199952125549316,-0.6781284809112549,-0.519371509552002,-27.62602615356445,-26.59980583190918,-4.622089385986328,2,10.3.35.51,10.83.46.32,1,0
2015-02-27 17:08:15.649,126,1425085690.277788,37.78753887505528,-122.3960089024766,12.60079,-1,-1,10,65,-9999,1425085695.595332,-29.64984130859375,-25.84323120117188,-3.883003234863281,126.2277526855469,112.4544982910156,10,137339.86681475,-0.8724517822265625,-0.7750091552734375,-0.4622650146484375,137339.8451872917,-2.031603090211307,-1.86532330123003,3.021912324730504,137339.8451872917,3.011467782957449,-0.8385336453672333,0.5992069972166593,-2.032767295837402,-1.857413172721863,3.058720588684082,0.9197536110877991,-0.03235619142651558,0.6546502113342285,XTrueNorthZVertical,0.4056605521319761,0.2437195223416845,0.8630413453957115,0.1766350620118909,-0.6141048073768616,-0.5639877915382385,-0.5520806312561035,-29.53189468383789,-24.06316757202148,-6.398575782775879,2,10.3.35.51,10.83.46.32,1,0
2015-02-27 17:08:15.686,127,1425085690.277788,37.78753887505528,-122.3960089024766,12.60079,-1,-1,10,65,-9999,1425085695.646859,-32.24171447753906,-22.54655456542969,-5.081199645996094,123.1461029052734,109.3728485107422,10,137339.9159267083,-0.0351104736328125,-0.5330810546875,-0.6514892578125,137339.8969721667,-2.739934964300152,-0.5781690768628945,2.38397711931627,137339.8969721667,3.001605427145919,-0.8901942898839801,0.4182410378275962,-2.741099119186401,-0.5702589154243469,2.420784950256348,0.2630905508995056,-0.4591721892356873,0.1923312991857529,XTrueNorthZVertical,0.433238602162233,0.1574593514590059,0.8744925229624122,0.1509095478699801,-0.7102035880088806,-0.4061537384986877,-0.5750217437744141,-33.50457000732422,-18.1079273223877,-6.454242706298828,2,10.3.35.51,10.83.46.32,1,0
2015-02-27 17:08:15.746,128,1425085690.277788,37.78753887505528,-122.3960089024766,12.60079,-1,-1,10,65,-9999,1425085695.69987,-36.06131744384766,-17.41459655761719,-5.813423156738281,118.2259140014648,104.4526596069336,10,137339.9648600417,-1.243179321289062,-0.23406982421875,-0.440185546875,137339.9487566667,-2.391376446088946,-1.962772093941555,2.16020820451567,137339.9487566667,2.971474044459884,-0.9167469843812861,0.2300679621336343,-2.392421960830688,-1.95502781867981,2.196947574615479,-0.3100941181182861,0.05021776631474495,-0.1520106345415115,XTrueNorthZVertical,0.4467212020969877,0.06521583670526462,0.8833108968938461,0.1262890327356525,-0.7727153301239014,-0.2280436903238297,-0.5923741459846497,-35.46683120727539,-13.16419506072998,-7.805023193359375,2,10.3.35.51,10.83.46.32,1,0
2015-02-27 17:08:15.784,129,1425085690.277788,37.78753887505528,-122.3960089024766,12.60079,-1,-1,10,65,-9999,1425085695.750437,-39.57400512695312,-11.56893920898438,-6.212821960449219,115.0895462036133,101.316291809082,10,137340.0139809583,-1.520675659179688,0.1891021728515625,-0.394805908203125,137340.0005430834,-1.523475682649715,-0.740487946354897,1.707010358649725,137339.9487566667,2.971474044459884,-0.9167469843812861,0.2300679621336343,-2.392421960830688,-1.95502781867981,2.196947574615479,-0.3100941181182861,0.05021776631474495,-0.1520106345415115,XTrueNorthZVertical,0.4467212020969877,0.06521583670526462,0.8833108968938461,0.1262890327356525,-0.7727153301239014,-0.2280436903238297,-0.5923741459846497,-35.46683120727539,-13.16419506072998,-7.805023193359375,2,10.3.35.51,10.83.46.32,1,0
2015-02-27 17:08:15.851,130,1425085690.277788,37.78753887505528,-122.3960089024766,12.60079,-1,-1,10,65,-9999,1425085695.801901,-41.27919006347656,-6.436981201171875,-5.547157287597656,113.0215606689453,99.24830627441406,10,137340.0629085417,-1.316009521484375,0.2865447998046875,-0.6186676025390625,137340.052327625,-0.4218207482187406,-0.0168250528187936,0.9271510376874229,137340.052327625,2.950032929331726,-1.003777710411721,0.0134409155772387,-0.42286616563797,-0.009080895222723484,0.9638896584510803,-0.6926419138908386,0.5686773061752319,-0.01561749167740345,XTrueNorthZVertical,0.4794299450145673,-0.04014192657782954,0.8723283927036727,0.08705588410808393,-0.8434298634529114,-0.01344051118940115,-0.5370711088180542,-38.0081672668457,-4.635785102844238,-5.098963737487793,2,10.3.35.51,10.83.46.32,1,0
2015-02-27 17:08:15.883,131,1425085690.277788,37.78753887505528,-122.3960089024766,12.60079,-1,-1,10,65,-9999,1425085695.854135,-42.14883422851562,-2.885406494140625,-4.964698791503906,110.2070770263672,96.43382263183594,10,137340.1119242917,-1.203857421875,0.18511962890625,-0.7793121337890625,137340.1041124583,0.296805042431587,0.2507914777494159,-0.160988886843617,137340.052327625,2.950032929331726,-1.003777710411721,0.0134409155772387,-0.42286616563797,-0.009080895222723484,0.9638896584510803,-0.6926419138908386,0.5686773061752319,-0.01561749167740345,XTrueNorthZVertical,0.4794299450145673,-0.04014192657782954,0.8723283927036727,0.08705588410808393,-0.8434298634529114,-0.01344051118940115,-0.5370711088180542,-38.0081672668457,-4.635785102844238,-5.098963737487793,2,10.3.35.51,10.83.46.32,1,0
2015-02-27 17:08:15.952,132,1425085690.277788,37.78753887505528,-122.3960089024766,12.60079,-1,-1,10,65,-9999,1425085695.905414,-42.38756561279297,-1.390045166015625,-5.031265258789062,108.0209197998047,94.24766540527344,10,137340.1609678333,-1.233016967773438,0.2674102783203125,-0.6546478271484375,137340.1558985417,0.9884703217864974,-0.4794424994603491,-1.121139952546539,137340.1041124583,2.959202380509056,-1.000580576718189,-0.003779022001817411,0.2957596480846405,0.2585355639457703,-0.124250628054142,-0.4789764881134033,0.04782621189951897,-0.2900851964950562,XTrueNorthZVertical,0.477535170351663,-0.04533486949940623,0.8738782093380354,0.0790049621839853,-0.8417785167694092,0.003779012942686677,-0.5398098230361938,-38.14907836914062,-3.242788553237915,-5.122751235961914,2,10.3.35.51,10.83.46.32,1,0
2015-02-27 17:08:15.979,133,1425085690.277788,37.78753887505528,-122.3960089024766,12.60079,-1,-1,10,65,-9999,1425085695.962994,-42.59217834472656,-2.171722412109375,-5.397377014160156,108.3457412719727,94.57248687744141,10,137340.2099809167,-0.9263763427734375,-0.297637939453125,-0.4572296142578125,137340.2076832083,1.220937387023405,0.6157473451083486,-1.622587353145886,137340.1558985417,2.960566730701498,-0.9995249690976949,0.03985419303548127,0.987424910068512,-0.471698522567749,-1.084402084350586,-0.4108575582504272,0.3658629357814789,-0.2225752919912338,XTrueNorthZVertical,0.4787414574008344,-0.02589036257627737,0.8730669038233428,0.08882840570774803,-0.8405462503433228,-0.03984364494681358,-0.54027259349823,-38.01107025146484,-4.275887489318848,-5.383858680725098,2,10.3.35.51,10.83.46.32,1,0
2015-02-27 17:08:16.089,134,1425085690.277788,37.78753887505528,-122.3960089024766,12.60079,-1,-1,10,65,-9999,1425085696.041785,-41.99535369873047,-6.98077392578125,-4.914772033691406,111.0498199462891,97.27656555175781,10,137340.2590189583,-1.007369995117188,-0.1974334716796875,-0.665863037109375,137340.2594679167,1.540145473176957,0.2148675651731191,-1.813646258173696,137340.2076832083,2.977713755109376,-1.011383027460268,0.1268672005051594,1.219892024993896,0.6234912276268005,-1.585849761962891,-0.2941328585147858,-0.02210871689021587,0.06028320267796516,XTrueNorthZVertical,0.4863552745831167,0.01570260423395455,0.8676375374535635,0.1020640819673267,-0.8407548666000366,-0.1265271455049515,-0.5264239311218262,-37.8317985534668,-6.510803699493408,-4.298266410827637,2,10.3.35.51,10.83.46.32,1,0
2015-02-27 17:08:16.096,135,1425085690.277788,37.78753887505528,-122.3960089024766,12.60079,-1,-1,10,65,-9999,1425085696.041785,-41.99535369873047,-6.98077392578125,-4.914772033691406,111.0498199462891,97.27656555175781,10,137340.3080326667,-0.80633544921875,-0.6174163818359375,-0.4410247802734375,137340.2594679167,1.540145473176957,0.2148675651731191,-1.813646258173696,137340.2594679167,2.990317761802985,-0.9811434213242918,0.2312504751360112,1.539100170135498,0.2226113975048065,-1.776908993721008,-0.1983605772256851,0.03176141902804375,-0.1245928108692169,XTrueNorthZVertical,0.4743360641686199,0.06610736191814554,0.8695616435453218,0.120406233745888,-0.8090094327926636,-0.2291948944330215,-0.5412702560424805,-37.12996673583984,-9.388129234313965,-5.033824920654297,2,10.3.35.51,10.83.46.32,1,0
2015-02-27 17:08:16.160,136,1425085690.277788,37.78753887505528,-122.3960089024766,12.60079,-1,-1,10,65,-9999,1425085696.113031,-39.14769744873047,-12.60552978515625,-4.931419372558594,113.8952941894531,100.1220397949219,10,137340.357060875,-0.57586669921875,-0.7328033447265625,-0.570526123046875,137340.3630388333,2.012807031869746,0.3597741548259655,-2.667060224231223,137340.311254125,3.001106050784897,-0.9480793717030618,0.367993970818929,1.710009813308716,1.141488909721375,-2.283580780029297,-0.04842119663953781,-0.2576719522476196,0.1031718105077744,XTrueNorthZVertical,0.4590973982338619,0.1308865259167034,0.8666941777619137,0.1447048603980537,-0.7579142451286316,-0.3597444295883179,-0.544196605682373,-35.57587814331055,-14.16806793212891,-5.072810173034668,2,10.3.35.51,10.83.46.32,1,0
2015-02-27 17:08:16.177,137,1425085690.277788,37.78753887505528,-122.3960089024766,12.60079,-1,-1,10,65,-9999,1425085696.165296,-36.53877258300781,-17.51657104492188,-4.781654357910156,116.9053192138672,103.1320648193359,10,137340.4060691667,-0.3748779296875,-0.720733642578125,-0.0086669921875,137340.3630388333,2.012807031869746,0.3597741548259655,-2.667060224231223,137340.3630388333,2.999745813176128,-0.9021109368445858,0.5202877687970208,2.011761665344238,0.3675178289413452,-2.630323648452759,0.1049444153904915,-0.2356735020875931,-0.03260592371225357,XTrueNorthZVertical,0.4365940128087787,0.2010611073323401,0.8595734596300113,0.1734749685642844,-0.6808111071586609,-0.4971298575401306,-0.5379201769828796,-33.5858039855957,-18.27272796630859,-5.496528625488281,2,10.3.35.51,10.83.46.32,1,0
2015-02-27 17:08:16.251,138,1425085690.277788,37.78753887505528,-122.3960089024766,12.60079,-1,-1,10,65,-9999,1425085696.218618,-33.19662475585938,-22.54656982421875,-3.616737365722656,122.8109817504883,109.037727355957,10,137340.45510075,-0.1129608154296875,-0.2411651611328125,-0.233123779296875,137340.4148235,1.332413049196378,0.5908979216090372,-2.347523237683047,137340.4148235,2.986891246516958,-0.8693458207393567,0.6813389247173219,1.331368684768677,0.5986411571502686,-2.310787677764893,0.2184716016054153,-0.09090007096529007,0.492577463388443,XTrueNorthZVertical,0.4191436405592512,0.271470767526366,0.8414544829959871,0.2063409366175407,-0.5933495163917542,-0.6298335790634155,-0.5012444853782654,-31.00790023803711,-22.63442420959473,-4.278270721435547,2,10.3.35.51,10.83.46.32,1,0
2015-02-27 17:08:16.274,139,1425085690.277788,37.78753887505528,-122.3960089024766,12.60079,-1,-1,10,65,-9999,1425085696.269427,-30.50242614746094,-25.97918701171875,-1.952583312988281,127.865608215332,114.0923538208008,10,137340.5041210417,-0.079315185546875,-0.10693359375,-0.1166839599609375,137340.4666097917,0.6779737018747041,0.1177825602664984,-0.7809288464560773,137340.4666097917,2.966535166407336,-0.8460803710544841,0.776230739977022,0.6769292950630188,0.1255257278680801,-0.7441937327384949,0.2947616875171661,0.4935483038425446,0.2029999643564224,XTrueNorthZVertical,0.4087119805597155,0.3105433004929148,0.8272129986831021,0.2285520255795102,-0.5342331528663635,-0.7005947828292847,-0.4730347394943237,-27.91543579101562,-26.52301979064941,-3.060810089111328,2,10.3.35.51,10.83.46.32,1,0
2015-02-27 17:08:16.356,140,1425085690.277788,37.78753887505528,-122.3960089024766,12.60079,-1,-1,10,65,-9999,1425085696.320333,-29.49636077880859,-26.43800354003906,-2.168922424316406,128.940185546875,115.1669387817383,10,137340.5531455833,0.0538177490234375,-0.382080078125,-0.3234100341796875,137340.518394625,-0.4408727363410585,0.4820369509943043,0.8852344800262297,137340.518394625,2.976189954569276,-0.8416589881576735,0.7727091772603584,-0.4419170916080475,0.4897800385951996,0.9219692349433899,0.5262368321418762,0.6144289374351501,0.4568150341510773,XTrueNorthZVertical,0.4055237575071946,0.311502841037842,0.8298647081961226,0.2232510388195956,-0.5339730381965637,-0.6980776190757751,-0.4770329296588898,-27.57846832275391,-26.90152740478516,-2.801196098327637,2,10.3.35.51,10.83.46.32,1,0
2015-02-27 17:08:16.374,141,1425085690.277788,37.78753887505528,-122.3960089024766,12.60079,-1,-1,10,65,-9999,1425085696.320333,-29.49636077880859,-26.43800354003906,-2.168922424316406,128.940185546875,115.1669387817383,10,137340.602243875,0.360992431640625,-0.788543701171875,-0.621124267578125,137340.5701791667,-1.946593656635433,1.010507713490794,2.17853741071814,137340.5701791667,2.99803298865295,-0.8222359989807074,0.6726516957495854,-1.947638034820557,1.018250703811646,2.215271711349487,0.70423823595047,0.1430360078811646,0.2177287191152573,XTrueNorthZVertical,0.3979692336855192,0.2746875908581346,0.8536296069564135,0.1936070988280611,-0.57307368516922,-0.6230622529983521,-0.5323344469070435,-28.94609451293945,-25.22950744628906,-4.207871437072754,2,10.3.35.51,10.83.46.32,1,0
2015-02-27 17:08:16.446,142,1425085690.277788,37.78753887505528,-122.3960089024766,12.60079,-1,-1,10,65,-9999,1425085696.42704,-34.37318420410156,-20.4903564453125,-6.096351623535156,122.0634536743164,108.2901992797852,10,137340.651167875,-0.404083251953125,-0.6420440673828125,-0.6858978271484375,137340.6219653334,-2.415271925285791,-1.024610483043309,2.627074724676446,137340.6219653334,3.000600515721386,-0.7942372031753523,0.5086163482755102,-2.416316270828247,-1.016867637634277,2.663808822631836,0.5533179640769958,-0.6224973201751709,-0.08598731458187103,XTrueNorthZVertical,0.3897352130797702,0.2050553375134271,0.8834492570271743,0.1599255471209018,-0.6230353713035583,-0.4869692027568817,-0.6121175289154053,-31.66559028625488,-20.37795066833496,-8.610480308532715,2,10.3.35.51,10.83.46.32,1,0
2015-02-27 17:08:16.471,143,1425085690.277788,37.78753887505528,-122.3960089024766,12.60079,-1,-1,10,65,-9999,1425085696.42704,-34.37318420410156,-20.4903564453125,-6.096351623535156,122.0634536743164,108.2901992797852,10,137340.7001980833,-0.6464080810546875,-0.421173095703125,-0.887603759765625,137340.6737500833,-3.107891681575385,-1.222858591433788,2.744634378359705,137340.6737500833,2.999522251465032,-0.8789124469832585,0.3077987064353828,-3.108935832977295,-1.215115666389465,2.781368017196655,0.05860830098390579,-0.3023393750190735,0.1266515254974365,XTrueNorthZVertical,0.429204949215179,0.1085378786347056,0.8874028023759496,0.1285258920484482,-0.7338554859161377,-0.302961528301239,-0.6080052852630615,-34.59262847900391,-15.03470420837402,-8.331771850585938,2,10.3.35.51,10.83.46.32,1,0
2015-02-27 17:08:16.555,144,1425085690.277788,37.78753887505528,-122.3960089024766,12.60079,-1,-1,10,65,-9999,1425085696.50245,-39.65924072265625,-11.110107421875,-7.227973937988281,114.1045684814453,100.3313140869141,10,137340.7492097917,-1.829544067382812,0.0051422119140625,0.085418701171875,137340.725534875,-1.994698601721643,-2.388348698245635,1.877893155259095,137340.725534875,2.952118934075327,-0.9432873859135901,0.1323199763734494,-1.995741128921509,-2.380605220794678,1.914623737335205,-0.5254034399986267,-0.1105890050530434,-0.1376831084489822,XTrueNorthZVertical,0.4568952592517553,0.01574432823345635,0.8820464422221322,0.1139864469394998,-0.8024163842201233,-0.1319341957569122,-0.5819976925849915,-36.44720077514648,-9.856991767883301,-8.157947540283203,2,10.3.35.51,10.83.46.32,1,0
2015-02-27 17:08:16.569,145,1425085690.277788,37.78753887505528,-122.3960089024766,12.60079,-1,-1,10,65,-9999,1425085696.55352,-41.8248291015625,-5.7232666015625,-6.911781311035156,112.5596618652344,98.78640747070312,10,137340.7982201667,-1.294677734375,0.3553314208984375,-0.6921844482421875,137340.777321,-0.9867464576128891,0.6558468279577807,1.700154050423315,137340.725534875,2.952118934075327,-0.9432873859135901,0.1323199763734494,-1.995741128921509,-2.380605220794678,1.914623737335205,-0.5254034399986267,-0.1105890050530434,-0.1376831084489822,XTrueNorthZVertical,0.4568952592517553,0.01574432823345635,0.8820464422221322,0.1139864469394998,-0.8024163842201233,-0.1319341957569122,-0.5819976925849915,-36.44720077514648,-9.856991767883301,-8.157947540283203,2,10.3.35.51,10.83.46.32,1,0
2015-02-27 17:08:16.643,146,1425085690.277788,37.78753887505528,-122.3960089024766,12.60079,-1,-1,10,65,-9999,1425085696.605734,-42.77972412109375,-1.882781982421875,-6.445816040039062,109.3739471435547,95.60069274902344,10,137340.8472639167,-1.281768798828125,0.3929595947265625,-1.031112670898438,137340.829105875,-0.1108998867452976,-0.2486249962026365,0.9336680591909559,137340.829105875,2.966254171933426,-0.9742315860273445,-0.04564366207395022,-0.1119424030184746,-0.2408817261457443,0.97039794921875,-0.1778178513050079,-0.003345710691064596,-0.4089502692222595,XTrueNorthZVertical,0.4643943906663907,-0.06106107009641454,0.8809987865334873,0.06671230683809121,-0.826408863067627,0.04562781378626823,-0.561218798160553,-38.03380966186523,-2.254246234893799,-6.360684394836426,2,10.3.35.51,10.83.46.32,1,0
2015-02-27 17:08:16.668,147,1425085690.277788,37.78753887505528,-122.3960089024766,12.60079,-1,-1,10,65,-9999,1425085696.658114,-43.30834197998047,0.479278564453125,-6.229476928710938,106.4138336181641,92.64057922363281,10,137340.896330875,-0.9302520751953125,0,-0.6929473876953125,137340.880890375,-0.01333604547468079,0.08627523404198899,-0.8669638633677411,137340.880890375,2.968224180932389,-0.9864330031997176,-0.04808894751477844,-0.01437854766845703,0.09401842951774597,-0.8302343487739563,-0.4992981851100922,0.07902003824710846,-0.2517494559288025,XTrueNorthZVertical,0.4697140271292879,-0.06207558675963254,0.8782391563540167,0.06489481191808305,-0.8330992460250854,0.04807041585445404,-0.551030695438385,-38.16151809692383,-1.087979555130005,-5.884353637695312,2,10.3.35.51,10.83.46.32,1,0
2015-02-27 17:08:16.748,148,1425085690.277788,37.78753887505528,-122.3960089024766,12.60079,-1,-1,10,65,-9999,1425085696.709239,-43.20603179931641,0.173431396484375,-5.264259338378906,106.1776428222656,92.40438842773438,10,137340.9453149583,-1.406143188476562,0.2699432373046875,-0.4838104248046875,137340.9326765417,0.8588726473438624,-0.5700128797084179,-1.069692740292279,137340.9326765417,2.955889724217301,-1.001298419775387,0.003358741129009512,0.857862651348114,-0.5623839497566223,-1.033036708831787,-0.2711142003536224,0.223253145813942,0.04195280745625496,XTrueNorthZVertical,0.4780634694852265,-0.04303726314348629,0.8734162230632482,0.08214141790632402,-0.8421670794487,-0.003358734771609306,-0.5392062067985535,-38.11216735839844,-3.093842029571533,-5.477376937866211,2,10.3.35.51,10.83.46.32,1,0
