loggingTime,loggingSample,locationTimestamp_since1970,locationLatitude,locationLongitude,locationAltitude,locationSpeed,locationCourse,locationVerticalAccuracy,locationHorizontalAccuracy,locationFloor,locationHeadingTimestamp_since1970,locationHeadingX,locationHeadingY,locationHeadingZ,locationTrueHeading,locationMagneticHeading,locationHeadingAccuracy,accelerometerTimestamp_sinceReboot,accelerometerAccelerationX,accelerometerAccelerationY,accelerometerAccelerationZ,gyroTimestamp_sinceReboot,gyroRotationX,gyroRotationY,gyroRotationZ,motionTimestamp_sinceReboot,motionYaw,motionRoll,motionPitch,motionRotationRateX,motionRotationRateY,motionRotationRateZ,motionUserAccelerationX,motionUserAccelerationY,motionUserAccelerationZ,motionAttitudeReferenceFrame,motionQuaternionX,motionQuaternionY,motionQuaternionZ,motionQuaternionW,motionGravityX,motionGravityY,motionGravityZ,motionMagneticFieldX,motionMagneticFieldY,motionMagneticFieldZ,motionMagneticFieldCalibrationAccuracy,IP_en0,IP_pdp_ip0,deviceOrientation,state
2015-03-03 20:01:08.569,1,1425441668.075861,37.77939471885355,-122.4388965872325,61.55283,0.62,159.9609375,4,50,-9999,1425441668.166201,40.04299163818359,-20.24920654296875,-11.86188507080078,252.0456085205078,238.2686767578125,10,229034.15768,0.69244384765625,-0.2287445068359375,-0.73486328125,229034.1433269584,-0.4168472948830176,0.4832854409133334,0.01056502636045335,229034.0915422083,0.6663464956556574,0.7199259981411219,0.2651090017405234,-0.2549334466457367,0.07471229881048203,0.05640892311930656,-0.02640089020133018,0.01503570377826691,0.01794610172510147,XTrueNorthZVertical,-0.002706881257594588,-0.3704035926915101,-0.3473923191829196,-0.8614595016115314,0.6362946629524231,-0.2620144486427307,-0.7255877256393433,40.61679077148438,-19.08312606811523,-10.99575805664062,2,192.168.1.8,10.83.46.32,4,0
2015-03-03 20:01:08.613,2,1425441668.075861,37.77939471885355,-122.4388965872325,61.55283,0.62,159.9609375,4,50,-9999,1425441668.217656,40.09413528442383,-20.09632873535156,-11.47897338867188,252.2958831787109,238.5189514160156,10,229034.2067835,0.575347900390625,-0.1923675537109375,-0.6410064697265625,229034.195110375,0.006066414647091497,-0.1910591713439197,-0.02943778374140887,229034.195110375,0.6883333449586939,0.7299890670455723,0.2481201799299709,0.005755320191383362,-0.1824549585580826,0.007389408070594072,-0.02873308770358562,0.05025438219308853,0.09151697903871536,XTrueNorthZVertical,0.01069964493060096,-0.3724311595717604,-0.3543419642035896,-0.857684304631799,0.6464393734931946,-0.2455821484327316,-0.7223610877990723,40.68815994262695,-18.95029830932617,-10.96157646179199,2,192.168.1.8,10.83.46.32,4,0
2015-03-03 20:01:08.615,3,1425441668.075861,37.77939471885355,-122.4388965872325,61.55283,0.62,159.9609375,4,50,-9999,1425441668.217656,40.09413528442383,-20.09632873535156,-11.47897338867188,252.2958831787109,238.5189514160156,10,229034.2558558334,0.669281005859375,-0.248870849609375,-0.67535400390625,229034.2468937917,0.1925601289342883,0.2283847056019252,-0.1431110864459151,229034.195110375,0.6883333449586939,0.7299890670455723,0.2481201799299709,0.005755320191383362,-0.1824549585580826,0.007389408070594072,-0.02873308770358562,0.05025438219308853,0.09151697903871536,XTrueNorthZVertical,0.01069964493060096,-0.3724311595717604,-0.3543419642035896,-0.857684304631799,0.6464393734931946,-0.2455821484327316,-0.7223610877990723,40.68815994262695,-18.95029830932617,-10.96157646179199,2,192.168.1.8,10.83.46.32,4,0
2015-03-03 20:01:08.618,4,1425441668.075861,37.77939471885355,-122.4388965872325,61.55283,0.62,159.9609375,4,50,-9999,1425441668.269566,40.07708740234375,-19.63766479492188,-11.26255035400391,253.2162017822266,239.4392700195312,10,229034.3048910417,0.6153717041015625,-0.2315673828125,-0.7298583984375,229034.298678375,0.09073443097121767,0.01413366222115952,-0.1020464740174382,229034.2468937917,0.6822222553400709,0.7321750013588928,0.2505015528770557,0.1922490298748016,0.2369888126850128,-0.1062842905521393,-0.04076679050922394,0.02878893725574017,0.04689480736851692,XTrueNorthZVertical,0.008888702037735369,-0.373719595471391,-0.3520612673713316,-0.8580836579160993,0.6476240754127502,-0.2478898912668228,-0.7205092906951904,40.64641571044922,-18.94807052612305,-11.11916923522949,2,192.168.1.8,10.83.46.32,4,0
2015-03-03 20:01:08.621,5,1425441668.075861,37.77939471885355,-122.4388965872325,61.55283,0.62,159.9609375,4,50,-9999,1425441668.269566,40.07708740234375,-19.63766479492188,-11.26255035400391,253.2162017822266,239.4392700195312,10,229034.353943,0.6573333740234375,-0.2474212646484375,-0.6929931640625,229034.3504618334,-0.01765782329166138,-0.1340853671955275,-0.09566367583284532,229034.298678375,0.6729431571775677,0.7421802223562559,0.2536235225246782,0.0904233455657959,0.02273768745362759,-0.06522005796432495,-0.02918258868157864,0.02441173791885376,-0.02179434336721897,XTrueNorthZVertical,0.007510156267917168,-0.3784622211318399,-0.3485059347174758,-0.857469301622211,0.6542741656303406,-0.2509132027626038,-0.7134199142456055,40.88530731201172,-18.81460380554199,-10.44982528686523,2,192.168.1.8,10.83.46.32,4,0
2015-03-03 20:01:08.624,6,1425441668.075861,37.77939471885355,-122.4388965872325,61.55283,0.62,159.9609375,4,50,-9999,1425441668.269566,40.07708740234375,-19.63766479492188,-11.26255035400391,253.2162017822266,239.4392700195312,10,229034.4029959583,0.62353515625,-0.202484130859375,-0.6917877197265625,229034.4022452084,0.009335178569054754,0.0704624487535345,-0.09475979895887243,229034.3504618334,0.669411235443951,0.7410711103041706,0.252172117119101,-0.01796890795230865,-0.1254814267158508,-0.05883758515119553,0.02295388281345367,-0.0146827083081007,0.004619940649718046,XTrueNorthZVertical,0.007294067242785217,-0.3778098474954582,-0.3467766758392101,-0.8584593746016304,0.653727650642395,-0.2495079636573792,-0.714413046836853,40.93904113769531,-18.70084381103516,-10.44363784790039,2,192.168.1.8,10.83.46.32,4,0
2015-03-03 20:01:08.668,7,1425441668.075861,37.77939471885355,-122.4388965872325,61.55283,0.62,159.9609375,4,50,-9999,1425441668.373135,40.26461029052734,-19.82453918457031,-11.34577941894531,253.1156921386719,239.3387603759766,10,229034.4519325,0.64501953125,-0.2302398681640625,-0.7218017578125,229034.4022452084,0.009335178569054754,0.0704624487535345,-0.09475979895887243,229034.4022452084,0.6672776982477615,0.7402781023337035,0.2499852548460891,0.009024097584187984,0.07906631380319595,-0.05793407931923866,-0.04729567468166351,0.05448806285858154,0.03486664593219757,XTrueNorthZVertical,0.007725699793575465,-0.3771924467149679,-0.3455344145493604,-0.8592276677894546,0.6535273790359497,-0.2473896741867065,-0.7153323292732239,40.93533325195312,-18.63018608093262,-10.58351516723633,2,192.168.1.8,10.83.46.32,4,0
2015-03-03 20:01:08.671,8,1425441668.075861,37.77939471885355,-122.4388965872325,61.55283,0.62,159.9609375,4,50,-9999,1425441668.373135,40.26461029052734,-19.82453918457031,-11.34577941894531,253.1156921386719,239.3387603759766,10,229034.5010484167,0.6372528076171875,-0.22869873046875,-0.693603515625,229034.5058132917,-0.03205806793793784,0.01768259068979912,-0.02852298790696666,229034.4540297917,0.6658328149604849,0.7443111550021009,0.2497421414200341,-0.006622770335525274,0.03023422881960869,-0.02609319984912872,-0.01142820809036493,0.0169142410159111,-0.009066716767847538,XTrueNorthZVertical,0.008256694042796985,-0.3788988079272961,-0.3448610144581347,-0.8587423630464859,0.6564477682113647,-0.247154101729393,-0.7127350568771362,41.03599548339844,-18.5151481628418,-10.39388084411621,2,192.168.1.8,10.83.46.32,4,0
2015-03-03 20:01:08.675,9,1425441668.075861,37.77939471885355,-122.4388965872325,61.55283,0.62,159.9609375,4,50,-9999,1425441668.424711,40.09413146972656,-20.23226928710938,-11.51226806640625,252.1865997314453,238.40966796875,10,229034.54996175,0.630401611328125,-0.2069244384765625,-0.6828765869140625,229034.5058132917,-0.03205806793793784,0.01768259068979912,-0.02852298790696666,229034.5058132917,0.6667820682374714,0.7448046171039304,0.2481268257114111,-0.03248865157365799,0.0262896940112114,0.008378542959690094,-0.0198163129389286,0.01688985340297222,0.01910009980201721,XTrueNorthZVertical,0.009239031091502587,-0.3788968625323826,-0.3450214885387203,-0.8586687518147682,0.6570691466331482,-0.2455885857343674,-0.7127036452293396,41.05003356933594,-18.48726272583008,-10.38807487487793,2,192.168.1.8,10.83.46.32,4,0
2015-03-03 20:01:08.678,10,1425441668.075861,37.77939471885355,-122.4388965872325,61.55283,0.62,159.9609375,4,50,-9999,1425441668.424711,40.09413146972656,-20.23226928710938,-11.51226806640625,252.1865997314453,238.40966796875,10,229034.599007125,0.67083740234375,-0.2157440185546875,-0.6941375732421875,229034.5575965,-0.02168532180818821,0.130069053955579,-0.01425403710243111,229034.5575965,0.667821772756633,0.7475344292596076,0.2458604973823097,-0.02212232910096645,0.1386750340461731,0.02264109626412392,-0.02898729778826237,0.03646659851074219,0.0284370556473732,XTrueNorthZVertical,0.01091329826098471,-0.3797684543799598,-0.3451092939422997,-0.8582286648921542,0.6593888998031616,-0.2433910369873047,-0.7113136649131775,41.05953216552734,-18.47301864624023,-10.37587547302246,2,192.168.1.8,10.83.46.32,4,0
2015-03-03 20:01:08.680,11,1425441668.075861,37.77939471885355,-122.4388965872325,61.55283,0.62,159.9609375,4,50,-9999,1425441668.479253,40.17937088012695,-19.73963928222656,-11.22924041748047,252.8112640380859,239.0343322753906,10,229034.64803875,0.665283203125,-0.2282867431640625,-0.6855316162109375,229034.609381125,0.00284372341198661,0.1348217312369344,-0.02175696084151135,229034.609381125,0.6684635976927719,0.7563571444527253,0.2417184453565204,0.002395540475845337,0.1434349566698074,0.01512534450739622,0.004481853917241096,0.03432385995984077,0.009799765422940254,XTrueNorthZVertical,0.01439386103346181,-0.3830078291360638,-0.34469241746996,-0.85690431318365,0.6663250327110291,-0.2393714636564255,-0.7061956524848938,41.21147155761719,-18.32120704650879,-10.03714752197266,2,192.168.1.8,10.83.46.32,4,0
2015-03-03 20:01:08.692,12,1425441668.075861,37.77939471885355,-122.4388965872325,61.55283,0.62,159.9609375,4,50,-9999,1425441668.657366,40.40098571777344,-19.58673095703125,-10.97953033447266,252.9060211181641,239.1290893554688,10,229034.6971416667,0.6575164794921875,-0.21624755859375,-0.6803131103515625,229034.6611645,-0.002627474731472177,0.2257700140436854,-0.02281982843256197,229034.6611645,0.6691590437264685,0.7685834016944287,0.2395593777948951,-0.003083813935518265,0.2343854010105133,0.01405354775488377,-0.001072485581971705,0.008118116296827793,0.004594950005412102,XTrueNorthZVertical,0.01759014548747572,-0.387952871614943,-0.3445550424856182,-0.8546724658687572,0.6752668023109436,-0.2372746169567108,-0.6983662843704224,41.34988403320312,-18.22531127929688,-9.634387969970703,2,192.168.1.8,10.83.46.32,4,0
2015-03-03 20:01:08.739,13,1425441668.075861,37.77939471885355,-122.4388965872325,61.55283,0.62,159.9609375,4,50,-9999,1425441668.710115,40.82717132568359,-19.77360534667969,-10.82969665527344,252.6360321044922,238.8591003417969,10,229034.746221625,0.66009521484375,-0.2463226318359375,-0.67041015625,229034.7129480834,0.01994308182305838,0.1483143705837119,-0.04169977634846071,229034.7129480834,0.6693761471124521,0.7755872160963213,0.2393905836679384,0.01948203332722187,0.156924232840538,-0.004830746911466122,-0.02327860891819,0.01706363633275032,0.01449492294341326,XTrueNorthZVertical,0.01891359121221586,-0.3909195482219144,-0.3445570947006453,-0.8532904759845151,0.6801694631576538,-0.2371106296777725,-0.6936483383178711,41.39989471435547,-18.23123931884766,-9.405698776245117,2,192.168.1.8,10.83.46.32,4,0
2015-03-03 20:01:08.790,14,1425441668.075861,37.77939471885355,-122.4388965872325,61.55283,0.62,159.9609375,4,50,-9999,1425441668.761014,41.09992980957031,-19.73963928222656,-10.59661865234375,253.1347045898438,239.3577728271484,10,229034.795160375,0.72216796875,-0.2131805419921875,-0.674530029296875,229034.7647325417,-0.0124556044183006,0.2259111615814596,-0.02647528334480473,229034.7647325417,0.6688741048621764,0.7851662587096433,0.2404921356709787,-0.01291399076581001,0.2345203310251236,0.01039611082524061,-0.04185272380709648,-0.002145300153642893,0.02148032933473587,XTrueNorthZVertical,0.01997897328099987,-0.3951490607179733,-0.3444264414155394,-0.8513686228204362,0.6865975856781006,-0.2381806224584579,-0.6869161128997803,41.50890350341797,-18.24755096435547,-8.878866195678711,2,192.168.1.8,10.83.46.32,4,0
2015-03-03 20:01:08.838,15,1425441668.075861,37.77939471885355,-122.4388965872325,61.55283,0.62,159.9609375,4,50,-9999,1425441668.813068,41.16812133789062,-19.84156799316406,-9.764205932617188,253.10498046875,239.3280487060547,10,229034.8441965833,0.625457763671875,-0.2261962890625,-0.6287384033203125,229034.8165160833,0.01193788590238919,0.05149621441831719,-0.04535709547346653,229034.8165160833,0.6683404985764226,0.7923708168288245,0.2378322763798187,0.01147504150867462,0.06009974330663681,-0.008489590138196945,0.006264888215810061,0.02569657564163208,0.0186825804412365,XTrueNorthZVertical,0.02228416323780488,-0.397877307743655,-0.343692094062565,-0.8503369059139668,0.691977322101593,-0.2355964779853821,-0.6823941469192505,41.61308288574219,-18.14696502685547,-8.592752456665039,2,192.168.1.8,10.83.46.32,4,0
2015-03-03 20:01:08.888,16,1425441668.075861,37.77939471885355,-122.4388965872325,61.55283,0.62,159.9609375,4,50,-9999,1425441668.864908,41.08288192749023,-19.8245849609375,-9.148223876953125,252.5070953369141,238.7301635742188,10,229034.8932577917,0.5460662841796875,-0.250274658203125,-0.5686187744140625,229034.868299375,0.05274390538901931,0.4198801027323999,0.08838525657365877,229034.868299375,0.6684886661154419,0.802073081537328,0.2409641406615823,0.05228036642074585,0.4284846782684326,0.1252515763044357,-0.1155120655894279,0.009879256598651409,0.06630640476942062,XTrueNorthZVertical,0.02260486863277139,-0.4023965424466338,-0.3441596566418321,-0.8480095626290214,0.6980316042900085,-0.2386390268802643,-0.6751320958137512,41.6356086730957,-18.14677429199219,-8.483327865600586,2,192.168.1.8,10.83.46.32,4,0
2015-03-03 20:01:08.969,17,1425441668.075861,37.77939471885355,-122.4388965872325,61.55283,0.62,159.9609375,4,50,-9999,1425441668.917048,41.52611541748047,-20.06240844726562,-7.816360473632812,252.5547790527344,238.7778472900391,10,229034.942282625,0.5987548828125,-0.245086669921875,-0.55792236328125,229034.920084125,0.0179238730845603,1.516496070064835,0.3457715201304379,229034.920084125,0.675861087218529,0.8503386340293321,0.2527922256486083,0.01746033877134323,1.525100588798523,0.3826375007629395,-0.1913187950849533,-0.01310569792985916,0.08671337366104126,XTrueNorthZVertical,0.02731740979414685,-0.424114614640717,-0.3486648696890802,-0.8353522648823009,0.727619469165802,-0.2501084208488464,-0.6387611031532288,41.75047302246094,-18.76136589050293,-6.301227569580078,2,192.168.1.8,10.83.46.32,4,0
2015-03-03 20:01:08.987,18,1425441668.075861,37.77939471885355,-122.4388965872325,61.55283,0.62,159.9609375,4,50,-9999,1425441668.969489,41.91820526123047,-20.52107238769531,-5.102706909179688,251.9346923828125,238.1577606201172,10,229034.9914639583,0.773223876953125,-0.2615509033203125,-0.5177459716796875,229034.971867375,-0.229319741460652,2.611555952372337,0.6647391228375553,229034.971867375,0.6974660303460558,0.9543934900266233,0.2710342347192196,-0.2297832667827606,2.620160341262817,0.7016047239303589,-0.06803650408983231,0.02322122268378735,0.0169454887509346,XTrueNorthZVertical,0.04271814635068028,-0.4686952688632395,-0.3590672555532066,-0.8059594629608017,0.7861761450767517,-0.2677280604839325,-0.5569998025894165,41.72504043579102,-19.68157196044922,-2.540287017822266,2,192.168.1.8,10.83.46.32,4,0
2015-03-03 20:01:09.025,19,1425441668.075861,37.77939471885355,-122.4388965872325,61.55283,0.62,159.9609375,4,50,-9999,1425441668.969489,41.91820526123047,-20.52107238769531,-5.102706909179688,251.9346923828125,238.1577606201172,10,229035.0403573333,0.9013214111328125,-0.2843475341796875,-0.4243316650390625,229035.0236509583,-0.5065806436004745,2.175556268193905,0.8022344014928202,229035.0236509583,0.7392222659034481,1.070388615888689,0.2940853233473236,-0.5070441961288452,2.184160470962524,0.839099645614624,0.0648985281586647,0.005547547247260809,-0.02369453944265842,XTrueNorthZVertical,0.06473819138982161,-0.5159616433076462,-0.3770622282499246,-0.7664311255860164,0.839718759059906,-0.28986456990242,-0.4591850936412811,41.34529876708984,-20.61584854125977,0.5913219451904297,2,192.168.1.8,10.83.46.32,4,0
2015-03-03 20:01:09.085,20,1425441668.075861,37.77939471885355,-122.4388965872325,61.55283,0.62,159.9609375,4,50,-9999,1425441669.022709,41.90115737915039,-21.93106079101562,-0.9906082153320312,248.0561676025391,234.2792358398438,10,229035.0894177083,0.8650970458984375,-0.3489227294921875,-0.2464599609375,229035.0754354167,-0.3593294069239223,1.60562328331819,0.901982301173411,229035.0754354167,0.7792861504804077,1.146809142776744,0.326045967176619,-0.3597929179668427,1.614227533340454,0.9388471841812134,-0.005206367000937462,-0.01461533829569817,0.1012869849801064,XTrueNorthZVertical,0.07721555173058248,-0.5469696713957799,-0.3963206810834037,-0.7333429620025818,0.8634369373321533,-0.3202998340129852,-0.3897238671779633,39.37386703491211,-23.38859367370605,6.121171951293945,2,192.168.1.8,10.83.46.32,4,0
2015-03-03 20:01:09.124,21,1425441669.091933,37.77940842326524,-122.4389262591698,61.74942,0.66,159.9609375,4,50,-9999,1425441669.097317,40.06003952026367,-24.8189697265625,4.103736877441406,240.9094848632812,227.1325531005859,10,229035.1384459167,0.864013671875,-0.3454437255859375,-0.17236328125,229035.1272189167,-0.5487544626229693,2.052129404313093,0.8922734811034182,229035.0754354167,0.7792861504804077,1.146809142776744,0.326045967176619,-0.3597929179668427,1.614227533340454,0.9388471841812134,-0.005206367000937462,-0.01461533829569817,0.1012869849801064,XTrueNorthZVertical,0.07721555173058248,-0.5469696713957799,-0.3963206810834037,-0.7333429620025818,0.8634369373321533,-0.3202998340129852,-0.3897238671779633,39.37386703491211,-23.38859367370605,6.121171951293945,2,192.168.1.8,10.83.46.32,4,0
2015-03-03 20:01:09.183,22,1425441669.091933,37.77940842326524,-122.4389262591698,61.74942,0.66,159.9609375,4,50,-9999,1425441669.149251,37.84387969970703,-26.51773071289062,6.700851440429688,236.2511596679688,222.4742279052734,10,229035.1876110417,0.9918365478515625,-0.47271728515625,-0.1378173828125,229035.17900225,-0.5225438974905184,1.793460828691441,0.9917204435808301,229035.17900225,0.8657133717709982,1.307770494918932,0.4018998444541594,-0.5230073928833008,1.802064895629883,1.028584599494934,0.07129333168268204,-0.05803598091006279,0.07409465312957764,XTrueNorthZVertical,0.1061997764135179,-0.6075182758130312,-0.43645554771772,-0.6550952235654784,0.8886675834655762,-0.3911675214767456,-0.2392863035202026,36.33103561401367,-26.47537994384766,10.67270278930664,2,192.168.1.8,10.83.46.32,4,0
2015-03-03 20:01:09.222,23,1425441669.091933,37.77940842326524,-122.4389262591698,61.74942,0.66,159.9609375,4,50,-9999,1425441669.203117,35.55952453613281,-28.69218444824219,9.597633361816406,229.9110260009766,216.1340942382812,10,229035.2365266667,0.99932861328125,-0.4813232421875,-0.207672119140625,229035.17900225,-0.5225438974905184,1.793460828691441,0.9917204435808301,229035.17900225,0.8657133717709982,1.307770494918932,0.4018998444541594,-0.5230073928833008,1.802064895629883,1.028584599494934,0.07129333168268204,-0.05803598091006279,0.07409465312957764,XTrueNorthZVertical,0.1061997764135179,-0.6075182758130312,-0.43645554771772,-0.6550952235654784,0.8886675834655762,-0.3911675214767456,-0.2392863035202026,36.33103561401367,-26.47537994384766,10.67270278930664,2,192.168.1.8,10.83.46.32,4,0
2015-03-03 20:01:09.281,24,1425441669.091933,37.77940842326524,-122.4389262591698,61.74942,0.66,159.9609375,4,50,-9999,1425441669.256202,32.91717910766602,-30.30601501464844,10.87953948974609,223.9076385498047,210.1307067871094,10,229035.2855911667,1.01165771484375,-0.568572998046875,-0.1587066650390625,229035.2825702083,-0.9919689165105345,0.2146230869850498,0.7743228753721357,229035.230787,0.9156875574166599,1.36694687112225,0.4452437599760412,-0.8236822485923767,1.163822054862976,1.014655828475952,0.1325842291116714,-0.04191732779145241,-0.0288745891302824,XTrueNorthZVertical,0.118676377828206,-0.6281433172110229,-0.4593388069874236,-0.6167331641910291,0.8838189840316772,-0.4306778907775879,-0.1827037781476974,32.54776763916016,-29.72936058044434,13.84212017059326,2,192.168.1.8,10.83.46.32,4,0
2015-03-03 20:01:09.320,25,1425441669.091933,37.77940842326524,-122.4389262591698,61.74942,0.66,159.9609375,4,50,-9999,1425441669.256202,32.91717910766602,-30.30601501464844,10.87953948974609,223.9076385498047,210.1307067871094,10,229035.334599875,0.899749755859375,-0.50067138671875,-0.188507080078125,229035.3343537917,-1.125846557141036,-0.2145178921219917,0.468585590644423,229035.2825702083,0.9752060237111959,1.369805098279132,0.4787337280659485,-0.9924324154853821,0.2232269942760468,0.8111862540245056,0.09038697928190231,-0.1016917824745178,0.008572015911340714,XTrueNorthZVertical,0.1257073347335056,-0.6289667869722818,-0.4850081093548085,-0.5944456457650574,0.8697112798690796,-0.4606556296348572,-0.1771968901157379,30.85747528076172,-31.56016540527344,13.65901660919189,2,192.168.1.8,10.83.46.32,4,0
2015-03-03 20:01:09.381,26,1425441669.091933,37.77940842326524,-122.4389262591698,61.74942,0.66,159.9609375,4,50,-9999,1425441669.330761,30.70101737976074,-33.2279052734375,10.71305084228516,217.7776031494141,204.0006713867188,10,229035.383651375,0.9299468994140625,-0.550506591796875,-0.217010498046875,229035.3861384167,-1.107185521066742,-0.4618070467218444,0.385500823588349,229035.3343537917,1.042807687236374,1.338778848019633,0.5039236084788117,-1.126309990882874,-0.2059140652418137,0.5054486393928528,0.07812881469726562,-0.008132184855639935,0.002399140270426869,XTrueNorthZVertical,0.1297883489357892,-0.6184462297430351,-0.5124147046401173,-0.5814726656470858,0.8522300720214844,-0.4828651249408722,-0.2013584971427917,29.98618316650391,-32.71609115600586,12.85622596740723,2,192.168.1.8,10.83.46.32,4,0
2015-03-03 20:01:09.418,27,1425441669.091933,37.77940842326524,-122.4389262591698,61.74942,0.66,159.9609375,4,50,-9999,1425441669.382682,30.18959426879883,-34.92669677734375,9.148124694824219,214.9431610107422,201.1662292480469,10,229035.4327757917,0.823883056640625,-0.4741973876953125,-0.2046661376953125,229035.3861384167,-1.107185521066742,-0.4618070467218444,0.385500823588349,229035.3861384167,1.111847520983721,1.288096997126283,0.5079555155971125,-1.107648968696594,-0.4532033205032349,0.4223634600639343,0.09088840335607529,-0.06411467492580414,0.02671848610043526,XTrueNorthZVertical,0.1360369307088213,-0.5996911383538354,-0.536616973249444,-0.577846658822917,0.839058518409729,-0.4863919019699097,-0.24372898042202,28.89910125732422,-34.77474212646484,9.505574226379395,2,192.168.1.8,10.83.46.32,4,0
2015-03-03 20:01:09.477,28,1425441669.091933,37.77940842326524,-122.4389262591698,61.74942,0.66,159.9609375,4,50,-9999,1425441669.434501,29.83160018920898,-35.75909423828125,6.96722412109375,212.7393951416016,198.9624633789062,10,229035.4817245417,0.7723236083984375,-0.4774627685546875,-0.2424163818359375,229035.4897052083,-1.162749980366264,-0.04437385639900927,0.06681365174401693,229035.437921625,1.179773169516386,1.229310047940574,0.5074985571232615,-1.146462202072144,-0.3380818963050842,0.3657048642635345,0.0003844925959128886,0.01179521344602108,0.08801349997520447,XTrueNorthZVertical,0.1400844641344587,-0.5779589295015947,-0.5602031832150769,-0.5766387580298658,0.823498547077179,-0.4859926104545593,-0.292679637670517,28.52531051635742,-35.66292572021484,7.018454551696777,2,192.168.1.8,10.83.46.32,4,0
2015-03-03 20:01:09.516,29,1425441669.091933,37.77940842326524,-122.4389262591698,61.74942,0.66,159.9609375,4,50,-9999,1425441669.48928,29.45655632019043,-36.81234741210938,4.103729248046875,209.9609375,196.1840057373047,10,229035.5307599167,0.9622802734375,-0.522369384765625,-0.327484130859375,229035.4897052083,-1.162749980366264,-0.04437385639900927,0.06681365174401693,229035.4897052083,1.246114024534452,1.185970590386341,0.5003918810390112,-1.163213491439819,-0.03577028587460518,0.1036755815148354,-0.0409017875790596,0.002306641079485416,0.0869554877281189,XTrueNorthZVertical,0.1491977927731562,-0.5595123636111154,-0.5811989263336108,-0.5717462607272382,0.8132253885269165,-0.4797694087028503,-0.3293718695640564,28.18989562988281,-36.18937683105469,5.518645286560059,2,192.168.1.8,10.83.46.32,4,0
2015-03-03 20:01:09.576,30,1425441669.091933,37.77940842326524,-122.4389262591698,61.74942,0.66,159.9609375,4,50,-9999,1425441669.564627,29.13265609741211,-37.27101135253906,1.190284729003906,206.1154937744141,192.3385620117188,10,229035.5798083333,0.8249969482421875,-0.4380340576171875,-0.3604888916015625,229035.541489625,-0.8775856150594132,0.3064334350366594,-0.05141978169503192,229035.541489625,1.302579816485141,1.173184513268072,0.4797984812378588,-0.8780891299247742,0.3150035738945007,-0.01445776037871838,0.156709298491478,-0.07573783397674561,0.001592369982972741,XTrueNorthZVertical,0.1685667088673897,-0.547573955173473,-0.5950132106560083,-0.5636553489953986,0.8178848028182983,-0.4616004228591919,-0.3434960544109344,27.93036460876465,-36.70999145507812,2.658531188964844,2,192.168.1.8,10.83.46.32,4,0
2015-03-03 20:01:09.614,31,1425441669.091933,37.77940842326524,-122.4389262591698,61.74942,0.66,159.9609375,4,50,-9999,1425441669.564627,29.13265609741211,-37.27101135253906,1.190284729003906,206.1154937744141,192.3385620117188,10,229035.6289479167,0.831390380859375,-0.4229888916015625,-0.316650390625,229035.59327325,-0.9953993343106655,-0.1731595330252791,-0.706973928249013,229035.59327325,1.342716884934833,1.154554923511073,0.4437518812735746,-0.9959028959274292,-0.1645894944667816,-0.6700122356414795,0.003206778550520539,-0.0009516127174720168,0.01438129786401987,XTrueNorthZVertical,0.1867779072041623,-0.5315366531262503,-0.6025031114773117,-0.5653077440234969,0.8260321021080017,-0.429330974817276,-0.3651655912399292,28.38214874267578,-36.43916320800781,1.198929786682129,2,192.168.1.8,10.83.46.32,4,0
2015-03-03 20:01:09.674,32,1425441669.091933,37.77940842326524,-122.4389262591698,61.74942,0.66,159.9609375,4,50,-9999,1425441669.617015,29.89978790283203,-36.50656127929688,-0.4911727905273438,205.7088775634766,191.9319458007812,10,229035.67788975,0.79132080078125,-0.35906982421875,-0.3489227294921875,229035.6450566667,-0.8094092237856028,-0.0796948293045122,-0.8980413553923118,229035.6450566667,1.369396280740858,1.133447803570649,0.3907278600663419,-0.8099127411842346,-0.07112486660480499,-0.8610800504684448,-0.01802367903292179,-0.02811980433762074,0.1046762764453888,XTrueNorthZVertical,0.206217413150162,-0.5115324788942286,-0.6041457471730527,-0.5751668129783695,0.837603747844696,-0.3808615207672119,-0.3916178047657013,29.138427734375,-35.85733413696289,-0.01601886749267578,2,192.168.1.8,10.83.46.32,4,0
2015-03-03 20:01:09.712,33,1425441669.091933,37.77940842326524,-122.4389262591698,61.74942,0.66,159.9609375,4,50,-9999,1425441669.670417,30.87149047851562,-35.53825378417969,-2.305831909179688,205.9486694335938,192.1717376708984,10,229035.7269985417,0.934051513671875,-0.3264617919921875,-0.3778076171875,229035.6968412084,-0.7435380647513649,0.360092136260121,-1.240752104481922,229035.6968412084,1.384196372252136,1.143230754870038,0.326259797483718,-0.7440416216850281,0.3686619997024536,-1.20379114151001,-0.04576661810278893,-0.02402581833302975,0.04447029903531075,XTrueNorthZVertical,0.2354911665817865,-0.4981491467621995,-0.5972250046612314,-0.582849617721787,0.8619744777679443,-0.320502370595932,-0.3927826881408691,31.60688018798828,-33.64733123779297,-1.912750244140625,2,192.168.1.8,10.83.46.32,4,0
2015-03-03 20:01:09.771,34,1425441669.091933,37.77940842326524,-122.4389262591698,61.74942,0.66,159.9609375,4,50,-9999,1425441669.745624,33.30926895141602,-32.97311401367188,-3.387969970703125,207.8474273681641,194.0704956054688,10,229035.775987375,0.890350341796875,-0.2392425537109375,-0.336822509765625,229035.7486245,-0.5378078052783076,0.4420027155915791,-1.400983055679302,229035.7486245,1.387403861893136,1.16537452928332,0.2561186856660592,-0.5383113622665405,0.4505724906921387,-1.364022612571716,0.02134792320430279,-0.06741198152303696,-0.01813238672912121,XTrueNorthZVertical,0.266964199413658,-0.4878110072257621,-0.5835420833994662,-0.5918185696576457,0.8889608979225159,-0.2533277571201324,-0.3815410733222961,33.46207427978516,-31.78347587585449,-2.212851524353027,2,192.168.1.8,10.83.46.32,4,0
2015-03-03 20:01:09.811,35,1425441669.091933,37.77940842326524,-122.4389262591698,61.74942,0.66,159.9609375,4,50,-9999,1425441669.797796,35.50838470458984,-30.17012023925781,-3.604393005371094,210.5824127197266,196.8054809570312,10,229035.8251269583,0.895355224609375,-0.175506591796875,-0.34808349609375,229035.8004080417,-0.4094903123716738,0.3379402286289509,-1.481764454708567,229035.8004080417,1.380980626672734,1.184094263892289,0.181267361201105,-0.4099938571453094,0.3465099036693573,-1.444804310798645,0.0126307737082243,-0.03266008570790291,0.0151068577542901,XTrueNorthZVertical,0.2960777133059028,-0.4762976473051486,-0.5652828306452683,-0.6049247104076666,0.9109837412834167,-0.1802763193845749,-0.37095707654953,34.78589248657227,-30.32464981079102,-2.270200729370117,2,192.168.1.8,10.83.46.32,4,0
2015-03-03 20:01:09.870,36,1425441669.091933,37.77940842326524,-122.4389262591698,61.74942,0.66,159.9609375,4,50,-9999,1425441669.849424,37.38359832763672,-27.79183959960938,-3.604400634765625,213.4489440917969,199.6720123291016,10,229035.8741837917,0.8711395263671875,-0.0909881591796875,-0.3230438232421875,229035.8521925,-0.4096501020370785,0.1676920633073464,-1.443216529510215,229035.8521925,1.371651968490377,1.198210856613444,0.1068874183558337,-0.4101536273956299,0.1762616783380508,-1.406256675720215,-0.06051903963088989,-0.03474971279501915,0.06507223844528198,XTrueNorthZVertical,0.3224770629405115,-0.4637185836758991,-0.5455801648265212,-0.6191251471291924,0.9260738492012024,-0.1066840067505836,-0.361947238445282,37.91741943359375,-26.2976016998291,-2.34560489654541,2,192.168.1.8,10.83.46.32,4,0
2015-03-03 20:01:09.908,37,1425441669.091933,37.77940842326524,-122.4389262591698,61.74942,0.66,159.9609375,4,50,-9999,1425441669.902507,39.12243270874023,-25.07380676269531,-3.57110595703125,216.6226806640625,202.8457489013672,10,229035.9232255833,0.8342437744140625,0.004150390625,-0.273773193359375,229035.903976125,-0.2982111914871488,0.2347523237683047,-1.297101131038581,229035.903976125,1.363641582891435,1.208855932803292,0.03909962147611813,-0.2987147271633148,0.2433218508958817,-1.260141730308533,-0.1121701002120972,0.01395843457430601,0.08546263724565506,XTrueNorthZVertical,0.3455843700836236,-0.4512892235526563,-0.5270786300382125,-0.6317417531279576,0.9344967603683472,-0.03908966109156609,-0.353818953037262,39.45748519897461,-23.91806411743164,-2.414433479309082,2,192.168.1.8,10.83.46.32,4,0
2015-03-03 20:01:09.971,38,1425441669.091933,37.77940842326524,-122.4389262591698,61.74942,0.66,159.9609375,4,50,-9999,1425441669.955518,40.84422302246094,-22.30479431152344,-3.787528991699219,219.5283355712891,205.7514038085938,10,229035.9721559584,0.87872314453125,0.0389862060546875,-0.229461669921875,229035.9557593334,-0.2389183066615156,0.3995034582838766,-1.092197783083994,229035.9557593334,1.357428721433595,1.226212942804745,-0.02105413146052093,-0.2394218295812607,0.4080729186534882,-1.055238723754883,-0.08384522050619125,-0.008769250474870205,0.07556846737861633,XTrueNorthZVertical,0.3679203188308108,-0.4424587860695348,-0.5087061368886689,-0.6403772114481544,0.941007673740387,0.02105257660150528,-0.3377297222614288,40.34402465820312,-22.40256690979004,-2.298083305358887,2,192.168.1.8,10.83.46.32,4,0
2015-03-03 20:01:10.007,39,1425441669.091933,37.77940842326524,-122.4389262591698,61.74942,0.66,159.9609375,4,50,-9999,1425441669.955518,40.84422302246094,-22.30479431152344,-3.787528991699219,219.5283355712891,205.7514038085938,10,229036.021194125,0.9340667724609375,0.0903778076171875,-0.2576751708984375,229036.007544125,-0.2741391447100316,0.5438529146366785,-1.004037829938556,229035.9557593334,1.357428721433595,1.226212942804745,-0.02105413146052093,-0.2394218295812607,0.4080729186534882,-1.055238723754883,-0.08384522050619125,-0.008769250474870205,0.07556846737861633,XTrueNorthZVertical,0.3679203188308108,-0.4424587860695348,-0.5087061368886689,-0.6403772114481544,0.941007673740387,0.02105257660150528,-0.3377297222614288,40.34402465820312,-22.40256690979004,-2.298083305358887,2,192.168.1.8,10.83.46.32,4,0
2015-03-03 20:01:10.075,40,1425441669.091933,37.77940842326524,-122.4389262591698,61.74942,0.66,159.9609375,4,50,-9999,1425441670.056534,43.02628707885742,-17.71807861328125,-2.688743591308594,224.0939483642578,210.3170166015625,10,229036.07023475,0.9376678466796875,0.163604736328125,-0.2096405029296875,229036.059327375,-0.08062720200214894,0.4360071410294837,-0.9551805418443979,229036.059327375,1.345863542957439,1.273061000478118,-0.1183199099831426,-0.08113071322441101,0.4445764124393463,-0.918222188949585,-0.01415389217436314,0.003949987236410379,0.06887752562761307,XTrueNorthZVertical,0.4070171015949471,-0.4343784420242036,-0.4728597737604349,-0.6496584698917603,0.9493193030357361,0.1180440336465836,-0.291304886341095,42.82255554199219,-17.34078407287598,-0.5678300857543945,2,192.168.1.8,10.83.46.32,4,0
2015-03-03 20:01:10.105,41,1425441670.092114,37.77941906828227,-122.4389524945267,61.96487,0.97,319.21875,4,50,-9999,1425441670.056534,43.02628707885742,-17.71807861328125,-2.688743591308594,224.0939483642578,210.3170166015625,10,229036.1192640834,0.9908294677734375,0.1399993896484375,-0.240509033203125,229036.1111107917,0.08536975927136205,0.8000114609309311,-0.9989173701106602,229036.059327375,1.345863542957439,1.273061000478118,-0.1183199099831426,-0.08113071322441101,0.4445764124393463,-0.918222188949585,-0.01415389217436314,0.003949987236410379,0.06887752562761307,XTrueNorthZVertical,0.4070171015949471,-0.4343784420242036,-0.4728597737604349,-0.6496584698917603,0.9493193030357361,0.1180440336465836,-0.291304886341095,42.82255554199219,-17.34078407287598,-0.5678300857543945,2,192.168.1.8,10.83.46.32,4,0
2015-03-03 20:01:10.170,42,1425441670.092114,37.77941906828227,-122.4389524945267,61.96487,0.97,319.21875,4,50,-9999,1425441670.109045,43.94684600830078,-15.71356201171875,-1.756454467773438,226.5253143310547,212.7483825683594,10,229036.168310125,0.9221343994140625,0.2072296142578125,-0.2055816650390625,229036.162895375,-0.06862939497523296,0.4652326708320133,-1.127189589278763,229036.1111107917,1.33332408044768,1.304118726403581,-0.1637452236548586,0.08486625552177429,0.8085806369781494,-0.9619593620300293,0.01594883948564529,-0.03206354007124901,0.004097761586308479,XTrueNorthZVertical,0.4250677267081504,-0.4351045520927955,-0.4508519792099077,-0.6532487997163113,0.9517483115196228,0.1630144715309143,-0.2600029110908508,43.28928756713867,-16.15030288696289,0.03925895690917969,2,192.168.1.8,10.83.46.32,4,0
2015-03-03 20:01:10.203,43,1425441670.092114,37.77941906828227,-122.4389524945267,61.96487,0.97,319.21875,4,50,-9999,1425441670.160824,44.42417144775391,-13.30130004882812,-0.4578857421875,229.3157958984375,215.5388641357422,10,229036.2173387917,0.9032440185546875,0.302337646484375,-0.1701202392578125,229036.214679,-0.3392696786451184,0.5347185384138157,-1.160260990011476,229036.162895375,1.319850184135438,1.331622871359894,-0.2134328068246082,-0.06913292407989502,0.4738020002841949,-1.090232133865356,-0.0113182170316577,0.008459822274744511,0.01315580867230892,XTrueNorthZVertical,0.4427068676102502,-0.4338760880325554,-0.4273962901935046,-0.6580992522120923,0.9494895935058594,0.2118160575628281,-0.231524333357811,44.31572723388672,-12.87974452972412,2.241650581359863,2,192.168.1.8,10.83.46.32,4,0
2015-03-03 20:01:10.276,44,1425441670.092114,37.77941906828227,-122.4389524945267,61.96487,0.97,319.21875,4,50,-9999,1425441670.264639,45.03787612915039,-8.035110473632812,2.738563537597656,236.8534698486328,223.0765380859375,10,229036.2663959167,0.8804931640625,0.342193603515625,-0.1007537841796875,229036.2664622917,-0.3653161930544204,0.5845465487253073,-1.077070761776235,229036.214679,1.318602447911296,1.358563561277291,-0.2676267838462249,-0.3397732079029083,0.5432877540588379,-1.123303890228271,-0.05122246593236923,0.0005101622664369643,0.01956596598029137,XTrueNorthZVertical,0.4634392476267903,-0.4285461878991911,-0.4060800512706064,-0.6608110664821276,0.9427629709243774,0.2644434571266174,-0.2031444609165192,44.81195068359375,-10.78504753112793,3.219985961914062,2,192.168.1.8,10.83.46.32,4,0
2015-03-03 20:01:10.300,45,1425441670.092114,37.77941906828227,-122.4389524945267,61.96487,0.97,319.21875,4,50,-9999,1425441670.264639,45.03787612915039,-8.035110473632812,2.738563537597656,236.8534698486328,223.0765380859375,10,229036.315426125,0.8662872314453125,0.39764404296875,-0.038787841796875,229036.2664622917,-0.3653161930544204,0.5845465487253073,-1.077070761776235,229036.2664622917,1.325988481506823,1.388469737879767,-0.3257534018727196,-0.3658197224140167,0.5931157469749451,-1.040114045143127,-0.05121297389268875,0.02217094600200653,0.07102876901626587,XTrueNorthZVertical,0.4867941733757664,-0.4208802145127837,-0.384992995258406,-0.6615676204516344,0.9317061305046082,0.3200226426124573,-0.1717825531959534,45.09685897827148,-9.291999816894531,3.837795734405518,2,192.168.1.8,10.83.46.32,4,0
2015-03-03 20:01:10.368,46,1425441670.092114,37.77941906828227,-122.4389524945267,61.96487,0.97,319.21875,4,50,-9999,1425441670.316629,44.96968460083008,-5.588882446289062,3.770759582519531,239.2990570068359,225.5221252441406,10,229036.3644707917,0.8348541259765625,0.4893646240234375,0.0175323486328125,229036.3700302917,-0.3470338584871355,0.6178746781871038,-0.9703025031460858,229036.3182469583,1.33908309225755,1.423340683008262,-0.380461893889373,-0.4520776271820068,0.6399012207984924,-1.039917588233948,-0.05213010683655739,0.02629466913640499,0.09762811660766602,XTrueNorthZVertical,0.5102946441503611,-0.4139944392205484,-0.3646742622563957,-0.659712594940155,0.9184173345565796,0.3713493645191193,-0.136415958404541,45.48800659179688,-5.833318710327148,5.622269153594971,2,192.168.1.8,10.83.46.32,4,0
2015-03-03 20:01:10.399,47,1425441670.092114,37.77941906828227,-122.4389524945267,61.96487,0.97,319.21875,4,50,-9999,1425441670.368612,44.88444900512695,-3.05767822265625,5.085960388183594,242.1094970703125,228.3325653076172,10,229036.4135950417,0.8128662109375,0.4980621337890625,0.053070068359375,229036.3700302917,-0.3470338584871355,0.6178746781871038,-0.9703025031460858,229036.3700302917,1.352810934401571,1.461350149915411,-0.4319938474516483,-0.3475373685359955,0.6264436841011047,-0.9333465099334717,-0.06784509122371674,0.07068230956792831,0.1167257055640221,XTrueNorthZVertical,0.5325320070797763,-0.4084274515556547,-0.3438194865425599,-0.6567989676864212,0.9026992321014404,0.4186823070049286,-0.09919335693120956,45.52342987060547,-3.883610725402832,6.879796981811523,2,192.168.1.8,10.83.46.32,4,0
2015-03-03 20:01:10.469,48,1425441670.092114,37.77941906828227,-122.4389524945267,61.96487,0.97,319.21875,4,50,-9999,1425441670.420745,44.95264053344727,-0.88323974609375,6.617591857910156,244.8003234863281,231.0233917236328,10,229036.4625416667,0.778167724609375,0.5620574951171875,0.06097412109375,229036.4218138334,-0.2397108634019232,0.7489765060134156,-0.8881799361918574,229036.4218138334,1.361514417056741,1.502657881060406,-0.4770768454650117,-0.2402143776416779,0.7575454115867615,-0.8512243032455444,-0.07341340184211731,0.03887775167822838,0.1135534197092056,XTrueNorthZVertical,0.5516396565529994,-0.4067579313172353,-0.3215803477342754,-0.6533205948144561,0.8862795829772949,0.4591843783855438,-0.06048334762454033,45.46637344360352,-2.699312210083008,7.766531944274902,2,192.168.1.8,10.83.46.32,4,0
2015-03-03 20:01:10.498,49,1425441670.092114,37.77941906828227,-122.4389524945267,61.96487,0.97,319.21875,4,50,-9999,1425441670.473273,44.52645874023438,1.30816650390625,8.432243347167969,248.2447357177734,234.4678039550781,10,229036.511603625,0.76812744140625,0.6369171142578125,0.1534271240234375,229036.4735982917,-0.2252802587192199,0.6111986659664933,-0.7636300172793586,229036.4735982917,1.375030491899774,1.541762850183523,-0.5171123801072621,-0.2257837653160095,0.6197674870491028,-0.7266747951507568,-0.08217142522335052,0.05155681818723679,0.100230760872364,XTrueNorthZVertical,0.5692216100430477,-0.4041903643706216,-0.3023977863448744,-0.6489780673124971,0.8688840866088867,0.4943721294403076,-0.02523381635546684,45.07518005371094,-0.06829452514648438,10.14987564086914,2,192.168.1.8,10.83.46.32,4,0
2015-03-03 20:01:10.571,50,1425441670.092114,37.77941906828227,-122.4389524945267,61.96487,0.97,319.21875,4,50,-9999,1425441670.523742,44.32189178466797,3.0069580078125,10.46333312988281,251.7138214111328,237.9368896484375,10,229036.5606151667,0.8582763671875,0.6479949951171875,0.187774658203125,229036.5253818333,-0.2169131392064089,1.051786444070913,-0.7356247478883033,229036.5253818333,1.386397506945253,1.591782562990409,-0.5522898463267445,-0.217457041144371,1.060324668884277,-0.698575496673584,-0.09057892113924026,0.1247760578989983,0.1495088487863541,XTrueNorthZVertical,0.5859931533274869,-0.4068715119400811,-0.2802933966249157,-0.6422641620566789,0.8511379957199097,0.5246379971504211,0.01786480657756329,44.65269088745117,1.259588241577148,11.80452632904053,2,192.168.1.8,10.83.46.32,4,0
2015-03-03 20:01:10.596,51,1425441670.092114,37.77941906828227,-122.4389524945267,61.96487,0.97,319.21875,4,50,-9999,1425441670.575095,43.7252311706543,4.926544189453125,12.17808532714844,254.0578002929688,240.2808685302734,10,229036.6096349584,0.7000732421875,0.734100341796875,0.2109222412109375,229036.5771651667,-0.06707171205364561,0.6704678486584247,-0.5317768106737142,229036.5771651667,1.397384208271541,1.642615698780026,-0.5832037078373413,-0.06761562079191208,0.6790059804916382,-0.4947278797626495,0.01904209144413471,0.1329538822174072,0.1166021078824997,XTrueNorthZVertical,0.6009439864799369,-0.4108703886239246,-0.2585628222376768,-0.6349780790319572,0.8325509428977966,0.5507009029388428,0.05989630147814751,44.22919464111328,2.111413955688477,13.19533443450928,2,192.168.1.8,10.83.46.32,4,0
2015-03-03 20:01:10.672,52,1425441670.092114,37.77941906828227,-122.4389524945267,61.96487,0.97,319.21875,4,50,-9999,1425441670.627373,42.7535285949707,6.370513916015625,13.52658843994141,256.8112182617188,243.0342864990234,10,229036.658673,0.777099609375,0.7583770751953125,0.206756591796875,229036.628949875,0.1696899667571239,0.4957000326508468,-0.7235036365029167,229036.628949875,1.399287081317339,1.667038083011685,-0.6165596267824541,0.1691434532403946,0.5042397975921631,-0.6864601373672485,-0.1329741626977921,0.1619264036417007,0.154159352183342,XTrueNorthZVertical,0.610300409043925,-0.4083299401250327,-0.2406471730668058,-0.634735420346352,0.8120970726013184,0.5782316923141479,0.07839985936880112,43.43928909301758,4.137992858886719,15.18886661529541,2,192.168.1.8,10.83.46.32,4,0
2015-03-03 20:01:10.693,53,1425441670.092114,37.77941906828227,-122.4389524945267,61.96487,0.97,319.21875,4,50,-9999,1425441670.6794,42.19096374511719,8.120269775390625,14.60872650146484,260.1576538085938,246.3807373046875,10,229036.7076946667,0.7362060546875,0.71185302734375,0.12548828125,229036.6807331667,0.4359932925918153,0.732823368737649,-0.6896015958262081,229036.6807331667,1.38178091209018,1.696816088995487,-0.6516675375225269,0.4354466497898102,0.7413631081581116,-0.6525587439537048,0.03830348327755928,0.1828393489122391,0.09094219654798508,XTrueNorthZVertical,0.6160181553918829,-0.412900266273344,-0.2140739962325058,-0.6357730503135752,0.7887686491012573,0.6065130829811096,0.09992999583482742,42.73759078979492,5.670942306518555,16.61731719970703,2,192.168.1.8,10.83.46.32,4,0
2015-03-03 20:01:10.770,54,1425441670.092114,37.77941906828227,-122.4389524945267,61.96487,0.97,319.21875,4,50,-9999,1425441670.730894,41.23631286621094,10.0908203125,16.10706329345703,265.0340576171875,251.2571411132812,10,229036.7567441667,0.600250244140625,0.755523681640625,0.212982177734375,229036.7325167083,0.3504086162204839,0.2568927798067874,-0.8181025805319484,229036.7325167083,1.367927694361184,1.706398971478235,-0.692575491891978,0.3498617112636566,0.265432596206665,-0.7810606360435486,-0.08796338737010956,0.02088716253638268,0.03691987693309784,XTrueNorthZVertical,0.6207715013880805,-0.4082439858778444,-0.1926469312118557,-0.6409889203274985,0.7625392079353333,0.6385214328765869,0.1040408164262772,42.3007926940918,6.763959884643555,17.31150054931641,2,192.168.1.8,10.83.46.32,4,0
2015-03-03 20:01:10.791,55,1425441670.092114,37.77941906828227,-122.4389524945267,61.96487,0.97,319.21875,4,50,-9999,1425441670.782987,40.41803359985352,11.89151000976562,16.87287902832031,269.1812744140625,255.4043426513672,10,229036.805777125,0.550323486328125,0.5688934326171875,0.1226654052734375,229036.7843012084,0.3163742164375982,0.591659851996909,-0.8974386820376269,229036.7325167083,1.367927694361184,1.706398971478235,-0.692575491891978,0.3498617112636566,0.265432596206665,-0.7810606360435486,-0.08796338737010956,0.02088716253638268,0.03691987693309784,XTrueNorthZVertical,0.6207715013880805,-0.4082439858778444,-0.1926469312118557,-0.6409889203274985,0.7625392079353333,0.6385214328765869,0.1040408164262772,42.3007926940918,6.763959884643555,17.31150054931641,2,192.168.1.8,10.83.46.32,4,0
2015-03-03 20:01:10.870,56,1425441670.092114,37.77941906828227,-122.4389524945267,61.96487,0.97,319.21875,4,50,-9999,1425441670.833979,38.9690055847168,14.11688232421875,17.55545806884766,273.68115234375,259.9042358398438,10,229036.8548178333,0.5751800537109375,0.5558319091796875,0.10711669921875,229036.8360847917,0.4288472324388057,0.6839631511662922,-0.8167923052756294,229036.8360847917,1.337484295746717,1.738347211177985,-0.7802015171206216,0.4282995760440826,0.6925033926963806,-0.7797525525093079,-0.1439335644245148,-0.0765458345413208,0.0106926579028368,XTrueNorthZVertical,0.6305605062221881,-0.4020702195852774,-0.1422246029696768,-0.6484637182253006,0.7008183598518372,0.7034226655960083,0.1185340285301208,40.40039443969727,11.63419246673584,19.16377639770508,2,192.168.1.8,10.83.46.32,4,0
2015-03-03 20:01:10.889,57,1425441670.092114,37.77941906828227,-122.4389524945267,61.96487,0.97,319.21875,4,50,-9999,1425441670.886356,37.75864028930664,16.27435302734375,18.17144393920898,278.2019653320312,264.425048828125,10,229036.9038439583,0.54949951171875,0.67327880859375,0.0815887451171875,229036.8878680833,0.3421530831573472,0.6189705689756715,-0.6413001094515499,229036.8878680833,1.316048237945828,1.759616482717588,-0.8167436154588699,0.3416054248809814,0.6275107264518738,-0.6042606830596924,-0.09639620780944824,-0.1014179438352585,-0.02226756326854229,XTrueNorthZVertical,0.6327592091374239,-0.4048029265833016,-0.1155673325859742,-0.6499189261356666,0.6724307537078857,0.7289204001426697,0.1284992545843124,39.69507598876953,12.79362487792969,19.88517761230469,2,192.168.1.8,10.83.46.32,4,0
2015-03-03 20:01:10.976,58,1425441670.092114,37.77941906828227,-122.4389524945267,61.96487,0.97,319.21875,4,50,-9999,1425441670.938436,36.76988983154297,18.21096801757812,19.43671417236328,283.9006652832031,270.1237487792969,10,229036.952887625,0.5283966064453125,0.6365203857421875,0.100799560546875,229036.93965275,0.3364669679139191,0.732485147279209,-0.7689230499458911,229036.93965275,1.301637288361783,1.781782421173403,-0.8526257719347725,0.3359193205833435,0.7410252094268799,-0.7318840026855469,-0.1308588683605194,-0.07948783040046692,-0.06239393725991249,XTrueNorthZVertical,0.6357940085812539,-0.405792329817117,-0.0909776028254863,-0.650247402552985,0.6434168219566345,0.7530107498168945,0.1378028690814972,37.97494125366211,15.22887802124023,21.46582412719727,2,192.168.1.8,10.83.46.32,4,0
2015-03-03 20:01:10.991,59,1425441670.092114,37.77941906828227,-122.4389524945267,61.96487,0.97,319.21875,4,50,-9999,1425441670.938436,36.76988983154297,18.21096801757812,19.43671417236328,283.9006652832031,270.1237487792969,10,229037.001913875,0.5732574462890625,0.7435150146484375,0.12493896484375,229036.9914360833,0.2208684660573946,0.7670734845688311,-0.6692856714505385,229036.93965275,1.301637288361783,1.781782421173403,-0.8526257719347725,0.3359193205833435,0.7410252094268799,-0.7318840026855469,-0.1308588683605194,-0.07948783040046692,-0.06239393725991249,XTrueNorthZVertical,0.6357940085812539,-0.405792329817117,-0.0909776028254863,-0.650247402552985,0.6434168219566345,0.7530107498168945,0.1378028690814972,37.97494125366211,15.22887802124023,21.46582412719727,2,192.168.1.8,10.83.46.32,4,0
2015-03-03 20:01:11.072,60,1425441670.092114,37.77941906828227,-122.4389524945267,61.96487,0.97,319.21875,4,50,-9999,1425441671.043207,33.05355834960938,21.77835083007812,21.36790466308594,294.0468139648438,280.2698974609375,10,229037.0509560833,0.5750274658203125,0.73675537109375,0.1700286865234375,229037.0432197083,0.02685638169679507,0.7509523052261454,-0.7725034037153936,229037.0432197083,1.299010009777705,1.855064222767865,-0.9255744453297481,0.0263088047504425,0.7594920992851257,-0.7354649901390076,-0.006089207250624895,-0.06591887027025223,-0.01677275076508522,XTrueNorthZVertical,0.6462739053719814,-0.4082393998430942,-0.04011967843868026,-0.6434757867099374,0.5772409439086914,0.7989663481712341,0.1686587333679199,35.84062194824219,17.59048080444336,23.25556373596191,2,192.168.1.8,10.83.46.32,4,0
2015-03-03 20:01:11.089,61,1425441670.092114,37.77941906828227,-122.4389524945267,61.96487,0.97,319.21875,4,50,-9999,1425441671.043207,33.05355834960938,21.77835083007812,21.36790466308594,294.0468139648438,280.2698974609375,10,229037.0999779167,0.3763427734375,0.862579345703125,0.2608489990234375,229037.0432197083,0.02685638169679507,0.7509523052261454,-0.7725034037153936,229037.0432197083,1.299010009777705,1.855064222767865,-0.9255744453297481,0.0263088047504425,0.7594920992851257,-0.7354649901390076,-0.006089207250624895,-0.06591887027025223,-0.01677275076508522,XTrueNorthZVertical,0.6462739053719814,-0.4082393998430942,-0.04011967843868026,-0.6434757867099374,0.5772409439086914,0.7989663481712341,0.1686587333679199,35.84062194824219,17.59048080444336,23.25556373596191,2,192.168.1.8,10.83.46.32,4,0
2015-03-03 20:01:11.171,62,1425441671.093223,37.77941131502183,-122.4389571883925,62.26987,0.56,319.21875,4,30,-9999,1425441671.145938,28.94513320922852,24.37750244140625,23.5488166809082,303.5188293457031,289.7419128417969,10,229037.1490190834,0.389312744140625,0.848785400390625,0.22222900390625,229037.1467875,-0.01366361428876054,0.9426509015477931,-0.8433235150033258,229037.0950042917,1.325344974372407,1.914422891124189,-0.9619939971477894,-0.1245253905653954,0.7084154486656189,-0.8745757341384888,-0.1423496007919312,0.03637117519974709,0.06984178721904755,XTrueNorthZVertical,0.655947039818226,-0.4075152644193248,-0.01584502492746429,-0.6351486207439963,0.5384525060653687,0.8203335404396057,0.1926704198122025,31.24595832824707,22.84663963317871,21.95003890991211,2,192.168.1.8,10.83.46.32,4,0
2015-03-03 20:01:11.183,63,1425441671.093223,37.77941131502183,-122.4389571883925,62.26987,0.56,319.21875,4,30,-9999,1425441671.145938,28.94513320922852,24.37750244140625,23.5488166809082,303.5188293457031,289.7419128417969,10,229037.1981492917,0.28857421875,0.887054443359375,0.282745361328125,229037.1985711667,0.1313167449262811,0.722504684778028,-0.9493380990449821,229037.1467875,1.355847128939768,1.98498647630862,-1.000543038590987,-0.01421210076659918,0.9511918425559998,-0.8062875866889954,-0.03820377215743065,0.03261012211441994,0.04805975779891014,XTrueNorthZVertical,0.6650421517002018,-0.4078590062601375,0.01204263457992592,-0.6254798057937854,0.4941974282264709,0.8417642712593079,0.2172600626945496,29.46352195739746,23.9708423614502,23.1815185546875,2,192.168.1.8,10.83.46.32,4,0
2015-03-03 20:01:11.267,64,1425441671.093223,37.77941131502183,-122.4389571883925,62.26987,0.56,319.21875,4,30,-9999,1425441671.249882,24.70033073425293,27.35037231445312,25.66313552856445,314.1123046875,300.3353881835938,10,229037.2470910834,0.45123291015625,1.72772216796875,0.3411865234375,229037.2503555417,-0.009020659244316396,1.171603659410232,-0.9971197363748567,229037.1985711667,1.38588966110619,2.04676600837815,-1.043614681255776,0.1307681202888489,0.7310454845428467,-0.9123029112815857,-0.1586054116487503,0.02282602898776531,0.0522247739136219,XTrueNorthZVertical,0.6724683331334745,-0.4037903359165573,0.0392134393326246,-0.6190331628901513,0.4471796154975891,0.8642284274101257,0.2305205911397934,28.22556686401367,24.7191104888916,23.92417526245117,2,192.168.1.8,10.83.46.32,4,0
2015-03-03 20:01:11.281,65,1425441671.093223,37.77941131502183,-122.4389571883925,62.26987,0.56,319.21875,4,30,-9999,1425441671.249882,24.70033073425293,27.35037231445312,25.66313552856445,314.1123046875,300.3353881835938,10,229037.2961135,0.1635284423828125,0.8331756591796875,0.4633636474609375,229037.2503555417,-0.009020659244316396,1.171603659410232,-0.9971197363748567,229037.2503555417,1.4193221287979,2.130284192608046,-1.083225345952821,-0.009569412097334862,1.180144429206848,-0.9600852727890015,0.05418224260210991,0.8442487716674805,0.09253896772861481,XTrueNorthZVertical,0.6778756370299021,-0.4059660049360758,0.07168491761455018,-0.608717948785101,0.397050678730011,0.8834733963012695,0.2486475557088852,24.8532772064209,26.70159912109375,25.4837646484375,2,192.168.1.8,10.83.46.32,4,0
2015-03-03 20:01:11.371,66,1425441671.093223,37.77941131502183,-122.4389571883925,62.26987,0.56,319.21875,4,30,-9999,1425441671.355343,19.55201721191406,28.981201171875,27.59432220458984,324.7248840332031,310.9479675292969,10,229037.3451520417,-0.0519866943359375,0.8971405029296875,0.3806915283203125,229037.3539224167,-0.245720552717796,-0.2611003080130037,-0.7648132597516808,229037.3021391667,1.516916966099146,2.259174101008088,-1.126484132839604,-0.3293735086917877,0.2216231375932693,-1.330410957336426,-0.1684251129627228,-0.06973086297512054,0.1902945041656494,XTrueNorthZVertical,0.691373876869638,-0.3981667184041006,0.1021180257371223,-0.5941694880975521,0.3319535553455353,0.9029065370559692,0.2730691432952881,22.26372337341309,27.74772262573242,26.72964477539062,2,192.168.1.8,10.83.46.32,4,0
2015-03-03 20:01:11.381,67,1425441671.093223,37.77941131502183,-122.4389571883925,62.26987,0.56,319.21875,4,30,-9999,1425441671.355343,19.55201721191406,28.981201171875,27.59432220458984,324.7248840332031,310.9479675292969,10,229037.39428175,-0.2275543212890625,1.063751220703125,0.4351959228515625,229037.3539224167,-0.245720552717796,-0.2611003080130037,-0.7648132597516808,229037.3539224167,1.638165177713423,2.354144095247664,-1.156742395403838,-0.2462692856788635,-0.2525596916675568,-0.7277794480323792,-0.3370555341243744,-0.01835685409605503,0.09678931534290314,XTrueNorthZVertical,0.7081133177277844,-0.3748688258849777,0.1100787748497741,-0.5881595030200047,0.2850688397884369,0.915497362613678,0.2839022278785706,21.16028213500977,28.32609367370605,27.01773834228516,2,192.168.1.8,10.83.46.32,4,0
2015-03-03 20:01:11.438,68,1425441671.093223,37.77941131502183,-122.4389571883925,62.26987,0.56,319.21875,4,30,-9999,1425441671.430619,17.11424255371094,29.98345947265625,28.80963516235352,329.9686889648438,316.1917724609375,10,229037.4432130833,0.1063079833984375,0.666656494140625,0.4173736572265625,229037.4057072084,-0.2934097783578449,0.7439425989209478,-0.3778780576002151,229037.4057072084,1.744909909761136,2.482701250601351,-1.163608791488211,-0.2940031290054321,0.7525492310523987,-0.3409276902675629,-0.4381129741668701,0.1428731828927994,0.06472493708133698,XTrueNorthZVertical,0.7197898087197724,-0.3721113517097854,0.127301485569954,-0.572040339480137,0.2424647808074951,0.9182382822036743,0.3131284415721893,18.89527893066406,28.77846908569336,28.19311141967773,2,192.168.1.8,10.83.46.32,4,0
2015-03-03 20:01:11.478,69,1425441671.093223,37.77941131502183,-122.4389571883925,62.26987,0.56,319.21875,4,30,-9999,1425441671.430619,17.11424255371094,29.98345947265625,28.80963516235352,329.9686889648438,316.1917724609375,10,229037.492338625,-0.14666748046875,1.030654907226562,0.200469970703125,229037.4574904167,-0.5678708992436671,1.02273375342313,-0.5434409236160432,229037.4574904167,1.824484910612845,2.604128147289309,-1.163317176571949,-0.5684642791748047,1.03134024143219,-0.50649094581604,-0.08158032596111298,-0.2539229094982147,0.08894477784633636,XTrueNorthZVertical,0.7263730673405869,-0.3776152927559153,0.1487031572150558,-0.554685743265828,0.202887699007988,0.9181227684020996,0.3404222726821899,17.0503044128418,28.77450180053711,29.34958648681641,2,192.168.1.8,10.83.46.32,4,0
2015-03-03 20:01:11.538,70,1425441671.093223,37.77941131502183,-122.4389571883925,62.26987,0.56,319.21875,4,30,-9999,1425441671.534228,13.50019454956055,28.62445068359375,31.30686569213867,337.0713195800781,323.2944030761719,10,229037.5412662917,-0.01678466796875,0.7646484375,0.63885498046875,229037.509273875,-1.038290342614719,-0.6104889335359871,-0.9258199897746013,229037.509273875,1.947613035108431,2.724893982236745,-1.137702852312718,-1.038991689682007,-0.6018801927566528,-0.8887962698936462,-0.425600528717041,0.1563693135976791,-0.1073100343346596,XTrueNorthZVertical,0.7443572979666574,-0.3712365824955525,0.1521367313235717,-0.5338258824672866,0.169863224029541,0.9076718091964722,0.383768767118454,15.8316478729248,28.41777610778809,30.36234855651855,2,192.168.1.8,10.83.46.32,4,0
2015-03-03 20:01:11.576,71,1425441671.093223,37.77941131502183,-122.4389571883925,62.26987,0.56,319.21875,4,30,-9999,1425441671.534228,13.50019454956055,28.62445068359375,31.30686569213867,337.0713195800781,323.2944030761719,10,229037.590399125,0.07000732421875,1.001937866210938,0.4352874755859375,229037.5610585,-0.936666245946167,0.9107129421750179,-0.2268091795010344,229037.5610585,2.048955852673443,2.829253685728315,-1.098714863576625,-0.9373733401298523,0.9193356037139893,-0.1897893697023392,-0.1588698029518127,0.05604683980345726,0.03089863620698452,XTrueNorthZVertical,0.7620450720703671,-0.3683166336303546,0.1546316777512937,-0.5096265836760185,0.1397352814674377,0.8906236886978149,0.4327396750450134,14.41693878173828,26.72099304199219,32.53034973144531,2,192.168.1.8,10.83.46.32,2,0
2015-03-03 20:01:11.638,72,1425441671.093223,37.77941131502183,-122.4389571883925,62.26987,0.56,319.21875,4,30,-9999,1425441671.590896,12.30687713623047,27.70712280273438,32.67201995849609,338.4178771972656,324.6409606933594,10,229037.6393397917,0.23822021484375,1.275344848632812,0.552337646484375,229037.6128420417,-0.3992304842721435,0.02044269084355724,0.07481565187137802,229037.6128420417,2.079594502276445,2.880845270217955,-1.068116927711338,-0.3999375998973846,0.02906515449285507,0.1118348315358162,0.02960558794438839,0.1560385376214981,0.09618585556745529,XTrueNorthZVertical,0.7694370384734076,-0.3751156196661214,0.1590904491374125,-0.4918792430363653,0.1242030039429665,0.8762948513031006,0.4654901623725891,13.29864501953125,25.68635177612305,33.81479644775391,2,192.168.1.8,10.83.46.32,2,0
2015-03-03 20:01:11.679,73,1425441671.093223,37.77941131502183,-122.4389571883925,62.26987,0.56,319.21875,4,30,-9999,1425441671.664173,12.52849578857422,26.16128540039062,33.72085189819336,337.419921875,323.6430053710938,10,229037.6883695,-0.1494293212890625,1.016067504882812,0.620697021484375,229037.664625375,-0.568772911904877,-1.309864863195004,0.699513615087374,229037.664625375,2.045282017294965,2.817168115227008,-1.034734655459164,-0.5694800019264221,-1.301242470741272,0.73653244972229,-0.04652251303195953,0.3253012299537659,0.05133580416440964,XTrueNorthZVertical,0.7736740766417389,-0.3787922985376996,0.1345561888430765,-0.4897341061985607,0.162809744477272,0.8597268462181091,0.4841103553771973,13.62633323669434,25.13102912902832,34.10040283203125,2,192.168.1.8,10.83.46.32,2,0
2015-03-03 20:01:11.738,74,1425441671.093223,37.77941131502183,-122.4389571883925,62.26987,0.56,319.21875,4,30,-9999,1425441671.716332,15.10264778137207,24.64938354492188,33.67090606689453,330.6769714355469,316.9000549316406,10,229037.7374177084,0.137237548828125,0.98187255859375,0.5845489501953125,229037.7164100833,-0.06256324664425048,-0.9130818239646433,1.010292530074716,229037.7164100833,1.984617454010655,2.69870050220377,-1.004057937485979,-0.06327034533023834,-0.904459536075592,1.047310948371887,-0.2933008670806885,0.1543445289134979,0.1330508440732956,XTrueNorthZVertical,0.7738406206338284,-0.3790937143550413,0.09546726634551311,-0.498341946537779,0.230083703994751,0.8436565399169922,0.4850826859474182,18.04175186157227,23.11276245117188,33.4720573425293,2,192.168.1.8,10.83.46.32,2,0
2015-03-03 20:01:11.774,75,1425441671.093223,37.77941131502183,-122.4389571883925,62.26987,0.56,319.21875,4,30,-9999,1425441671.716332,15.10264778137207,24.64938354492188,33.67090606689453,330.6769714355469,316.9000549316406,10,229037.78644075,0.0973358154296875,0.969329833984375,0.5622711181640625,229037.768193375,0.1464642725744338,-0.9042632986470639,1.497755938106165,229037.768193375,1.869424965101032,2.568603839914811,-0.9720378135618597,0.145757183432579,-0.8956410884857178,1.534773945808411,-0.2487544566392899,0.1201004981994629,0.02566859871149063,XTrueNorthZVertical,0.7606990194900644,-0.3976637922430925,0.06517592270541323,-0.5088739079715058,0.3055629432201385,0.8260359764099121,0.47359898686409,20.40226364135742,21.98093414306641,32.87353515625,2,192.168.1.8,10.83.46.32,2,0
2015-03-03 20:01:11.838,76,1425441671.093223,37.77941131502183,-122.4389571883925,62.26987,0.56,319.21875,4,30,-9999,1425441671.820118,21.75113868713379,22.03323364257812,32.77190017700195,314.75634765625,300.9794311523438,10,229037.835483125,0.1248626708984375,1.05926513671875,0.598724365234375,229037.8199769584,0.7872876761908595,-0.2506758965581065,1.584078842731667,229037.8199769584,1.728444663540206,2.420230621923326,-0.9407967953734683,0.7865805625915527,-0.2420537620782852,1.62109649181366,-0.361579418182373,0.2375959903001785,0.1591087877750397,XTrueNorthZVertical,0.7382049437198814,-0.4198211534010076,0.03605780033393609,-0.5267860479251985,0.389075756072998,0.8080278038978577,0.4423926770687103,22.31648254394531,21.18697738647461,32.14295959472656,2,192.168.1.8,10.83.46.32,2,0
2015-03-03 20:01:11.877,77,1425441671.093223,37.77941131502183,-122.4389571883925,62.26987,0.56,319.21875,4,30,-9999,1425441671.820118,21.75113868713379,22.03323364257812,32.77190017700195,314.75634765625,300.9794311523438,10,229037.88451625,0.489593505859375,0.9875335693359375,0.473114013671875,229037.8717614167,1.762844862483781,0.05250049246538607,1.263979130245157,229037.8199769584,1.728444663540206,2.420230621923326,-0.9407967953734683,0.7865805625915527,-0.2420537620782852,1.62109649181366,-0.361579418182373,0.2375959903001785,0.1591087877750397,XTrueNorthZVertical,0.7382049437198814,-0.4198211534010076,0.03605780033393609,-0.5267860479251985,0.389075756072998,0.8080278038978577,0.4423926770687103,22.31648254394531,21.18697738647461,32.14295959472656,2,192.168.1.8,10.83.46.32,2,0
2015-03-03 20:01:11.939,78,1425441671.093223,37.77941131502183,-122.4389571883925,62.26987,0.56,319.21875,4,30,-9999,1425441671.923057,25.26290321350098,22.20315551757812,29.1758918762207,309.3117370605469,295.5348205566406,10,229037.9335692083,0.5359344482421875,0.84930419921875,0.414337158203125,229037.923545,1.404818540281234,-0.3360184915863497,0.3386741958253767,229037.923545,1.406003518569541,2.13864518775922,-0.9502059343019684,1.404111504554749,-0.3273965418338776,0.3756911754608154,0.004422170110046864,0.1509727835655212,0.04546471685171127,XTrueNorthZVertical,0.671880391064499,-0.4527162991024637,0.02963977256732622,-0.5854453190018167,0.4902525246143341,0.8135352730751038,0.3127506077289581,26.69241714477539,21.79047012329102,28.15623474121094,2,192.168.1.8,10.83.46.32,2,0
2015-03-03 20:01:11.975,79,1425441671.093223,37.77941131502183,-122.4389571883925,62.26987,0.56,319.21875,4,30,-9999,1425441671.923057,25.26290321350098,22.20315551757812,29.1758918762207,309.3117370605469,295.5348205566406,10,229037.982580625,0.8065338134765625,0.739990234375,0.1864776611328125,229037.9753282917,0.985501962435495,0.8836168759801156,-0.3249850151901514,229037.923545,1.406003518569541,2.13864518775922,-0.9502059343019684,1.404111504554749,-0.3273965418338776,0.3756911754608154,0.004422170110046864,0.1509727835655212,0.04546471685171127,XTrueNorthZVertical,0.671880391064499,-0.4527162991024637,0.02963977256732622,-0.5854453190018167,0.4902525246143341,0.8135352730751038,0.3127506077289581,26.69241714477539,21.79047012329102,28.15623474121094,2,192.168.1.8,10.83.46.32,2,0
2015-03-03 20:01:12.039,80,1425441671.093223,37.77941131502183,-122.4389571883925,62.26987,0.56,319.21875,4,30,-9999,1425441672.027182,24.63214874267578,25.14199829101562,27.36124038696289,315.3710327148438,301.5941162109375,10,229038.0317305,0.4852752685546875,0.4911651611328125,0.21343994140625,229038.027113,0.2721750634060981,-0.5851617389371155,-0.6279017460073613,229037.9753282917,1.321459682705361,2.090732979136225,-0.9818026173125858,0.9847948551177979,0.8922387361526489,-0.2879684567451477,0.2545360922813416,-0.05386645346879959,-0.02190928161144257,XTrueNorthZVertical,0.6549088396030263,-0.457267679589182,0.05053173261544737,-0.5995392147648233,0.4821124672889709,0.8315001130104065,0.2759986519813538,26.94365310668945,22.67793655395508,27.19989013671875,2,192.168.1.8,10.83.46.32,2,0
2015-03-03 20:01:12.077,81,1425441671.093223,37.77941131502183,-122.4389571883925,62.26987,0.56,319.21875,4,30,-9999,1425441672.027182,24.63214874267578,25.14199829101562,27.36124038696289,315.3710327148438,301.5941162109375,10,229038.0806452083,0.14776611328125,0.343597412109375,0.275421142578125,229038.0788962917,-0.3523934701809199,-0.195102382510878,0.1951548467843525,229038.027113,1.292853662002125,2.077681075450195,-1.016250471039874,0.2714680135250092,-0.576539933681488,-0.5908854603767395,0.1330962181091309,-0.2387810200452805,-0.08388280123472214,XTrueNorthZVertical,0.6505125105687775,-0.4523756283864772,0.06779113097264246,-0.6062954494517446,0.4603486061096191,0.8501396775245667,0.2556204795837402,25.40739440917969,24.99503517150879,26.64198875427246,2,192.168.1.8,10.83.46.32,2,0
2015-03-03 20:01:12.138,82,1425441672.106545,37.77940477713736,-122.4389588647731,62.40158,0.47,319.21875,4,30,-9999,1425441672.130663,24.54691314697266,25.7705078125,26.57876586914062,315.6103515625,301.8334350585938,10,229038.1297012084,0.246856689453125,0.2366943359375,0.260467529296875,229038.1306796667,-0.4396250453703563,0.4334204126626898,0.4253094892467444,229038.0788962917,1.300002654872225,2.058305095090713,-1.018381669361491,-0.3531005382537842,-0.1864806860685349,0.2321707308292389,-0.1846823245286942,-0.5980556011199951,0.0402524396777153,XTrueNorthZVertical,0.6528433758434086,-0.4435059934913963,0.06009950735554712,-0.6111350543040458,0.463612973690033,0.8512599468231201,0.2458040863275528,25.86888313293457,25.2844123840332,25.91490936279297,2,192.168.1.8,10.83.46.32,2,0
2015-03-03 20:01:12.175,83,1425441672.106545,37.77940477713736,-122.4389588647731,62.40158,0.47,319.21875,4,30,-9999,1425441672.130663,24.54691314697266,25.7705078125,26.57876586914062,315.6103515625,301.8334350585938,10,229038.17873175,0.3766937255859375,0.6592559814453125,0.3489227294921875,229038.1306796667,-0.4396250453703563,0.4334204126626898,0.4253094892467444,229038.1306796667,1.3329434088544,2.08835546724621,-0.9976360490954733,-0.4403320848941803,0.4420420229434967,0.4623249471187592,-0.224409356713295,-0.6034970283508301,-0.007836154662072659,XTrueNorthZVertical,0.6583220722370227,-0.4480668377115056,0.05220915303705747,-0.6025963885694254,0.4712660312652588,0.8401913642883301,0.2683036923408508,26.10239219665527,24.82454872131348,26.12451171875,2,192.168.1.8,10.83.46.32,2,0
2015-03-03 20:01:12.223,84,1425441672.106545,37.77940477713736,-122.4389588647731,62.40158,0.47,319.21875,4,30,-9999,1425441672.184061,24.59805679321289,24.87014770507812,27.32793045043945,314.6296997070312,300.852783203125,10,229038.2277975417,0.78839111328125,0.7647705078125,0.2357635498046875,229038.2342479167,-0.0767206109991117,0.8865064057628517,-0.07973317882420934,229038.1824642917,1.340290711157259,2.118141367803764,-0.9734404518011557,-0.3664104342460632,0.1704042851924896,0.1216580867767334,-0.1035946235060692,-0.1675697267055511,0.05620706453919411,XTrueNorthZVertical,0.6581546906776502,-0.461725281772131,0.05079408359717092,-0.592504998638807,0.4802883565425873,0.826825737953186,0.2927156686782837,25.98219108581543,23.36828994750977,27.5487174987793,2,192.168.1.8,10.83.46.32,2,0
2015-03-03 20:01:12.270,85,1425441672.106545,37.77940477713736,-122.4389588647731,62.40158,0.47,319.21875,4,30,-9999,1425441672.259991,23.59225845336914,24.00381469726562,28.94280624389648,316.1776733398438,302.4007568359375,10,229038.2768371667,0.8529815673828125,0.9168853759765625,0.27459716796875,229038.2342479167,-0.0767206109991117,0.8865064057628517,-0.07973317882420934,229038.2342479167,1.346169831719535,2.158276037752473,-0.9597712538863212,-0.07742708176374435,0.8951271176338196,-0.0427168533205986,0.3108713030815125,-0.05428984761238098,-0.08222244679927826,XTrueNorthZVertical,0.6579036134942692,-0.475558442273038,0.05716985288218645,-0.5811528682579568,0.4775198101997375,0.8190603852272034,0.3179859817028046,25.46542358398438,22.79234886169434,28.49744415283203,2,192.168.1.8,10.83.46.32,2,0
2015-03-03 20:01:12.321,86,1425441672.106545,37.77940477713736,-122.4389588647731,62.40158,0.47,319.21875,4,30,-9999,1425441672.313598,22.63760566711426,24.64935302734375,29.77521896362305,318.6811218261719,304.9042053222656,10,229038.3259982917,0.608123779296875,1.571334838867188,0.543670654296875,229038.2860311667,0.05049566479677442,0.3042922535202358,-0.7392522396091002,229038.2860311667,1.378379905171549,2.212021455846639,-0.9781703069152435,0.04978920146822929,0.3129128813743591,-0.7022362351417542,0.4053869545459747,0.08740857243537903,-0.05950974673032761,XTrueNorthZVertical,0.6643325967731075,-0.4750954207007981,0.07250464357423131,-0.5724418431447877,0.4475946128368378,0.8294767737388611,0.3341069221496582,24.6338996887207,22.86314582824707,29.16386032104492,2,192.168.1.8,10.83.46.32,2,0
2015-03-03 20:01:12.372,87,1425441672.106545,37.77940477713736,-122.4389588647731,62.40158,0.47,319.21875,4,30,-9999,1425441672.313598,22.63760566711426,24.64935302734375,29.77521896362305,318.6811218261719,304.9042053222656,10,229038.3749295833,0.069732666015625,1.147018432617188,0.2506103515625,229038.3378157083,0.1712093001590141,0.4012808519953955,-1.199397740126844,229038.3378157083,1.432274510915853,2.263537211838255,-1.028724039518174,0.1705028563737869,0.4099013805389404,-1.162382125854492,0.3079012036323547,0.8862937688827515,0.3491631150245667,XTrueNorthZVertical,0.6750807041473897,-0.4571754998502603,0.09299272813257173,-0.5714971590200489,0.3969938158988953,0.856641411781311,0.3294867873191833,22.46128845214844,24.69132614135742,29.4263858795166,2,192.168.1.8,10.83.46.32,2,0
2015-03-03 20:01:12.419,88,1425441672.106545,37.77940477713736,-122.4389588647731,62.40158,0.47,319.21875,4,30,-9999,1425441672.364178,20.81353569030762,25.95742797851562,29.95835494995117,323.0548400878906,309.2779235839844,10,229038.4239785417,-0.166656494140625,0.743133544921875,0.4957122802734375,229038.3895991667,0.05630481808256426,-0.9364406762018374,-1.688954925407314,229038.3895991667,1.524257738917324,2.346555371389831,-1.081374875863329,0.05559836700558662,-0.9278202056884766,-1.651939749717712,-0.3917782008647919,0.01795347966253757,-0.108117587864399,XTrueNorthZVertical,0.6899555523205111,-0.4342377558546339,0.1141316347105296,-0.5677789377915748,0.3356105983257294,0.8826050162315369,0.3292021751403809,20.57965087890625,26.01937866210938,29.65725708007812,2,192.168.1.8,10.83.46.32,2,0
2015-03-03 20:01:12.472,89,1425441672.106545,37.77940477713736,-122.4389588647731,62.40158,0.47,319.21875,4,30,-9999,1425441672.416005,19.48383712768555,27.41839599609375,29.69198226928711,326.0296020507812,312.252685546875,10,229038.4730113333,-0.0892333984375,0.988861083984375,0.3657684326171875,229038.4413825417,0.2066357342436841,-0.1130269535079439,-0.6397030117458293,229038.4413825417,1.611320596549915,2.384394511679345,-1.125069811486206,0.2059292942285538,-0.1044065877795219,-0.602688193321228,-0.4414667189121246,-0.1114193946123123,0.1637331396341324,XTrueNorthZVertical,0.7034726974575238,-0.4022250429231562,0.1177244912684627,-0.574005372763948,0.2961267530918121,0.9022976756095886,0.3133176565170288,20.23959350585938,27.00398826599121,29.00390625,2,192.168.1.8,10.83.46.32,2,0
2015-03-03 20:01:12.517,90,1425441672.106545,37.77940477713736,-122.4389588647731,62.40158,0.47,319.21875,4,30,-9999,1425441672.470872,17.91547203063965,28.743408203125,29.22583389282227,328.9551696777344,315.1782531738281,10,229038.5220618334,0.2408447265625,1.036544799804688,0.2872772216796875,229038.4931672917,0.5947320746304243,0.5206852773657522,-0.3041130227788734,229038.4931672917,1.604562443980477,2.396627326298524,-1.149429172157054,0.5940256118774414,0.5293055176734924,-0.267098605632782,-0.2275574505329132,0.08888845145702362,0.09696193039417267,XTrueNorthZVertical,0.6995688058348573,-0.4011694294569819,0.1323158665907254,-0.5763324832501578,0.2772858440876007,0.9125306010246277,0.3006668388843536,19.14716339111328,28.39926719665527,28.40687942504883,2,192.168.1.8,10.83.46.32,2,0
2015-03-03 20:01:12.570,91,1425441672.106545,37.77940477713736,-122.4389588647731,62.40158,0.47,319.21875,4,30,-9999,1425441672.521144,16.79034423828125,30.06845092773438,28.99275970458984,332.0597534179688,318.2828369140625,10,229038.571093875,-0.0761566162109375,0.8656158447265625,0.2668609619140625,229038.54495075,0.06376300071533117,-0.2474454821558404,-0.6446157450086986,229038.54495075,1.616996748602102,2.427403716721992,-1.174517392536987,0.06295366585254669,-0.2388235926628113,-0.6075295209884644,-0.08822773396968842,0.1509979218244553,-0.1836302131414413,XTrueNorthZVertical,0.6978513737439187,-0.3985406895193328,0.1480429092931198,-0.5764131513057328,0.2528243064880371,0.922503650188446,0.2916624546051025,18.0254020690918,29.19514083862305,28.33393287658691,2,192.168.1.8,10.83.46.32,2,0
2015-03-03 20:01:12.616,92,1425441672.106545,37.77940477713736,-122.4389588647731,62.40158,0.47,319.21875,4,30,-9999,1425441672.571145,15.7334041595459,30.9178466796875,28.59320449829102,337.2546997070312,323.477783203125,10,229038.6202922917,-0.0800933837890625,0.9887237548828125,0.3441619873046875,229038.5967342083,-0.03982278041217287,-0.4090476949985026,-0.9498222617311585,229038.5967342083,1.703434160676285,2.477683912617871,-1.195588622732049,-0.04063210263848305,-0.4004258811473846,-0.9127362966537476,-0.4461074769496918,-0.05100647732615471,0.05683417990803719,XTrueNorthZVertical,0.7087918952904974,-0.3767312711211113,0.1478055253066672,-0.5777899014761272,0.2258163243532181,0.9304315447807312,0.2886247932910919,17.8077220916748,29.54762268066406,28.10527038574219,2,192.168.1.8,10.83.46.32,2,0
2015-03-03 20:01:12.671,93,1425441672.106545,37.77940477713736,-122.4389588647731,62.40158,0.47,319.21875,4,30,-9999,1425441672.624321,14.48894691467285,31.95407104492188,28.27688598632812,339.4178771972656,325.6409606933594,10,229038.6691924167,0.007568359375,0.9915618896484375,0.206817626953125,229038.6485185834,0.3257637234928906,0.4892269533053002,-0.6269869501729191,229038.5967342083,1.703434160676285,2.477683912617871,-1.195588622732049,-0.04063210263848305,-0.4004258811473846,-0.9127362966537476,-0.4461074769496918,-0.05100647732615471,0.05683417990803719,XTrueNorthZVertical,0.7087918952904974,-0.3767312711211113,0.1478055253066672,-0.5777899014761272,0.2258163243532181,0.9304315447807312,0.2886247932910919,17.8077220916748,29.54762268066406,28.10527038574219,2,192.168.1.8,10.83.46.32,2,0
2015-03-03 20:01:12.714,94,1425441672.106545,37.77940477713736,-122.4389588647731,62.40158,0.47,319.21875,4,30,-9999,1425441672.67493,13.3808708190918,32.68450927734375,28.12704849243164,341.8729858398438,328.0960693359375,10,229038.71833775,0.1988525390625,0.9787139892578125,0.1541900634765625,229038.7003020417,-0.07234397206367549,-0.06908612710218155,-0.505758525771967,229038.7003020417,1.841636113941135,2.627387024225779,-1.248151100520627,-0.07315327227115631,-0.06046450510621071,-0.4686733782291412,-0.02614549174904823,0.1033272966742516,-0.1353568583726883,XTrueNorthZVertical,0.7147215464509802,-0.356664852189099,0.1777316893092517,-0.5747823813374264,0.1559520065784454,0.9484000205993652,0.2760734260082245,15.08804416656494,31.41687774658203,27.66611480712891,2,192.168.1.8,10.83.46.32,2,0
2015-03-03 20:01:12.770,95,1425441672.106545,37.77940477713736,-122.4389588647731,62.40158,0.47,319.21875,4,30,-9999,1425441672.727586,12.42621994018555,33.12619018554688,28.36012268066406,343.9794921875,330.2025756835938,10,229038.7672668333,0.03826904296875,0.9773712158203125,0.219451904296875,229038.7520854167,-0.3390129499160348,-0.3944192174468063,-0.009006278174429968,229038.7520854167,1.8742554071716,2.650345038506504,-1.239918141905353,-0.3398222625255585,-0.3857976794242859,0.02807850204408169,-0.1532210409641266,-0.03004696033895016,-0.0837276503443718,XTrueNorthZVertical,0.7198568057173671,-0.353601670888372,0.1742012405564506,-0.5713370375049472,0.1532515585422516,0.9457573890686035,0.2864559292793274,14.8109245300293,31.46728706359863,27.75841522216797,2,192.168.1.8,10.83.46.32,2,0
2015-03-03 20:01:12.812,96,1425441672.106545,37.77940477713736,-122.4389588647731,62.40158,0.47,319.21875,4,30,-9999,1425441672.779724,12.61373901367188,33.10919189453125,28.84291839599609,344.1806945800781,330.4037780761719,10,229038.8164733333,0.207550048828125,0.973876953125,0.247283935546875,229038.8038702084,-0.1196273319535963,-0.0666376167959627,0.5339928270167691,229038.8038702084,1.850706738246141,2.615816756022715,-1.222508009305637,-0.1204366236925125,-0.05801615491509438,0.571077287197113,0.06493344902992249,0.07530052214860916,-0.03934910520911217,XTrueNorthZVertical,0.7214267150112034,-0.3565671127702481,0.1633629354088839,-0.5707153277444206,0.17128786444664,0.9399582743644714,0.29519322514534,15.72617530822754,30.7209358215332,28.08905220031738,2,192.168.1.8,10.83.46.32,2,0
2015-03-03 20:01:12.873,97,1425441672.106545,37.77940477713736,-122.4389588647731,62.40158,0.47,319.21875,4,30,-9999,1425441672.83082,13.50020217895508,31.75018310546875,29.04269409179688,342.2275390625,328.4506225585938,10,229038.8653667917,0.302947998046875,0.78033447265625,0.10968017578125,229038.8556534167,-0.2480353723372929,-0.3301645971942465,0.7977499045332358,229038.8038702084,1.850706738246141,2.615816756022715,-1.222508009305637,-0.1204366236925125,-0.05801615491509438,0.571077287197113,0.06493344902992249,0.07530052214860916,-0.03934910520911217,XTrueNorthZVertical,0.7214267150112034,-0.3565671127702481,0.1633629354088839,-0.5707153277444206,0.17128786444664,0.9399582743644714,0.29519322514534,15.72617530822754,30.7209358215332,28.08905220031738,2,192.168.1.8,10.83.46.32,2,0
2015-03-03 20:01:12.910,98,1425441672.106545,37.77940477713736,-122.4389588647731,62.40158,0.47,319.21875,4,30,-9999,1425441672.882562,14.72761154174805,30.6290283203125,28.87621307373047,339.6185913085938,325.8416748046875,10,229038.9145284167,0.0986328125,0.8256072998046875,0.2831268310546875,229038.907436875,-0.6157295019290451,-0.6801931803271761,0.521014976708704,229038.907436875,1.721138512151103,2.456683958761885,-1.158520963468531,-0.6165387630462646,-0.6715719103813171,0.5580986738204956,-0.1454637497663498,-0.1783574670553207,-0.07932635396718979,XTrueNorthZVertical,0.7175307927811554,-0.3745852922072395,0.1231134305897759,-0.5741764088764666,0.2534807324409485,0.9162114858627319,0.3103291690349579,17.94155311584473,29.43429183959961,28.13905334472656,2,192.168.1.8,10.83.46.32,2,0
2015-03-03 20:01:12.972,99,1425441672.106545,37.77940477713736,-122.4389588647731,62.40158,0.47,319.21875,4,30,-9999,1425441672.93421,15.97207641601562,30.00042724609375,28.82626724243164,336.177978515625,322.4010620117188,10,229038.9634654167,0.1805419921875,0.896575927734375,0.3785247802734375,229038.907436875,-0.6157295019290451,-0.6801931803271761,0.521014976708704,229038.907436875,1.721138512151103,2.456683958761885,-1.158520963468531,-0.6165387630462646,-0.6715719103813171,0.5580986738204956,-0.1454637497663498,-0.1783574670553207,-0.07932635396718979,XTrueNorthZVertical,0.7175307927811554,-0.3745852922072395,0.1231134305897759,-0.5741764088764666,0.2534807324409485,0.9162114858627319,0.3103291690349579,17.94155311584473,29.43429183959961,28.13905334472656,2,192.168.1.8,10.83.46.32,2,0
2015-03-03 20:01:13.008,100,1425441672.106545,37.77940477713736,-122.4389588647731,62.40158,0.47,319.21875,4,30,-9999,1425441672.991184,17.2165355682373,28.3865966796875,29.74192047119141,332.0218505859375,318.2449340820312,10,229039.012610375,0.32098388671875,0.7510528564453125,0.3417510986328125,229039.011005,-0.9354691550361764,-0.08222296812732442,-0.196852345663169,229038.9592214167,1.772854180850711,2.492477742874795,-1.118720022569704,-1.009017705917358,-0.007345001678913832,0.06252244859933853,-0.07413215190172195,0.005426220595836639,0.02990858070552349,XTrueNorthZVertical,0.7294212185051586,-0.3767492277290094,0.1085260102738003,-0.5605594130180059,0.2640582919120789,0.8995420336723328,0.3479906022548676,19.68557357788086,27.34668731689453,29.06406784057617,2,192.168.1.8,10.83.46.32,2,0
2015-03-03 20:01:13.071,101,1425441672.106545,37.77940477713736,-122.4389588647731,62.40158,0.47,319.21875,4,30,-9999,1425441672.991184,17.2165355682373,28.3865966796875,29.74192047119141,332.0218505859375,318.2449340820312,10,229039.0615299584,0.573760986328125,0.795928955078125,0.2825927734375,229039.0627882917,-1.54931739997119,-1.29411626008882,0.0709229093060092,229039.011005,1.846290696660735,2.560649699572772,-1.082268284442947,-0.936285138130188,-0.07359234243631363,-0.1597831249237061,0.0273244883865118,-0.09889072924852371,-0.04311894997954369,XTrueNorthZVertical,0.7439313968795243,-0.3777987234353984,0.1019795979837935,-0.5416958629448098,0.2575723528862,0.8830246329307556,0.392331600189209,19.48432922363281,26.10169219970703,30.31741714477539,2,192.168.1.8,10.83.46.32,2,0
2015-03-03 20:01:13.106,102,1425441672.106545,37.77940477713736,-122.4389588647731,62.40158,0.47,319.21875,4,30,-9999,1425441673.06398,18.58032608032227,25.73654174804688,31.24025726318359,327.8560485839844,314.0791320800781,10,229039.110562875,0.013946533203125,0.7687835693359375,0.6560821533203125,229039.0627882917,-1.54931739997119,-1.29411626008882,0.0709229093060092,229039.0627882917,1.916851714116679,2.583069413370611,-1.034984945407574,-1.550133347511292,-1.285485744476318,0.1079917252063751,0.3032087981700897,-0.06392571330070496,-0.150364026427269,XTrueNorthZVertical,0.7619753948055765,-0.3686080495418433,0.0773193151466344,-0.5268238529699413,0.2705521881580353,0.8598546981811523,0.4329567849636078,19.61823463439941,25.31047058105469,30.89641189575195,2,192.168.1.8,10.83.46.32,2,0
2015-03-03 20:01:13.179,103,1425441673.142926,37.77938939634504,-122.4389487226703,62.49844,0.38,319.21875,6,10,-9999,1425441673.115847,20.37030410766602,23.57907104492188,31.65645217895508,319.8241271972656,306.0472106933594,10,229039.159581125,-0.026580810546875,0.68572998046875,0.6596221923828125,229039.1145729584,-2.410265182436442,-1.974317429899267,-0.7555984560638976,229039.1145729584,2.039115086061646,2.589798907836534,-0.9533923488796188,-2.411081075668335,-1.965687036514282,-0.718529999256134,-0.2895326018333435,-0.04660052433609962,0.1630818247795105,XTrueNorthZVertical,0.7937452254370269,-0.3412750827264333,0.02504028403383551,-0.5028646579453453,0.3034791350364685,0.8153840899467468,0.493000328540802,23.0350227355957,21.43555450439453,31.46407127380371,2,192.168.1.8,10.83.46.32,2,0
2015-03-03 20:01:13.204,104,1425441673.142926,37.77938939634504,-122.4389487226703,62.49844,0.38,319.21875,6,10,-9999,1425441673.167699,21.95571327209473,20.53826904296875,32.8051872253418,310.6324157714844,296.8554992675781,10,229039.2086089167,0.2324066162109375,0.75885009765625,0.7403564453125,229039.2181398333,-1.669146066903196,-0.07896325895306743,-0.9381059508314639,229039.16635625,2.180404954771277,2.685651982882278,-0.8757003376597635,-2.059152841567993,0.5054374933242798,-0.9307765364646912,-0.3085795640945435,-0.08226224780082703,0.08458760380744934,XTrueNorthZVertical,0.8265936884421433,-0.322893433833496,0.0094482086507308,-0.4608616723021279,0.2819987535476685,0.7679921984672546,0.5750346183776855,23.67911148071289,19.72402191162109,32.0989990234375,2,192.168.1.8,10.83.46.32,2,0
2015-03-03 20:01:13.273,105,1425441673.142926,37.77938939634504,-122.4389487226703,62.49844,0.38,319.21875,6,10,-9999,1425441673.220054,21.78524017333984,17.9901123046875,34.3701171875,309.8868713378906,296.1099548339844,10,229039.2576227917,-0.0411224365234375,0.711700439453125,0.844573974609375,229039.2181398333,-1.669146066903196,-0.07896325895306743,-0.9381059508314639,229039.2181398333,2.303773506274228,2.793202759354642,-0.8126427661544079,-1.669962048530579,-0.07033297419548035,-0.9010382294654846,-0.002323483116924763,0.03274327144026756,0.09408188611268997,XTrueNorthZVertical,0.854317958831737,-0.3054146440956677,0.01289549091813652,-0.4203527943673825,0.2347300946712494,0.7261068224906921,0.6462745666503906,22.34426879882812,17.62710189819336,34.20675659179688,2,192.168.1.8,10.83.46.32,2,0
2015-03-03 20:01:13.304,106,1425441673.142926,37.77938939634504,-122.4389487226703,62.49844,0.38,319.21875,6,10,-9999,1425441673.271709,21.30791091918945,15.64581298828125,35.66867828369141,309.5597229003906,295.7828063964844,10,229039.3066702083,0.0449371337890625,0.598968505859375,0.9095001220703125,229039.26992425,-1.715413963469469,-0.7282930654073152,-0.7687297044507514,229039.26992425,2.393705755408853,2.825484150493405,-0.7420263150433637,-1.716229915618896,-0.7196629047393799,-0.7316623330116272,-0.3244491219520569,0.04308917373418808,0.1622900366783142,XTrueNorthZVertical,0.8775883281440385,-0.2830694928892886,-0.005762417813690913,-0.3868814134469226,0.2291427105665207,0.6757829189300537,0.7005792260169983,22.07052993774414,14.45369338989258,35.8338623046875,2,192.168.1.8,10.83.46.32,2,0
2015-03-03 20:01:13.372,107,1425441673.142926,37.77938939634504,-122.4389487226703,62.49844,0.38,319.21875,6,10,-9999,1425441673.323488,21.4783821105957,13.539306640625,36.40119934082031,167.3460235595703,153.569091796875,10,229039.355739375,0.1033782958984375,0.534759521484375,0.7523345947265625,229039.321707625,-1.182373749174622,0.2996442384697204,-0.4604767977573498,229039.321707625,2.46134995080164,2.863665107761995,-0.6872490190156064,-1.183189630508423,0.3082743287086487,-0.4234097898006439,-0.06370481103658676,-0.08076319098472595,0.1923527121543884,XTrueNorthZVertical,0.8946145214395488,-0.2670779047031932,-0.01164051135368078,-0.3580485921956129,0.2120812833309174,0.6344130635261536,0.7433314919471741,22.2685489654541,13.27840042114258,36.16461181640625,2,192.168.1.8,10.83.46.32,2,0
2015-03-03 20:01:13.401,108,1425441673.142926,37.77938939634504,-122.4389487226703,62.49844,0.38,319.21875,6,10,-9999,1425441673.374828,21.68294906616211,11.90850830078125,36.26800918579102,161.1154022216797,147.3384704589844,10,229039.4048525833,-0.0669403076171875,0.5943145751953125,0.99224853515625,229039.3734910834,-1.022621634341238,-0.8992632137004402,-0.2861585233417772,229039.3734910834,2.499390113294704,2.871903377358756,-0.634251413363182,-1.023438334465027,-0.8906319737434387,-0.2490939944982529,-0.1878817081451416,-0.05026206001639366,0.03272857889533043,XTrueNorthZVertical,0.9066196108270649,-0.2573722909029309,-0.02367821149457887,-0.3335262695329591,0.2146151065826416,0.5925746560096741,0.7763992547988892,21.76210975646973,11.72488784790039,37.00027847290039,2,192.168.1.8,10.83.46.32,2,0
2015-03-03 20:01:13.471,109,1425441673.142926,37.77938939634504,-122.4389487226703,62.49844,0.38,319.21875,6,10,-9999,1425441673.42711,22.51827430725098,10.0908203125,36.98388290405273,160.0910034179688,146.3140716552734,10,229039.4537475833,0.0985260009765625,0.5750274658203125,0.9590301513671875,229039.42527575,-0.9680417456967175,0.238997402545891,-0.02876054187620173,229039.42527575,2.518987572504986,2.864382218798933,-0.5856480672296359,-0.9688584804534912,0.2476285248994827,0.008303594775497913,-0.2682129442691803,0.01783233135938644,0.1202751025557518,XTrueNorthZVertical,0.9148888007954062,-0.2524834886361425,-0.03835520624943023,-0.3126651456875644,0.2280670702457428,0.5527395606040955,0.80153888463974,23.03642463684082,8.993562698364258,36.9935417175293,2,192.168.1.8,10.83.46.32,2,0
2015-03-03 20:01:13.498,110,1425441673.142926,37.77938939634504,-122.4389487226703,62.49844,0.38,319.21875,6,10,-9999,1425441673.47906,22.96150588989258,8.018310546875,37.78298950195312,157.3538970947266,143.5769653320312,10,229039.502880625,0.0739288330078125,0.5085601806640625,0.9624786376953125,229039.4770590417,-0.6531857973965736,0.5366346828181278,-0.3291864181258604,229039.4770590417,2.541099935525687,2.901464421721478,-0.5487001291184204,-0.6540026664733887,0.5452659130096436,-0.2921233475208282,-0.07255910336971283,0.002362424274906516,0.1325809359550476,XTrueNorthZVertical,0.9225156577514466,-0.2516470722844964,-0.03058882389350769,-0.2910377657553485,0.2029149383306503,0.5215786099433899,0.8287227749824524,22.54401779174805,8.037727355957031,37.51326751708984,2,192.168.1.8,10.83.46.32,2,0
2015-03-03 20:01:13.575,111,1425441673.142926,37.77938939634504,-122.4389487226703,62.49844,0.38,319.21875,6,10,-9999,1425441673.530131,22.10913848876953,6.76123046875,38.91506195068359,154.5978698730469,140.8209381103516,10,229039.5518161667,0.029632568359375,0.494140625,0.9745025634765625,229039.5288425834,-0.4251409111497424,0.4075241005388682,-0.2566136805245471,229039.5288425834,2.564188563466234,2.935849356458445,-0.5280294296852461,-0.4260571599006653,0.4161579608917236,-0.2194842398166656,-0.1179985404014587,-0.006304062437266111,0.207303375005722,XTrueNorthZVertical,0.928135687812537,-0.2477013089701254,-0.02112525925352287,-0.2770595152556641,0.1764702200889587,0.5038321614265442,0.8455835580825806,21.56179237365723,7.209223747253418,38.25179290771484,2,192.168.1.8,10.83.46.32,6,0
2015-03-03 20:01:13.597,112,1425441673.142926,37.77938939634504,-122.4389487226703,62.49844,0.38,319.21875,6,10,-9999,1425441673.582638,20.88172340393066,6.0477294921875,39.18143463134766,153.8152923583984,140.0383605957031,10,229039.6008841667,0.110504150390625,0.4152069091796875,0.9700927734375,229039.580627,-0.1560953283405964,0.5953576511704839,-0.2496061047482216,229039.580627,2.578699933020848,2.971839268222569,-0.5149267292571351,-0.157011553645134,0.6039913892745972,-0.2124770432710648,-0.1511526107788086,-0.03162513300776482,0.03927553072571754,XTrueNorthZVertical,0.9316417836761696,-0.246886989107353,-0.008287751526717672,-0.2664990801519185,0.1470327377319336,0.4924710690975189,0.8578191995620728,19.94488906860352,6.483420372009277,39.24601745605469,2,192.168.1.8,10.83.46.32,6,0
2015-03-03 20:01:13.672,113,1425441673.142926,37.77938939634504,-122.4389487226703,62.49844,0.38,319.21875,6,10,-9999,1425441673.633923,19.51793098449707,5.436187744140625,39.28132247924805,152.0209503173828,138.2440185546875,10,229039.6498754167,0.0184783935546875,0.3968658447265625,0.8602447509765625,229039.6324105417,-0.3108652014066603,0.3928341039659912,-0.3102689196385915,229039.6324105417,2.599499207056401,3.016181228608512,-0.4967916163053119,-0.3118000030517578,0.4014928340911865,-0.2731749415397644,-0.08974455296993256,-0.06404031813144684,-0.0332532525062561,XTrueNorthZVertical,0.9362091111769558,-0.2441689928991055,0.007170615759667115,-0.2526709923091976,0.1099624484777451,0.4766074419021606,0.8722119927406311,19.00564575195312,6.307604789733887,39.73767471313477,2,192.168.1.8,10.83.46.32,6,0
2015-03-03 20:01:13.697,114,1425441673.142926,37.77938939634504,-122.4389487226703,62.49844,0.38,319.21875,6,10,-9999,1425441673.686847,18.32461547851562,4.7906494140625,39.84735870361328,151.7440643310547,137.9671325683594,10,229039.6989931667,-0.0304107666015625,0.2810211181640625,0.8985595703125,229039.6841938334,-0.5747051032330285,0.350279452907615,-0.3894532209621356,229039.6841938334,2.621881891497354,3.048716662305027,-0.4752770761484109,-0.5756460428237915,0.358946681022644,-0.3523729145526886,-0.1285297870635986,-0.07834288477897644,-0.00748047698289156,XTrueNorthZVertical,0.94106253134233,-0.2388896131859486,0.01681874398808895,-0.2388519200155057,0.08246350288391113,0.4575848281383514,0.8853338956832886,18.02072715759277,5.801494598388672,40.27007675170898,2,192.168.1.8,10.83.46.32,6,0
2015-03-03 20:01:13.769,115,1425441673.142926,37.77938939634504,-122.4389487226703,62.49844,0.38,319.21875,6,10,-9999,1425441673.737786,17.76205444335938,4.162078857421875,40.52994155883789,148.9142761230469,135.1373443603516,10,229039.747941875,-0.0276031494140625,0.3928985595703125,1.075225830078125,229039.7359785,-0.8275416223835163,0.1349511608659123,-0.2734744197019478,229039.6841938334,2.621881891497354,3.048716662305027,-0.4752770761484109,-0.5756460428237915,0.358946681022644,-0.3523729145526886,-0.1285297870635986,-0.07834288477897644,-0.00748047698289156,XTrueNorthZVertical,0.94106253134233,-0.2388896131859486,0.01681874398808895,-0.2388519200155057,0.08246350288391113,0.4575848281383514,0.8853338956832886,18.02072715759277,5.801494598388672,40.27007675170898,2,192.168.1.8,10.83.46.32,6,0
2015-03-03 20:01:13.791,116,1425441673.142926,37.77938939634504,-122.4389487226703,62.49844,0.38,319.21875,6,10,-9999,1425441673.737786,17.76205444335938,4.162078857421875,40.52994155883789,148.9142761230469,135.1373443603516,10,229039.7969802917,-0.0608062744140625,0.3674774169921875,0.9809417724609375,229039.7877617917,-0.8668136610822607,0.3617984235705348,0.0450199392794625,229039.7877617917,2.644196459786177,3.089582197010849,-0.3922587491797959,-0.8677569031715393,0.3704685568809509,0.08209589123725891,-0.08523942530155182,-0.02401547320187092,0.0256878174841404,XTrueNorthZVertical,0.951577587375164,-0.2364304350859878,0.02323148379506782,-0.195092510773705,0.04803849756717682,0.3822765946388245,0.9227985143661499,16.45557975769043,3.081048011779785,41.22868347167969,2,192.168.1.8,10.83.46.32,6,0
2015-03-03 20:01:13.838,117,1425441673.142926,37.77938939634504,-122.4389487226703,62.49844,0.38,319.21875,6,10,-9999,1425441673.79,17.19949340820312,2.582244873046875,40.94614791870117,147.5870971679688,133.8101654052734,10,229039.8459976667,-0.018096923828125,0.4073333740234375,1.02386474609375,229039.8395453334,-0.5555833402901506,0.2540178974100469,-0.2096917115945501,229039.7877617917,2.644196459786177,3.089582197010849,-0.3922587491797959,-0.8677569031715393,0.3704685568809509,0.08209589123725891,-0.08523942530155182,-0.02401547320187092,0.0256878174841404,XTrueNorthZVertical,0.951577587375164,-0.2364304350859878,0.02323148379506782,-0.195092510773705,0.04803849756717682,0.3822765946388245,0.9227985143661499,16.45557975769043,3.081048011779785,41.22868347167969,2,192.168.1.8,10.83.46.32,6,0
2015-03-03 20:01:13.890,118,1425441673.142926,37.77938939634504,-122.4389487226703,62.49844,0.38,319.21875,6,10,-9999,1425441673.841358,16.80740165710449,1.1722412109375,41.39564514160156,147.6737213134766,133.8967895507812,10,229039.89503925,-0.15313720703125,0.3452606201171875,1.073684692382812,229039.891329875,-0.09877637851492993,0.04584711711404111,-0.4009700610961832,229039.8395453334,2.652862365164963,3.103698349295348,-0.3583582636025744,-0.5565266013145447,0.2626879215240479,-0.1726161241531372,-0.03019899688661098,0.04411442205309868,0.1735885590314865,XTrueNorthZVertical,0.9554026523338781,-0.2347479955012817,0.02502249075391352,-0.177406512019675,0.03547853976488113,0.3507372736930847,0.9358016848564148,15.82316780090332,1.465100288391113,41.56397247314453,2,192.168.1.8,10.83.46.32,6,0
2015-03-03 20:01:13.972,119,1425441673.142926,37.77938939634504,-122.4389487226703,62.49844,0.38,319.21875,6,10,-9999,1425441673.944806,15.85274696350098,-0.186798095703125,41.6953125,146.9972991943359,133.2203674316406,10,229039.94405475,-0.1162567138671875,0.2618255615234375,0.9673614501953125,229039.9431133333,-0.05148689335450191,0.349000869268268,-0.3622261272416015,229039.891329875,2.671438072538188,3.128620331051756,-0.3495563652372951,-0.09971103817224503,0.05451809987425804,-0.3639399409294128,-0.1668963432312012,0.009752850979566574,0.1122052147984505,XTrueNorthZVertical,0.9579230679863416,-0.2282680171746699,0.03428959020661374,-0.1705912576518446,0.01218747720122337,0.3424810469150543,0.9394457936286926,14.79410743713379,0.6326532363891602,41.96209335327148,2,192.168.1.8,10.83.46.32,6,0
2015-03-03 20:01:13.991,120,1425441673.142926,37.77938939634504,-122.4389487226703,62.49844,0.38,319.21875,6,10,-9999,1425441673.944806,15.85274696350098,-0.186798095703125,41.6953125,146.9972991943359,133.2203674316406,10,229039.9931017084,-0.1378326416015625,0.2455291748046875,0.9862518310546875,229039.9948965833,-0.1799215653490993,0.2671909574260148,-0.3293502025329003,229039.9431133333,2.692631630964365,-3.124729037146272,-0.3411687146077294,-0.05243512243032455,0.3576912879943848,-0.3252280056476593,-0.1064082756638527,-0.0550476610660553,0.03982529416680336,XTrueNorthZVertical,0.9604070263166603,-0.2207567197054933,0.04588768099225461,-0.1636434547075134,-0.01589091867208481,0.3345886766910553,0.9422303438186646,14.56885814666748,0.6854057312011719,42.04000091552734,2,192.168.1.8,10.83.46.32,6,0
2015-03-03 20:01:14.036,121,1425441673.142926,37.77938939634504,-122.4389487226703,62.49844,0.38,319.21875,6,10,-9999,1425441673.997511,15.42656326293945,0.10198974609375,41.94503402709961,144.6939392089844,130.9170074462891,10,229040.0421189167,-0.24176025390625,0.2903289794921875,1.018585205078125,229039.9948965833,-0.1799215653490993,0.2671909574260148,-0.3293502025329003,229039.9948965833,2.712943270345273,-3.0952421338711,-0.3267975206199837,-0.1808904707431793,0.2759068310260773,-0.2923822402954102,-0.09395092725753784,-0.07548251748085022,0.04019365832209587,XTrueNorthZVertical,0.9630444698795829,-0.2134816970110573,0.05693055180854414,-0.1540450303495812,-0.04388171806931496,0.3210116922855377,0.9460581541061401,13.54435729980469,0.5998315811157227,42.38246917724609,2,192.168.1.8,10.83.46.32,6,0
2015-03-03 20:01:14.088,122,1425441673.142926,37.77938939634504,-122.4389487226703,62.49844,0.38,319.21875,6,10,-9999,1425441674.049045,14.6594295501709,0.051025390625,42.12816619873047,141.6769104003906,127.8999786376953,10,229040.0911711667,-0.13995361328125,0.3156890869140625,0.930572509765625,229040.0984646667,0.02822098543935167,0.5908771489525346,-0.140958187020695,229040.0466810834,2.731186985264525,-3.067825866617059,-0.3142880499861511,-0.1675832271575928,0.3074547946453094,-0.3017909824848175,-0.1716704070568085,-0.01881049387156963,0.07015472650527954,XTrueNorthZVertical,0.9651229265634182,-0.2067679290146763,0.0675238089244795,-0.1456891911226441,-0.07008984684944153,0.3091394603252411,0.9484304785728455,11.97514057159424,0.001641273498535156,42.85649490356445,2,192.168.1.8,10.83.46.32,6,0
2015-03-03 20:01:14.141,123,1425441673.142926,37.77938939634504,-122.4389487226703,62.49844,0.38,319.21875,6,10,-9999,1425441674.100998,14.14800834655762,-0.322662353515625,42.26135635375977,140.0683135986328,126.2913818359375,10,229040.140173875,-0.1973724365234375,0.2433624267578125,0.968963623046875,229040.0984646667,0.02822098543935167,0.5908771489525346,-0.140958187020695,229040.0984646667,2.743182486503967,-3.029210650343259,-0.3063840213287117,0.02724542655050755,0.5996140241622925,-0.1040486097335815,-0.03303058072924614,0.0140760550275445,-0.01684356480836868,XTrueNorthZVertical,0.9655199790370029,-0.2036644488873623,0.08455521000364534,-0.1383561485082162,-0.1069230288267136,0.3016130328178406,0.9474160671234131,11.16511344909668,-0.2158432006835938,43.0740852355957,2,192.168.1.8,10.83.46.32,6,0
2015-03-03 20:01:14.184,124,1425441674.147375,37.77938277464153,-122.4389387482055,62.13931,0.36,319.21875,4,30,-9999,1425441674.154406,12.95468902587891,-0.424591064453125,42.06157684326172,140.0762329101562,126.2993087768555,10,229040.1893147917,-0.1622314453125,0.260345458984375,0.940704345703125,229040.1502479167,0.05773653348459086,-0.008069111786831083,-0.05861404506377197,229040.1502479167,2.747863950980449,-3.012952830357957,-0.3050091933492702,0.0567525252699852,0.0006786111043766141,-0.02171896770596504,-0.09907132387161255,-0.05748883262276649,0.05327410250902176,XTrueNorthZVertical,0.9653884109367329,-0.2025010966395258,0.09195471832117821,-0.1362457217541437,-0.1223642230033875,0.3003019392490387,0.9459629654884338,10.03538703918457,-0.1050424575805664,43.35162353515625,2,192.168.1.8,10.83.46.32,6,0
2015-03-03 20:01:14.224,125,1425441674.147375,37.77938277464153,-122.4389387482055,62.13931,0.36,319.21875,4,30,-9999,1425441674.204506,12.01708221435547,-0.305694580078125,42.31130218505859,139.8277130126953,126.0507888793945,10,229040.238351125,-0.1220550537109375,0.2387542724609375,1.026199340820312,229040.2020324584,-0.001306546830792874,-0.1720615117078394,0.1560234229911642,229040.2020324584,2.744075815624363,-3.011997775567798,-0.2998902350286997,-0.002305920468643308,-0.1632977724075317,0.1929048001766205,-0.05956451594829559,-0.02391570806503296,-0.03550762683153152,XTrueNorthZVertical,0.9653685339853794,-0.2043095578008135,0.09219933368920118,-0.1334935432087207,-0.1234646588563919,0.2954153418540955,0.9473575949668884,9.635727882385254,-0.4232292175292969,43.44026947021484,2,192.168.1.8,10.83.46.32,6,0
2015-03-03 20:01:14.283,126,1425441674.147375,37.77938277464153,-122.4389387482055,62.13931,0.36,319.21875,4,30,-9999,1425441674.256112,12.42621994018555,-0.1697998046875,42.41119003295898,139.8092498779297,126.0323181152344,10,229040.287343,-0.184478759765625,0.26318359375,0.908477783203125,229040.2538158333,-0.02468856856947057,-0.3509226063108691,0.2939107189588889,229040.2538158333,2.732743698987417,-3.026023821428078,-0.3000632196908463,-0.02569412067532539,-0.3421473503112793,0.3307704627513885,-0.0160308126360178,-0.03935501724481583,0.0738360658288002,XTrueNorthZVertical,0.9648099516053477,-0.2088406348517953,0.08620667788805292,-0.1345206312596195,-0.1101593747735023,0.2955805957317352,0.9489452838897705,9.733071327209473,-0.4146060943603516,43.41864013671875,2,192.168.1.8,10.83.46.32,6,0
2015-03-03 20:01:14.322,127,1425441674.147375,37.77938277464153,-122.4389387482055,62.13931,0.36,319.21875,4,30,-9999,1425441674.308506,13.26153945922852,-0.662445068359375,42.69420623779297,140.4375915527344,126.6606597900391,10,229040.3364057083,-0.080169677734375,0.25701904296875,1.016281127929688,229040.3055994583,-0.01529053939868995,-0.1049029806026572,0.05282672969892078,229040.3055994583,2.722366481401798,-3.033103051780792,-0.2992409757254295,-0.0162984374910593,-0.09611942619085312,0.08966794610023499,-0.01990216225385666,-0.04532905668020248,-0.06496340781450272,XTrueNorthZVertical,0.9640794654256271,-0.2133591149012005,0.08341056766013433,-0.1344298875429981,-0.1034651473164558,0.2947950065135956,0.9499426484107971,10.36312770843506,-0.6715450286865234,43.26936340332031,2,192.168.1.8,10.83.46.32,6,0
2015-03-03 20:01:14.381,128,1425441674.147375,37.77938277464153,-122.4389387482055,62.13931,0.36,319.21875,4,30,-9999,1425441674.360194,13.9263858795166,-1.155059814453125,42.51107788085938,140.4826202392578,126.705696105957,10,229040.385410125,-0.132659912109375,0.24676513671875,0.898101806640625,229040.3573838334,-0.1545879791636115,-0.02334021010956345,0.02777677016952645,229040.3573838334,2.71957141206542,-3.039955750853081,-0.294787404161571,-0.1555958688259125,-0.01455674879252911,0.0646175816655159,-0.06166709586977959,-0.04030754789710045,0.03383750468492508,XTrueNorthZVertical,0.9644063125103336,-0.2142043102182505,0.07985132187686957,-0.132893902409617,-0.09708534181118011,0.2905364334583282,0.951926052570343,10.55195236206055,-0.9621524810791016,43.21821212768555,2,192.168.1.8,10.83.46.32,6,0
2015-03-03 20:01:14.420,129,1425441674.147375,37.77938277464153,-122.4389387482055,62.13931,0.36,319.21875,4,30,-9999,1425441674.411614,14.43780517578125,-1.460845947265625,42.67756271362305,139.2872314453125,125.5102996826172,10,229040.4343755417,-0.171905517578125,0.2430877685546875,0.988983154296875,229040.409167375,-0.4346454667641262,-0.02251276595887583,-0.02678554161179896,229040.409167375,2.71537332321565,-3.036436598865369,-0.2781460901227863,-0.435656875371933,-0.01372381951659918,0.01004708558320999,-0.06102852523326874,-0.06272044032812119,-0.07797407358884811,XTrueNorthZVertical,0.9650628630999474,-0.2162892192991463,0.08014774194597064,-0.1242941204170803,-0.1009282618761063,0.2745734751224518,0.9562547206878662,10.48079490661621,-1.273191452026367,43.22748184204102,2,192.168.1.8,10.83.46.32,6,0
2015-03-03 20:01:14.479,130,1425441674.147375,37.77938277464153,-122.4389387482055,62.13931,0.36,319.21875,4,30,-9999,1425441674.463268,14.77875137329102,-2.00445556640625,42.74414825439453,138.2630767822266,124.4861450195312,10,229040.4834473334,-0.14697265625,0.2557220458984375,0.982330322265625,229040.4609506667,-0.6417227531165455,-0.08397373022794251,0.1439401284932567,229040.4609506667,2.709433054193705,-3.037039924627697,-0.2494681743002179,-0.6427363157272339,-0.07517637312412262,0.180756002664566,-0.00943348091095686,-0.06741475313901901,0.05919688567519188,XTrueNorthZVertical,0.9664391800933141,-0.2187955152647736,0.07727846563150477,-0.1102357358537625,-0.1011317074298859,0.2468886375427246,0.9637523293495178,10.19401359558105,-2.207295417785645,43.25844573974609,2,192.168.1.8,10.83.46.32,6,0
2015-03-03 20:01:14.518,131,1425441674.147375,37.77938277464153,-122.4389387482055,62.13931,0.36,319.21875,4,30,-9999,1425441674.463268,14.77875137329102,-2.00445556640625,42.74414825439453,138.2630767822266,124.4861450195312,10,229040.5324587917,-0.1514129638671875,0.212493896484375,1.12139892578125,229040.5127351667,-0.3750705531790536,-0.1247208938544819,-0.03287485944426514,229040.4609506667,2.709433054193705,-3.037039924627697,-0.2494681743002179,-0.6427363157272339,-0.07517637312412262,0.180756002664566,-0.00943348091095686,-0.06741475313901901,0.05919688567519188,XTrueNorthZVertical,0.9664391800933141,-0.2187955152647736,0.07727846563150477,-0.1102357358537625,-0.1011317074298859,0.2468886375427246,0.9637523293495178,10.19401359558105,-2.207295417785645,43.25844573974609,2,192.168.1.8,10.83.46.32,6,0
2015-03-03 20:01:14.577,132,1425441674.147375,37.77938277464153,-122.4389387482055,62.13931,0.36,319.21875,4,30,-9999,1425441674.567124,14.33552742004395,-4.484634399414062,42.44448089599609,139.9343872070312,126.1574554443359,10,229040.5816037917,-0.165740966796875,0.197845458984375,1.056838989257812,229040.5645185834,0.04115835569884761,0.2851795453250641,-0.1271478325558711,229040.5645185834,2.704857532239743,-3.034017730701863,-0.217256388463834,0.04005565866827965,0.2939721941947937,-0.09025712311267853,-0.0797266811132431,0.01693158783018589,0.09937305748462677,XTrueNorthZVertical,0.9678319427386251,-0.220738020948581,0.07562805112931423,-0.09410897743499076,-0.1048436313867569,0.2155513167381287,0.9708479046821594,10.41527938842773,-4.456708908081055,43.03188323974609,2,192.168.1.8,10.83.46.32,6,0
2015-03-03 20:01:14.616,133,1425441674.147375,37.77938277464153,-122.4389387482055,62.13931,0.36,319.21875,4,30,-9999,1425441674.567124,14.33552742004395,-4.484634399414062,42.44448089599609,139.9343872070312,126.1574554443359,10,229040.6306216667,-0.1326446533203125,0.1939544677734375,1.015716552734375,229040.616302125,0.2112882766680526,0.1858678714310282,-0.06867866345539943,229040.616302125,2.709298310410085,-3.022067264170114,-0.220939159781135,0.2101769149303436,0.1946673095226288,-0.03179178759455681,-0.006948510650545359,-0.04710320383310318,0.09694290161132812,XTrueNorthZVertical,0.9676320229778315,-0.2192116128976411,0.08158356759244891,-0.09475602042365158,-0.1163425073027611,0.2191460430622101,0.9687309265136719,9.935531616210938,-4.35682487487793,43.15538024902344,2,192.168.1.8,10.83.46.32,6,0
2015-03-03 20:01:14.675,134,1425441674.147375,37.77938277464153,-122.4389387482055,62.13931,0.36,319.21875,4,30,-9999,1425441674.6708,13.43201065063477,-3.856109619140625,43.49331665039062,139.2567291259766,125.4797973632812,10,229040.6795552917,-0.1615753173828125,0.154815673828125,0.95098876953125,229040.6680865417,0.160349994498107,0.07879148506275732,-0.09034827261315617,229040.616302125,2.709298310410085,-3.022067264170114,-0.220939159781135,0.2101769149303436,0.1946673095226288,-0.03179178759455681,-0.006948510650545359,-0.04710320383310318,0.09694290161132812,XTrueNorthZVertical,0.9676320229778315,-0.2192116128976411,0.08158356759244891,-0.09475602042365158,-0.1163425073027611,0.2191460430622101,0.9687309265136719,9.935531616210938,-4.35682487487793,43.15538024902344,2,192.168.1.8,10.83.46.32,6,0
2015-03-03 20:01:14.714,135,1425441674.147375,37.77938277464153,-122.4389387482055,62.13931,0.36,319.21875,4,30,-9999,1425441674.6708,13.43201065063477,-3.856109619140625,43.49331665039062,139.2567291259766,125.4797973632812,10,229040.7286877917,-0.1415252685546875,0.1954193115234375,0.942626953125,229040.7198700834,-0.08822014058607386,-0.04477679267193826,-0.111246896635335,229040.6680865417,2.712507439599296,-3.01327563646992,-0.2279908059521403,0.1592327207326889,0.08759474009275436,-0.05346278101205826,-0.04691605642437935,-0.02503200992941856,-0.0206794086843729,XTrueNorthZVertical,0.9671823486705722,-0.2182092902694974,0.08640534586435679,-0.09735076422511654,-0.1246537715196609,0.2260207831859589,0.9661139845848083,13.37350654602051,-4.152132987976074,42.63841247558594,2,192.168.1.8,10.83.46.32,6,0
2015-03-03 20:01:14.772,136,1425441674.147375,37.77938277464153,-122.4389387482055,62.13931,0.36,319.21875,4,30,-9999,1425441674.722576,13.46610641479492,-3.72021484375,43.39342498779297,138.6133880615234,124.8364562988281,10,229040.7776359167,-0.1509246826171875,0.18695068359375,0.9867401123046875,229040.771653375,-0.2600185319782135,-0.0623826843223431,-0.05300329727919303,229040.771653375,2.717166219482895,-3.008790031345914,-0.2136079315928466,-0.2611527144908905,-0.05356404557824135,-0.0161296296864748,-0.01926318183541298,-0.03175038844347,0.01494472101330757,XTrueNorthZVertical,0.968365033476747,-0.2158768900011705,0.08689770442023247,-0.09008420670956349,-0.1294032037258148,0.2119871973991394,0.9686673283576965,13.19291400909424,-4.280817985534668,42.68192672729492,2,192.168.1.8,10.83.46.32,6,0
2015-03-03 20:01:14.812,137,1425441674.147375,37.77938277464153,-122.4389387482055,62.13931,0.36,319.21875,4,30,-9999,1425441674.775656,13.31267547607422,-3.737213134765625,43.24359512329102,138.2261657714844,124.4492340087891,10,229040.826761375,-0.16705322265625,0.1958160400390625,1.003463745117188,229040.771653375,-0.2600185319782135,-0.0623826843223431,-0.05300329727919303,229040.771653375,2.717166219482895,-3.008790031345914,-0.2136079315928466,-0.2611527144908905,-0.05356404557824135,-0.0161296296864748,-0.01926318183541298,-0.03175038844347,0.01494472101330757,XTrueNorthZVertical,0.968365033476747,-0.2158768900011705,0.08689770442023247,-0.09008420670956349,-0.1294032037258148,0.2119871973991394,0.9686673283576965,13.19291400909424,-4.280817985534668,42.68192672729492,2,192.168.1.8,10.83.46.32,6,0
2015-03-03 20:01:14.870,138,1425441674.147375,37.77938277464153,-122.4389387482055,62.13931,0.36,319.21875,4,30,-9999,1425441674.826889,13.77295303344727,-4.2298583984375,43.42672729492188,137.7774658203125,124.0005416870117,10,229040.8756922084,-0.137054443359375,0.162567138671875,1.042068481445312,229040.8752212917,-0.1461601395779468,-0.002895388737134148,-0.04492353284800163,229040.8234380417,2.716206758025742,-3.011529007659317,-0.1982324111885206,-0.2719376981258392,-0.09926870465278625,-0.03208448737859726,-0.0329836905002594,0.003777444595471025,0.01468105148524046,XTrueNorthZVertical,0.969255113692956,-0.2158985919289288,0.0840541758197184,-0.08286895160085953,-0.1271573007106781,0.1969366669654846,0.9721353650093079,13.32768058776855,-5.196825981140137,42.53811264038086,2,192.168.1.8,10.83.46.32,6,0
2015-03-03 20:01:14.910,139,1425441674.147375,37.77938277464153,-122.4389387482055,62.13931,0.36,319.21875,4,30,-9999,1425441674.879165,13.79000091552734,-4.620559692382812,43.24359130859375,137.3043518066406,123.5274200439453,10,229040.9247113334,-0.17230224609375,0.181121826171875,1.013458251953125,229040.9270048334,-0.05139181850358608,-0.03526371494206622,-0.04183027124187459,229040.8752212917,2.715818450936724,-3.012951559555356,-0.1861815849342526,-0.1473022103309631,0.005932234227657318,-0.008058639243245125,-0.01556250546127558,-0.01745951175689697,0.0667835921049118,XTrueNorthZVertical,0.9699181306708994,-0.2157728911632326,0.08215261909518297,-0.07714837289098542,-0.126069575548172,0.1851078271865845,0.974598228931427,13.39558601379395,-5.506704330444336,42.47775650024414,2,192.168.1.8,10.83.46.32,6,0
2015-03-03 20:01:14.970,140,1425441674.147375,37.77938277464153,-122.4389387482055,62.13931,0.36,319.21875,4,30,-9999,1425441674.930122,13.73885917663574,-4.569564819335938,43.42671966552734,136.828125,123.0511932373047,10,229040.9737675833,-0.143218994140625,0.1765289306640625,1.022872924804688,229040.9270048334,-0.05139181850358608,-0.03526371494206622,-0.04183027124187459,229040.9270048334,2.715149446883331,-3.012271206392612,-0.1812025028098349,-0.05253438279032707,-0.02643353492021561,-0.004969131201505661,-0.04545234143733978,0.0009093076805584133,0.03804412111639977,XTrueNorthZVertical,0.9700744813064364,-0.2160151995833634,0.0819992606389017,-0.07462640652395877,-0.1268499046564102,0.1802125126123428,0.9754141569137573,13.40301704406738,-5.851701736450195,42.42926025390625,2,192.168.1.8,10.83.46.32,6,0
2015-03-03 20:01:15.009,141,1425441674.147375,37.77938277464153,-122.4389387482055,62.13931,0.36,319.21875,4,30,-9999,1425441674.981858,13.82409858703613,-5.130172729492188,43.21029663085938,137.2238616943359,123.4469375610352,10,229041.0228945834,-0.17578125,0.1495208740234375,1.003097534179688,229040.97878925,0.04272243020705114,0.04005660595588182,-0.02799861148833006,229040.97878925,2.715796955920387,-3.00996010221448,-0.1805825350888701,0.04157653823494911,0.04889019951224327,0.008859473280608654,-0.0141005078330636,-0.003073735861107707,0.0476439893245697,XTrueNorthZVertical,0.9700805895361823,-0.215773301203924,0.0830328044515333,-0.07410216398058356,-0.129118487238884,0.1796026676893234,0.9752289056777954,13.30101871490479,-5.981105327606201,42.44330978393555,2,192.168.1.8,10.83.46.32,6,0
2015-03-03 20:01:15.072,142,1425441674.147375,37.77938277464153,-122.4389387482055,62.13931,0.36,319.21875,4,30,-9999,1425441675.033048,13.72181510925293,-5.300048828125,43.70974349975586,137.7040100097656,123.9270782470703,10,229041.0718357083,-0.1643829345703125,0.1729278564453125,0.9804840087890625,229041.0823560834,0.00864541984672423,-0.01266865730550694,-0.04740107161010235,229041.03057275,2.716353459937683,-3.002708401598183,-0.1795884995371486,0.06487221270799637,0.05455974861979485,0.0221153199672699,-0.03956950455904007,-0.02910383231937885,0.02865423075854778,XTrueNorthZVertical,0.9698840536778329,-0.2157465511370431,0.0864280400507829,-0.07286005089144661,-0.1362117528915405,0.1786247044801712,0.9744433164596558,13.15787887573242,-5.961540699005127,42.49065017700195,2,192.168.1.8,10.83.46.32,6,0
2015-03-03 20:01:15.106,143,1425441674.147375,37.77938277464153,-122.4389387482055,62.13931,0.36,319.21875,4,30,-9999,1425441675.086799,13.79000473022461,-5.435943603515625,43.70974731445312,137.7741394042969,123.9972152709961,10,229041.120956125,-0.1507568359375,0.1690673828125,1.00634765625,229041.0823560834,0.00864541984672423,-0.01266865730550694,-0.04740107161010235,229041.0823560834,2.716825618738503,-2.99697233409066,-0.1793494479688051,0.00748039735481143,-0.003806806402280927,-0.01056864764541388,-0.02924592792987823,-0.0003346845041960478,0.009664476849138737,XTrueNorthZVertical,0.9696953980482459,-0.215719556919325,0.08916801252603014,-0.07214581302985641,-0.1418050974607468,0.1783894896507263,0.9736881852149963,12.8779878616333,-6.009984493255615,42.56950378417969,2,192.168.1.8,10.83.46.32,6,0
2015-03-03 20:01:15.172,144,1425441675.148912,37.7793803019801,-122.4389320426829,61.95395,0.34,319.21875,4,30,-9999,1425441675.086799,13.79000473022461,-5.435943603515625,43.70974731445312,137.7741394042969,123.9972152709961,10,229041.1698923334,-0.16485595703125,0.2012481689453125,1.004913330078125,229041.1341405417,0.001067661281012767,0.02133937718258692,-0.04824609262398449,229041.1341405417,2.717825191404778,-2.994590913901026,-0.1776339690109866,-0.0001035228269756772,0.03020728565752506,-0.01141828950494528,-0.0108001958578825,0.002940453821793199,0.02642727643251419,XTrueNorthZVertical,0.9697840032666823,-0.2152753942987771,0.09011294198044631,-0.07109988983239807,-0.1441680639982224,0.1767012625932693,0.9736490249633789,12.68088340759277,-6.053510189056396,42.62247467041016,2,192.168.1.8,10.83.46.32,6,0
2015-03-03 20:01:15.204,145,1425441675.148912,37.7793803019801,-122.4389320426829,61.95395,0.34,319.21875,4,30,-9999,1425441675.162306,13.1422004699707,-4.790435791015625,43.24359512329102,137.7043914794922,123.9274597167969,10,229041.2189064584,-0.1653289794921875,0.191680908203125,1.040802001953125,229041.185924,0.1501197274866766,-0.05142217854001298,-0.04912333788705659,229041.185924,2.719812650388586,-2.993789905158665,-0.1821208088969509,0.1489545702934265,-0.04255348443984985,-0.01229892857372761,-0.00177673960570246,0.008810433559119701,0.05469606071710587,XTrueNorthZVertical,0.9697302799894616,-0.21445933157513,0.09088261751875959,-0.0732855649759491,-0.1448297053575516,0.1811157166957855,0.9727392196655273,12.64608573913574,-6.004673957824707,42.63972091674805,2,192.168.1.8,10.83.46.32,6,0
2015-03-03 20:01:15.266,146,1425441675.148912,37.7793803019801,-122.4389320426829,61.95395,0.34,319.21875,4,30,-9999,1425441675.214904,12.98877334594727,-4.739471435546875,43.22694396972656,137.4954376220703,123.718505859375,10,229041.26794025,-0.120208740234375,0.1600494384765625,1.08319091796875,229041.2377073333,0.2954819840020356,0.08015129511535178,-0.01845570635424912,229041.2377073333,2.719747692260666,-2.992662688316812,-0.1913214483229452,0.2943162322044373,0.0890207514166832,0.01836771331727505,-0.04941094666719437,0.01548630278557539,0.02764886245131493,XTrueNorthZVertical,0.9691823973705522,-0.2147757606640043,0.09235660833745032,-0.07763475499842766,-0.1456726640462875,0.1901564002037048,0.9708862900733948,12.67366409301758,-5.703086853027344,42.67292404174805,2,192.168.1.8,10.83.46.32,6,0
