loggingTime,loggingSample,locationTimestamp_since1970,locationLatitude,locationLongitude,locationAltitude,locationSpeed,locationCourse,locationVerticalAccuracy,locationHorizontalAccuracy,locationFloor,locationHeadingTimestamp_since1970,locationHeadingX,locationHeadingY,locationHeadingZ,locationTrueHeading,locationMagneticHeading,locationHeadingAccuracy,accelerometerTimestamp_sinceReboot,accelerometerAccelerationX,accelerometerAccelerationY,accelerometerAccelerationZ,gyroTimestamp_sinceReboot,gyroRotationX,gyroRotationY,gyroRotationZ,motionTimestamp_sinceReboot,motionYaw,motionRoll,motionPitch,motionRotationRateX,motionRotationRateY,motionRotationRateZ,motionUserAccelerationX,motionUserAccelerationY,motionUserAccelerationZ,motionAttitudeReferenceFrame,motionQuaternionX,motionQuaternionY,motionQuaternionZ,motionQuaternionW,motionGravityX,motionGravityY,motionGravityZ,motionMagneticFieldX,motionMagneticFieldY,motionMagneticFieldZ,motionMagneticFieldCalibrationAccuracy,IP_en0,IP_pdp_ip0,deviceOrientation,state
2015-02-26 19:56:20.640,1,1425009380.062496,37.76008478369354,-122.4614107982464,126.8503,0,-1,10,200,-9999,1425009380.588139,15.35348892211914,-40.21165466308594,4.586997985839844,241.4927520751953,227.7147827148438,10,120371.8048270833,0.04022216796875,-1.069122314453125,-0.2104949951171875,120371.7527244583,-0.5551353965947992,0.8094686122779114,0.07352481769101661,120371.7527244583,0.9822521654796422,0.03342692202027405,1.357961638486462,-0.5614534616470337,0.8200634717941284,0.1093730852007866,-0.03914874047040939,-0.01937484554946423,0.03249422088265419,XTrueNorthZVertical,-0.5475607913421721,-0.307604255063366,-0.3762239852925852,-0.681184520096747,0.007059507537633181,-0.9774360656738281,-0.2111136019229889,16.19987869262695,-40.20775604248047,5.691654205322266,2,0.0.0.0,10.83.46.32,1,0
2015-02-26 19:56:20.691,2,1425009380.062496,37.76008478369354,-122.4614107982464,126.8503,0,-1,10,200,-9999,1425009380.640112,14.89316558837891,-40.26263427734375,3.571800231933594,239.9973602294922,226.2193908691406,10,120371.8538902083,0.1394500732421875,-0.9884033203125,-0.17962646484375,120371.856284625,-0.2910078733707025,0.4121910240331231,0.2274185107584445,120371.8045045833,0.9912695023189885,0.07310215246219677,1.330606645046857,-0.5992087125778198,0.9515467286109924,-0.06512825936079025,0.03233856707811356,-0.03706894814968109,0.0594104528427124,XTrueNorthZVertical,-0.5289808575449569,-0.3186744936140073,-0.3937543046627592,-0.6808695928793044,0.01737456582486629,-0.9712928533554077,-0.2372516393661499,15.78322696685791,-40.43363189697266,5.244585037231445,2,0.0.0.0,10.83.46.32,1,0
2015-02-26 19:56:20.695,3,1425009380.062496,37.76008478369354,-122.4614107982464,126.8503,0,-1,10,200,-9999,1425009380.640112,14.89316558837891,-40.26263427734375,3.571800231933594,239.9973602294922,226.2193908691406,10,120371.902925,0.0787200927734375,-1.027206420898438,-0.208953857421875,120371.856284625,-0.2910078733707025,0.4121910240331231,0.2274185107584445,120371.856284625,1.015804058219798,0.07521072613302845,1.310556586104029,-0.2973238527774811,0.4227863550186157,0.2632656991481781,0.1201156675815582,-0.02207500301301479,0.07695844769477844,XTrueNorthZVertical,-0.5175817771367263,-0.3222059110873796,-0.4053584102958724,-0.6811586081933986,0.01933440752327442,-0.9663283228874207,-0.2565849125385284,15.58404922485352,-40.56278610229492,4.826203346252441,2,0.0.0.0,10.83.46.32,1,0
2015-02-26 19:56:20.714,4,1425009380.062496,37.76008478369354,-122.4614107982464,126.8503,0,-1,10,200,-9999,1425009380.69182,14.31349563598633,-40.29660034179688,3.338790893554688,238.8323822021484,225.0544128417969,10,120371.9519959583,-0.02349853515625,-0.9960479736328125,-0.1590728759765625,120371.9080646667,-0.1619433637783014,-0.03719477304848267,-0.09051179070408703,120371.9080646667,1.035822546780501,0.06411315849862861,1.297494368994029,-0.1682592779397964,-0.02659954689443111,-0.0546649731695652,0.06142700836062431,-0.06432151049375534,0.06040399894118309,XTrueNorthZVertical,-0.5120388190032639,-0.3211499953702056,-0.4111120009423326,-0.6823971618243113,0.01729308441281319,-0.9628849029541016,-0.2693578600883484,15.22289562225342,-40.74042510986328,4.469406127929688,2,0.0.0.0,10.83.46.32,1,0
2015-02-26 19:56:20.791,5,1425009380.062496,37.76008478369354,-122.4614107982464,126.8503,0,-1,10,200,-9999,1425009380.744176,14.27939987182617,-40.19464111328125,3.638359069824219,238.4387969970703,224.6608276367188,10,120372.0010169583,-0.002197265625,-0.9176177978515625,-0.169281005859375,120371.95984475,0.01563435349541917,0.4553376958018239,0.01049418627545724,120371.95984475,1.034611674527446,0.07372379231598283,1.295955340898362,0.009318488650023937,0.4659328460693359,0.04634068161249161,-0.04348861053586006,-0.03357960656285286,0.111583910882473,XTrueNorthZVertical,-0.5097125056858679,-0.3238283027997941,-0.4133654767997806,-0.6815111223747948,0.01999007351696491,-0.9624683856964111,-0.2706567943096161,15.2427396774292,-40.74222183227539,4.384583473205566,2,0.0.0.0,10.83.46.32,1,0
2015-02-26 19:56:20.813,6,1425009380.062496,37.76008478369354,-122.4614107982464,126.8503,0,-1,10,200,-9999,1425009380.797546,14.22825241088867,-40.38154602050781,4.254142761230469,236.9547271728516,223.1767578125,10,120372.05007575,0.0079803466796875,-0.905975341796875,-0.1341400146484375,120372.0634050417,-0.5172423427084978,0.8309685780742302,-0.005371329602580815,120372.0116248333,1.057228084586653,0.08928573195502666,1.296834587181336,-0.08183904737234116,0.9218595027923584,0.1560915559530258,-0.02571087516844273,0.05769257619976997,0.1111142486333847,XTrueNorthZVertical,-0.5030349439085032,-0.3349938287613616,-0.4248498518243041,-0.6739715266840753,0.02412396110594273,-0.9627066254615784,-0.2694699466228485,14.90190505981445,-40.81033706665039,4.893261909484863,2,0.0.0.0,10.83.46.32,1,0
2015-02-26 19:56:20.881,7,1425009380.062496,37.76008478369354,-122.4614107982464,126.8503,0,-1,10,200,-9999,1425009380.848493,14.24530410766602,-40.6024169921875,4.237503051757812,235.6779327392578,221.8999633789062,10,120372.0991074583,-0.0173797607421875,-1.054946899414062,-0.1959228515625,120372.0634050417,-0.5172423427084978,0.8309685780742302,-0.005371329602580815,120372.0634050417,1.087225977709709,0.1045518161447763,1.281617605869163,-0.5235534310340881,0.8415376543998718,0.03055995143949986,-0.01894177310168743,0.03201050311326981,0.1488576978445053,XTrueNorthZVertical,-0.4892983881202683,-0.3446491735086424,-0.4407882467351933,-0.6689617265584445,0.02976025454699993,-0.9584783911705017,-0.283608078956604,14.39854145050049,-40.96472930908203,5.105627059936523,2,0.0.0.0,10.83.46.32,1,0
2015-02-26 19:56:20.911,8,1425009380.062496,37.76008478369354,-122.4614107982464,126.8503,0,-1,10,200,-9999,1425009380.898719,13.98957061767578,-40.85728454589844,3.821441650390625,233.7166748046875,219.9387054443359,10,120372.1482700417,0.1178741455078125,-1.00115966796875,-0.2869720458984375,120372.1151849583,-0.3971348428103601,1.062850813135756,-0.0995114109757918,120372.1151849583,1.088305863298378,0.1483191897882004,1.254676952611283,-0.4034456312656403,1.07341992855072,-0.06358049064874649,-0.05323439463973045,-0.105596549808979,0.08569621294736862,XTrueNorthZVertical,-0.4697768238794419,-0.3543670564453753,-0.4551785105751924,-0.6682411870273766,0.04594069346785545,-0.9504489898681641,-0.3074674606323242,14.23647689819336,-41.07713317871094,4.635322570800781,2,0.0.0.0,10.83.46.32,1,0
2015-02-26 19:56:20.985,9,1425009380.062496,37.76008478369354,-122.4614107982464,126.8503,0,-1,10,200,-9999,1425009380.950623,13.32466125488281,-40.97624206542969,3.771507263183594,230.9296722412109,217.1517028808594,10,120372.1972049583,0.2635498046875,-0.8852386474609375,-0.3319091796875,120372.1669651667,-0.06474810400255147,1.353954826621811,0.08947954946557232,120372.1669651667,1.099892994418339,0.2033570260321027,1.246352660519533,-0.07105877250432968,1.364523768424988,0.1254100054502487,0.09116750210523605,-0.02592666074633598,0.01494109816849232,XTrueNorthZVertical,-0.4519165621522439,-0.3737178178027357,-0.4727125633238592,-0.6577608087004486,0.06438059359788895,-0.9478282332420349,-0.3122128248214722,13.92126655578613,-41.15083312988281,4.929686546325684,2,0.0.0.0,10.83.46.32,1,0
2015-02-26 19:56:21.008,10,1425009380.062496,37.76008478369354,-122.4614107982464,126.8503,0,-1,10,200,-9999,1425009381.003127,12.83023071289062,-41.26510620117188,3.754875183105469,228.4784545898438,214.7004852294922,10,120372.2462652083,0.187744140625,-0.882415771484375,-0.31463623046875,120372.2187450833,-0.06800461738350037,0.4911846430226174,0.1675333389063777,120372.2187450833,1.131051038064409,0.2221061747493673,1.245255664087132,-0.07431521266698837,0.501753568649292,0.2034633904695511,0.1856518536806107,0.08048881590366364,-0.0322885625064373,XTrueNorthZVertical,-0.441100454156424,-0.3865849203838621,-0.4871909366885987,-0.647014308466597,0.07045166194438934,-0.9474779367446899,-0.3119649887084961,13.33532238006592,-41.26837158203125,5.530390739440918,2,0.0.0.0,10.83.46.32,1,0
2015-02-26 19:56:21.091,11,1425009381.048713,37.76008478369354,-122.4614107982464,126.8224,0,-1,10,200,-9999,1425009381.057204,12.40399932861328,-41.75784301757812,3.937934875488281,227.0608673095703,213.2828979492188,10,120372.295305625,0.0795135498046875,-0.942657470703125,-0.2261810302734375,120372.2705252917,0.09583385182650139,-0.1963032018463947,0.1026398263083079,120372.2705252917,1.15500112497326,0.2017775679842946,1.246960192589692,0.0895233154296875,-0.1857344061136246,0.1385695189237595,0.07758545130491257,0.03998643904924393,0.03468082100152969,XTrueNorthZVertical,-0.4420515658134954,-0.385636430568223,-0.4902305387758397,-0.6446309106063801,0.06377197057008743,-0.9480217099189758,-0.3117499053478241,12.84006690979004,-41.41122436523438,5.633605003356934,2,0.0.0.0,10.83.46.32,1,0
2015-02-26 19:56:21.107,12,1425009381.048713,37.76008478369354,-122.4614107982464,126.8224,0,-1,10,200,-9999,1425009381.057204,12.40399932861328,-41.75784301757812,3.937934875488281,227.0608673095703,213.2828979492188,10,120372.3444306667,0.0787506103515625,-0.9503021240234375,-0.2074432373046875,120372.3223052083,0.3173201712567943,-0.06797345839874644,0.06597608758118702,120372.3223052083,1.168781271559878,0.1804756390237748,1.258397981764542,0.3110096752643585,-0.05740476027131081,0.1019054651260376,0.00899610947817564,0.004669263958930969,0.09748564660549164,XTrueNorthZVertical,-0.4486429721290943,-0.3841151000474249,-0.4884589137438103,-0.6423262399561224,0.05516709759831429,-0.9515991806983948,-0.3023501336574554,12.63701057434082,-41.44322967529297,5.853122711181641,2,0.0.0.0,10.83.46.32,1,0
2015-02-26 19:56:21.184,13,1425009381.048713,37.76008478369354,-122.4614107982464,126.8224,0,-1,10,200,-9999,1425009381.131917,11.56859588623047,-41.57093811035156,4.986419677734375,225.9048919677734,212.1269226074219,10,120372.3934020417,0.15521240234375,-0.95172119140625,-0.21484375,120372.3740854167,0.5549439153124225,0.03341521482944221,0.03852608727741328,120372.3740854167,1.167796656670291,0.1830741705231093,1.280605748605763,0.5486335158348083,0.04398379102349281,0.07445506751537323,0.07417469471693039,0.005110138095915318,0.06927132606506348,XTrueNorthZVertical,-0.4559576497896298,-0.3891349424943858,-0.4857926467914097,-0.6361463337384163,0.05209178850054741,-0.9581893682479858,-0.281353235244751,12.48291110992432,-41.38440704345703,6.557626724243164,2,0.0.0.0,10.83.46.32,1,0
2015-02-26 19:56:21.204,14,1425009381.048713,37.76008478369354,-122.4614107982464,126.8224,0,-1,10,200,-9999,1425009381.185086,11.15941619873047,-40.99320983886719,6.084831237792969,225.5232849121094,211.7453155517578,10,120372.4424714167,0.211700439453125,-0.9704742431640625,-0.181488037109375,120372.4258652917,0.7771820451184448,-0.1522806163951669,0.09052031281957529,120372.4258652917,1.161643261897294,0.1861807190405103,1.31524612503925,0.7708716988563538,-0.1417121440172195,0.126448929309845,0.1413346529006958,0.006831003818660975,0.04438420385122299,XTrueNorthZVertical,-0.4684207592605589,-0.3954456416009455,-0.4798962035432563,-0.6276180415942259,0.0467909500002861,-0.9675243496894836,-0.2484094798564911,12.28054046630859,-41.16603088378906,8.126548767089844,2,0.0.0.0,10.83.46.32,1,0
2015-02-26 19:56:21.273,15,1425009381.048713,37.76008478369354,-122.4614107982464,126.8224,0,-1,10,200,-9999,1425009381.23527,11.10826873779297,-40.46649169921875,7.732444763183594,225.9642333984375,212.1862640380859,10,120372.4915133333,0.23944091796875,-0.996246337890625,-0.1686859130859375,120372.4776455417,0.7378841737571266,-0.5488697774981698,0.1336289013846879,120372.4258652917,1.161643261897294,0.1861807190405103,1.31524612503925,0.7708716988563538,-0.1417121440172195,0.126448929309845,0.1413346529006958,0.006831003818660975,0.04438420385122299,XTrueNorthZVertical,-0.4684207592605589,-0.3954456416009455,-0.4798962035432563,-0.6276180415942259,0.0467909500002861,-0.9675243496894836,-0.2484094798564911,12.28054046630859,-41.16603088378906,8.126548767089844,2,0.0.0.0,10.83.46.32,1,0
2015-02-26 19:56:21.302,16,1425009381.048713,37.76008478369354,-122.4614107982464,126.8224,0,-1,10,200,-9999,1425009381.287591,11.3128662109375,-40.12666320800781,8.531295776367188,227.4035339355469,213.6255645751953,10,120372.5405807083,0.1095428466796875,-1.019821166992188,-0.1173858642578125,120372.529425375,0.5597240231530057,-0.9363506613569926,0.1351682084947537,120372.529425375,1.186806319040394,0.1056831344326568,1.387457087918527,0.5534138083457947,-0.9257823824882507,0.17109614610672,0.1545354127883911,-0.02443478442728519,0.04343368113040924,XTrueNorthZVertical,-0.5066486833543518,-0.390715615395385,-0.4573375184783927,-0.6176494549586824,0.01923167146742344,-0.9832403659820557,-0.1812968403100967,12.09958934783936,-40.72966384887695,10.30480670928955,2,0.0.0.0,10.83.46.32,1,0
2015-02-26 19:56:21.374,17,1425009381.048713,37.76008478369354,-122.4614107982464,126.8224,0,-1,10,200,-9999,1425009381.338792,11.6197509765625,-39.92277526855469,9.396705627441406,229.6821136474609,215.9041442871094,10,120372.589622375,0.0930938720703125,-1.055511474609375,-0.0960540771484375,120372.5812054167,0.3131344809715168,-0.601273863532095,-0.08079364957027889,120372.529425375,1.186806319040394,0.1056831344326568,1.387457087918527,0.5534138083457947,-0.9257823824882507,0.17109614610672,0.1545354127883911,-0.02443478442728519,0.04343368113040924,XTrueNorthZVertical,-0.5066486833543518,-0.390715615395385,-0.4573375184783927,-0.6176494549586824,0.01923167146742344,-0.9832403659820557,-0.1812968403100967,12.09958934783936,-40.72966384887695,10.30480670928955,2,0.0.0.0,10.83.46.32,1,0
2015-02-26 19:56:21.401,18,1425009381.048713,37.76008478369354,-122.4614107982464,126.8224,0,-1,10,200,-9999,1425009381.391253,11.977783203125,-40.10969543457031,9.280204772949219,231.6449737548828,217.8670043945312,10,120372.6386996667,0.2948455810546875,-1.015579223632812,-0.1999969482421875,120372.632985625,-0.2202599337483115,-0.543972490569623,-0.1204257476484021,120372.5812054167,1.196732400676523,0.05485418234828893,1.410194714003604,0.3068243265151978,-0.5907056927680969,-0.04486610367894173,0.04913964495062828,-0.0632074847817421,0.07440565526485443,XTrueNorthZVertical,-0.5235382813818987,-0.3821933864856795,-0.4434992451073847,-0.6189865413082101,0.008767459541559219,-0.9871312379837036,-0.1596717685461044,12.3882942199707,-40.49501037597656,10.87101268768311,2,0.0.0.0,10.83.46.32,1,0
2015-02-26 19:56:21.477,19,1425009381.048713,37.76008478369354,-122.4614107982464,126.8224,0,-1,10,200,-9999,1425009381.44303,12.74499130249023,-39.95675659179688,9.196983337402344,232.9108428955078,219.1328735351562,10,120372.687739625,0.2426605224609375,-1.043441772460938,-0.1789093017578125,120372.6847656667,-0.2542498587409928,-1.401668553343888,-0.03999828272800909,120372.632985625,1.165184935364399,0.062228896229475,1.409604557262034,-0.2265700250864029,-0.5334044694900513,-0.0844985619187355,0.262403666973114,-0.03862857073545456,-0.02488967962563038,XTrueNorthZVertical,-0.527707933691937,-0.3760747930059729,-0.4357295705276557,-0.6246854117306646,0.009980970993638039,-0.9870367050170898,-0.1601841747760773,12.80068206787109,-40.40302276611328,10.73464965820312,2,0.0.0.0,10.83.46.32,1,0
2015-02-26 19:56:21.498,20,1425009381.048713,37.76008478369354,-122.4614107982464,126.8224,0,-1,10,200,-9999,1425009381.44303,12.74499130249023,-39.95675659179688,9.196983337402344,232.9108428955078,219.1328735351562,10,120372.736814375,0.071075439453125,-1.04217529296875,-0.145843505859375,120372.73654575,-0.09789913325185784,-1.448832603616974,0.1015806871427834,120372.6847656667,1.160526616171105,0.01766048289861736,1.395550855275747,-0.2605599164962769,-1.391100645065308,-0.004071420524269342,0.2748599052429199,-0.04751227423548698,-0.0208828542381525,XTrueNorthZVertical,-0.5336162222366807,-0.3578998607115246,-0.4248333653588551,-0.637713151992037,0.003078945446759462,-0.9846837520599365,-0.1743228286504745,13.24141502380371,-40.49984359741211,9.79396915435791,2,0.0.0.0,10.83.46.32,1,0
2015-02-26 19:56:21.541,21,1425009381.048713,37.76008478369354,-122.4614107982464,126.8224,0,-1,10,200,-9999,1425009381.496074,13.58040237426758,-40.14366149902344,8.348213195800781,235.5282135009766,221.750244140625,10,120372.7858570833,0.0676116943359375,-0.996185302734375,-0.11236572265625,120372.73654575,-0.09789913325185784,-1.448832603616974,0.1015806871427834,120372.73654575,1.178861332056287,-0.07676707441677932,1.3869121121635,-0.1042091026902199,-1.438264727592468,0.1375071853399277,0.1204226016998291,-0.07087522745132446,0.03364492952823639,XTrueNorthZVertical,-0.5473522859629578,-0.3305296033405142,-0.4067962874695578,-0.6524357994047352,-0.01402306370437145,-0.9831408858299255,-0.1823113113641739,13.92466163635254,-40.64522933959961,8.097145080566406,2,0.0.0.0,10.83.46.32,1,0
2015-02-26 19:56:21.597,22,1425009381.048713,37.76008478369354,-122.4614107982464,126.8224,0,-1,10,200,-9999,1425009381.546836,14.04073715209961,-40.16062927246094,7.299728393554688,238.8206634521484,225.0426940917969,10,120372.8350400833,0.1060791015625,-0.93280029296875,-0.1435546875,120372.8401056667,-0.06508632546099154,-0.7922334326512457,0.09595502565609999,120372.788325625,1.211699040128544,-0.1655967819297779,1.383469702362181,-0.04853485524654388,-0.905360996723175,0.1251768916845322,0.09831054508686066,-0.01367968693375587,0.07131975144147873,XTrueNorthZVertical,-0.5588191269150825,-0.3096424502166635,-0.3936969627965753,-0.6609428669557319,-0.03069884888827801,-0.9825056195259094,-0.1836854666471481,14.1024341583252,-40.74875640869141,7.221811294555664,2,0.0.0.0,10.83.46.32,1,0
2015-02-26 19:56:21.643,23,1425009381.048713,37.76008478369354,-122.4614107982464,126.8224,0,-1,10,200,-9999,1425009381.599496,14.2794303894043,-40.29655456542969,6.367759704589844,241.2768707275391,227.4989013671875,10,120372.8839835,0.0970001220703125,-0.9443206787109375,-0.1328582763671875,120372.8401056667,-0.06508632546099154,-0.7922334326512457,0.09595502565609999,120372.8401056667,1.247244047906912,-0.2405355780520115,1.378426126044648,-0.07139617204666138,-0.7816658020019531,0.1318807750940323,0.1516239792108536,0.04875355213880539,0.04212722554802895,XTrueNorthZVertical,-0.5665712794828062,-0.2935234708031562,-0.3854924985099367,-0.6665107099084572,-0.04554488137364388,-0.981553852558136,-0.1856819093227386,14.09103775024414,-40.86272430419922,6.570773601531982,2,0.0.0.0,10.83.46.32,1,0
2015-02-26 19:56:21.696,24,1425009381.048713,37.76008478369354,-122.4614107982464,126.8224,0,-1,10,200,-9999,1425009381.650446,14.50106811523438,-40.27955627441406,5.41912841796875,243.6262359619141,229.8482666015625,10,120372.9331025417,0.1212005615234375,-0.9187164306640625,-0.1775054931640625,120372.8918857917,-0.1519330738729115,-0.8643148170314393,-0.05252392828297877,120372.8918857917,1.253491285044377,-0.2882157808858244,1.372694121256365,-0.158242866396904,-0.8537472486495972,-0.01659850589931011,0.1529415547847748,0.03612116724252701,0.05583300441503525,XTrueNorthZVertical,-0.5731080933526765,-0.2778515311443252,-0.3752921074902398,-0.6734252070625013,-0.05594144016504288,-0.9804418683052063,-0.1886912733316422,14.18841552734375,-40.96616744995117,5.652995109558105,2,0.0.0.0,10.83.46.32,1,0
2015-02-26 19:56:21.742,25,1425009381.048713,37.76008478369354,-122.4614107982464,126.8224,0,-1,10,200,-9999,1425009381.703026,14.9954948425293,-40.53440856933594,5.003067016601562,245.1877899169922,231.4098205566406,10,120372.9821970833,0.1314849853515625,-0.92822265625,-0.1778106689453125,120372.9436659583,-0.08813039205733818,-0.8613352724038587,-0.1236596241600853,120372.9436659583,1.225533372545037,-0.302778020021306,1.367101916574828,-0.09444013237953186,-0.8507677316665649,-0.08773742616176605,0.1855764836072922,0.05670324340462685,0.01460507232695818,XTrueNorthZVertical,-0.577986695689839,-0.2634156707065076,-0.3629044433578246,-0.6817946644702891,-0.06031708419322968,-0.9793259501457214,-0.1930871307849884,14.50764465332031,-40.95909118652344,4.834819793701172,2,0.0.0.0,10.83.46.32,1,0
2015-02-26 19:56:21.794,26,1425009381.048713,37.76008478369354,-122.4614107982464,126.8224,0,-1,10,200,-9999,1425009381.753673,15.57516479492188,-40.43244934082031,4.170944213867188,247.5206756591797,233.7427062988281,10,120373.0311932917,0.0631561279296875,-0.9257659912109375,-0.1600341796875,120372.9954458333,-0.03313212080556679,-1.022259710749096,-0.1698478922097656,120372.9954458333,1.192806058177679,-0.3177984643886192,1.365931000997917,-0.03944185003638268,-1.01169216632843,-0.1339273601770401,0.1800390332937241,0.05255946144461632,0.01684168539941311,XTrueNorthZVertical,-0.58450639437493,-0.2484512061848975,-0.3475816515025524,-0.6897907683465117,-0.06356869637966156,-0.9790883660316467,-0.1932485401630402,14.88747596740723,-40.90314865112305,4.097568511962891,2,0.0.0.0,10.83.46.32,1,0
2015-02-26 19:56:21.843,27,1425009381.048713,37.76008478369354,-122.4614107982464,126.8224,0,-1,10,200,-9999,1425009381.806183,16.20598983764648,-40.24554443359375,3.521881103515625,250.1635437011719,236.3855743408203,10,120373.0802527917,0.0464935302734375,-0.98095703125,-0.155792236328125,120373.047226125,0.02733601700911834,-0.8720568926364087,-0.1994356119205459,120373.047226125,1.154728312210052,-0.3284021596062263,1.368529727352678,0.02096224017441273,-0.8614804744720459,-0.163450300693512,0.1214034780859947,0.04394481331110001,0.03495743498206139,XTrueNorthZVertical,-0.5916545043351763,-0.2342384650324671,-0.3306785549563212,-0.6969426215753731,-0.06479337066411972,-0.9796137809753418,-0.1901545822620392,15.47832870483398,-40.76553726196289,3.175980091094971,2,0.0.0.0,10.83.46.32,1,0
2015-02-26 19:56:21.891,28,1425009381.048713,37.76008478369354,-122.4614107982464,126.8224,0,-1,10,200,-9999,1425009381.858377,17.22894668579102,-39.939697265625,2.922744750976562,253.2970428466797,239.5190734863281,10,120373.1294334167,0.0771484375,-1.011260986328125,-0.18768310546875,120373.099006,0.1304834418211953,-0.4682881155506612,-0.1939119495036125,120373.099006,1.077211607838445,-0.2828025474172208,1.379509142644191,0.1241174936294556,-0.4577087461948395,-0.1579580456018448,0.1085801422595978,-0.006032643374055624,0.02558826841413975,XTrueNorthZVertical,-0.5965685406075402,-0.2298273946714065,-0.3147494354289443,-0.7015826205019106,-0.05305341258645058,-0.9817603230476379,-0.1825706958770752,15.90286636352539,-40.63057708740234,2.783791542053223,2,0.0.0.0,10.83.46.32,1,0
2015-02-26 19:56:21.930,29,1425009381.048713,37.76008478369354,-122.4614107982464,126.8224,0,-1,10,200,-9999,1425009381.910826,18.16664886474609,-39.99067687988281,2.606536865234375,255.6482086181641,241.8702392578125,10,120373.1784260417,0.08642578125,-1.027618408203125,-0.194366455078125,120373.1507861667,0.2186138338785335,-0.2163235153410654,-0.1588415800566861,120373.1507861667,1.010148842221182,-0.2305800113393813,1.391794056367246,0.2122481614351273,-0.2057428807020187,-0.1229180321097374,0.1220971345901489,-0.03874428570270538,-0.02052709460258484,XTrueNorthZVertical,-0.6000237446238387,-0.2308757150831679,-0.3043589064250811,-0.7028752390213892,-0.04069149494171143,-0.9840218424797058,-0.1733358204364777,16.90430450439453,-40.21438217163086,2.922749996185303,2,0.0.0.0,10.83.46.32,1,0
2015-02-26 19:56:21.989,30,1425009381.048713,37.76008478369354,-122.4614107982464,126.8224,0,-1,10,200,-9999,1425009381.96123,18.26894378662109,-39.41294860839844,2.73968505859375,256.8800354003906,243.10205078125,10,120373.2275742917,0.08251953125,-1.0501708984375,-0.2022857666015625,120373.202566125,0.1854050140335724,-0.005597964611346559,-0.1322983861040843,120373.202566125,0.9428021804401571,-0.1670334678517796,1.403332216834637,0.1790370345115662,0.004983233287930489,-0.09640517830848694,0.1110863238573074,-0.04200451076030731,-0.03847226873040199,XTrueNorthZVertical,-0.6020191557082114,-0.2353540503547207,-0.2976709660164857,-0.7025478194472149,-0.02771229669451714,-0.9860106110572815,-0.1643628180027008,17.52060127258301,-39.92285919189453,3.269265174865723,2,0.0.0.0,10.83.46.32,1,0
2015-02-26 19:56:22.028,31,1425009381.048713,37.76008478369354,-122.4614107982464,126.8224,0,-1,10,200,-9999,1425009382.013606,18.47353363037109,-39.20904541015625,2.83953857421875,257.4736938476562,243.6957092285156,10,120373.276500375,0.0318756103515625,-1.336715698242188,-0.173004150390625,120373.2543462917,0.1017889463400276,-0.003777960322386407,-0.2814258197685974,120373.2543462917,0.86059031298745,-0.08167065418604637,1.409436084040832,0.09541438519954681,0.00680207833647728,-0.2455584108829498,0.09777773916721344,-0.1837819665670395,0.004913195967674255,XTrueNorthZVertical,-0.6012475408747613,-0.2417407608341384,-0.2934734602144197,-0.7028059211264404,-0.01310671679675579,-0.9870096445083618,-0.1601255983114243,17.9969482421875,-39.68995666503906,3.508796215057373,2,0.0.0.0,10.83.46.32,1,0
2015-02-26 19:56:22.087,32,1425009382.040474,37.76008478369354,-122.4614107982464,126.8189,0,-1,10,200,-9999,1425009382.065716,18.84861755371094,-38.83523559570312,2.63983154296875,258.6573791503906,244.87939453125,10,120373.3256869583,-0.1798248291015625,-1.024505615234375,-0.1847381591796875,120373.3061262083,0.02668540675481198,-0.5749471845761167,-0.2913365074492182,120373.3061262083,0.7697011960986743,-0.01073811379071233,1.411253719083058,0.02031091600656509,-0.5643672347068787,-0.2554695010185242,-0.1004669517278671,-0.1968124955892563,-0.03700414672493935,XTrueNorthZVertical,-0.602601083017134,-0.2396729031231734,-0.2825408211420136,-0.7068235664723613,-0.001705897273495793,-0.9873000383377075,-0.158857673406601,18.54557228088379,-39.44601058959961,3.401226043701172,2,0.0.0.0,10.83.46.32,1,0
2015-02-26 19:56:22.127,33,1425009382.040474,37.76008478369354,-122.4614107982464,126.8189,0,-1,10,200,-9999,1425009382.117281,19.47944259643555,-38.54638671875,2.49005126953125,260.255859375,246.4778747558594,10,120373.374733375,-0.15509033203125,-0.9689788818359375,-0.0479278564453125,120373.3579064583,-0.1641109105895169,-0.1053581148329518,-0.3040714774658682,120373.3061262083,0.7697011960986743,-0.01073811379071233,1.411253719083058,0.02031091600656509,-0.5643672347068787,-0.2554695010185242,-0.1004669517278671,-0.1968124955892563,-0.03700414672493935,XTrueNorthZVertical,-0.602601083017134,-0.2396729031231734,-0.2825408211420136,-0.7068235664723613,-0.001705897273495793,-0.9873000383377075,-0.158857673406601,18.54557228088379,-39.44601058959961,3.401226043701172,2,0.0.0.0,10.83.46.32,1,0
2015-02-26 19:56:22.187,34,1425009382.040474,37.76008478369354,-122.4614107982464,126.8189,0,-1,10,200,-9999,1425009382.169201,20.09320831298828,-38.13859558105469,1.757781982421875,261.8874206542969,248.1094360351562,10,120373.423712,-0.13909912109375,-1.066757202148438,-0.1663818359375,120373.409686375,-0.476483727489271,0.3701365146274638,-0.2396759759916432,120373.409686375,0.6275328250232208,0.1229101229617662,1.387550732356682,-0.4828580915927887,0.3807162344455719,-0.2038096487522125,-0.1376359760761261,-0.07446654140949249,0.06182871386408806,XTrueNorthZVertical,-0.5925031928487644,-0.24190149154823,-0.2742035471171336,-0.7177994741404934,0.0223405733704567,-0.9832574725151062,-0.1808472722768784,19.67049789428711,-38.97341156005859,2.374712467193604,2,0.0.0.0,10.83.46.32,1,0
2015-02-26 19:56:22.225,35,1425009382.040474,37.76008478369354,-122.4614107982464,126.8189,0,-1,10,200,-9999,1425009382.221088,20.62173461914062,-37.95169067382812,1.940849304199219,260.8962707519531,247.1182861328125,10,120373.4727540833,-0.1840972900390625,-1.054534912109375,-0.10760498046875,120373.4614665417,-0.07550221480040045,0.4846676215190845,-0.111180317608083,120373.4614665417,0.6059397940331044,0.1641888742372941,1.373414565351089,-0.08187652379274368,0.4952472448348999,-0.07531435787677765,-0.2122444659471512,-0.07971934974193573,0.06300277262926102,XTrueNorthZVertical,-0.5841603486749112,-0.2490461386680958,-0.2795740845182831,-0.7201187920013665,0.03205341845750809,-0.9805833697319031,-0.1934654116630554,19.90188980102539,-38.87334442138672,2.066965103149414,2,0.0.0.0,10.83.46.32,1,0
2015-02-26 19:56:22.284,36,1425009382.040474,37.76008478369354,-122.4614107982464,126.8189,0,-1,10,200,-9999,1425009382.272411,20.86042404174805,-38.08761596679688,2.340263366699219,259.9143676757812,246.1363983154297,10,120373.521834,-0.1170196533203125,-0.95556640625,-0.0985260009765625,120373.5132465,0.05987025814996234,1.056546311887212,0.05395164894337025,120373.4614665417,0.6059397940331044,0.1641888742372941,1.373414565351089,-0.08187652379274368,0.4952472448348999,-0.07531435787677765,-0.2122444659471512,-0.07971934974193573,0.06300277262926102,XTrueNorthZVertical,-0.5841603486749112,-0.2490461386680958,-0.2795740845182831,-0.7201187920013665,0.03205341845750809,-0.9805833697319031,-0.1934654116630554,19.90188980102539,-38.87334442138672,2.066965103149414,2,0.0.0.0,10.83.46.32,1,0
2015-02-26 19:56:22.323,37,1425009382.040474,37.76008478369354,-122.4614107982464,126.8189,0,-1,10,200,-9999,1425009382.272411,20.86042404174805,-38.08761596679688,2.340263366699219,259.9143676757812,246.1363983154297,10,120373.57098,-0.1183013916015625,-0.8858795166015625,-0.0171356201171875,120373.5650267083,-0.1728775042658397,1.367417904880488,0.1407086488265546,120373.5132465,0.6400016505515227,0.1694300662462927,1.37966136971777,0.0535055585205555,1.067127108573914,0.08984418213367462,-0.1566061973571777,-0.0009988299570977688,0.07958722114562988,XTrueNorthZVertical,-0.5814021581092379,-0.2614286019912245,-0.2928876394841057,-0.7126313792708602,0.03203343972563744,-0.981789231300354,-0.1872532367706299,19.65719413757324,-38.94114303588867,2.94559383392334,2,0.0.0.0,10.83.46.32,1,0
2015-02-26 19:56:22.381,38,1425009382.040474,37.76008478369354,-122.4614107982464,126.8189,0,-1,10,200,-9999,1425009382.324602,20.34894561767578,-37.8497314453125,2.906112670898438,258.2052917480469,244.4273223876953,10,120373.6199335417,-0.1133270263671875,-0.959930419921875,0.0683441162109375,120373.616806625,-0.3208533870750025,1.872796397564901,0.2187334098114781,120373.616806625,0.7491450863973683,0.2064464645655987,1.36667743058944,-0.3272176384925842,1.883377075195312,0.2546255588531494,-0.1673444658517838,0.03386643156409264,0.2466027587652206,XTrueNorthZVertical,-0.5552451962547174,-0.3041424877347227,-0.342761427282456,-0.6940567402130128,0.04155101627111435,-0.9792399406433105,-0.1984002441167831,18.49370193481445,-39.31871032714844,4.849402904510498,2,0.0.0.0,10.83.46.32,1,0
2015-02-26 19:56:22.420,39,1425009382.040474,37.76008478369354,-122.4614107982464,126.8189,0,-1,10,200,-9999,1425009382.377096,19.68402862548828,-38.00263977050781,4.054458618164062,254.6331634521484,240.8551940917969,10,120373.6689706667,-0.0557708740234375,-0.973480224609375,0.1217041015625,120373.616806625,-0.3208533870750025,1.872796397564901,0.2187334098114781,120373.616806625,0.7491450863973683,0.2064464645655987,1.36667743058944,-0.3272176384925842,1.883377075195312,0.2546255588531494,-0.1673444658517838,0.03386643156409264,0.2466027587652206,XTrueNorthZVertical,-0.5552451962547174,-0.3041424877347227,-0.342761427282456,-0.6940567402130128,0.04155101627111435,-0.9792399406433105,-0.1984002441167831,18.49370193481445,-39.31871032714844,4.849402904510498,2,0.0.0.0,10.83.46.32,1,0
2015-02-26 19:56:22.480,40,1425009382.040474,37.76008478369354,-122.4614107982464,126.8189,0,-1,10,200,-9999,1425009382.432175,18.43943405151367,-38.15556335449219,5.102951049804688,249.2268829345703,235.4489135742188,10,120373.718028375,0.10040283203125,-0.99847412109375,0.2071533203125,120373.7203667917,-0.1857666713096052,3.119011178074793,0.6591898940741572,120373.66858675,0.8466326978509429,0.2262614752049129,1.355763051354925,-0.2445210814476013,2.636939287185669,0.4544078409671783,-0.1159840375185013,0.01134734600782394,0.3273414373397827,XTrueNorthZVertical,-0.5320117418015913,-0.3361440160081046,-0.3824661746860099,-0.676528172203831,0.04786880314350128,-0.976969301700592,-0.2079414129257202,17.01950454711914,-39.75788497924805,6.414173603057861,2,0.0.0.0,10.83.46.32,1,0
2015-02-26 19:56:22.520,41,1425009382.040474,37.76008478369354,-122.4614107982464,126.8189,0,-1,10,200,-9999,1425009382.506584,15.5069694519043,-39.00508117675781,7.233192443847656,238.1789093017578,224.4009399414062,10,120373.767182625,0.22149658203125,-1.04937744140625,0.2283935546875,120373.7203667917,-0.1857666713096052,3.119011178074793,0.6591898940741572,120373.7203667917,0.9899395152554877,0.2324756383271678,1.353363713666707,-0.1921307891607285,3.129591703414917,0.6950812935829163,0.05070287734270096,-0.02201960794627666,0.417073667049408,XTrueNorthZVertical,-0.5043845626151282,-0.3750147128401802,-0.4317500409739201,-0.646956038495033,0.04969995468854904,-0.976454496383667,-0.2099203616380692,15.08999633789062,-40.22080230712891,8.128561019897461,2,0.0.0.0,10.83.46.32,1,0
2015-02-26 19:56:22.578,42,1425009382.040474,37.76008478369354,-122.4614107982464,126.8189,0,-1,10,200,-9999,1425009382.55816,12.09712600708008,-39.51481628417969,8.897445678710938,228.2422790527344,214.4643096923828,10,120373.8162315417,0.2821807861328125,-1.057952880859375,0.272430419921875,120373.772147,-0.2091974288962313,3.542196263719982,0.7329501352055368,120373.772147,1.164224641794546,0.2308428508118135,1.352223532084358,-0.2155579328536987,3.552778005599976,0.7688378095626831,0.1718847453594208,-0.0731695294380188,0.4394784569740295,XTrueNorthZVertical,-0.4698377456970108,-0.4167853728856454,-0.4861862382038767,-0.6075898476154071,0.04961182922124863,-0.9762079119682312,-0.2110848873853683,12.47074031829834,-40.74101257324219,9.805352210998535,2,0.0.0.0,10.83.46.32,1,0
2015-02-26 19:56:22.617,43,1425009382.040474,37.76008478369354,-122.4614107982464,126.8189,0,-1,10,200,-9999,1425009382.610483,8.192863464355469,-39.97360229492188,10.17893218994141,216.0433807373047,202.2654113769531,10,120373.86526925,0.339935302734375,-0.991729736328125,0.3315277099609375,120373.8239270833,-0.01724290279382704,3.683505988004567,0.7351541673236863,120373.8239270833,1.348815228906476,0.2323093354054374,1.356310448436539,-0.02360294386744499,3.694087743759155,0.7710409164428711,0.2331783920526505,-0.08086693286895752,0.4795580804347992,XTrueNorthZVertical,-0.4303573696937139,-0.459596243644377,-0.5397798218126771,-0.5587500394804344,0.04900239035487175,-0.9770859479904175,-0.2071276605129242,8.208356857299805,-41.31257247924805,11.72129249572754,2,0.0.0.0,10.83.46.32,1,0
2015-02-26 19:56:22.676,44,1425009382.040474,37.76008478369354,-122.4614107982464,126.8189,0,-1,10,200,-9999,1425009382.662531,3.538436889648438,-39.68476867675781,10.76142120361328,202.4782409667969,188.7002716064453,10,120373.914209125,0.2635345458984375,-1.04071044921875,0.2830657958984375,120373.927487125,-0.3312402479585295,3.642201158445765,0.993634723772379,120373.8757071667,1.52999524092832,0.2414492867226377,1.363012931940637,-0.1308377087116241,3.757872343063354,0.7806318998336792,0.2866721153259277,-0.006021744105964899,0.5403649806976318,XTrueNorthZVertical,-0.3863651930451578,-0.5005678124992402,-0.5886549443154047,-0.5036260464900102,0.04932641610503197,-0.9784905910491943,-0.2003076076507568,4.724753379821777,-41.55233383178711,12.7504825592041,2,0.0.0.0,10.83.46.32,1,0
2015-02-26 19:56:22.715,45,1425009382.040474,37.76008478369354,-122.4614107982464,126.8189,0,-1,10,200,-9999,1425009382.662531,3.538436889648438,-39.68476867675781,10.76142120361328,202.4782409667969,188.7002716064453,10,120373.963247625,0.0773773193359375,-1.134445190429688,0.0034637451171875,120373.927487125,-0.3312402479585295,3.642201158445765,0.993634723772379,120373.927487125,1.752357034308134,0.2115956812785008,1.359920052884722,-0.3376001417636871,3.652782678604126,1.029520750045776,0.1787717342376709,-0.0753747820854187,0.4626441895961761,XTrueNorthZVertical,-0.3371264182870162,-0.5329366604484645,-0.6365873277171465,-0.4439379502928023,0.0439608059823513,-0.9778478741645813,-0.2046485841274261,1.000169992446899,-41.78547286987305,12.8245267868042,2,0.0.0.0,10.83.46.32,1,0
2015-02-26 19:56:22.774,46,1425009382.040474,37.76008478369354,-122.4614107982464,126.8189,0,-1,10,200,-9999,1425009382.765289,-5.497650146484375,-39.2769775390625,9.829437255859375,178.8292694091797,165.0513000488281,10,120374.0123012917,0.268890380859375,-1.088424682617188,-0.38323974609375,120373.9792671667,-0.06826321032534706,3.430619667741695,1.129386963494187,120373.9792671667,2.0174728256923,0.1246243789553151,1.354889652028693,-0.07462306320667267,3.441200971603394,1.16527259349823,0.05399781093001366,-0.1437160968780518,0.09604039788246155,XTrueNorthZVertical,-0.2923383406664221,-0.555204836094692,-0.678829530938434,-0.3814136703850579,0.02662963047623634,-0.9767825603485107,-0.212571769952774,-4.268297672271729,-41.91024017333984,11.69650554656982,2,0.0.0.0,10.83.46.32,1,0
2015-02-26 19:56:22.814,47,1425009382.040474,37.76008478369354,-122.4614107982464,126.8189,0,-1,10,200,-9999,1425009382.765289,-5.497650146484375,-39.2769775390625,9.829437255859375,178.8292694091797,165.0513000488281,10,120374.0613415417,0.4681243896484375,-1.165481567382812,-0.592437744140625,120374.03104725,0.4053245957945718,3.544539579163142,1.491401369429127,120374.03104725,2.334148749481294,-0.0006592050414730373,1.374344158550608,0.3989703357219696,3.555095911026001,1.527372479438782,0.3581914007663727,-0.1121607720851898,-0.218245804309845,XTrueNorthZVertical,-0.2494361887933516,-0.5832547021433702,-0.7108122525300258,-0.3038774708304542,-0.0001286709593841806,-0.9807652831077576,-0.1951910853385925,-8.525282859802246,-41.42580795288086,11.0777587890625,2,0.0.0.0,10.83.46.32,1,0
2015-02-26 19:56:22.873,48,1425009382.040474,37.76008478369354,-122.4614107982464,126.8189,0,-1,10,200,-9999,1425009382.817552,-10.49306488037109,-38.27449035644531,8.814239501953125,164.7319946289062,150.9540252685547,10,120374.1103955833,0.01385498046875,-1.027450561523438,-0.3501129150390625,120374.0828275,0.548744875243045,1.411582703133927,1.737034037830951,120374.0828275,2.792117154514298,-0.329526928929912,1.38275029976801,0.5423907041549683,1.422139048576355,1.77300488948822,0.4206308424472809,-0.1236619427800179,-0.4223767518997192,XTrueNorthZVertical,-0.2337762160130933,-0.5974176429533684,-0.7301839650930955,-0.2351005174660241,-0.06049289554357529,-0.9823713898658752,-0.1768816858530045,-12.94560432434082,-40.44047927856445,10.41505718231201,2,0.0.0.0,10.83.46.32,1,0
2015-02-26 19:56:22.911,49,1425009382.040474,37.76008478369354,-122.4614107982464,126.8189,0,-1,10,200,-9999,1425009382.869079,-15.28388214111328,-36.76225280761719,8.065322875976562,153.7337188720703,139.9557495117188,10,120374.1594790833,-0.3551177978515625,-0.9201507568359375,-0.0625,120374.134607625,0.5635635024965729,0.5437945914088057,1.191344873622663,120374.134607625,-3.064269508795132,-0.7112797334693908,1.370650178167372,0.5572109818458557,0.5543510317802429,1.227318406105042,-0.068624347448349,0.01951202005147934,-0.06966986507177353,XTrueNorthZVertical,-0.2464391571569404,-0.6032948977729985,-0.7337418550921503,-0.1921612180019685,-0.1297856867313385,-0.98003751039505,-0.1506060212850571,-17.38070297241211,-38.59475708007812,10.9476318359375,2,0.0.0.0,10.83.46.32,1,0
2015-02-26 19:56:22.975,50,1425009382.040474,37.76008478369354,-122.4614107982464,126.8189,0,-1,10,200,-9999,1425009382.921198,-19.42683410644531,-35.18206787109375,7.68255615234375,144.3355712890625,130.5576019287109,10,120374.2085185,-0.2552490234375,-0.9047393798828125,-0.01025390625,120374.1863875417,0.4067350059078778,1.855858160399779,0.9077459144045605,120374.1863875417,-2.797276180423359,-0.913224542249236,1.345666421963259,0.400394082069397,1.866417288780212,0.943716824054718,-0.1878939867019653,0.0668366476893425,0.1416883915662766,XTrueNorthZVertical,-0.2438972629861313,-0.6101593571938817,-0.7386335606815261,-0.1504665492685291,-0.1766842603683472,-0.9747651219367981,-0.1364393681287766,-19.8906135559082,-37.36316299438477,10.94768905639648,2,0.0.0.0,10.83.46.32,1,0
2015-02-26 19:56:23.010,51,1425009382.040474,37.76008478369354,-122.4614107982464,126.8189,0,-1,10,200,-9999,1425009382.972646,-22.51273345947266,-33.703857421875,6.900352478027344,136.5173797607422,122.7394027709961,10,120374.2576660417,0.0553436279296875,-0.962158203125,-0.10015869140625,120374.2381676667,0.2905162538334738,2.759605338427586,0.6759707384188555,120374.2381676667,-2.62957765691216,-0.9527379520918849,1.324189263055564,0.2841762602329254,2.770164728164673,0.7119389772415161,0.1527515202760696,0.02061907202005386,0.09576867520809174,XTrueNorthZVertical,-0.2115377450714081,-0.6201008285292379,-0.7494375405504218,-0.09523735169782963,-0.1989551335573196,-0.9697462916374207,-0.1414534896612167,-22.38795471191406,-36.33209991455078,9.500128746032715,2,0.0.0.0,10.83.46.32,1,0
2015-02-26 19:56:23.082,52,1425009383.05043,37.76008478369354,-122.4614107982464,126.8218,0,-1,10,200,-9999,1425009383.025181,-25.47928619384766,-32.276611328125,5.60223388671875,129.5478515625,115.7698745727539,10,120374.3066135417,0.144683837890625,-0.9222259521484375,-0.2162933349609375,120374.2899477917,0.1060489388197183,1.996829929542034,0.657638336423077,120374.2899477917,-2.527307415357582,-0.9284166477212059,1.300836808085966,0.09970714151859283,2.007388591766357,0.693605899810791,0.3459643721580505,0.0343383327126503,-0.02342086285352707,XTrueNorthZVertical,-0.1759333963699517,-0.6238263869325075,-0.7602737093167221,-0.04326663157080604,-0.213533341884613,-0.9637817144393921,-0.1597761511802673,-25.0960578918457,-35.25069427490234,6.250687599182129,2,0.0.0.0,10.83.46.32,1,0
2015-02-26 19:56:23.108,53,1425009383.05043,37.76008478369354,-122.4614107982464,126.8218,0,-1,10,200,-9999,1425009383.078317,-27.95142364501953,-31.13819885253906,2.989349365234375,122.2260360717773,108.4480590820312,10,120374.3557577083,0.0601043701171875,-0.903472900390625,-0.21112060546875,120374.3417280417,0.2473125904174454,1.004755818168441,0.7888488212218639,120374.2899477917,-2.527307415357582,-0.9284166477212059,1.300836808085966,0.09970714151859283,2.007388591766357,0.693605899810791,0.3459643721580505,0.0343383327126503,-0.02342086285352707,XTrueNorthZVertical,-0.1759333963699517,-0.6238263869325075,-0.7602737093167221,-0.04326663157080604,-0.213533341884613,-0.9637817144393921,-0.1597761511802673,-25.0960578918457,-35.25069427490234,6.250687599182129,2,0.0.0.0,10.83.46.32,1,0
2015-02-26 19:56:23.174,54,1425009383.05043,37.76008478369354,-122.4614107982464,126.8218,0,-1,10,200,-9999,1425009383.128977,-29.92913055419922,-30.05078125,0.7592315673828125,115.3018646240234,101.5238876342773,10,120374.4047123333,-0.0052947998046875,-0.8175048828125,-0.187103271484375,120374.3935079583,0.1722047897744857,0.6462216311460163,0.8983374989055286,120374.3935079583,-2.310976117984947,-1.02467600151749,1.24395668450846,0.165863111615181,0.6567801833152771,0.934304416179657,0.2773899137973785,0.1041967198252678,-0.03274694085121155,XTrueNorthZVertical,-0.1596475751621063,-0.6254113996202824,-0.7633967572894595,0.0244675173857435,-0.274353414773941,-0.9470617175102234,-0.1667464673519135,-28.12427139282227,-33.24029159545898,3.950026988983154,2,0.0.0.0,10.83.46.32,1,0
2015-02-26 19:56:23.207,55,1425009383.05043,37.76008478369354,-122.4614107982464,126.8218,0,-1,10,200,-9999,1425009383.180756,-31.75339508056641,-28.57254028320312,-0.28924560546875,110.9274291992188,97.14945220947266,10,120374.4538524583,-0.0377960205078125,-0.70703125,-0.2378387451171875,120374.4452882917,0.1665769977589302,0.151175138226675,0.7860775357915275,120374.3935079583,-2.310976117984947,-1.02467600151749,1.24395668450846,0.165863111615181,0.6567801833152771,0.934304416179657,0.2773899137973785,0.1041967198252678,-0.03274694085121155,XTrueNorthZVertical,-0.1596475751621063,-0.6254113996202824,-0.7633967572894595,0.0244675173857435,-0.274353414773941,-0.9470617175102234,-0.1667464673519135,-28.12427139282227,-33.24029159545898,3.950026988983154,2,0.0.0.0,10.83.46.32,1,0
2015-02-26 19:56:23.278,56,1425009383.05043,37.76008478369354,-122.4614107982464,126.8218,0,-1,10,200,-9999,1425009383.234427,-32.72519683837891,-27.26422119140625,-0.4057388305664062,107.2333450317383,93.45536804199219,10,120374.5028034583,-0.1264801025390625,-0.5675201416015625,-0.181732177734375,120374.49706825,0.3286628406555508,-0.2430254336946358,0.7981845324231367,120374.4452882917,-2.228689748800671,-1.082466406818497,1.209459887658009,0.1602353900671005,0.16173355281353,0.8220440745353699,0.2748504281044006,0.199585348367691,-0.0658479779958725,XTrueNorthZVertical,-0.1656596192752578,-0.6242023092329585,-0.7619963877439152,0.04785298561499291,-0.3122039437294006,-0.9354252219200134,-0.16585673391819,-29.97145843505859,-31.64968490600586,3.391692161560059,2,0.0.0.0,10.83.46.32,1,0
2015-02-26 19:56:23.304,57,1425009383.05043,37.76008478369354,-122.4614107982464,126.8218,0,-1,10,200,-9999,1425009383.285722,-34.03798675537109,-25.61605834960938,-0.3225173950195312,103.8877944946289,90.10981750488281,10,120374.5519357083,-0.15380859375,-0.4620513916015625,-0.118011474609375,120374.5488485,0.1698649364407421,-0.3803209752681448,0.8312926847788928,120374.49706825,-2.14584927619805,-1.162918094678473,1.178256318782725,0.3223212957382202,-0.2324671298265457,0.8341506719589233,0.2419325560331345,0.3291833102703094,-0.03650977462530136,XTrueNorthZVertical,-0.1794765374056473,-0.6260345192644595,-0.7561845147374052,0.06367078104418628,-0.3511549830436707,-0.9239404201507568,-0.1517379134893417,-31.1206169128418,-30.47710800170898,3.761311054229736,2,0.0.0.0,10.83.46.32,1,0
2015-02-26 19:56:23.377,58,1425009383.05043,37.76008478369354,-122.4614107982464,126.8218,0,-1,10,200,-9999,1425009383.335809,-35.09503173828125,-24.08685302734375,0.4430389404296875,102.31982421875,88.54184722900391,10,120374.6008927083,-0.1442108154296875,-0.5250244140625,-0.0077362060546875,120374.6006285,-0.2951381699053064,-0.6531557036762556,0.8659254968587192,120374.5488485,-2.079537737637158,-1.242398589638017,1.143823776023911,0.1635234504938126,-0.3697627484798431,0.8672585487365723,0.2307472229003906,0.4373842775821686,-0.009929779917001724,XTrueNorthZVertical,-0.1991094996394288,-0.6273543424414478,-0.7491389550207563,0.07465117360651485,-0.3919868469238281,-0.910223662853241,-0.1335638761520386,-32.16895294189453,-29.24567413330078,4.619907855987549,2,0.0.0.0,10.83.46.32,1,0
2015-02-26 19:56:23.403,59,1425009383.05043,37.76008478369354,-122.4614107982464,126.8218,0,-1,10,200,-9999,1425009383.388172,-36.28846740722656,-22.65957641601562,1.308456420898438,100.9585113525391,87.18053436279297,10,120374.650032875,-0.3298797607421875,-0.6565399169921875,-0.029022216796875,120374.6006285,-0.2951381699053064,-0.6531557036762556,0.8659254968587192,120374.6006285,-2.056099427734407,-1.286182198679702,1.098952329385452,-0.3014796078205109,-0.6425975561141968,0.9018909931182861,0.2975415587425232,0.3803404271602631,0.1157699897885323,XTrueNorthZVertical,-0.2220557562107336,-0.6219953432753726,-0.7461266243907569,0.08430972618809544,-0.4362439513206482,-0.8907316327095032,-0.1276260614395142,-33.57618713378906,-27.46451377868652,5.462110996246338,2,0.0.0.0,10.83.46.32,1,0
2015-02-26 19:56:23.474,60,1425009383.05043,37.76008478369354,-122.4614107982464,126.8218,0,-1,10,200,-9999,1425009383.439292,-36.68058776855469,-21.24929809570312,2.822914123535156,101.2154846191406,87.43750762939453,10,120374.6990084583,-0.5496826171875,-0.8399200439453125,0.025390625,120374.70418875,-0.246693139147893,-1.623657677587988,0.04877046904262109,120374.65240875,-2.073774747778419,-1.319177740384625,1.059147595689176,-0.3274980783462524,-1.243589520454407,0.5220122337341309,0.144318163394928,0.2153985351324081,0.0928783044219017,XTrueNorthZVertical,-0.2520938993666376,-0.6127792474753924,-0.7446174422366159,0.08059255523832445,-0.4741979241371155,-0.8719384670257568,-0.1219005212187767,-34.28666305541992,-26.37210083007812,6.35858154296875,2,0.0.0.0,10.83.46.32,1,0
2015-02-26 19:56:23.500,61,1425009383.05043,37.76008478369354,-122.4614107982464,126.8218,0,-1,10,200,-9999,1425009383.492097,-36.88517761230469,-20.77354431152344,4.7867431640625,103.2378082275391,89.45983123779297,10,120374.748059,-0.6119537353515625,-1.100570678710938,0.07672119140625,120374.70418875,-0.246693139147893,-1.623657677587988,0.04877046904262109,120374.70418875,-2.098214490099713,-1.376175421487896,1.044351784632147,-0.2530344426631927,-1.613099813461304,0.08473523706197739,-0.05670603737235069,0.02467897161841393,0.1225641742348671,XTrueNorthZVertical,-0.2852095719933547,-0.6083327429130919,-0.7383097032177809,0.05903889865927343,-0.492976576089859,-0.8645989894866943,-0.0971735492348671,-34.22258758544922,-25.9338493347168,8.230715751647949,2,0.0.0.0,10.83.46.32,1,0
2015-02-26 19:56:23.573,62,1425009383.05043,37.76008478369354,-122.4614107982464,126.8218,0,-1,10,200,-9999,1425009383.545571,-37.0556640625,-20.67160034179688,6.484275817871094,105.2660751342773,91.48809814453125,10,120374.7971191667,-0.6165771484375,-1.019760131835938,-0.0764312744140625,120374.7559690417,-0.2730046380856578,-0.3230707349986024,0.1982427820682994,120374.7559690417,-2.119941450559193,-1.404430720591568,1.035288594763422,-0.279345691204071,-0.3125129640102386,0.2342067807912827,-0.1087212488055229,-0.2405610233545303,0.1612228155136108,XTrueNorthZVertical,-0.3049471336444371,-0.6039506906426478,-0.7349687803345313,0.04551633075180991,-0.503232479095459,-0.8600096702575684,-0.08450161665678024,-33.76169967651367,-25.82937812805176,10.22181415557861,2,0.0.0.0,10.83.46.32,1,0
2015-02-26 19:56:23.598,63,1425009383.05043,37.76008478369354,-122.4614107982464,126.8218,0,-1,10,200,-9999,1425009383.545571,-37.0556640625,-20.67160034179688,6.484275817871094,105.2660751342773,91.48809814453125,10,120374.8461582083,-0.524078369140625,-1.074996948242188,-0.1415557861328125,120374.807749,-0.3113030250898693,0.1177639181388679,0.2361110685564631,120374.807749,-2.142446973085002,-1.385782907250693,1.016404908270083,-0.3176440298557281,0.128321573138237,0.2720746695995331,-0.08856087923049927,-0.1913897544145584,0.0106290290132165,XTrueNorthZVertical,-0.3104833861425474,-0.5959693560345755,-0.7389207269872468,0.04916084115489386,-0.5174419283866882,-0.8502209782600403,-0.09684118628501892,-34.10906219482422,-25.45807075500488,9.997639656066895,2,0.0.0.0,10.83.46.32,1,0
2015-02-26 19:56:23.676,64,1425009383.05043,37.76008478369354,-122.4614107982464,126.8218,0,-1,10,200,-9999,1425009383.599969,-37.03862762451172,-20.99443054199219,6.667335510253906,105.4559783935547,91.67800140380859,10,120374.8952230417,-0.540130615234375,-1.088272094726562,-0.132720947265625,120374.85952925,-0.4978313604712372,-0.1187317108790027,0.1176488695797765,120374.85952925,-2.1770086448185,-1.35225383593359,1.004288561259931,-0.5041722655296326,-0.1081741526722908,0.1536121219396591,0.005154978949576616,-0.2182008475065231,-0.04646866396069527,XTrueNorthZVertical,-0.311834181441007,-0.587009800372032,-0.7454200198215929,0.05027889297316285,-0.5239232778549194,-0.8437803387641907,-0.1163578778505325,-34.39443588256836,-25.31021499633789,9.376049041748047,2,0.0.0.0,10.83.46.32,1,0
2015-02-26 19:56:23.696,65,1425009383.05043,37.76008478369354,-122.4614107982464,126.8218,0,-1,10,200,-9999,1425009383.671863,-37.29437255859375,-20.87551879882812,6.217994689941406,105.1929397583008,91.41496276855469,10,120374.9442601667,-0.6699371337890625,-1.055145263671875,-0.1066436767578125,120374.9113092917,-0.5604414787506731,-0.5324093114326081,0.02545476001508637,120374.9113092917,-2.224869785347689,-1.330691477194046,0.992993525574478,-0.5667823553085327,-0.5218518376350403,0.06141768395900726,-0.03016778454184532,-0.2611816823482513,-0.01191474124789238,XTrueNorthZVertical,-0.3209480257445834,-0.5762376001164103,-0.7504321390887728,0.04235838857426688,-0.5305164456367493,-0.8376647233963013,-0.1298851817846298,-34.41569519042969,-25.36866188049316,9.137030601501465,2,0.0.0.0,10.83.46.32,1,0
2015-02-26 19:56:23.789,66,1425009383.05043,37.76008478369354,-122.4614107982464,126.8218,0,-1,10,200,-9999,1425009383.725007,-37.44781494140625,-21.13040161132812,6.733909606933594,106.775260925293,92.99728393554688,10,120374.993318875,-0.6808929443359375,-1.037109375,-0.079010009765625,120374.9630895417,-0.4423625086548488,-0.3686246380766259,-0.05228424378487163,120374.9630895417,-2.269797991982745,-1.318350327578426,0.9855283334198084,-0.4487033188343048,-0.3580672740936279,-0.01632167771458626,-0.1586290150880814,-0.2123343646526337,0.04169744998216629,XTrueNorthZVertical,-0.3312492351756114,-0.5668189655693483,-0.7536598993436295,0.03141649351921923,-0.5349134802818298,-0.8335640430450439,-0.1379804015159607,-34.237548828125,-25.53303146362305,9.34608268737793,2,0.0.0.0,10.83.46.32,1,0
2015-02-26 19:56:23.797,67,1425009383.05043,37.76008478369354,-122.4614107982464,126.8218,0,-1,10,200,-9999,1425009383.775501,-37.27732849121094,-21.67413330078125,6.667335510253906,107.5505065917969,93.77252960205078,10,120375.042419,-0.5001220703125,-1.031143188476562,-0.142822265625,120375.0148695417,-0.2841813925485024,0.6670635298369765,-0.1141867601626734,120375.0148695417,-2.302672780589401,-1.281462591306643,0.9832326924682422,-0.2905221283435822,0.6776207685470581,-0.07822458446025848,-0.1050894930958748,-0.2182281464338303,0.04527484625577927,XTrueNorthZVertical,-0.3271823185113057,-0.5602428468041153,-0.760377241217012,0.03010265062782365,-0.5312935709953308,-0.832293689250946,-0.1581593602895737,-34.16501235961914,-25.75759315490723,8.988491058349609,2,0.0.0.0,10.83.46.32,1,0
2015-02-26 19:56:23.879,68,1425009383.05043,37.76008478369354,-122.4614107982464,126.8218,0,-1,10,200,-9999,1425009383.833359,-37.32846832275391,-21.82705688476562,5.618850708007812,103.8152160644531,90.03723907470703,10,120375.091396125,-0.40673828125,-1.03570556640625,-0.182403564453125,120375.0666498333,-0.3601414047402874,0.8310316949920651,-0.1744578240566927,120375.0666498333,-2.333122386887507,-1.213126895009058,0.984067607104229,-0.3665447235107422,0.8415982127189636,-0.1384302973747253,0.07091005146503448,-0.1912458389997482,0.03163927793502808,XTrueNorthZVertical,-0.3092674592250589,-0.5544737735917106,-0.7717039872654101,0.03722182933898757,-0.5186029076576233,-0.8327562212944031,-0.1938249468803406,-36.78674697875977,-21.83773803710938,5.208316326141357,2,0.0.0.0,10.83.46.32,1,0
2015-02-26 19:56:23.897,69,1425009383.05043,37.76008478369354,-122.4614107982464,126.8218,0,-1,10,200,-9999,1425009383.833359,-37.32846832275391,-21.82705688476562,5.618850708007812,103.8152160644531,90.03723907470703,10,120375.14050025,-0.3430633544921875,-0.9816436767578125,-0.18402099609375,120375.1184298333,-0.5669358633849403,0.5099199812913249,-0.1390697394917198,120375.1184298333,-2.377038085265427,-1.141528267655535,0.9805700523892575,-0.5733391046524048,0.5204864144325256,-0.1030425429344177,0.1292226761579514,-0.1942401677370071,0.03571587055921555,XTrueNorthZVertical,-0.2944154196827923,-0.5454357889725572,-0.7836757874932656,0.04088589408252738,-0.5060537457466125,-0.8308147788047791,-0.2316387146711349,-36.80767822265625,-22.13729476928711,3.52320671081543,2,0.0.0.0,10.83.46.32,1,0
2015-02-26 19:56:23.975,70,1425009383.05043,37.76008478369354,-122.4614107982464,126.8218,0,-1,10,200,-9999,1425009383.95762,-37.94223022460938,-22.64260864257812,1.458206176757812,102.3394927978516,88.56151580810547,10,120375.189463625,-0.4185333251953125,-0.923309326171875,-0.1832275390625,120375.1702101667,-0.8132612199862933,0.02562333811208838,-0.108053500172221,120375.1702101667,-2.437941336835169,-1.081779303657566,0.9681483631423151,-0.8196644186973572,0.03618963062763214,-0.07202669978141785,0.1288244128227234,-0.1186978295445442,0.08720935136079788,XTrueNorthZVertical,-0.2903389928872933,-0.5315709241874554,-0.7948593608013985,0.03652743888239682,-0.5003911852836609,-0.8238375782966614,-0.2662712335586548,-36.75791168212891,-22.37467193603516,2.346927642822266,2,0.0.0.0,10.83.46.32,1,0
2015-02-26 19:56:23.990,71,1425009383.05043,37.76008478369354,-122.4614107982464,126.8218,0,-1,10,200,-9999,1425009383.95762,-37.94223022460938,-22.64260864257812,1.458206176757812,102.3394927978516,88.56151580810547,10,120375.2386956667,-0.3992462158203125,-0.8215179443359375,-0.170013427734375,120375.2219901667,-0.7925721867419038,0.04537706918164212,-0.2211246621542602,120375.1702101667,-2.437941336835169,-1.081779303657566,0.9681483631423151,-0.8196644186973572,0.03618963062763214,-0.07202669978141785,0.1288244128227234,-0.1186978295445442,0.08720935136079788,XTrueNorthZVertical,-0.2903389928872933,-0.5315709241874554,-0.7948593608013985,0.03652743888239682,-0.5003911852836609,-0.8238375782966614,-0.2662712335586548,-36.75791168212891,-22.37467193603516,2.346927642822266,2,0.0.0.0,10.83.46.32,1,0
2015-02-26 19:56:24.085,72,1425009384.039455,37.76008478369354,-122.4614107982464,126.8125,0,-1,10,200,-9999,1425009384.011106,-37.37961578369141,-23.06739807128906,0.30987548828125,103.1204681396484,89.34249114990234,10,120375.2875765,-0.3883514404296875,-0.69952392578125,-0.1806182861328125,120375.2737704167,-0.7930582136408432,0.1262996157486808,-0.2035949369110316,120375.2737704167,-2.571752183242715,-0.9652010556090759,0.9402038612196657,-0.799461305141449,0.1368657052516937,-0.1675688177347183,0.1078136637806892,0.07153329998254776,0.1345790028572083,XTrueNorthZVertical,-0.2842792321060362,-0.5013614299958044,-0.8169534766740076,0.02022590253227626,-0.4847667813301086,-0.8076783418655396,-0.3356440663337708,-36.40756988525391,-23.05939292907715,0.1767501831054688,2,0.0.0.0,10.83.46.32,1,0
2015-02-26 19:56:24.088,73,1425009384.039455,37.76008478369354,-122.4614107982464,126.8125,0,-1,10,200,-9999,1425009384.011106,-37.37961578369141,-23.06739807128906,0.30987548828125,103.1204681396484,89.34249114990234,10,120375.3366001667,-0.4787139892578125,-0.7017974853515625,-0.221923828125,120375.3255504583,-0.622078744283903,-0.1237714769258686,-0.2697585110329602,120375.2737704167,-2.571752183242715,-0.9652010556090759,0.9402038612196657,-0.799461305141449,0.1368657052516937,-0.1675688177347183,0.1078136637806892,0.07153329998254776,0.1345790028572083,XTrueNorthZVertical,-0.2842792321060362,-0.5013614299958044,-0.8169534766740076,0.02022590253227626,-0.4847667813301086,-0.8076783418655396,-0.3356440663337708,-36.40756988525391,-23.05939292907715,0.1767501831054688,2,0.0.0.0,10.83.46.32,1,0
2015-02-26 19:56:24.179,74,1425009384.039455,37.76008478369354,-122.4614107982464,126.8125,0,-1,10,200,-9999,1425009384.138557,-36.73174285888672,-25.2762451171875,-2.253074645996094,107.0192794799805,93.24130249023438,10,120375.3856695417,-0.383544921875,-0.8510284423828125,-0.2287139892578125,120375.3773307917,-0.08009909715798623,0.1855791847688636,-0.5916822225500655,120375.3255504583,-2.632996706801539,-0.9176528792911183,0.9248670223050901,-0.6284817457199097,-0.1132054850459099,-0.2337327748537064,0.03227759152650833,0.09706367552280426,0.1378093659877777,XTrueNorthZVertical,-0.2830083159284595,-0.4868375806558988,-0.8263066161925964,0.0106242500920828,-0.4780478477478027,-0.7985407114028931,-0.3657909333705902,-36.23187255859375,-23.32392883300781,-0.7236843109130859,2,0.0.0.0,10.83.46.32,1,0
2015-02-26 19:56:24.187,75,1425009384.039455,37.76008478369354,-122.4614107982464,126.8125,0,-1,10,200,-9999,1425009384.138557,-36.73174285888672,-25.2762451171875,-2.253074645996094,107.0192794799805,93.24130249023438,10,120375.434784,-1.025955200195312,-1.159439086914062,-0.4150848388671875,120375.4291107917,0.8758114171412024,0.683551692777875,-0.9594764869988047,120375.3773307917,-2.676060936943711,-0.8806179342665168,0.9292827303180757,-0.08650203049182892,0.1961450427770615,-0.5556568503379822,0.04713057726621628,-0.0225700605660677,0.1434582322835922,XTrueNorthZVertical,-0.2772518210869549,-0.4823230509936757,-0.8309605514564634,0.0007068129309193106,-0.4614524841308594,-0.8011909127235413,-0.3809918165206909,-35.75971984863281,-24.01404190063477,-1.358773231506348,2,0.0.0.0,10.83.46.32,1,0
2015-02-26 19:56:24.277,76,1425009384.039455,37.76008478369354,-122.4614107982464,126.8125,0,-1,10,200,-9999,1425009384.242435,-35.02681732177734,-26.56761169433594,-3.151771545410156,108.0398101806641,94.26183319091797,10,120375.4837804583,-1.347274780273438,-1.295928955078125,-0.48675537109375,120375.4808910417,-0.1551975767371307,1.022550527940132,1.504699598016329,120375.4808910417,-2.624685120099116,-0.8602359167536554,0.9935677286977421,-0.1616016179323196,1.033111929893494,1.540709257125854,-1.205209255218506,-0.4953957796096802,-0.1696795374155045,XTrueNorthZVertical,-0.2436810646369566,-0.5124934683792719,-0.8233005279326593,0.01209379134174521,-0.413641482591629,-0.8379782438278198,-0.3559399545192719,-34.35684967041016,-25.96675682067871,-1.616384506225586,2,0.0.0.0,10.83.46.32,1,0
2015-02-26 19:56:24.285,77,1425009384.039455,37.76008478369354,-122.4614107982464,126.8125,0,-1,10,200,-9999,1425009384.242435,-35.02681732177734,-26.56761169433594,-3.151771545410156,108.0398101806641,94.26183319091797,10,120375.5328179167,0.18505859375,-1.110641479492188,-0.403076171875,120375.4808910417,-0.1551975767371307,1.022550527940132,1.504699598016329,120375.4808910417,-2.624685120099116,-0.8602359167536554,0.9935677286977421,-0.1616016179323196,1.033111929893494,1.540709257125854,-1.205209255218506,-0.4953957796096802,-0.1696795374155045,XTrueNorthZVertical,-0.2436810646369566,-0.5124934683792719,-0.8233005279326593,0.01209379134174521,-0.413641482591629,-0.8379782438278198,-0.3559399545192719,-34.35684967041016,-25.96675682067871,-1.616384506225586,2,0.0.0.0,10.83.46.32,1,0
2015-02-26 19:56:24.375,78,1425009384.039455,37.76008478369354,-122.4614107982464,126.8125,0,-1,10,200,-9999,1425009384.350042,-35.00979614257812,-26.85650634765625,-7.096061706542969,103.5489730834961,89.77099609375,10,120375.5818872083,-0.5303802490234375,-0.7571868896484375,-0.276031494140625,120375.5844512083,0.3563445359741615,-0.6191343533827114,0.1091770878361254,120375.5326710833,-2.623100080482542,-0.741924954347714,0.9744897300960891,0.3071755170822144,2.839856624603271,-1.058581829071045,0.4161228239536285,-0.3343429863452911,0.08241364359855652,XTrueNorthZVertical,-0.197763189455019,-0.5038810915283574,-0.8395113065591752,0.04705707314852302,-0.3794712126255035,-0.827415406703949,-0.4139871299266815,-34.90455627441406,-24.54166412353516,-6.054494857788086,2,0.0.0.0,10.83.46.32,1,0
2015-02-26 19:56:24.384,79,1425009384.039455,37.76008478369354,-122.4614107982464,126.8125,0,-1,10,200,-9999,1425009384.350042,-35.00979614257812,-26.85650634765625,-7.096061706542969,103.5489730834961,89.77099609375,10,120375.6309273333,-0.5658111572265625,-0.8626861572265625,-0.1607513427734375,120375.5844512083,0.3563445359741615,-0.6191343533827114,0.1091770878361254,120375.5844512083,-2.637467270122859,-0.702031675907849,1.005956847455143,0.3499406278133392,-0.6085730791091919,0.1451860517263412,-0.1847121566534042,0.08748764544725418,0.1326719969511032,XTrueNorthZVertical,-0.1788556355636753,-0.513477277452583,-0.8380666230886613,0.04467793537076679,-0.3456680774688721,-0.8446745276451111,-0.4087035059928894,-33.75165557861328,-25.78531646728516,-7.295300483703613,2,0.0.0.0,10.83.46.32,1,0
2015-02-26 19:56:24.442,80,1425009384.039455,37.76008478369354,-122.4614107982464,126.8125,0,-1,10,200,-9999,1425009384.424433,-34.15733337402344,-27.57011413574219,-8.194465637207031,101.198127746582,87.42015075683594,10,120375.6799895,-0.172088623046875,-0.7071380615234375,-0.3692626953125,120375.636231375,0.1713315392530487,0.860301699584799,-0.4024441207595421,120375.636231375,-2.619784133286628,-0.7079023903371263,1.018246848732749,0.1649276912212372,0.8708628416061401,-0.3664354681968689,-0.224525973200798,-0.01149698439985514,0.2379985153675079,XTrueNorthZVertical,-0.174468785598893,-0.5197939128492421,-0.8349046961317043,0.04805325036850755,-0.3412851989269257,-0.8511891961097717,-0.3987498581409454,-33.93031692504883,-25.7341251373291,-6.61561918258667,2,0.0.0.0,10.83.46.32,1,0
2015-02-26 19:56:24.480,81,1425009384.039455,37.76008478369354,-122.4614107982464,126.8125,0,-1,10,200,-9999,1425009384.424433,-34.15733337402344,-27.57011413574219,-8.194465637207031,101.198127746582,87.42015075683594,10,120375.7290332083,-0.0386505126953125,-1.066543579101562,-0.466644287109375,120375.6880115417,0.2617570435378171,1.569184581703181,-0.06087799830644833,120375.6880115417,-2.626620513993476,-0.6352432308321697,1.031950695488765,0.2553532719612122,1.579745650291443,-0.02486971579492092,0.1323982626199722,0.1511635482311249,0.04378223791718483,XTrueNorthZVertical,-0.1433379912761248,-0.5224287070996552,-0.8383025693141527,0.06141094376109017,-0.3044869005680084,-0.8583016395568848,-0.4130449295043945,-32.98546600341797,-26.33919525146484,-8.688141822814941,2,0.0.0.0,10.83.46.32,1,0
2015-02-26 19:56:24.574,82,1425009384.039455,37.76008478369354,-122.4614107982464,126.8125,0,-1,10,200,-9999,1425009384.55438,-33.23668670654297,-27.90992736816406,-11.09026336669922,96.69828033447266,82.92030334472656,10,120375.778094125,-0.1286163330078125,-0.84765625,-0.2891082763671875,120375.7915718333,-0.2324545483797843,-0.5112496976236014,0.3545985675635056,120375.7397918333,-2.60517531735331,-0.5919649002455577,1.038110132078207,0.02838329970836639,0.552182674407959,0.09811093658208847,0.2767385542392731,-0.2042736113071442,-0.04372759908437729,XTrueNorthZVertical,-0.1184654188990727,-0.5246404973666088,-0.8391815287961001,0.08057723160207794,-0.2833761274814606,-0.8614460229873657,-0.4214365780353546,-32.49608993530273,-26.31280899047852,-10.43639373779297,2,0.0.0.0,10.83.46.32,1,0
2015-02-26 19:56:24.579,83,1425009384.039455,37.76008478369354,-122.4614107982464,126.8125,0,-1,10,200,-9999,1425009384.55438,-33.23668670654297,-27.90992736816406,-11.09026336669922,96.69828033447266,82.92030334472656,10,120375.8271305417,-0.190185546875,-0.7831268310546875,-0.303558349609375,120375.7915718333,-0.2324545483797843,-0.5112496976236014,0.3545985675635056,120375.7915718333,-2.58982924496675,-0.6174681789346664,1.021781104664145,-0.2388581931591034,-0.5006888508796692,0.3906060755252838,0.114070862531662,0.05892568081617355,0.1307784765958786,XTrueNorthZVertical,-0.1281391740631961,-0.5204200116255508,-0.8401091694325167,0.08342650947211384,-0.3021354377269745,-0.8530388474464417,-0.4254867136478424,-32.75508117675781,-25.91751289367676,-10.61439418792725,2,0.0.0.0,10.83.46.32,1,0
2015-02-26 19:56:24.643,84,1425009384.039455,37.76008478369354,-122.4614107982464,126.8125,0,-1,10,200,-9999,1425009384.605886,-33.66291809082031,-27.51911926269531,-10.87391662597656,96.69145202636719,82.91347503662109,10,120375.8761929167,-0.2862701416015625,-0.8969268798828125,-0.3854522705078125,120375.8433522083,-0.09334193199451424,-0.3835159696279129,0.1676430611432889,120375.8433522083,-2.578586826334071,-0.6465381802191749,1.009124776700357,-0.09974551945924759,-0.3729551732540131,0.2036502510309219,0.151236891746521,0.0626135841012001,0.1314534842967987,XTrueNorthZVertical,-0.1397976190981469,-0.5175926807647009,-0.8400328608526727,0.08306184851184739,-0.320853590965271,-0.8463660478591919,-0.4251088798046112,-33.45896911621094,-25.24078750610352,-10.03384399414062,2,0.0.0.0,10.83.46.32,1,0
2015-02-26 19:56:24.679,85,1425009384.039455,37.76008478369354,-122.4614107982464,126.8125,0,-1,10,200,-9999,1425009384.657433,-34.48126983642578,-26.97540283203125,-10.57435607910156,96.4466552734375,82.66867828369141,10,120375.9252305833,-0.49957275390625,-1.218780517578125,-0.508819580078125,120375.8951321667,-0.1434620910775875,-0.6239115317460955,0.1468909109810645,120375.8951321667,-2.571050248281098,-0.6765322802957089,0.9968400181289013,-0.1498656123876572,-0.6133508086204529,0.1828977465629578,-0.01078072562813759,-0.1449359953403473,-0.03571996465325356,XTrueNorthZVertical,-0.1527935870626947,-0.514750919433997,-0.8397221965246109,0.08094614774949618,-0.3399425446987152,-0.8397594690322876,-0.4233712255954742,-33.90035629272461,-24.84383583068848,-9.530361175537109,2,0.0.0.0,10.83.46.32,1,0
2015-02-26 19:56:24.743,86,1425009384.039455,37.76008478369354,-122.4614107982464,126.8125,0,-1,10,200,-9999,1425009384.710054,-34.71996307373047,-26.77151489257812,-9.542510986328125,97.01026153564453,83.23228454589844,10,120375.9742897083,-0.5206756591796875,-0.6995391845703125,-0.4274444580078125,120375.9469125,-0.1051330777208401,-0.8476450265041974,0.3310588866882951,120375.9469125,-2.554593505263675,-0.7334652722405428,0.9821377604716406,-0.1115365326404572,-0.8370844721794128,0.3670653402805328,-0.07075092196464539,-0.1286561489105225,-0.03485721349716187,XTrueNorthZVertical,-0.1753189094068151,-0.5128630972513334,-0.8369073887305367,0.07629404726215026,-0.3717081844806671,-0.83168625831604,-0.4124694466590881,-34.26105880737305,-24.58295822143555,-8.895845413208008,2,0.0.0.0,10.83.46.32,1,0
2015-02-26 19:56:24.776,87,1425009384.039455,37.76008478369354,-122.4614107982464,126.8125,0,-1,10,200,-9999,1425009384.761022,-34.97570037841797,-26.27877807617188,-8.294326782226562,97.81702423095703,84.03904724121094,10,120376.0233212917,-0.740631103515625,-0.7603302001953125,-0.3112335205078125,120375.9986925833,0.2035448694825382,-1.170020942774398,-0.2277026700467559,120375.9986925833,-2.548909067865101,-0.7866712475394637,0.9825649430473418,0.1971462666988373,-1.159458875656128,-0.1916902214288712,-0.1824512928724289,0.137114405632019,0.05321349203586578,XTrueNorthZVertical,-0.1959670387577895,-0.5154254472593498,-0.8316985340869887,0.06489308062333871,-0.3928660750389099,-0.8319233655929565,-0.3918670415878296,-35.157470703125,-24.06646919250488,-6.483484268188477,2,0.0.0.0,10.83.46.32,1,0
2015-02-26 19:56:24.843,88,1425009384.039455,37.76008478369354,-122.4614107982464,126.8125,0,-1,10,200,-9999,1425009384.813477,-35.12914276123047,-26.15985107421875,-6.447006225585938,99.41828155517578,85.64030456542969,10,120376.0723690833,-0.6525726318359375,-0.737396240234375,-0.34991455078125,120376.050472875,0.1967423571101488,-0.4820864857905797,-0.4346547878279415,120376.050472875,-2.542918367664695,-0.8354578086796367,0.995816967541116,0.190362885594368,-0.4715492725372314,-0.3985587656497955,-0.3431934118270874,0.08946292847394943,0.04987217485904694,XTrueNorthZVertical,-0.2118543418525788,-0.5222173368864781,-0.8244616914779893,0.05166958153390017,-0.4032970666885376,-0.8392035365104675,-0.3648135960102081,-35.29816818237305,-24.28071594238281,-4.66521167755127,2,0.0.0.0,10.83.46.32,1,0
2015-02-26 19:56:24.877,89,1425009384.039455,37.76008478369354,-122.4614107982464,126.8125,0,-1,10,200,-9999,1425009384.864673,-34.77110290527344,-26.72055053710938,-5.764656066894531,100.4323120117188,86.65433502197266,10,120376.1214041667,-0.347137451171875,-0.9177398681640625,-0.1896514892578125,120376.102252875,0.1782115496131594,0.7349831923817033,-0.4518907664029343,120376.102252875,-2.548566902040028,-0.8229694951706262,1.010363961797192,0.1718435883522034,0.7455222606658936,-0.4157851040363312,-0.1021037548780441,-0.04762795567512512,0.09204103052616119,XTrueNorthZVertical,-0.2051297224934738,-0.5264802297937261,-0.8236004504909434,0.04922091033738553,-0.3897175490856171,-0.8470253944396973,-0.3614807426929474,-35.07656860351562,-24.67473793029785,-4.250871658325195,2,0.0.0.0,10.83.46.32,1,0
2015-02-26 19:56:24.942,90,1425009384.039455,37.76008478369354,-122.4614107982464,126.8125,0,-1,10,200,-9999,1425009384.916857,-34.27668762207031,-27.48516845703125,-6.014305114746094,100.8293914794922,87.05141448974609,10,120376.1704649583,-0.29718017578125,-0.882049560546875,-0.3195343017578125,120376.1540332083,-0.008868859062181879,0.6416135635118522,-0.03208336796829359,120376.1540332083,-2.562470707259269,-0.7719901824848673,1.021490424308871,-0.01523622404783964,0.6521519422531128,0.004020842723548412,0.09290824085474014,0.06062026694417,0.04258134216070175,XTrueNorthZVertical,-0.185455600481248,-0.5277871950226235,-0.8270963844022515,0.05439212632582172,-0.364194244146347,-0.8528870940208435,-0.3740938007831573,-34.36446380615234,-25.37533569335938,-5.696836471557617,2,0.0.0.0,10.83.46.32,1,0
2015-02-26 19:56:24.975,91,1425009384.039455,37.76008478369354,-122.4614107982464,126.8125,0,-1,10,200,-9999,1425009384.916857,-34.27668762207031,-27.48516845703125,-6.014305114746094,100.8293914794922,87.05141448974609,10,120376.219500875,-0.108551025390625,-0.9936370849609375,-0.2386474609375,120376.20581325,0.0373537637655604,0.5108813824448435,-0.06678568855257111,120376.1540332083,-2.562470707259269,-0.7719901824848673,1.021490424308871,-0.01523622404783964,0.6521519422531128,0.004020842723548412,0.09290824085474014,0.06062026694417,0.04258134216070175,XTrueNorthZVertical,-0.185455600481248,-0.5277871950226235,-0.8270963844022515,0.05439212632582172,-0.364194244146347,-0.8528870940208435,-0.3740938007831573,-34.36446380615234,-25.37533569335938,-5.696836471557617,2,0.0.0.0,10.83.46.32,1,0
2015-02-26 19:56:25.050,92,1425009385.039287,37.76008478369354,-122.4614107982464,126.7973,0,-1,10,200,-9999,1425009385.020591,-33.28783416748047,-28.40267944335938,-7.445564270019531,100.1167068481445,86.33872985839844,10,120376.268683125,-0.061798095703125,-0.9574737548828125,-0.1560211181640625,120376.2575935417,-0.001130778198847645,0.1852590728058361,0.01000336568655563,120376.2575935417,-2.558260979052303,-0.7313609429528659,1.021315469061299,-0.007498021703213453,0.1957972645759583,0.04610688984394073,0.2637306451797485,-0.1863583028316498,0.2044848799705505,XTrueNorthZVertical,-0.1675427415998468,-0.5268632994341221,-0.8305844530495288,0.06688793072179181,-0.348798394203186,-0.8527957797050476,-0.3886889815330505,-34.11938095092773,-25.33323860168457,-7.167500495910645,2,0.0.0.0,10.83.46.32,1,0
2015-02-26 19:56:25.083,93,1425009385.039287,37.76008478369354,-122.4614107982464,126.7973,0,-1,10,200,-9999,1425009385.072195,-33.6458740234375,-28.14781188964844,-7.894905090332031,98.75413513183594,84.97615814208984,10,120376.317622625,-0.2570037841796875,-0.94671630859375,-0.1048431396484375,120376.309373625,-0.1852199243378119,-0.6036920138018869,0.3507313913446015,120376.2575935417,-2.558260979052303,-0.7313609429528659,1.021315469061299,-0.007498021703213453,0.1957972645759583,0.04610688984394073,0.2637306451797485,-0.1863583028316498,0.2044848799705505,XTrueNorthZVertical,-0.1675427415998468,-0.5268632994341221,-0.8305844530495288,0.06688793072179181,-0.348798394203186,-0.8527957797050476,-0.3886889815330505,-34.11938095092773,-25.33323860168457,-7.167500495910645,2,0.0.0.0,10.83.46.32,1,0
2015-02-26 19:56:25.129,94,1425009385.039287,37.76008478369354,-122.4614107982464,126.7973,0,-1,10,200,-9999,1425009385.124119,-34.19145965576172,-27.3662109375,-7.462196350097656,97.55876159667969,83.78078460693359,10,120376.366704,-0.371551513671875,-0.874420166015625,-0.177398681640625,120376.3611539167,-0.4048718584092583,-0.01466363127808529,0.5442012561072609,120376.309373625,-2.548269216111628,-0.7514326764383378,1.007294157080569,-0.1915871053934097,-0.5931539535522461,0.3868345320224762,0.1190820932388306,-0.08959268778562546,0.2460836470127106,XTrueNorthZVertical,-0.1760935922414519,-0.5232935927005455,-0.8309149067816739,0.06881363073758942,-0.3646570444107056,-0.8453896045684814,-0.3903097212314606,-34.44927215576172,-24.89057922363281,-7.140361785888672,2,0.0.0.0,10.83.46.32,1,0
2015-02-26 19:56:25.173,95,1425009385.039287,37.76008478369354,-122.4614107982464,126.7973,0,-1,10,200,-9999,1425009385.124119,-34.19145965576172,-27.3662109375,-7.462196350097656,97.55876159667969,83.78078460693359,10,120376.4157326667,-0.3515167236328125,-0.7708282470703125,-0.266632080078125,120376.4129339583,-0.6270908134554322,0.2041091933175259,0.8595584113245578,120376.3611539167,-2.531759692940533,-0.7827733216876706,0.9838360769744694,-0.411238968372345,-0.004125666338950396,0.5803040266036987,0.06827813386917114,-0.03062269650399685,0.2459779232740402,XTrueNorthZVertical,-0.1896554513408089,-0.5174051675178354,-0.8312828889549241,0.07274267255566176,-0.3905895352363586,-0.8326280117034912,-0.3926454186439514,-35.05690002441406,-24.17220306396484,-6.632974147796631,2,0.0.0.0,10.83.46.32,1,0
2015-02-26 19:56:25.227,96,1425009385.039287,37.76008478369354,-122.4614107982464,126.7973,0,-1,10,200,-9999,1425009385.175818,-35.38490295410156,-25.87098693847656,-7.828338623046875,95.85349273681641,82.07551574707031,10,120376.4649054583,-0.4452056884765625,-0.986663818359375,-0.336334228515625,120376.4647142917,-0.4780480683135836,-0.4987365689257551,0.543097642151532,120376.4129339583,-2.52032086566574,-0.7847644855737597,0.9365066857582417,-0.6334578394889832,0.2146470546722412,0.8956608176231384,0.06336203962564468,0.01989410817623138,0.1911056339740753,XTrueNorthZVertical,-0.1974274977327073,-0.5013700941363189,-0.8378291502052041,0.08770839405892715,-0.4187697470188141,-0.8054928779602051,-0.4193008244037628,-35.5060920715332,-23.39971160888672,-7.003511428833008,2,0.0.0.0,10.83.46.32,1,0
2015-02-26 19:56:25.274,97,1425009385.039287,37.76008478369354,-122.4614107982464,126.7973,0,-1,10,200,-9999,1425009385.230599,-36.13507843017578,-24.54570007324219,-8.294334411621094,94.77443695068359,80.9964599609375,10,120376.5138359583,-0.6279754638671875,-0.8451385498046875,-0.450592041015625,120376.4647142917,-0.4780480683135836,-0.4987365689257551,0.543097642151532,120376.4647142917,-2.507777939365063,-0.8015509851960366,0.8853351956264538,-0.4844150543212891,-0.4881987869739532,0.5791996717453003,0.0282320324331522,-0.1409576237201691,0.1097192764282227,XTrueNorthZVertical,-0.212064629968307,-0.4846265177377885,-0.8426554895287275,0.1004862799892649,-0.4547914862632751,-0.7741272449493408,-0.4403314590454102,-36.89716720581055,-20.74752426147461,-8.088099479675293,2,0.0.0.0,10.83.46.32,1,0
2015-02-26 19:56:25.325,98,1425009385.039287,37.76008478369354,-122.4614107982464,126.7973,0,-1,10,200,-9999,1425009385.305698,-36.88526153564453,-23.1864013671875,-9.026603698730469,92.69369506835938,78.91571807861328,10,120376.563011125,-0.7960968017578125,-0.94439697265625,-0.59857177734375,120376.568274625,-0.6327031591366651,0.02909450227689766,-0.04118818310305649,120376.5164943333,-2.51620067318948,-0.8271728721384883,0.8623785786939446,-0.4246096909046173,-0.4772128462791443,0.07240589708089828,-0.149096205830574,-0.08574625849723816,-0.0101399440318346,XTrueNorthZVertical,-0.2296732846366451,-0.4764704964923701,-0.8432053627991467,0.09607705199744385,-0.4788792431354523,-0.7593923211097717,-0.4404520988464355,-37.42925262451172,-20.0536003112793,-7.360867500305176,2,0.0.0.0,10.83.46.32,1,0
2015-02-26 19:56:25.374,99,1425009385.039287,37.76008478369354,-122.4614107982464,126.7973,0,-1,10,200,-9999,1425009385.357459,-37.44789123535156,-22.62567138671875,-9.276229858398438,92.72103118896484,78.94305419921875,10,120376.6119362083,-0.800201416015625,-0.6279144287109375,-0.497039794921875,120376.568274625,-0.6327031591366651,0.02909450227689766,-0.04118818310305649,120376.568274625,-2.54650736241045,-0.8103883020671859,0.8429261442602906,-0.6390699744224548,0.03963205590844154,-0.005086827557533979,-0.3140641748905182,-0.1978039443492889,-0.1400486677885056,XTrueNorthZVertical,-0.233672480096857,-0.4649038774472241,-0.8490330084804421,0.09167629337948757,-0.4820326268672943,-0.7465929985046387,-0.4585231244564056,-37.53989410400391,-19.89129447937012,-7.23676872253418,2,0.0.0.0,10.83.46.32,1,0
2015-02-26 19:56:25.424,100,1425009385.039287,37.76008478369354,-122.4614107982464,126.7973,0,-1,10,200,-9999,1425009385.40935,-37.61838531494141,-21.436279296875,-9.775520324707031,93.68975067138672,79.91177368164062,10,120376.6611067083,-0.510589599609375,-0.1443634033203125,-0.3935089111328125,120376.6200547083,-1.000324318114549,-0.03252944745088186,0.697399065181851,120376.6200547083,-2.578431506387543,-0.7881070688617571,0.7992599498304614,-1.006691217422485,-0.02199199795722961,0.733500063419342,-0.3058463633060455,0.08892586827278137,-0.005355839617550373,XTrueNorthZVertical,-0.2399246230039847,-0.4433894425094254,-0.8586141877416417,0.09286382306134924,-0.4943550527095795,-0.7168402671813965,-0.4916839599609375,-37.79176330566406,-18.9625358581543,-8.335652351379395,2,0.0.0.0,10.83.46.32,1,0
2015-02-26 19:56:25.474,101,1425009385.039287,37.76008478369354,-122.4614107982464,126.7973,0,-1,10,200,-9999,1425009385.463782,-38.62429046630859,-19.24443054199219,-11.78926849365234,92.59361267089844,78.81563568115234,10,120376.710036,0.1710662841796875,-0.2884674072265625,-0.385772705078125,120376.671835,-1.229644592207419,1.573924475811304,1.317789365334644,120376.671835,-2.569671530113473,-0.750417799867273,0.7183102147497946,-1.236011266708374,1.584461808204651,1.353889942169189,0.03639804199337959,0.5103319883346558,0.1149121448397636,XTrueNorthZVertical,-0.2369032578412658,-0.410527580707516,-0.8720249914670387,0.1221327214008257,-0.5134488344192505,-0.6581133604049683,-0.5506879091262817,-38.43514251708984,-16.58879470825195,-10.23865222930908,2,0.0.0.0,10.83.46.32,1,0
2015-02-26 19:56:25.521,102,1425009385.039287,37.76008478369354,-122.4614107982464,126.7973,0,-1,10,200,-9999,1425009385.463782,-38.62429046630859,-19.24443054199219,-11.78926849365234,92.59361267089844,78.81563568115234,10,120376.7592046667,0.04473876953125,0.0072021484375,-0.637939453125,120376.7236150417,0.3436260775562701,0.9600871498367599,-0.8370656190738576,120376.7236150417,-2.585989398318585,-0.6828852318081181,0.6767463437883827,0.3372594118118286,0.9706243276596069,-0.800965428352356,0.8019912242889404,0.4533166289329529,0.371757835149765,XTrueNorthZVertical,-0.2179694744400357,-0.3874200327147093,-0.8852472596333706,0.1368661800902908,-0.4919631481170654,-0.6262597441673279,-0.6047900319099426,-38.47072982788086,-14.77768707275391,-12.60559272766113,2,0.0.0.0,10.83.46.32,1,0
2015-02-26 19:56:25.572,103,1425009385.039287,37.76008478369354,-122.4614107982464,126.7973,0,-1,10,200,-9999,1425009385.538231,-38.47085571289062,-19.09150695800781,-13.83629608154297,92.09186553955078,78.31388854980469,10,120376.8081354583,-1.42523193359375,-2.26300048828125,-0.38775634765625,120376.7753952083,1.305511127444942,-2.464538541239493,-0.660597374710264,120376.7753952083,-2.585610266993917,-0.7151222889003941,0.766709390805169,1.299144506454468,-2.454001426696777,-0.6244974732398987,0.135112851858139,0.2567116022109985,-0.3041113317012787,XTrueNorthZVertical,-0.2159731711423343,-0.426000382711018,-0.8713306759777,0.1125262274061747,-0.472240537405014,-0.693769097328186,-0.5437585115432739,-37.43510055541992,-17.61845016479492,-12.06157112121582,2,0.0.0.0,10.83.46.32,1,0
2015-02-26 19:56:25.619,104,1425009385.039287,37.76008478369354,-122.4614107982464,126.7973,0,-1,10,200,-9999,1425009385.590718,-38.24922180175781,-20.33184814453125,-12.25525665283203,89.53781890869141,75.75984191894531,10,120376.857196125,-0.4756011962890625,-0.1266937255859375,-0.5371856689453125,120376.8271755417,-0.2366567502638204,0.7053443399779934,-0.3427560228281412,120376.8271755417,-2.573115555663504,-0.816507084618144,0.751321244182476,-0.2430232912302017,0.71588134765625,-0.3066564798355103,-0.5479071736335754,-0.6173065900802612,0.5966745615005493,XTrueNorthZVertical,-0.2600736292708949,-0.426791121997644,-0.8603993673349417,0.09961932397241556,-0.5325676798820496,-0.6826049089431763,-0.5004221200942993,-38.33544158935547,-18.77397918701172,-12.36740398406982,2,0.0.0.0,10.83.46.32,1,0
2015-02-26 19:56:25.673,105,1425009385.039287,37.76008478369354,-122.4614107982464,126.7973,0,-1,10,200,-9999,1425009385.645153,-37.63545227050781,-21.28337097167969,-10.82399749755859,93.54168701171875,79.76371002197266,10,120376.9062240833,-0.4427032470703125,-1.118606567382812,-0.366455078125,120376.8789557083,0.7212652496067051,0.4854993267275163,-0.6055847223886063,120376.8789557083,-2.605448811408222,-0.7485682555333569,0.8091106658358326,0.7148987650871277,0.4960362315177917,-0.569485604763031,0.0962301641702652,0.1779278367757797,0.1919522881507874,XTrueNorthZVertical,-0.2270506895630063,-0.4422971294797153,-0.8631920238607924,0.08786807749865005,-0.4697043001651764,-0.7236737012863159,-0.5056424736976624,-37.44686889648438,-19.71803092956543,-13.56291007995605,2,0.0.0.0,10.83.46.32,1,0
2015-02-26 19:56:25.717,106,1425009385.039287,37.76008478369354,-122.4614107982464,126.7973,0,-1,10,200,-9999,1425009385.645153,-37.63545227050781,-21.28337097167969,-10.82399749755859,93.54168701171875,79.76371002197266,10,120376.9554037917,-0.0122222900390625,-0.667022705078125,-0.3966522216796875,120376.9307359167,0.4366074175391876,0.6679104150636216,-0.3332333577183448,120376.9307359167,-2.600233753193084,-0.7013552082013048,0.8396448573930307,0.4302410185337067,0.6784471869468689,-0.2971345484256744,0.2578950524330139,-0.1303345710039139,0.09401537477970123,XTrueNorthZVertical,-0.1999268283423941,-0.4527339024121217,-0.8638017725547924,0.09438119581819916,-0.4308534264564514,-0.7444060444831848,-0.510122537612915,-35.49637603759766,-22.15278625488281,-14.97606468200684,2,0.0.0.0,10.83.46.32,1,0
2015-02-26 19:56:25.779,107,1425009385.039287,37.76008478369354,-122.4614107982464,126.7973,0,-1,10,200,-9999,1425009385.720351,-36.27150726318359,-22.67666625976562,-11.72269439697266,93.762451171875,79.98447418212891,10,120377.004337125,-0.546173095703125,-0.842254638671875,-0.214385986328125,120376.9825159167,0.1339436870255353,-1.189957100378622,0.2365217279965533,120376.9825159167,-2.588617465989728,-0.7297555803541955,0.8483230801361153,0.1275773346424103,-1.179420471191406,0.2726202011108398,0.2119142115116119,-0.04659557715058327,0.2624407112598419,XTrueNorthZVertical,-0.2079122578801896,-0.4586374101487967,-0.8591389112674276,0.09112949938750418,-0.4408418238162994,-0.7501726150512695,-0.4928484261035919,-35.48614883422852,-22.46919250488281,-14.52204322814941,2,0.0.0.0,10.83.46.32,1,0
2015-02-26 19:56:25.815,108,1425009385.039287,37.76008478369354,-122.4614107982464,126.7973,0,-1,10,200,-9999,1425009385.771442,-36.35675048828125,-23.03346252441406,-11.53963470458984,92.96773529052734,79.18975830078125,10,120377.0534957083,-0.249969482421875,-1.00140380859375,-0.2563629150390625,120377.0342961667,-0.458129487572554,0.01448706369781304,0.1007591019464939,120377.0342961667,-2.578048777829398,-0.7715065611441181,0.8310191415468989,-0.4644947946071625,0.02502280846238136,0.1368558704853058,0.01732712797820568,-0.2775097489356995,0.1991189122200012,XTrueNorthZVertical,-0.226674310993994,-0.4549641170418373,-0.8564810117633359,0.08981492585213008,-0.4700096249580383,-0.738618791103363,-0.4832528233528137,-36.43891906738281,-21.88465309143066,-12.97259616851807,2,0.0.0.0,10.83.46.32,1,0
2015-02-26 19:56:25.874,109,1425009385.039287,37.76008478369354,-122.4614107982464,126.7973,0,-1,10,200,-9999,1425009385.824327,-36.61249542236328,-22.84654235839844,-10.89057159423828,93.24707794189453,79.46910095214844,10,120377.102425125,-0.158935546875,-0.849456787109375,-0.2880096435546875,120377.0860763333,-0.8514493521213755,0.07872730288048641,0.2392892850013637,120377.0342961667,-2.578048777829398,-0.7715065611441181,0.8310191415468989,-0.4644947946071625,0.02502280846238136,0.1368558704853058,0.01732712797820568,-0.2775097489356995,0.1991189122200012,XTrueNorthZVertical,-0.226674310993994,-0.4549641170418373,-0.8564810117633359,0.08981492585213008,-0.4700096249580383,-0.738618791103363,-0.4832528233528137,-36.43891906738281,-21.88465309143066,-12.97259616851807,2,0.0.0.0,10.83.46.32,1,0
2015-02-26 19:56:25.913,110,1425009385.039287,37.76008478369354,-122.4614107982464,126.7973,0,-1,10,200,-9999,1425009385.875055,-36.95348358154297,-22.30284118652344,-11.25670623779297,94.18504333496094,80.40706634521484,10,120377.1515941667,-0.3509368896484375,-0.876953125,-0.514739990234375,120377.1378566667,-0.7031850489661572,-0.6487361878472692,0.4164052101420645,120377.1378566667,-2.624570018035622,-0.7399285669337173,0.7582797815554856,-0.7095452547073364,-0.6382231712341309,0.4525810778141022,0.2291933000087738,-0.1972294002771378,0.05589230731129646,XTrueNorthZVertical,-0.2365256047137686,-0.4194838042220499,-0.8715608786520098,0.09203611568700522,-0.4895082414150238,-0.6876735687255859,-0.536177933216095,-36.92179107666016,-19.95956420898438,-14.60884761810303,2,0.0.0.0,10.83.46.32,1,0
2015-02-26 19:56:25.973,111,1425009385.039287,37.76008478369354,-122.4614107982464,126.7973,0,-1,10,200,-9999,1425009385.928839,-37.66956329345703,-21.45327758789062,-11.78926849365234,93.95885467529297,80.18087768554688,10,120377.2005235417,-0.7897796630859375,-0.6603851318359375,-0.26617431640625,120377.1896366667,-0.1608011339867664,-0.7943732825871244,0.208715929371145,120377.1378566667,-2.624570018035622,-0.7399285669337173,0.7582797815554856,-0.7095452547073364,-0.6382231712341309,0.4525810778141022,0.2291933000087738,-0.1972294002771378,0.05589230731129646,XTrueNorthZVertical,-0.2365256047137686,-0.4194838042220499,-0.8715608786520098,0.09203611568700522,-0.4895082414150238,-0.6876735687255859,-0.536177933216095,-36.92179107666016,-19.95956420898438,-14.60884761810303,2,0.0.0.0,10.83.46.32,1,0
2015-02-26 19:56:26.011,112,1425009385.039287,37.76008478369354,-122.4614107982464,126.7973,0,-1,10,200,-9999,1425009385.979417,-38.72660827636719,-20.70565795898438,-11.19013214111328,91.06842041015625,77.29044342041016,10,120377.2495765,-0.9552154541015625,-0.5751800537109375,-0.5281982421875,120377.2414170417,1.190410370396154,0.528310173882758,-0.1879464686618351,120377.1896366667,-2.629079011587359,-0.7844965464694428,0.729646520259685,-0.167161300778389,-0.7838603258132935,0.2448914498090744,-0.02064737305045128,-0.1103713512420654,0.3183462917804718,XTrueNorthZVertical,-0.2618845338933562,-0.409434627903136,-0.8696174029497412,0.08686417181703487,-0.5266091227531433,-0.6666061878204346,-0.5275595784187317,-37.50590515136719,-19.21324920654297,-14.11309623718262,2,0.0.0.0,10.83.46.32,1,0
2015-02-26 19:56:26.082,113,1425009386.049798,37.76008478369354,-122.4614107982464,126.7797,0,-1,10,200,-9999,1425009386.032454,-38.67545318603516,-20.28086853027344,-10.50779724121094,89.78133392333984,76.00335693359375,10,120377.2986055,-0.2389373779296875,-0.9091033935546875,-0.819427490234375,120377.2931970833,0.41790164035858,2.51286186553509,-0.3614269125984687,120377.2414170417,-2.602566688750771,-0.8170635694309143,0.7484933945133705,1.184050321578979,0.5388230085372925,-0.1517713516950607,-0.4656875729560852,0.178460419178009,0.2320355027914047,XTrueNorthZVertical,-0.2670894919926067,-0.4218303730731112,-0.8620177275579536,0.08745177227011795,-0.5342513918876648,-0.680535614490509,-0.5014446973800659,-38.32904815673828,-18.94789886474609,-12.1195068359375,2,0.0.0.0,10.83.46.32,1,0
2015-02-26 19:56:26.109,114,1425009386.049798,37.76008478369354,-122.4614107982464,126.7797,0,-1,10,200,-9999,1425009386.032454,-38.67545318603516,-20.28086853027344,-10.50779724121094,89.78133392333984,76.00335693359375,10,120377.3476644583,0.0153045654296875,-0.45330810546875,-0.6432647705078125,120377.3449774167,-0.1960826921081361,-0.6193455420571546,0.506493824548938,120377.3449774167,-2.560319597647338,-0.7106922798075731,0.7744248055978151,-0.2024426758289337,-0.6088329553604126,0.5426682233810425,0.5217258930206299,0.2324776351451874,-0.1633670330047607,XTrueNorthZVertical,-0.2071982311818538,-0.4314890830924389,-0.8693565800010801,0.1229033622535041,-0.46632120013237,-0.6993050575256348,-0.5417721271514893,-37.75889587402344,-20.46301651000977,-11.22856903076172,2,0.0.0.0,10.83.46.32,1,0
2015-02-26 19:56:26.174,115,1425009386.049798,37.76008478369354,-122.4614107982464,126.7797,0,-1,10,200,-9999,1425009386.159493,-38.38561248779297,-20.77360534667969,-12.08883666992188,88.15306091308594,74.37508392333984,10,120377.3967079583,-0.4741058349609375,-0.622222900390625,-0.479705810546875,120377.3449774167,-0.1960826921081361,-0.6193455420571546,0.506493824548938,120377.3449774167,-2.560319597647338,-0.7106922798075731,0.7744248055978151,-0.2024426758289337,-0.6088329553604126,0.5426682233810425,0.5217258930206299,0.2324776351451874,-0.1633670330047607,XTrueNorthZVertical,-0.2071982311818538,-0.4314890830924389,-0.8693565800010801,0.1229033622535041,-0.46632120013237,-0.6993050575256348,-0.5417721271514893,-37.75889587402344,-20.46301651000977,-11.22856903076172,2,0.0.0.0,10.83.46.32,1,0
2015-02-26 19:56:26.207,116,1425009386.049798,37.76008478369354,-122.4614107982464,126.7797,0,-1,10,200,-9999,1425009386.159493,-38.38561248779297,-20.77360534667969,-12.08883666992188,88.15306091308594,74.37508392333984,10,120377.4458792083,-1.008941650390625,-0.73748779296875,-0.4049072265625,120377.448537875,-0.291058739747523,-1.597972287822501,0.05798713694316732,120377.3967575,-2.557612594864318,-0.7953218890684806,0.7570155700894667,-0.3405634462833405,-2.357337951660156,0.143030971288681,0.0449574775993824,0.06453225761651993,0.02915631793439388,XTrueNorthZVertical,-0.2465465967972374,-0.4298647597753478,-0.8616422358771607,0.1095616572566465,-0.5190632939338684,-0.6867551803588867,-0.5088621377944946,-38.95024108886719,-19.32662963867188,-8.939235687255859,2,0.0.0.0,10.83.46.32,1,0
2015-02-26 19:56:26.274,117,1425009386.049798,37.76008478369354,-122.4614107982464,126.7797,0,-1,10,200,-9999,1425009386.264321,-39.47676086425781,-19.72016906738281,-7.229217529296875,90.67557525634766,76.89759826660156,10,120377.4948117917,-0.8128814697265625,-0.639556884765625,-0.3781890869140625,120377.448537875,-0.291058739747523,-1.597972287822501,0.05798713694316732,120377.448537875,-2.566243653106917,-0.9015677557023185,0.7372242147713446,-0.2974185943603516,-1.587459921836853,0.09416081011295319,-0.4282946586608887,-0.06525230407714844,0.05438414216041565,XTrueNorthZVertical,-0.2976866164696669,-0.4263062203831499,-0.84967944185224,0.08769587452310997,-0.5806469917297363,-0.6722354888916016,-0.4592913687229156,-39.89326095581055,-18.81006622314453,-5.025835037231445,2,0.0.0.0,10.83.46.32,1,0
2015-02-26 19:56:26.306,118,1425009386.049798,37.76008478369354,-122.4614107982464,126.7797,0,-1,10,200,-9999,1425009386.264321,-39.47676086425781,-19.72016906738281,-7.229217529296875,90.67557525634766,76.89759826660156,10,120377.5439727083,-0.5256195068359375,-0.686981201171875,-0.4776763916015625,120377.500317875,0.02783243023630911,0.420456677108402,-0.4816001925755313,120377.500317875,-2.581041439754181,-0.9177339954554298,0.7421819467609674,0.0214726347476244,0.4309689700603485,-0.4454268515110016,-0.2275398522615433,0.03634072095155716,0.06962522119283676,XTrueNorthZVertical,-0.3067412426610254,-0.4266176942724574,-0.8473567845788444,0.07677022918981052,-0.5853416323661804,-0.6758975982666016,-0.4478143155574799,-40.07086944580078,-18.76432037353516,-3.574324607849121,2,0.0.0.0,10.83.46.32,1,0
2015-02-26 19:56:26.375,119,1425009386.049798,37.76008478369354,-122.4614107982464,126.7797,0,-1,10,200,-9999,1425009386.366943,-38.31742095947266,-21.62318420410156,-7.229225158691406,94.01255035400391,80.23457336425781,10,120377.5929040833,-0.4957122802734375,-0.7677001953125,-0.397125244140625,120377.55209825,0.2237012705089119,0.5158023715070919,-0.5650905590656244,120377.55209825,-2.597412163325069,-0.8715493080802161,0.7666578244873173,0.2173415422439575,0.5263145565986633,-0.5289175510406494,0.02559451386332512,0.006750770378857851,-0.01410429086536169,XTrueNorthZVertical,-0.2859560827579394,-0.4317905375342673,-0.8522485572914501,0.07388154371341084,-0.5512140393257141,-0.693731963634491,-0.4635721147060394,-39.29631042480469,-20.11530113220215,-4.660964965820312,2,0.0.0.0,10.83.46.32,1,0
2015-02-26 19:56:26.404,120,1425009386.049798,37.76008478369354,-122.4614107982464,126.7797,0,-1,10,200,-9999,1425009386.366943,-38.31742095947266,-21.62318420410156,-7.229225158691406,94.01255035400391,80.23457336425781,10,120377.6420737917,-0.5059356689453125,-0.750335693359375,-0.394195556640625,120377.6556585833,0.187339267933297,0.258289874114643,-0.3493556023254665,120377.6038782917,-2.607399394779681,-0.8539450869731897,0.7913952381245195,0.1500091701745987,0.1011338457465172,-0.4238762259483337,0.04266811907291412,-0.06085166707634926,0.094963438808918,XTrueNorthZVertical,-0.2759679985263487,-0.4392599467368348,-0.8522367993499144,0.06771141922275664,-0.5298659801483154,-0.7113345861434937,-0.4617847204208374,-38.79143524169922,-21.01205253601074,-4.926250457763672,2,0.0.0.0,10.83.46.32,1,0
2015-02-26 19:56:26.443,121,1425009386.049798,37.76008478369354,-122.4614107982464,126.7797,0,-1,10,200,-9999,1425009386.419026,-37.72071075439453,-22.45573425292969,-7.245864868164062,94.74823760986328,80.97026062011719,10,120377.6910089583,-0.4480133056640625,-0.83770751953125,-0.3676910400390625,120377.6556585833,0.187339267933297,0.258289874114643,-0.3493556023254665,120377.6556585833,-2.617524447504379,-0.8412105574360862,0.8065108790578734,0.1809796690940857,0.2688018381595612,-0.3131833970546722,0.005659609567373991,-0.02502543851733208,0.0527660995721817,XTrueNorthZVertical,-0.2699483543635292,-0.4432726998214134,-0.8524674256408667,0.06274171871986593,-0.5158677101135254,-0.7218770384788513,-0.4612743854522705,-38.53440475463867,-21.47477149963379,-4.948101997375488,2,0.0.0.0,10.83.46.32,1,0
2015-02-26 19:56:26.502,122,1425009386.049798,37.76008478369354,-122.4614107982464,126.7797,0,-1,10,200,-9999,1425009386.470339,-37.27743530273438,-22.93150329589844,-7.778427124023438,94.55845642089844,80.78047943115234,10,120377.740080375,-0.2967987060546875,-0.789306640625,-0.38397216796875,120377.7074386667,0.115045363298115,0.6299393305573808,-0.3635009824554224,120377.7074386667,-2.624375876411382,-0.810151889605269,0.8359517695139835,0.108691118657589,0.6404452919960022,-0.327350378036499,0.07726763188838959,-0.09909895062446594,0.08259212225675583,XTrueNorthZVertical,-0.2527806796271916,-0.4527628085768198,-0.8529294245528879,0.06015978213023075,-0.4856843948364258,-0.7419349551200867,-0.4622155427932739,-37.6845588684082,-22.79406929016113,-5.554651260375977,2,0.0.0.0,10.83.46.32,1,0
2015-02-26 19:56:26.575,123,1425009386.049798,37.76008478369354,-122.4614107982464,126.7797,0,-1,10,200,-9999,1425009386.522362,-36.76596069335938,-23.91697692871094,-8.244415283203125,95.23850250244141,81.46052551269531,10,120377.7891120417,-0.3126678466796875,-0.829803466796875,-0.34222412109375,120377.759219,0.1504584815773347,0.2907767109880836,-0.07978005045939474,120377.759219,-2.62967025736352,-0.7783840275664806,0.8534547836988872,0.1441036462783813,0.3012812435626984,-0.04364536702632904,0.1753595173358917,-0.0381309948861599,0.1001085266470909,XTrueNorthZVertical,-0.2372098730394544,-0.4579156396213808,-0.8545680330300468,0.06130461257635001,-0.4615686237812042,-0.7535560131072998,-0.4680894911289215,-37.1480712890625,-23.4473991394043,-6.386710166931152,2,0.0.0.0,10.83.46.32,1,0
2015-02-26 19:56:26.602,124,1425009386.049798,37.76008478369354,-122.4614107982464,126.7797,0,-1,10,200,-9999,1425009386.573885,-36.11808776855469,-24.22282409667969,-8.643836975097656,94.86248016357422,81.08450317382812,10,120377.83829575,-0.43341064453125,-0.86151123046875,-0.3915863037109375,120377.8109990417,0.06850182955901817,-0.1472935809378845,0.08310340918370461,120377.8109990417,-2.625127011911494,-0.7789415381275271,0.88316487645199,0.06215518340468407,-0.1367999315261841,0.119179978966713,0.08504460752010345,-0.06446772068738937,0.08697964996099472,XTrueNorthZVertical,-0.230929437481357,-0.4699191235440366,-0.8500784728171593,0.05669424805239125,-0.4458996951580048,-0.77275151014328,-0.4516952335834503,-36.58189392089844,-24.37064743041992,-6.195666313171387,2,0.0.0.0,10.83.46.32,1,0
2015-02-26 19:56:26.674,125,1425009386.049798,37.76008478369354,-122.4614107982464,126.7797,0,-1,10,200,-9999,1425009386.625813,-36.15219879150391,-24.12086486816406,-8.344276428222656,94.89202117919922,81.11404418945312,10,120377.8872207083,-0.4894866943359375,-0.7530059814453125,-0.4310760498046875,120377.8627794583,0.02327869108838262,-0.1915864772397554,-0.004991296515026509,120377.8627794583,-2.61453006884521,-0.7994484261234456,0.9007299490025827,0.01694882288575172,-0.18110391497612,0.03104454651474953,0.01655576378107071,-0.02949775382876396,0.05745401605963707,XTrueNorthZVertical,-0.2338125843495969,-0.4784016689868016,-0.8448133878689978,0.05247755391539348,-0.4452666938304901,-0.7837804555892944,-0.4329270422458649,-36.57915878295898,-24.55315971374512,-5.445843696594238,2,0.0.0.0,10.83.46.32,1,0
2015-02-26 19:56:26.698,126,1425009386.049798,37.76008478369354,-122.4614107982464,126.7797,0,-1,10,200,-9999,1425009386.678991,-36.25447845458984,-24.12086486816406,-7.878280639648438,95.34002685546875,81.56204986572266,10,120377.936320875,-0.535491943359375,-0.7750396728515625,-0.39654541015625,120377.9145594583,-0.01699256565135959,-0.2210799210479469,0.1218161840535325,120377.9145594583,-2.605646529415108,-0.81858406961671,0.8899993231411559,-0.02332089655101299,-0.2105952501296997,0.1578659564256668,-0.06971295177936554,0.03746255859732628,-0.005939596798270941,XTrueNorthZVertical,-0.2418214423828799,-0.4759175332405195,-0.8438616221394604,0.05406005656223952,-0.4595839381217957,-0.7770712971687317,-0.4300497770309448,-36.82095718383789,-24.31167602539062,-4.869234085083008,2,0.0.0.0,10.83.46.32,1,0
2015-02-26 19:56:26.741,127,1425009386.049798,37.76008478369354,-122.4614107982464,126.7797,0,-1,10,200,-9999,1425009386.730807,-36.30561828613281,-23.79803466796875,-7.828361511230469,94.98450469970703,81.20652770996094,10,120377.9853189167,-0.4410858154296875,-0.8142242431640625,-0.3837127685546875,120377.9663397917,-0.0925003730900492,0.06165217923533436,-0.0172921712739935,120377.9663397917,-2.597729176796463,-0.8335419506242461,0.8825967255487529,-0.0988202840089798,0.07213530689477921,0.01876474730670452,-0.01552237011492252,-0.04123836383223534,0.04577263444662094,XTrueNorthZVertical,-0.247678407969652,-0.4745144107536809,-0.8428572856363996,0.05552577545228467,-0.4702106714248657,-0.7723907828330994,-0.426982969045639,-36.94658660888672,-24.15896606445312,-4.673746109008789,2,0.0.0.0,10.83.46.32,1,0
2015-02-26 19:56:26.796,128,1425009386.049798,37.76008478369354,-122.4614107982464,126.7797,0,-1,10,200,-9999,1425009386.781311,-36.595458984375,-23.57717895507812,-8.211143493652344,94.26873016357422,80.49075317382812,10,120378.0343825,-0.3962249755859375,-0.7725982666015625,-0.4352874755859375,120378.018119875,-0.07696082812943685,0.132757781392123,-0.0007672567100518285,120378.018119875,-2.604570116274151,-0.8190669860754135,0.8887754942614857,-0.08327669650316238,0.1432348042726517,0.03526895493268967,0.06999824941158295,0.006647126283496618,0.01096702460199594,XTrueNorthZVertical,-0.2420044990907158,-0.4756000064061148,-0.8439485124078607,0.05467540770899957,-0.4604859352111816,-0.7763004302978516,-0.4304769039154053,-37.01911163330078,-24.04021644592285,-4.711999893188477,2,0.0.0.0,10.83.46.32,1,0
2015-02-26 19:56:26.844,129,1425009386.049798,37.76008478369354,-122.4614107982464,126.7797,0,-1,10,200,-9999,1425009386.833229,-36.595458984375,-23.54318237304688,-8.044708251953125,95.20767974853516,81.42970275878906,10,120378.0834225833,-0.47772216796875,-0.7673187255859375,-0.397552490234375,120378.0699002083,0.01508600862697186,-0.2538927288388132,0.03206898689840716,120378.018119875,-2.604570116274151,-0.8190669860754135,0.8887754942614857,-0.08327669650316238,0.1432348042726517,0.03526895493268967,0.06999824941158295,0.006647126283496618,0.01096702460199594,XTrueNorthZVertical,-0.2420044990907158,-0.4756000064061148,-0.8439485124078607,0.05467540770899957,-0.4604859352111816,-0.7763004302978516,-0.4304769039154053,-37.01911163330078,-24.04021644592285,-4.711999893188477,2,0.0.0.0,10.83.46.32,1,0
2015-02-26 19:56:26.894,130,1425009386.049798,37.76008478369354,-122.4614107982464,126.7797,0,-1,10,200,-9999,1425009386.886356,-36.5443115234375,-23.42424011230469,-8.227775573730469,94.64270782470703,80.86473083496094,10,120378.132588625,-0.4774932861328125,-0.80615234375,-0.3865509033203125,120378.12168025,-0.07627799362594054,0.0223401931202387,0.008134891865756042,120378.12168025,-2.598769787458993,-0.8358160036735828,0.8820182893456191,-0.08265340328216553,0.03282769024372101,0.044232077896595,-0.03895574063062668,-0.02396672591567039,0.04179742559790611,XTrueNorthZVertical,-0.2489958538208927,-0.4742309721501326,-0.8426838960090257,0.05468031380510676,-0.4715117812156677,-0.7720232605934143,-0.4262121021747589,-37.01190948486328,-24.07752990722656,-4.576106071472168,2,0.0.0.0,10.83.46.32,1,0
2015-02-26 19:56:26.973,131,1425009386.049798,37.76008478369354,-122.4614107982464,126.7797,0,-1,10,200,-9999,1425009386.936803,-36.51020050048828,-23.01644897460938,-8.261062622070312,94.29689025878906,80.51891326904297,10,120378.1815154583,-0.4635467529296875,-0.7432403564453125,-0.429779052734375,120378.173460625,-0.08682650838763539,-0.05578097429614567,0.05049140373903029,120378.12168025,-2.598769787458993,-0.8358160036735828,0.8820182893456191,-0.08265340328216553,0.03282769024372101,0.044232077896595,-0.03895574063062668,-0.02396672591567039,0.04179742559790611,XTrueNorthZVertical,-0.2489958538208927,-0.4742309721501326,-0.8426838960090257,0.05468031380510676,-0.4715117812156677,-0.7720232605934143,-0.4262121021747589,-37.01190948486328,-24.07752990722656,-4.576106071472168,2,0.0.0.0,10.83.46.32,1,0
2015-02-26 19:56:26.994,132,1425009386.049798,37.76008478369354,-122.4614107982464,126.7797,0,-1,10,200,-9999,1425009386.988799,-36.91938018798828,-23.28828430175781,-8.460769653320312,94.27719116210938,80.49921417236328,10,120378.230585,-0.4670562744140625,-0.7827301025390625,-0.4129180908203125,120378.2252408333,-0.01541757218268673,-0.09476406001661655,-0.05384805197696616,120378.173460625,-2.600149538983044,-0.8341552756530333,0.8806701939681584,-0.09319815039634705,-0.04529543593525887,0.08658471703529358,0.02430818602442741,0.04069697111845016,0.008366581052541733,XTrueNorthZVertical,-0.2488843918467535,-0.4735080547780153,-0.8431154040691288,0.05480084355182595,-0.4715737998485565,-0.7711657285690308,-0.4276933670043945,-37.13318634033203,-23.91749954223633,-4.430515289306641,2,0.0.0.0,10.83.46.32,1,0
2015-02-26 19:56:27.041,133,1425009386.049798,37.76008478369354,-122.4614107982464,126.7797,0,-1,10,200,-9999,1425009386.988799,-36.91938018798828,-23.28828430175781,-8.460769653320312,94.27719116210938,80.49921417236328,10,120378.279621375,-0.5105133056640625,-0.7728118896484375,-0.434326171875,120378.277021,0.008886435925376402,-0.04837712014961638,-0.01102708480958209,120378.2252408333,-2.599070859678373,-0.8377795045592831,0.8779188048784208,-0.0217872615903616,-0.08427942544221878,-0.01775605604052544,-0.004857428371906281,-0.02856245823204517,0.007294584065675735,XTrueNorthZVertical,-0.2506905027395888,-0.4727097308624805,-0.843013463909937,0.0550283320471618,-0.4746958017349243,-0.7694111466407776,-0.4273995757102966,-37.21669006347656,-23.7896842956543,-4.417984008789062,2,0.0.0.0,10.83.46.32,1,0
2015-02-26 19:56:27.090,134,1425009387.047041,37.76008478369354,-122.4614107982464,126.7616,0,-1,10,200,-9999,1425009387.039922,-36.85118865966797,-23.25433349609375,-8.593910217285156,94.21086883544922,80.43289184570312,10,120378.328690375,-0.4544677734375,-0.77203369140625,-0.39471435546875,120378.3288012083,-0.04046620013153601,-0.01366947324315871,-0.03383226585614862,120378.277021,-2.598235383322646,-0.8429373268416122,0.8753471638542275,0.00251757213845849,-0.03789268806576729,0.02506542764604092,-0.03223525360226631,0.008275019936263561,-0.003030343214049935,XTrueNorthZVertical,-0.2531663299545644,-0.4719921558694772,-0.8426934868407384,0.05475341896583955,-0.4783695936203003,-0.767765998840332,-0.4262604415416718,-37.23004913330078,-23.78462982177734,-4.331838607788086,2,0.0.0.0,10.83.46.32,1,0
2015-02-26 19:56:27.130,135,1425009387.047041,37.76008478369354,-122.4614107982464,126.7616,0,-1,10,200,-9999,1425009387.092739,-36.83414459228516,-23.47523498535156,-8.543983459472656,94.52051544189453,80.74253845214844,10,120378.3778240417,-0.4171142578125,-0.7981719970703125,-0.43621826171875,120378.3288012083,-0.04046620013153601,-0.01366947324315871,-0.03383226585614862,120378.3288012083,-2.599274675018762,-0.8434117363138482,0.8775645700760638,-0.04683193564414978,-0.00318667315877974,0.002257498446851969,0.02283123694360256,-0.002848833799362183,0.03018604591488838,XTrueNorthZVertical,-0.2531805783049608,-0.4727043411659302,-0.8423581962014836,0.05369269393002685,-0.4772990047931671,-0.7691848874092102,-0.4249004125595093,-37.26951599121094,-23.74181747436523,-4.226015090942383,2,0.0.0.0,10.83.46.32,1,0
2015-02-26 19:56:27.189,136,1425009387.047041,37.76008478369354,-122.4614107982464,126.7616,0,-1,10,200,-9999,1425009387.147184,-36.71479797363281,-23.59416198730469,-8.061355590820312,94.69583892822266,80.91786193847656,10,120378.4268047917,-0.431884765625,-0.746612548828125,-0.4817047119140625,120378.4323614583,-0.148620367792962,-0.1818249265801789,0.1638736229363908,120378.380581375,-2.604409174059701,-0.8342260923519946,0.8786106711320943,-0.07943011075258255,0.1029195636510849,-0.02361180447041988,0.05566536635160446,-0.02831907384097576,-0.007492305245250463,XTrueNorthZVertical,-0.2503194906706981,-0.4722045894598473,-0.8435076708547793,0.05345860987526353,-0.4727796316146851,-0.7698529362678528,-0.4287259578704834,-35.97515106201172,-23.27922439575195,-8.149689674377441,2,0.0.0.0,10.83.46.32,1,0
2015-02-26 19:56:27.227,137,1425009387.047041,37.76008478369354,-122.4614107982464,126.7616,0,-1,10,200,-9999,1425009387.222306,-37.08986663818359,-22.91450500488281,-7.562065124511719,96.61465454101562,82.83667755126953,10,120378.475805,-0.474609375,-0.6993865966796875,-0.472991943359375,120378.4323614583,-0.148620367792962,-0.1818249265801789,0.1638736229363908,120378.4323614583,-2.610865000605336,-0.8295634540991581,0.870254752727473,-0.1549909263849258,-0.1713422536849976,0.199951171875,0.04361933097243309,0.01788063533604145,-0.04645068570971489,XTrueNorthZVertical,-0.2514712775636003,-0.4681187710426505,-0.8454229932077324,0.05373091094480917,-0.4755041003227234,-0.7644931674003601,-0.4352540373802185,-35.96525573730469,-23.2496223449707,-8.27687931060791,2,0.0.0.0,10.83.46.32,1,0
2015-02-26 19:56:27.289,138,1425009387.047041,37.76008478369354,-122.4614107982464,126.7616,0,-1,10,200,-9999,1425009387.273982,-37.77184295654297,-21.96299743652344,-7.994773864746094,95.43552398681641,81.65754699707031,10,120378.5249426667,-0.5061187744140625,-0.6999359130859375,-0.502197265625,120378.4841416667,-0.3640535883816138,-0.4705392856201052,0.4590027380939909,120378.4841416667,-2.610626414035706,-0.8459467638038015,0.8511251804175349,-0.3704284429550171,-0.4600553512573242,0.4950788021087646,0.01882036216557026,0.05263593420386314,-0.03596877679228783,XTrueNorthZVertical,-0.2619925394904534,-0.4613548799554875,-0.8459036796777232,0.05439286881126688,-0.4934297502040863,-0.7520225048065186,-0.4370231628417969,-36.42559814453125,-22.57102584838867,-8.141009330749512,2,0.0.0.0,10.83.46.32,1,0
2015-02-26 19:56:27.327,139,1425009387.047041,37.76008478369354,-122.4614107982464,126.7616,0,-1,10,200,-9999,1425009387.273982,-37.77184295654297,-21.96299743652344,-7.994773864746094,95.43552398681641,81.65754699707031,10,120378.5740174167,-0.3686981201171875,-0.5764617919921875,-0.3865509033203125,120378.5359220417,-0.4539539172994187,-0.2194402127647851,0.570253363154852,120378.5359220417,-2.606622622066514,-0.8659375153142597,0.8106377264556097,-0.4603331983089447,-0.208954781293869,0.6063312888145447,0.03485090285539627,0.01398760266602039,-0.03017872013151646,XTrueNorthZVertical,-0.2772588940017601,-0.4471074791554114,-0.8482399440045406,0.06092159430463722,-0.5248411297798157,-0.7247267365455627,-0.4464448094367981,-37.19257354736328,-21.34084701538086,-7.989493370056152,2,0.0.0.0,10.83.46.32,1,0
2015-02-26 19:56:27.384,140,1425009387.047041,37.76008478369354,-122.4614107982464,126.7616,0,-1,10,200,-9999,1425009387.378264,-39.71544647216797,-18.76864624023438,-8.394195556640625,92.73456573486328,78.95658874511719,10,120378.6229847917,-0.414581298828125,-0.59173583984375,-0.425750732421875,120378.587702,-1.045888074888606,-0.3613856336015724,1.220754427856517,120378.587702,-2.61047394980693,-0.8796310094860645,0.7543255898766316,-1.05226731300354,-0.3509003221988678,1.256832003593445,0.1871327906847,0.1782055646181107,0.0949527695775032,XTrueNorthZVertical,-0.2945131916611562,-0.4254428960633534,-0.8528974026650875,0.06947213924419054,-0.5614919066429138,-0.6847973465919495,-0.4645206332206726,-37.62498092651367,-20.5485954284668,-8.041608810424805,2,0.0.0.0,10.83.46.32,1,0
2015-02-26 19:56:27.424,141,1425009387.047041,37.76008478369354,-122.4614107982464,126.7616,0,-1,10,200,-9999,1425009387.378264,-39.71544647216797,-18.76864624023438,-8.394195556640625,92.73456573486328,78.95658874511719,10,120378.672143625,-0.638763427734375,-0.8390045166015625,-0.2733154296875,120378.6394824167,-0.8560867145275305,-0.4749159245555414,1.169458483152173,120378.6394824167,-2.603069074790585,-0.904056562816989,0.6741654877699096,-0.8624658584594727,-0.4644306898117065,1.205535769462585,0.1519163548946381,0.00168699596542865,0.08126206696033478,XTrueNorthZVertical,-0.3182114542606346,-0.3964531139856514,-0.856779279961987,0.08657770898714927,-0.6139219403266907,-0.6242455840110779,-0.4831328094005585,-39.51860809326172,-16.5267219543457,-8.227889060974121,2,0.0.0.0,10.83.46.32,1,0
2015-02-26 19:56:27.482,142,1425009387.047041,37.76008478369354,-122.4614107982464,126.7616,0,-1,10,200,-9999,1425009387.429529,-41.23281860351562,-16.44084167480469,-8.111274719238281,92.19115447998047,78.41317749023438,10,120378.7210917917,-0.64697265625,-0.5111846923828125,-0.3861236572265625,120378.6912625,-0.8512011455077801,-0.6628059342022667,1.248808965727738,120378.6912625,-2.598554514455745,-0.9511003268033374,0.6016916534985892,-0.85757976770401,-0.6523209810256958,1.284885406494141,0.03238772600889206,-0.227495476603508,0.2333212196826935,XTrueNorthZVertical,-0.3505900254594558,-0.3710686671983587,-0.8543885589382513,0.09703042875625276,-0.6710901260375977,-0.5660378336906433,-0.478789359331131,-40.63946151733398,-14.09502983093262,-7.232955932617188,2,0.0.0.0,10.83.46.32,1,0
2015-02-26 19:56:27.522,143,1425009387.047041,37.76008478369354,-122.4614107982464,126.7616,0,-1,10,200,-9999,1425009387.481601,-42.49444580078125,-13.79022216796875,-8.377555847167969,88.56256866455078,74.78459167480469,10,120378.7701303333,-0.265777587890625,-0.4578857421875,-0.552154541015625,120378.7430428333,-1.25302315183668,1.183488548406929,1.346036183436569,120378.7430428333,-2.602887927216854,-0.9158016472012491,0.517316372644499,-1.259401679039001,1.193973302841187,1.382112264633179,0.2715859413146973,0.004376108292490244,0.0848972350358963,XTrueNorthZVertical,-0.3508973755767547,-0.334884510621437,-0.8659669084982344,0.1217569103682764,-0.6892800331115723,-0.4945494532585144,-0.5294467806816101,-41.19182586669922,-12.31199932098389,-7.362030982971191,2,0.0.0.0,10.83.46.32,1,0
2015-02-26 19:56:27.581,144,1425009387.047041,37.76008478369354,-122.4614107982464,126.7616,0,-1,10,200,-9999,1425009387.533172,-43.92657470703125,-10.52789306640625,-8.910110473632812,86.32704162597656,72.54906463623047,10,120378.8191852917,-0.3079681396484375,-0.372467041015625,-0.6096649169921875,120378.7948229167,-1.505507068458841,0.3289989315851188,1.653068563402387,120378.7948229167,-2.608170086311876,-0.8694734387863869,0.4122862794554535,-1.511885643005371,0.3394836485385895,1.689144253730774,0.4122832119464874,-0.1267302185297012,-0.002662966260686517,XTrueNorthZVertical,-0.348749219132758,-0.2877365432293998,-0.8791098095720368,0.1508232145133358,-0.69997239112854,-0.4007050693035126,-0.5911633372306824,-41.56776428222656,-6.842232704162598,-11.3073558807373,2,0.0.0.0,10.83.46.32,1,0
2015-02-26 19:56:27.620,145,1425009387.047041,37.76008478369354,-122.4614107982464,126.7616,0,-1,10,200,-9999,1425009387.585063,-44.62558746337891,-6.534912109375,-10.72414398193359,85.06987762451172,71.29190063476562,10,120378.8683284167,-1.101318359375,-0.1044464111328125,-0.512542724609375,120378.8466030417,-1.119599047539819,-1.687933603129269,1.940595685228356,120378.8466030417,-2.603963854978899,-0.9116367438604189,0.2969421263304291,-1.125977396965027,-1.677448868751526,1.976670980453491,0.2585052251815796,0.1221110820770264,-0.03063808381557465,XTrueNorthZVertical,-0.3844429812862933,-0.2436781072524694,-0.8734249692172199,0.1730706006538672,-0.7559112310409546,-0.2925975322723389,-0.5856491327285767,-42.2080078125,-2.735830307006836,-10.65601348876953,2,0.0.0.0,10.83.46.32,1,0
2015-02-26 19:56:27.679,146,1425009387.047041,37.76008478369354,-122.4614107982464,126.7616,0,-1,10,200,-9999,1425009387.636407,-45.29051971435547,-1.72637939453125,-9.542518615722656,81.97039031982422,68.19241333007812,10,120378.9172884583,-1.20294189453125,-0.0525054931640625,-0.33746337890625,120378.89838325,-0.9214995435381658,-1.175085742535511,1.658186892701411,120378.89838325,-2.585086046034982,-1.004660038659614,0.1939023659697836,-0.9278779029846191,-1.16460120677948,1.694261908531189,-0.4917372167110443,0.1242691799998283,0.1913624405860901,XTrueNorthZVertical,-0.4374722083849584,-0.2132050140456435,-0.8515953645146115,0.1948000500283343,-0.8281633257865906,-0.1926895827054977,-0.5263233780860901,-42.80329895019531,0.08071708679199219,-8.391818046569824,2,0.0.0.0,10.83.46.32,1,0
2015-02-26 19:56:27.718,147,1425009387.047041,37.76008478369354,-122.4614107982464,126.7616,0,-1,10,200,-9999,1425009387.689225,-45.81904602050781,3.15008544921875,-7.761764526367188,75.84870910644531,62.07073211669922,10,120378.9663236667,-0.8722076416015625,0.077972412109375,-0.52886962890625,120378.950163625,-0.8952173393723918,0.4879837897084512,1.06571158077872,120378.89838325,-2.585086046034982,-1.004660038659614,0.1939023659697836,-0.9278779029846191,-1.16460120677948,1.694261908531189,-0.4917372167110443,0.1242691799998283,0.1913624405860901,XTrueNorthZVertical,-0.4374722083849584,-0.2132050140456435,-0.8515953645146115,0.1948000500283343,-0.8281633257865906,-0.1926895827054977,-0.5263233780860901,-42.80329895019531,0.08071708679199219,-8.391818046569824,2,0.0.0.0,10.83.46.32,1,0
