loggingTime,loggingSample,locationTimestamp_since1970,locationLatitude,locationLongitude,locationAltitude,locationSpeed,locationCourse,locationVerticalAccuracy,locationHorizontalAccuracy,locationFloor,locationHeadingTimestamp_since1970,locationHeadingX,locationHeadingY,locationHeadingZ,locationTrueHeading,locationMagneticHeading,locationHeadingAccuracy,accelerometerTimestamp_sinceReboot,accelerometerAccelerationX,accelerometerAccelerationY,accelerometerAccelerationZ,gyroTimestamp_sinceReboot,gyroRotationX,gyroRotationY,gyroRotationZ,motionTimestamp_sinceReboot,motionYaw,motionRoll,motionPitch,motionRotationRateX,motionRotationRateY,motionRotationRateZ,motionUserAccelerationX,motionUserAccelerationY,motionUserAccelerationZ,motionAttitudeReferenceFrame,motionQuaternionX,motionQuaternionY,motionQuaternionZ,motionQuaternionW,motionGravityX,motionGravityY,motionGravityZ,motionMagneticFieldX,motionMagneticFieldY,motionMagneticFieldZ,motionMagneticFieldCalibrationAccuracy,IP_en0,IP_pdp_ip0,deviceOrientation,state
2015-02-27 17:05:15.246,1,1425085495.114087,37.78747695151869,-122.396258045138,15.49011,-1,-1,10,107.2073353866586,-9999,1425085515.203487,-30.50674438476562,-26.70246887207031,6.767227172851562,121.0734710693359,107.3002166748047,10,137159.4480231667,-0.4016571044921875,-0.862457275390625,-0.306884765625,137159.448477875,-0.3333593252379056,1.268508101994946,-0.1904423832354573,137159.3966931667,-2.885449537087924,-1.140284009891304,1.034332987545685,-0.06902748346328735,0.2137486934661865,0.1544068604707718,-0.04779020696878433,-0.004644621629267931,0.04629293456673622,XTrueNorthZVertical,0.4121628031270715,0.4727278630869056,0.7598249971898295,0.1712196521740978,-0.4644626080989838,-0.8595216274261475,-0.2133003771305084,-29.03825378417969,-23.01380348205566,4.480995178222656,2,10.3.35.51,10.83.46.32,1,0
2015-02-27 17:05:15.273,2,1425085495.114087,37.78747695151869,-122.396258045138,15.49011,-1,-1,10,107.2073353866586,-9999,1425085515.255336,-31.03528594970703,-26.92330932617188,5.419326782226562,119.6224670410156,105.8492126464844,10,137159.4970392917,-0.3813323974609375,-0.901702880859375,-0.292572021484375,137159.448477875,-0.3333593252379056,1.268508101994946,-0.1904423832354573,137159.448477875,-2.910276098286966,-1.071019990078168,1.030989267603026,-0.3361001014709473,1.276344060897827,-0.1569433063268661,0.04944954812526703,-0.004649412352591753,-0.06057507172226906,XTrueNorthZVertical,0.3920776248936297,0.472356103686414,0.7722795428273488,0.163521128799192,-0.4511066377162933,-0.8578078746795654,-0.2463096976280212,-29.2383918762207,-22.82953453063965,4.106514453887939,2,10.3.35.51,10.83.46.32,1,0
2015-02-27 17:05:15.326,3,1425085495.114087,37.78747695151869,-122.396258045138,15.49011,-1,-1,10,107.2073353866586,-9999,1425085515.307,-31.18873596191406,-27.24612426757812,3.871749877929688,118.5227432250977,104.7494888305664,10,137159.5460840834,-0.496124267578125,-0.912017822265625,-0.2218780517578125,137159.552044625,-0.1360379969067736,-0.01792120992347022,0.2930433273918501,137159.5002610833,-2.92469315111081,-1.037927395046738,1.031019394379926,-0.1224497780203819,-0.1062406897544861,-0.04537456482648849,0.06135546788573265,-0.04387953504920006,-0.03148474544286728,XTrueNorthZVertical,0.3826554228798081,0.4722617814207445,0.7775127897335061,0.1612994216239536,-0.4426878690719604,-0.857823371887207,-0.2610872685909271,-29.30241394042969,-22.99659729003906,2.336624145507812,2,10.3.35.51,10.83.46.32,1,0
2015-02-27 17:05:15.371,4,1425085495.114087,37.78747695151869,-122.396258045138,15.49011,-1,-1,10,107.2073353866586,-9999,1425085515.359173,-31.35923004150391,-27.382080078125,3.77191162109375,118.4553298950195,104.6820755004883,10,137159.59508175,-0.4172821044921875,-0.8658447265625,-0.245361328125,137159.552044625,-0.1360379969067736,-0.01792120992347022,0.2930433273918501,137159.552044625,-2.927786891616792,-1.042069542102544,1.025871860710823,-0.1387711763381958,-0.01008512731641531,0.3265262544155121,-0.04855192080140114,-0.05685137584805489,0.0395972840487957,XTrueNorthZVertical,0.3858283664799825,0.4694665100778444,0.7774393211456642,0.1622521923941473,-0.4475723505020142,-0.8551664352416992,-0.2614753246307373,-29.21979141235352,-23.12425231933594,2.099397659301758,2,10.3.35.51,10.83.46.32,1,0
2015-02-27 17:05:15.425,5,1425085495.114087,37.78747695151869,-122.396258045138,15.49011,-1,-1,10,107.2073353866586,-9999,1425085515.410975,-31.08644866943359,-27.11024475097656,3.605499267578125,118.9221343994141,105.1488800048828,10,137159.644113,-0.3730621337890625,-0.8566131591796875,-0.28753662109375,137159.6038290417,-0.02761458365914063,0.4950132034057154,-0.0234560576169819,137159.6038290417,-2.925904791627232,-1.026304754546566,1.018212235193073,-0.03034132346510887,0.5028450489044189,0.01002946216613054,0.03170266002416611,-0.01467372104525566,0.02652211859822273,XTrueNorthZVertical,0.3804726407007317,0.4682935469995512,0.7820510401010252,0.1560060853271949,-0.4489847719669342,-0.8511710166931152,-0.2718834578990936,-29.44073486328125,-22.85000991821289,2.013663291931152,2,10.3.35.51,10.83.46.32,1,0
2015-02-27 17:05:15.470,6,1425085495.114087,37.78747695151869,-122.396258045138,15.49011,-1,-1,10,107.2073353866586,-9999,1425085515.462011,-31.54677581787109,-26.92337036132812,3.256050109863281,117.8384246826172,104.0651702880859,10,137159.693123,-0.4161376953125,-0.8449249267578125,-0.235809326171875,137159.6556125417,0.05299663937646783,-0.02756052148901202,0.02873391026530093,137159.6556125417,-2.927401340636103,-1.013194699520943,1.019337311022405,0.05011792108416557,-0.01976894587278366,0.06213445588946342,0.06831779330968857,0.001617573434486985,-0.006482704076915979,XTrueNorthZVertical,0.3755109615448688,0.469437863705624,0.7842005560747711,0.1537826459539192,-0.4445690214633942,-0.8517609834671021,-0.2772392332553864,-29.49522590637207,-22.8254222869873,1.402312278747559,2,10.3.35.51,10.83.46.32,1,0
2015-02-27 17:05:15.522,7,1425085495.114087,37.78747695151869,-122.396258045138,15.49011,-1,-1,10,107.2073353866586,-9999,1425085515.514763,-32.12645721435547,-26.75347900390625,3.222763061523438,116.5816192626953,102.8083648681641,10,137159.7422754167,-0.3643341064453125,-0.8242950439453125,-0.1840667724609375,137159.70739575,0.07848388995685317,-0.17073525748498,0.1044718148221734,137159.70739575,-2.915783517501636,-1.030145509850806,1.019015533462756,0.07560986280441284,-0.1629452109336853,0.1378685683012009,0.03246238827705383,0.01165707036852837,0.05026154220104218,XTrueNorthZVertical,0.3794703119561301,0.4702124868422561,0.7819531008498917,0.153139975506716,-0.4494393169879913,-0.8515923619270325,-0.269804984331131,-29.53469848632812,-22.77588272094727,1.376786231994629,2,10.3.35.51,10.83.46.32,1,0
2015-02-27 17:05:15.571,8,1425085495.114087,37.78747695151869,-122.396258045138,15.49011,-1,-1,10,107.2073353866586,-9999,1425085515.56617,-32.5867919921875,-26.56655883789062,3.771919250488281,116.0115432739258,102.2382888793945,10,137159.791191125,-0.35418701171875,-0.9364471435546875,-0.16748046875,137159.7591804167,0.1172469985712835,-0.06590897592171702,0.2778984629047874,137159.7591804167,-2.895644360655318,-1.052761940580259,1.013935965159394,0.1143818870186806,-0.05812142789363861,0.3112870156764984,0.09565275907516479,0.001003015553578734,0.08945430815219879,XTrueNorthZVertical,0.3844032338060632,0.4705090493405057,0.7800919514061306,0.1493718184428702,-0.4591781497001648,-0.8489186763763428,-0.2617107629776001,-29.64496612548828,-22.6109619140625,1.689706802368164,2,10.3.35.51,10.83.46.32,1,0
2015-02-27 17:05:15.620,9,1425085495.114087,37.78747695151869,-122.396258045138,15.49011,-1,-1,10,107.2073353866586,-9999,1425085515.56617,-32.5867919921875,-26.56655883789062,3.771919250488281,116.0115432739258,102.2382888793945,10,137159.84023125,-0.37646484375,-0.93194580078125,-0.209808349609375,137159.8109637084,0.2477496151523274,-0.1032486249335,0.4253917809244279,137159.8109637084,-2.860594569413411,-1.086294304325301,1.009656650334213,0.2449072748422623,-0.09546507149934769,0.4587497115135193,0.1209137067198753,-0.1181945726275444,0.05947397649288177,XTrueNorthZVertical,0.3899215574975421,0.4733198548398631,0.7769177493973638,0.1425773795165868,-0.4709045588970184,-0.846649169921875,-0.2478589862585068,-29.80188751220703,-22.37339210510254,2.052658081054688,2,10.3.35.51,10.83.46.32,1,0
2015-02-27 17:05:15.671,10,1425085495.114087,37.78747695151869,-122.396258045138,15.49011,-1,-1,10,107.2073353866586,-9999,1425085515.669229,-33.16647338867188,-24.969482421875,4.803627014160156,113.8611068725586,100.0878524780273,10,137159.889237625,-0.4431304931640625,-0.8232879638671875,-0.181640625,137159.8627472083,0.342414605576393,-0.5175760367930846,0.4442440319649898,137159.8627472083,-2.815062827547126,-1.13941042954127,0.9970299462405884,0.3395750820636749,-0.5097922086715698,0.4775939881801605,0.09042283147573471,-0.04298046976327896,0.0165267176926136,XTrueNorthZVertical,0.4019975227101126,0.4742548397586219,0.7716586797454773,0.1342506057317534,-0.4930717647075653,-0.8398625254631042,-0.2269606739282608,-30.30195236206055,-21.62969589233398,2.623467922210693,2,10.3.35.51,10.83.46.32,1,0
2015-02-27 17:05:15.719,11,1425085495.114087,37.78747695151869,-122.396258045138,15.49011,-1,-1,10,107.2073353866586,-9999,1425085515.669229,-33.16647338867188,-24.969482421875,4.803627014160156,113.8611068725586,100.0878524780273,10,137159.938396625,-0.5372772216796875,-0.855682373046875,-0.105865478515625,137159.9145315833,0.2244738535411439,-0.711646977013775,0.4432386886534849,137159.9145315833,-2.77365216995249,-1.206602082155725,0.9807655902761219,0.2216344773769379,-0.7038632035255432,0.4765881299972534,0.04284298792481422,-0.001046636723913252,0.04676998779177666,XTrueNorthZVertical,0.4211095110686557,0.4728375031746035,0.7630469343774156,0.1298108457786664,-0.5198937654495239,-0.8309235572814941,-0.1981829553842545,-30.65258026123047,-20.98097610473633,3.626660346984863,2,10.3.35.51,10.83.46.32,1,0
2015-02-27 17:05:15.758,12,1425085495.114087,37.78747695151869,-122.396258045138,15.49011,-1,-1,10,107.2073353866586,-9999,1425085515.721979,-33.76320648193359,-23.89907836914062,5.885276794433594,112.107307434082,98.33405303955078,10,137159.9874037917,-0.56622314453125,-0.8682708740234375,-0.0801544189453125,137159.966315125,0.04248993624388722,-0.6824510082993452,0.3804448122588335,137159.966315125,-2.750068423391446,-1.261158535052484,0.9615810093207315,0.03965320810675621,-0.6746684312820435,0.4137937128543854,-0.02179154194891453,-0.05220190808176994,0.09160084277391434,XTrueNorthZVertical,0.4401244862169841,0.4680899259830558,0.7554812843317054,0.1281806979047534,-0.5450114607810974,-0.8200972676277161,-0.1743645220994949,-30.95682907104492,-20.27886962890625,4.834976196289062,2,10.3.35.51,10.83.46.32,1,0
2015-02-27 17:05:15.818,13,1425085495.114087,37.78747695151869,-122.396258045138,15.49011,-1,-1,10,107.2073353866586,-9999,1425085515.773716,-33.88255310058594,-23.47434997558594,7.199882507324219,111.9506149291992,98.17736053466797,10,137160.0363356667,-0.5594635009765625,-0.8544464111328125,-0.1738433837890625,137160.0180983334,0.1014613775259478,-0.6906628655206046,0.3303946943124294,137160.0180983334,-2.735826656452041,-1.306795354065234,0.9452668097503555,0.09862628579139709,-0.6828810572624207,0.363742858171463,0.01375711522996426,-0.06639149039983749,0.02206818759441376,XTrueNorthZVertical,0.4573123961508505,0.4631093344122408,0.7482355197750307,0.1286029864327734,-0.5652402639389038,-0.8106532096862793,-0.1527902334928513,-31.22573471069336,-19.48200225830078,6.19191312789917,2,10.3.35.51,10.83.46.32,1,0
2015-02-27 17:05:15.856,14,1425085495.114087,37.78747695151869,-122.396258045138,15.49011,-1,-1,10,107.2073353866586,-9999,1425085515.82531,-34.07009124755859,-22.91365051269531,8.281517028808594,112.1010665893555,98.32781219482422,10,137160.0853564584,-0.587677001953125,-0.895782470703125,-0.202880859375,137160.069883,0.1741619468595849,-0.9195184180032558,0.4351216399670323,137160.0180983334,-2.735826656452041,-1.306795354065234,0.9452668097503555,0.09862628579139709,-0.6828810572624207,0.363742858171463,0.01375711522996426,-0.06639149039983749,0.02206818759441376,XTrueNorthZVertical,0.4573123961508505,0.4631093344122408,0.7482355197750307,0.1286029864327734,-0.5652402639389038,-0.8106532096862793,-0.1527902334928513,-31.22573471069336,-19.48200225830078,6.19191312789917,2,10.3.35.51,10.83.46.32,1,0
2015-02-27 17:05:15.914,15,1425085495.114087,37.78747695151869,-122.396258045138,15.49011,-1,-1,10,107.2073353866586,-9999,1425085515.877924,-34.17237854003906,-21.82626342773438,9.7791748046875,112.3290100097656,98.55575561523438,10,137160.1343895833,-0.676544189453125,-0.758514404296875,-0.1021270751953125,137160.1216662083,0.1159441801660167,-1.041098379668098,0.4150547211532853,137160.1216662083,-2.695592528934446,-1.428411497764904,0.9042863777375212,0.1131089851260185,-1.033316493034363,0.448401927947998,-0.02849744260311127,-0.04290377721190453,-0.06209424883127213,XTrueNorthZVertical,0.5015982462935059,0.4522535775145059,0.7261432270266249,0.1287708012298967,-0.611990213394165,-0.7859841585159302,-0.08773180097341537,-31.40538787841797,-18.22528266906738,8.629905700683594,2,10.3.35.51,10.83.46.32,1,0
2015-02-27 17:05:15.955,16,1425085495.114087,37.78747695151869,-122.396258045138,15.49011,-1,-1,10,107.2073353866586,-9999,1425085515.928834,-34.35992431640625,-20.99372863769531,11.52643585205078,112.0000762939453,98.22682189941406,10,137160.18351525,-0.6817626953125,-0.689453125,-0.01226806640625,137160.17344975,-0.1516073692715948,-0.8924750823979372,0.2001671822719907,137160.1216662083,-2.695592528934446,-1.428411497764904,0.9042863777375212,0.1131089851260185,-1.033316493034363,0.448401927947998,-0.02849744260311127,-0.04290377721190453,-0.06209424883127213,XTrueNorthZVertical,0.5015982462935059,0.4522535775145059,0.7261432270266249,0.1287708012298967,-0.611990213394165,-0.7859841585159302,-0.08773180097341537,-31.40538787841797,-18.22528266906738,8.629905700683594,2,10.3.35.51,10.83.46.32,1,0
2015-02-27 17:05:16.012,17,1425085495.114087,37.78747695151869,-122.396258045138,15.49011,-1,-1,10,107.2073353866586,-9999,1425085515.980301,-34.58156585693359,-20.67091369628906,12.70792388916016,112.196891784668,98.42363739013672,10,137160.2324520833,-0.591033935546875,-0.768707275390625,-0.094970703125,137160.22523425,-0.2751032090246402,-0.2241976837361027,-0.2372652825729035,137160.17344975,-2.694753561994272,-1.478136595270655,0.8866374728412316,-0.1544427573680878,-0.8846933245658875,0.2335146963596344,-0.06871844083070755,0.1018094643950462,0.007728434633463621,XTrueNorthZVertical,0.5231187925371167,0.443967504952824,0.7150739152268653,0.1338240773105319,-0.629310131072998,-0.7749509215354919,-0.05847916752099991,-31.2834587097168,-17.33292770385742,10.6700267791748,2,10.3.35.51,10.83.46.32,1,0
2015-02-27 17:05:16.051,18,1425085495.114087,37.78747695151869,-122.396258045138,15.49011,-1,-1,10,107.2073353866586,-9999,1425085516.03317,-33.89958953857422,-20.60296630859375,13.40682983398438,113.6753997802734,99.90214538574219,10,137160.2814763333,-0.3665008544921875,-0.8804779052734375,-0.1743621826171875,137160.2770175833,-0.4626664488056129,-0.08386187746215917,-0.2747215780404319,137160.22523425,-2.711817624258796,-1.491028566775482,0.8849740101607106,-0.2779379487037659,-0.2164171785116196,-0.2039140462875366,0.02138679102063179,0.02315084636211395,-0.02396823838353157,XTrueNorthZVertical,0.5318324751933802,0.438089204849435,0.7106421657449976,0.1421962856573667,-0.6312958598136902,-0.7738985419273376,-0.05046413466334343,-31.03477096557617,-17.08648300170898,11.74009323120117,2,10.3.35.51,10.83.46.32,1,0
2015-02-27 17:05:16.111,19,1425085495.114087,37.78747695151869,-122.396258045138,15.49011,-1,-1,10,107.2073353866586,-9999,1425085516.08403,-33.25171661376953,-20.90878295898438,13.27371215820312,115.8390274047852,102.0657730102539,10,137160.3305217917,-0.2094573974609375,-0.9163970947265625,-0.2874298095703125,137160.3288008333,-0.5608947487682046,-0.8772892052300874,-0.1615510801497327,137160.3288008333,-2.800345363704361,-1.441619401260009,0.9132870687451682,-0.5637348294258118,-0.8694950938224792,-0.1282538324594498,0.4139624834060669,-0.128313422203064,-0.1868372112512589,XTrueNorthZVertical,0.5275192612700773,0.4270363595324467,0.7139167197684377,0.1722971222244891,-0.6060553789138794,-0.791516900062561,-0.07872675359249115,-30.29649543762207,-18.53998947143555,11.45974445343018,2,10.3.35.51,10.83.46.32,1,0
2015-02-27 17:05:16.150,20,1425085495.114087,37.78747695151869,-122.396258045138,15.49011,-1,-1,10,107.2073353866586,-9999,1425085516.135741,-32.51859283447266,-21.43548583984375,13.65644073486328,118.7284622192383,104.955207824707,10,137160.37965375,-0.43927001953125,-0.8564605712890625,-0.18560791015625,137160.3288008333,-0.5608947487682046,-0.8772892052300874,-0.1615510801497327,137160.3288008333,-2.800345363704361,-1.441619401260009,0.9132870687451682,-0.5637348294258118,-0.8694950938224792,-0.1282538324594498,0.4139624834060669,-0.128313422203064,-0.1868372112512589,XTrueNorthZVertical,0.5275192612700773,0.4270363595324467,0.7139167197684377,0.1722971222244891,-0.6060553789138794,-0.791516900062561,-0.07872675359249115,-30.29649543762207,-18.53998947143555,11.45974445343018,2,10.3.35.51,10.83.46.32,1,0
2015-02-27 17:05:16.209,21,1425085495.114087,37.78747695151869,-122.396258045138,15.49011,-1,-1,10,107.2073353866586,-9999,1425085516.188302,-31.99005889892578,-21.82626342773438,14.80464172363281,121.4789810180664,107.7057266235352,10,137160.4285712084,-0.48602294921875,-0.711822509765625,-0.103759765625,137160.4323687917,-0.9383584185028034,-1.131108697138923,0.629610696478865,137160.3805854583,-2.848120092186068,-1.472783388605878,0.9079333442281703,-0.6522166728973389,-1.619375467300415,0.2969367206096649,0.1731526106595993,-0.06822691857814789,-0.1253896206617355,XTrueNorthZVertical,0.549602319767754,0.4096683328360614,0.7017621845014289,0.1940077009977376,-0.6124226450920105,-0.7882336378097534,-0.06021829321980476,-29.70789527893066,-19.05276489257812,12.1395149230957,2,10.3.35.51,10.83.46.32,1,0
2015-02-27 17:05:16.248,22,1425085495.114087,37.78747695151869,-122.396258045138,15.49011,-1,-1,10,107.2073353866586,-9999,1425085516.239814,-31.56382751464844,-21.77529907226562,15.88627624511719,124.1188507080078,110.3455963134766,10,137160.477588625,-0.4285736083984375,-0.6537017822265625,-0.04376220703125,137160.4323687917,-0.9383584185028034,-1.131108697138923,0.629610696478865,137160.4323687917,-2.909987526312931,-1.494698424150033,0.8784889001928574,-0.9411986470222473,-1.123313784599304,0.6629034876823425,0.150444820523262,0.05795269086956978,-0.05523219332098961,XTrueNorthZVertical,0.5750144604651193,0.3809128307027909,0.6928161058375849,0.2104035019182381,-0.6364677548408508,-0.7697752118110657,-0.04852757230401039,-28.99472045898438,-19.14947128295898,13.62125778198242,2,10.3.35.51,10.83.46.32,1,0
2015-02-27 17:05:16.307,23,1425085495.114087,37.78747695151869,-122.396258045138,15.49011,-1,-1,10,107.2073353866586,-9999,1425085516.293256,-31.12054443359375,-21.63935852050781,16.11923217773438,126.3571472167969,112.5838928222656,10,137160.526733,-0.3921051025390625,-0.7408294677734375,-0.060089111328125,137160.4841521667,-1.258786232435611,-0.9240897340143769,0.8977356244991708,137160.4841521667,-2.989124166214025,-1.483765061685483,0.8324400277202463,-1.261626362800598,-0.9162949919700623,0.9310280680656433,0.2419521063566208,0.08587410300970078,0.01474228221923113,XTrueNorthZVertical,0.5934953473682953,0.3442543073033127,0.6931058847804574,0.2210350232506618,-0.6705257296562195,-0.7395758628845215,-0.05850448831915855,-28.71874237060547,-18.81969261169434,14.62831497192383,2,10.3.35.51,10.83.46.32,1,0
2015-02-27 17:05:16.345,24,1425085495.114087,37.78747695151869,-122.396258045138,15.49011,-1,-1,10,107.2073353866586,-9999,1425085516.343679,-30.98414611816406,-21.40150451660156,16.61845397949219,129.3232879638672,115.5500335693359,10,137160.5756441667,-0.3726959228515625,-0.7681884765625,-0.175445556640625,137160.5359365,-1.329244686447511,-1.039148679434051,1.010855522329158,137160.5359365,-3.077635903482126,-1.467705155124553,0.7764185962346568,-1.332084894180298,-1.031354069709778,1.044147729873657,0.3175348937511444,-0.04010062292218208,0.01332878042012453,XTrueNorthZVertical,0.6105949763558822,0.3007737172010811,0.6950959044644127,0.2314100990713718,-0.7096399664878845,-0.7007288336753845,-0.07341789454221725,-28.88481903076172,-18.44009208679199,14.783935546875,2,10.3.35.51,10.83.46.32,1,0
2015-02-27 17:05:16.405,25,1425085495.114087,37.78747695151869,-122.396258045138,15.49011,-1,-1,10,107.2073353866586,-9999,1425085516.394632,-31.23989105224609,-20.84080505371094,16.53525543212891,130.8916778564453,117.1184310913086,10,137160.6248175833,-0.4715576171875,-0.6208038330078125,-0.16632080078125,137160.5877200417,-1.330672407107902,-1.402213436102919,1.059166596083741,137160.5877200417,3.124152979482657,-1.474957656006887,0.7169083051605672,-1.333512544631958,-1.394418835639954,1.092458367347717,0.3405150473117828,-0.09016572684049606,-0.1128610074520111,XTrueNorthZVertical,0.6319251920874183,0.2541697812564294,0.6910380698939529,0.2419393815070159,-0.7503813505172729,-0.6570571660995483,-0.07213655114173889,-29.04525375366211,-17.98518753051758,15.028000831604,2,10.3.35.51,10.83.46.32,1,0
2015-02-27 17:05:16.443,26,1425085495.114087,37.78747695151869,-122.396258045138,15.49011,-1,-1,10,107.2073353866586,-9999,1425085516.394632,-31.23989105224609,-20.84080505371094,16.53525543212891,130.8916778564453,117.1184310913086,10,137160.6737150833,-0.5712432861328125,-0.5299530029296875,-0.08636474609375,137160.6395034583,-1.48070318501417,-1.337070385310708,1.395396808976752,137160.6395034583,3.04010724062923,-1.493715224734077,0.6468077234737782,-1.483543276786804,-1.329275846481323,1.428688287734985,0.3221313953399658,0.0140037015080452,-0.08323311060667038,XTrueNorthZVertical,0.6551182248348418,0.2002367324076039,0.683939304237595,0.2509031587453293,-0.7956421375274658,-0.6026419997215271,-0.06145072355866432,-28.95684432983398,-17.27684020996094,15.99833393096924,2,10.3.35.51,10.83.46.32,1,0
2015-02-27 17:05:16.503,27,1425085495.114087,37.78747695151869,-122.396258045138,15.49011,-1,-1,10,107.2073353866586,-9999,1425085516.498125,-31.71726989746094,-19.549560546875,16.66837310791016,133.1948394775391,119.4215927124023,10,137160.722871875,-0.764617919921875,-0.43170166015625,0.0482177734375,137160.69128775,-1.615886040894919,-1.302754223084492,1.601495649944676,137160.69128775,2.951601675586477,-1.506245276986248,0.5636549003691412,-1.618865489959717,-1.294998288154602,1.634743571281433,0.2365528792142868,0.02259104326367378,-0.01529658492654562,XTrueNorthZVertical,0.6732222670164424,0.1396709062494369,0.6795737882941433,0.2558188575333491,-0.843547523021698,-0.5342792868614197,-0.05452763289213181,-29.05557823181152,-16.51276397705078,16.61435127258301,2,10.3.35.51,10.83.46.32,1,0
2015-02-27 17:05:16.543,28,1425085495.114087,37.78747695151869,-122.396258045138,15.49011,-1,-1,10,107.2073353866586,-9999,1425085516.498125,-31.71726989746094,-19.549560546875,16.66837310791016,133.1948394775391,119.4215927124023,10,137160.7717950833,-1.108367919921875,-0.078338623046875,0.296295166015625,137160.743071125,-1.487868153610919,-0.9290205767726586,1.810785490530733,137160.743071125,2.864928991509955,-1.52297398203808,0.4726240075275551,-1.490847706794739,-0.9212647676467896,1.844033122062683,0.0004886671667918563,0.1142665669322014,0.2195656299591064,XTrueNorthZVertical,0.687780682160917,0.07533852244258241,0.674697398927532,0.2570316412978618,-0.8893588781356812,-0.4552242159843445,-0.04256368055939674,-29.25079345703125,-15.60778713226318,17.13834190368652,2,10.3.35.51,10.83.46.32,1,0
2015-02-27 17:05:16.601,29,1425085495.114087,37.78747695151869,-122.396258045138,15.49011,-1,-1,10,107.2073353866586,-9999,1425085516.55056,-32.31399536132812,-18.64907836914062,16.78485107421875,135.2987976074219,121.5255508422852,10,137160.8209495833,-1.172866821289062,-0.1368865966796875,0.302337646484375,137160.794854625,-1.650363856999303,-0.4503426708612712,1.977581932763486,137160.794854625,2.782788539562772,-1.523550694546568,0.368726181273282,-1.653343319892883,-0.4425869286060333,2.010828971862793,-0.166657567024231,0.3630672991275787,0.3837601542472839,XTrueNorthZVertical,0.6912914297133861,0.009449590260660333,0.677354141029225,0.2514323697233637,-0.9317463636398315,-0.3604275286197662,-0.04405372962355614,-29.86597061157227,-13.94795227050781,17.50466346740723,2,10.3.35.51,10.83.46.32,1,0
2015-02-27 17:05:16.642,30,1425085495.114087,37.78747695151869,-122.396258045138,15.49011,-1,-1,10,107.2073353866586,-9999,1425085516.602325,-32.97892761230469,-17.03497314453125,16.50196075439453,134.9137420654297,121.1404876708984,10,137160.8698654167,-1.083953857421875,-0.043731689453125,0.2716827392578125,137160.846639125,-1.175885756126971,-0.1404931990943672,1.738944589596974,137160.846639125,2.715696363358489,-1.514595639534388,0.2707817652663929,-1.178865313529968,-0.1327375471591949,1.772191405296326,-0.2138167768716812,0.09120000898838043,0.3058485984802246,XTrueNorthZVertical,0.6860287430463666,-0.04798321923841064,0.6841838446724037,0.2428057774033523,-0.9620407819747925,-0.2674847841262817,-0.05412434786558151,-33.55328369140625,-16.98602676391602,14.7824239730835,2,10.3.35.51,10.83.46.32,3,0
2015-02-27 17:05:16.702,31,1425085495.114087,37.78747695151869,-122.396258045138,15.49011,-1,-1,10,107.2073353866586,-9999,1425085516.654744,-34.22354125976562,-15.1490478515625,15.98610687255859,134.0266723632812,120.25341796875,10,137160.918905875,-1.20849609375,-0.0547637939453125,0.2970123291015625,137160.8984223334,-0.9830281520989205,0.6791588085597893,1.991906011002586,137160.8984223334,2.667753502477763,-1.487561902228455,0.1719467696617082,-0.9860076308250427,0.6869143843650818,2.025152683258057,-0.1543573439121246,0.1713601350784302,0.411425918340683,XTrueNorthZVertical,0.670562166518613,-0.09690306337526032,0.6990686851542013,0.2286026138182758,-0.9818426370620728,-0.1711007356643677,-0.08191235363483429,-34.77578353881836,-14.99043846130371,14.09964179992676,2,10.3.35.51,10.83.46.32,3,0
2015-02-27 17:05:16.738,32,1425085495.114087,37.78747695151869,-122.396258045138,15.49011,-1,-1,10,107.2073353866586,-9999,1425085516.706654,-35.97962951660156,-12.65145874023438,14.77133941650391,131.2183990478516,117.4451522827148,10,137160.9680415417,-1.304092407226562,-0.1868438720703125,0.159271240234375,137160.9502056667,-0.724455450276511,0.9295875637687364,1.563112308101691,137160.9502056667,2.636083422668954,-1.439301357228275,0.07528617706186919,-0.7274348139762878,0.9373430013656616,1.596358418464661,-0.3197603225708008,-0.09205176681280136,0.3270645141601562,XTrueNorthZVertical,0.6448053949720897,-0.1373081597658398,0.7214227696534489,0.2119473136597163,-0.9885587692260742,-0.07521507889032364,-0.1307449489831924,-36.81753921508789,-11.53524589538574,12.01144790649414,2,10.3.35.51,10.83.46.32,3,0
2015-02-27 17:05:16.798,33,1425085495.114087,37.78747695151869,-122.396258045138,15.49011,-1,-1,10,107.2073353866586,-9999,1425085516.758536,-37.66753387451172,-10.0859375,12.92423248291016,127.8784484863281,114.1051940917969,10,137161.0169825833,-1.238174438476562,0.0196380615234375,0.130126953125,137161.0019902083,-0.1814941619727911,1.090478978916456,1.358693389149389,137161.0019902083,2.624591145586607,-1.39200616313147,0.0008960089319325963,-0.1844735443592072,1.098234415054321,1.391939282417297,-0.3470717966556549,0.01797059364616871,0.315992146730423,XTrueNorthZVertical,0.6199405326465226,-0.1635670961019491,0.7418397055869312,0.1964520214577444,-0.9840591549873352,-0.0008960088016465306,-0.1778390854597092,-38.02703475952148,-9.151435852050781,10.15203666687012,2,10.3.35.51,10.83.46.32,3,0
2015-02-27 17:05:16.837,34,1425085495.114087,37.78747695151869,-122.396258045138,15.49011,-1,-1,10,107.2073353866586,-9999,1425085516.81032,-39.04853820800781,-7.2825927734375,10.87744140625,124.1839447021484,110.4106903076172,10,137161.06600525,-1.159576416015625,0.1556549072265625,0.06427001953125,137161.0537736667,0.05389758677324164,1.393165612615483,1.713922859575134,137161.0019902083,2.624591145586607,-1.39200616313147,0.0008960089319325963,-0.1844735443592072,1.098234415054321,1.391939282417297,-0.3470717966556549,0.01797059364616871,0.315992146730423,XTrueNorthZVertical,0.6199405326465226,-0.1635670961019491,0.7418397055869312,0.1964520214577444,-0.9840591549873352,-0.0008960088016465306,-0.1778390854597092,-38.02703475952148,-9.151435852050781,10.15203666687012,2,10.3.35.51,10.83.46.32,3,0
2015-02-27 17:05:16.898,35,1425085495.114087,37.78747695151869,-122.396258045138,15.49011,-1,-1,10,107.2073353866586,-9999,1425085516.860665,-40.49774169921875,-4.64910888671875,8.464546203613281,120.7392501831055,106.9659957885742,10,137161.1150479583,-1.111343383789062,0.2725982666015625,-0.065704345703125,137161.1055569167,0.5674003186790502,0.5466873169848498,1.47138025698613,137161.1055569167,2.679070170989823,-1.273442980520681,-0.1518054287489817,0.5644209980964661,0.5544425845146179,1.50462543964386,-0.1845342963933945,0.09548106044530869,0.238733172416687,XTrueNorthZVertical,0.563092988235566,-0.1952323405547988,0.7907244736506657,0.1398764849312814,-0.9451196193695068,0.1512230485677719,-0.2896212339401245,-39.97199249267578,-2.758853435516357,5.243754386901855,2,10.3.35.51,10.83.46.32,3,0
2015-02-27 17:05:16.934,36,1425085495.114087,37.78747695151869,-122.396258045138,15.49011,-1,-1,10,107.2073353866586,-9999,1425085516.913583,-41.46956634521484,-1.369964599609375,6.817123413085938,115.7190246582031,101.9457702636719,10,137161.164182875,-1.341049194335938,0.157806396484375,-0.1937103271484375,137161.1573415833,0.4324105419773317,0.9389853266234081,1.566915035822215,137161.1055569167,2.679070170989823,-1.273442980520681,-0.1518054287489817,0.5644209980964661,0.5544425845146179,1.50462543964386,-0.1845342963933945,0.09548106044530869,0.238733172416687,XTrueNorthZVertical,0.563092988235566,-0.1952323405547988,0.7907244736506657,0.1398764849312814,-0.9451196193695068,0.1512230485677719,-0.2896212339401245,-39.97199249267578,-2.758853435516357,5.243754386901855,2,10.3.35.51,10.83.46.32,3,0
2015-02-27 17:05:16.999,37,1425085495.114087,37.78747695151869,-122.396258045138,15.49011,-1,-1,10,107.2073353866586,-9999,1425085516.964805,-41.86170959472656,2.41888427734375,4.87017822265625,110.0087509155273,96.23549652099609,10,137161.2130983333,-1.017105102539062,0.866912841796875,-0.353851318359375,137161.2091247917,0.538087437192766,2.212220273237135,2.390829699117152,137161.1573415833,2.734443643396037,-1.239823080705413,-0.2137961112335508,0.4294312596321106,0.9467405080795288,1.600159883499146,-0.365996927022934,-0.07313301414251328,0.2392416447401047,XTrueNorthZVertical,0.5481616823099481,-0.201832270178058,0.8051039579269639,0.1029083386206061,-0.9241947531700134,0.2121711075305939,-0.3175650238990784,-40.18915939331055,0.1510086059570312,4.204371452331543,2,10.3.35.51,10.83.46.32,3,0
2015-02-27 17:05:17.032,38,1425085495.114087,37.78747695151869,-122.396258045138,15.49011,-1,-1,10,107.2073353866586,-9999,1425085517.018136,-42.25384521484375,6.5135498046875,1.824935913085938,104.199104309082,90.42584991455078,10,137161.2621166667,0.3106842041015625,-0.00909423828125,-0.7222137451171875,137161.2609082917,-0.7585124869286624,2.416543052074085,0.9519503937582408,137161.2091247917,2.793007568322623,-1.131963921629833,-0.30373340918672,0.5351081490516663,2.219975233078003,2.424074172973633,-0.3592104315757751,0.7002285718917847,-0.06514661759138107,XTrueNorthZVertical,0.4998986614770257,-0.2176789159709275,0.8357748202600443,0.06478944420125102,-0.8638120293617249,0.2990848124027252,-0.4054344296455383,-40.19717407226562,3.134871006011963,2.688469886779785,2,10.3.35.51,10.83.46.32,3,0
2015-02-27 17:05:17.099,39,1425085495.114087,37.78747695151869,-122.396258045138,15.49011,-1,-1,10,107.2073353866586,-9999,1425085517.068529,-41.82761383056641,9.2149658203125,-1.353416442871094,101.5764007568359,87.80314636230469,10,137161.311153375,0.2864532470703125,1.070022583007812,-0.2309722900390625,137161.312692625,1.089968717251597,-1.285058316589243,-1.894847637706866,137161.2609082917,2.82171561425014,-0.9916660551573366,-0.4023101732321807,-0.7614917159080505,2.424298048019409,0.9851946234703064,0.8737698197364807,-0.6385391354560852,-0.1716019064188004,XTrueNorthZVertical,0.4322338366020178,-0.2477380789450103,0.8659765715010479,0.04340894854339911,-0.7701168656349182,0.3915451169013977,-0.5035995244979858,-39.37575149536133,8.651264190673828,-2.752093315124512,2,10.3.35.51,10.83.46.32,3,0
2015-02-27 17:05:17.130,40,1425085495.114087,37.78747695151869,-122.396258045138,15.49011,-1,-1,10,107.2073353866586,-9999,1425085517.120583,-41.48661804199219,9.384857177734375,-2.4849853515625,100.837287902832,87.06403350830078,10,137161.3601780834,-0.47564697265625,0.48455810546875,-0.2891387939453125,137161.312692625,1.089968717251597,-1.285058316589243,-1.894847637706866,137161.312692625,2.820093986989153,-0.9872323336558887,-0.3567573161300664,1.086989521980286,-1.277303338050842,-1.861603736877441,1.068412184715271,0.7207850217819214,0.2853350639343262,XTrueNorthZVertical,0.4352741208535236,-0.228872812981794,0.8689350401077578,0.05572769267912783,-0.7819589972496033,0.3492375612258911,-0.5163073539733887,-38.56664657592773,10.35994148254395,-6.176849365234375,2,10.3.35.51,10.83.46.32,3,0
2015-02-27 17:05:17.200,41,1425085495.114087,37.78747695151869,-122.396258045138,15.49011,-1,-1,10,107.2073353866586,-9999,1425085517.171806,-41.82761383056641,5.4091796875,-1.187019348144531,104.4562454223633,90.68299102783203,10,137161.409225,-1.852462768554688,0.2278594970703125,-0.1379547119140625,137161.416259375,1.536001594520793,-1.210348924845359,-0.7868597062036837,137161.364476125,2.79252566272793,-1.061992328563221,-0.2371943144140713,0.6587753295898438,-1.223581314086914,-2.665840864181519,0.373228520154953,0.2495816797018051,0.1843550950288773,XTrueNorthZVertical,0.4774793491473586,-0.1877938399428164,0.8536418464371384,0.08968025030159593,-0.8488755226135254,0.2349764257669449,-0.473493903875351,-39.43358993530273,7.327915191650391,-4.91545295715332,2,10.3.35.51,10.83.46.32,3,0
2015-02-27 17:05:17.228,42,1425085495.114087,37.78747695151869,-122.396258045138,15.49011,-1,-1,10,107.2073353866586,-9999,1425085517.224669,-41.98105621337891,1.688323974609375,0.3938369750976562,107.828369140625,94.05511474609375,10,137161.4582858333,-1.618194580078125,0.25494384765625,-0.190673828125,137161.416259375,1.536001594520793,-1.210348924845359,-0.7868597062036837,137161.416259375,2.79573028396259,-1.114946556740925,-0.1173871987368693,1.533022403717041,-1.20259416103363,-0.7536164522171021,-0.9607547521591187,0.1107417047023773,0.2992411553859711,XTrueNorthZVertical,0.5116900205957033,-0.1399121014323637,0.8398379794159337,0.1151959178596502,-0.8917080163955688,0.1171177923679352,-0.4371958673000336,-40.32809066772461,1.09010124206543,-2.307576179504395,2,10.3.35.51,10.83.46.32,3,0
2015-02-27 17:05:17.299,43,1425085495.114087,37.78747695151869,-122.396258045138,15.49011,-1,-1,10,107.2073353866586,-9999,1425085517.276205,-41.28203582763672,-1.454925537109375,-1.05389404296875,111.1392822265625,97.36602783203125,10,137161.507308875,-0.82757568359375,0.0297393798828125,-0.198150634765625,137161.4680440417,-0.7183584092768837,3.048545000895733,-1.377166139734614,137161.4680440417,2.793312394063576,-1.077699816152336,-0.07480808644678388,-0.7213374972343445,3.056299686431885,-1.343923211097717,-0.7397868633270264,0.1802055090665817,0.2813580632209778,XTrueNorthZVertical,0.4994737239872526,-0.1204576842093502,0.8480519214509076,0.1297069325443576,-0.8784077167510986,0.07473833113908768,-0.4720318913459778,-40.39402008056641,-0.911104679107666,-0.6008996963500977,2,10.3.35.51,10.83.46.32,3,0
2015-02-27 17:05:17.328,44,1425085495.114087,37.78747695151869,-122.396258045138,15.49011,-1,-1,10,107.2073353866586,-9999,1425085517.276205,-41.28203582763672,-1.454925537109375,-1.05389404296875,111.1392822265625,97.36602783203125,10,137161.556325,-0.554107666015625,0.543060302734375,-0.68402099609375,137161.5198272083,-0.1535834348004336,4.661680262700709,-1.548563192750479,137161.5198272083,2.717569413604576,-0.8579274174003954,-0.02917551002531572,-0.1565622985363007,4.669434070587158,-1.515319228172302,0.006273575592786074,0.03978309780359268,0.3142508864402771,XTrueNorthZVertical,0.4037811124691463,-0.1004818324330431,0.890217609474,0.1854098886572405,-0.7561667561531067,0.02917137183248997,-0.6537284255027771,-39.98928833007812,-2.96987509727478,-4.990470886230469,2,10.3.35.51,10.83.46.32,3,0
2015-02-27 17:05:17.405,45,1425085495.114087,37.78747695151869,-122.396258045138,15.49011,-1,-1,10,107.2073353866586,-9999,1425085517.38717,-37.87214660644531,-5.974334716796875,-11.90357971191406,117.1271286010742,103.353874206543,10,137161.6053623333,-0.8545684814453125,-0.021575927734375,-0.5944671630859375,137161.57161075,1.292243525210277,1.496232343646531,-0.6932852802460057,137161.57161075,2.720059691271746,-0.7157298770526179,0.03516606937075254,1.289264678955078,1.503986001014709,-0.6600417494773865,0.0676279217004776,0.5533320307731628,0.0983099564909935,XTrueNorthZVertical,0.3459163061220682,-0.05716575604395956,0.914489603787502,0.2019474053430273,-0.6557626724243164,-0.03515882045030594,-0.7541479468345642,-36.96022033691406,-6.258744239807129,-15.08768844604492,2,10.3.35.51,10.83.46.32,3,0
2015-02-27 17:05:17.426,46,1425085495.114087,37.78747695151869,-122.396258045138,15.49011,-1,-1,10,107.2073353866586,-9999,1425085517.38717,-37.87214660644531,-5.974334716796875,-11.90357971191406,117.1271286010742,103.353874206543,10,137161.654379,-0.542572021484375,0.017059326171875,-0.59149169921875,137161.6233950834,0.4703238358879178,2.545156422177827,-0.6754777873010818,137161.6233950834,2.702095842562505,-0.6072217704825472,0.08617067168753309,0.4673450291156769,2.552910089492798,-0.6422345638275146,-0.2708387076854706,0.06180259585380554,0.2352577745914459,XTrueNorthZVertical,0.3004672090707856,-0.0249961393209516,0.9276440630998147,0.2203886248274735,-0.5684709548950195,-0.08606407046318054,-0.8181893229484558,-35.34836959838867,-8.305292129516602,-17.73085021972656,2,10.3.35.51,10.83.46.32,3,0
2015-02-27 17:05:17.510,47,1425085517.429522,37.78755269940598,-122.3959980499769,12.35252,-1,-1,10,163.4201486794673,-9999,1425085517.462524,-34.24061584472656,-9.049591064453125,-17.91082763671875,119.3607559204102,105.5875015258789,10,137161.7034152917,-0.162353515625,0.0660552978515625,-0.571624755859375,137161.6751784583,0.956727572121625,2.752887248261752,-0.5091226308609551,137161.6751784583,2.704555898577106,-0.4757121203078255,0.1322985572727169,0.9536224603652954,2.760607719421387,-0.47590571641922,0.1021323800086975,0.148484006524086,0.2689089775085449,XTrueNorthZVertical,0.243439597565342,0.01174562907444462,0.94328331879953,0.2254235734674423,-0.4539695382118225,-0.131912961602211,-0.8811984062194824,-32.86487197875977,-9.906135559082031,-21.32221603393555,2,10.3.35.51,10.83.46.32,3,0
2015-02-27 17:05:17.529,48,1425085517.429522,37.78755269940598,-122.3959980499769,12.35252,-1,-1,10,163.4201486794673,-9999,1425085517.516432,-30.98416900634766,-10.90155029296875,-21.35544586181641,119.3078765869141,105.5346221923828,10,137161.7524970833,0.1176910400390625,0.054962158203125,-0.6621551513671875,137161.7269618333,1.271633055218044,2.31129599105859,-0.1046662255817492,137161.7269618333,2.713486146711225,-0.346891431162294,0.1898829199318144,1.268527984619141,2.319016456604004,-0.07144966721534729,0.2739289104938507,0.26442751288414,0.258385181427002,XTrueNorthZVertical,0.1877146014192723,0.0547512797033657,0.9547063231670843,0.2242796619291444,-0.3338654339313507,-0.18874391913414,-0.9235310554504395,-28.77048492431641,-12.02464485168457,-25.70088195800781,2,10.3.35.51,10.83.46.32,3,0
2015-02-27 17:05:17.604,49,1425085517.429522,37.78755269940598,-122.3959980499769,12.35252,-1,-1,10,163.4201486794673,-9999,1425085517.586917,-26.03982543945312,-14.19766235351562,-24.11778259277344,120.4880828857422,106.7148284912109,10,137161.8014763333,-0.073974609375,-0.34039306640625,-0.793304443359375,137161.7787462917,1.379611454247525,1.486612473156947,-0.5121644934580436,137161.7787462917,2.725321714145358,-0.2552783474292606,0.2510862400036612,1.376506447792053,1.494332790374756,-0.4789482057094574,0.373274028301239,0.2065403908491135,0.2577174305915833,XTrueNorthZVertical,0.1492285871570078,0.09541834095533498,0.959527411464996,0.2189367947540009,-0.2445966750383377,-0.248456284403801,-0.9372523427009583,-25.91605186462402,-13.65328025817871,-27.83548927307129,2,10.3.35.51,10.83.46.32,3,0
2015-02-27 17:05:17.621,50,1425085517.429522,37.78755269940598,-122.3959980499769,12.35252,-1,-1,10,163.4201486794673,-9999,1425085517.586917,-26.03982543945312,-14.19766235351562,-24.11778259277344,120.4880828857422,106.7148284912109,10,137161.8506218333,0.0672760009765625,-0.405303955078125,-0.7495574951171875,137161.8305297083,1.169950102689402,1.586068490382065,-0.9485386180857402,137161.8305297083,2.701332954858521,-0.1791879344735791,0.3292049956430341,1.166845202445984,1.593788862228394,-0.9153226613998413,0.1897624284029007,-0.04261494427919388,0.0574452206492424,XTrueNorthZVertical,0.1217712814879837,0.1399915853939611,0.9556162945105606,0.228848450191348,-0.1686595231294632,-0.3232908248901367,-0.9311482310295105,-23.62388229370117,-15.7526798248291,-28.7512321472168,2,10.3.35.51,10.83.46.32,3,0
2015-02-27 17:05:17.703,51,1425085517.429522,37.78755269940598,-122.3959980499769,12.35252,-1,-1,10,163.4201486794673,-9999,1425085517.690678,-18.67446899414062,-19.87239074707031,-25.11621856689453,124.9064483642578,111.1331939697266,10,137161.8995434167,0.2937469482421875,-0.44036865234375,-0.8756561279296875,137161.8823132083,1.263884854342568,2.043331119019798,-1.417730876826483,137161.8823132083,2.648717189273995,-0.06637395653314032,0.3969418421743516,1.260779976844788,2.051051378250122,-1.384515285491943,0.2084461152553558,0.04864811524748802,0.1421406865119934,XTrueNorthZVertical,0.07962015432351757,0.1831726097757087,0.9486303837314302,0.245374867458815,-0.06116828694939613,-0.3865997791290283,-0.9202168583869934,-19.97931861877441,-19.21271514892578,-29.40351104736328,2,10.3.35.51,10.83.46.32,3,0
2015-02-27 17:05:17.719,52,1425085517.429522,37.78755269940598,-122.3959980499769,12.35252,-1,-1,10,163.4201486794673,-9999,1425085517.690678,-18.67446899414062,-19.87239074707031,-25.11621856689453,124.9064483642578,111.1331939697266,10,137161.94856425,0.170379638671875,-0.5107574462890625,-0.830078125,137161.9340975833,1.05811464745316,1.149832051182725,-1.43394846260063,137161.8823132083,2.648717189273995,-0.06637395653314032,0.3969418421743516,1.260779976844788,2.051051378250122,-1.384515285491943,0.2084461152553558,0.04864811524748802,0.1421406865119934,XTrueNorthZVertical,0.07962015432351757,0.1831726097757087,0.9486303837314302,0.245374867458815,-0.06116828694939613,-0.3865997791290283,-0.9202168583869934,-19.97931861877441,-19.21271514892578,-29.40351104736328,2,10.3.35.51,10.83.46.32,3,0
2015-02-27 17:05:17.804,53,1425085517.429522,37.78755269940598,-122.3959980499769,12.35252,-1,-1,10,163.4201486794673,-9999,1425085517.794241,-10.11566162109375,-24.35783386230469,-25.88170623779297,131.9716949462891,118.1984405517578,10,137161.9976046667,0.1920318603515625,-0.539337158203125,-0.7738189697265625,137161.9858810417,0.5554344695852151,1.602431751067839,-1.506855693234857,137161.9858810417,2.488464737535272,0.1463524407197653,0.4831075870833872,0.5523295998573303,1.610151886940002,-1.4736407995224,-0.04433270916342735,-0.08685824275016785,0.1165519207715988,XTrueNorthZVertical,0.009294827323498039,0.2487353482851653,0.9228011501206546,0.2940788576213832,0.1291410624980927,-0.4645333588123322,-0.8760886788368225,-12.8894681930542,-24.22154808044434,-29.66557312011719,2,10.3.35.51,10.83.46.32,3,0
2015-02-27 17:05:17.817,54,1425085517.429522,37.78755269940598,-122.3959980499769,12.35252,-1,-1,10,163.4201486794673,-9999,1425085517.794241,-10.11566162109375,-24.35783386230469,-25.88170623779297,131.9716949462891,118.1984405517578,10,137162.0466268334,0.64215087890625,-0.5330047607421875,-0.649505615234375,137162.0376642917,0.4760522953926782,1.937561812114538,-1.428325730591146,137161.9858810417,2.488464737535272,0.1463524407197653,0.4831075870833872,0.5523295998573303,1.610151886940002,-1.4736407995224,-0.04433270916342735,-0.08685824275016785,0.1165519207715988,XTrueNorthZVertical,0.009294827323498039,0.2487353482851653,0.9228011501206546,0.2940788576213832,0.1291410624980927,-0.4645333588123322,-0.8760886788368225,-12.8894681930542,-24.22154808044434,-29.66557312011719,2,10.3.35.51,10.83.46.32,3,0
2015-02-27 17:05:17.904,55,1425085517.429522,37.78755269940598,-122.3959980499769,12.35252,-1,-1,10,163.4201486794673,-9999,1425085517.846188,-5.341819763183594,-26.22676086425781,-25.7818603515625,136.1616516113281,122.3883972167969,10,137162.0956735,0.68670654296875,-0.442169189453125,-0.981414794921875,137162.08944875,0.9139931576896685,0.6075565268597009,-1.549660148803483,137162.0376642917,2.404483958958831,0.2843782414737772,0.491668707971067,0.4729474186897278,1.945281744003296,-1.395111203193665,0.3421502709388733,0.03133220598101616,0.1671087443828583,XTrueNorthZVertical,-0.04142816127362113,0.2742510711230172,0.9080962384475911,0.3137376031401358,0.2473272681236267,-0.4720975756645203,-0.8461400866508484,-7.946027755737305,-26.20064926147461,-29.71960258483887,2,10.3.35.51,10.83.46.32,3,0
2015-02-27 17:05:17.917,56,1425085517.429522,37.78755269940598,-122.3959980499769,12.35252,-1,-1,10,163.4201486794673,-9999,1425085517.897418,-1.062400817871094,-27.77288818359375,-24.50053405761719,140.7113647460938,126.9381103515625,10,137162.1447075833,0.7050323486328125,-1.116775512695312,-1.13916015625,137162.1412321667,1.787634364858565,0.06085642670161868,-2.333736319035816,137162.08944875,2.314590609891901,0.386486443007417,0.5011296863818153,0.9108883738517761,0.6152764558792114,-1.516445875167847,0.3429955840110779,0.05718359351158142,-0.07092109322547913,XTrueNorthZVertical,-0.07258903181058973,0.2975840198322746,0.8897450700665706,0.3384202983848875,0.3305884003639221,-0.4804166257381439,-0.8123491406440735,-3.792454719543457,-27.23435020446777,-29.61039733886719,2,10.3.35.51,10.83.46.32,3,0
2015-02-27 17:05:17.977,57,1425085517.429522,37.78755269940598,-122.3959980499769,12.35252,-1,-1,10,163.4201486794673,-9999,1425085517.949892,2.756675720214844,-29.36997985839844,-22.70336151123047,147.3282623291016,133.5550079345703,10,137162.1937371667,0.4233551025390625,-0.9223175048828125,-0.999542236328125,137162.1930156667,1.565181317952574,0.7130384786833414,-2.069686560115549,137162.1412321667,2.185985750763306,0.4649257776264692,0.520926526665868,1.784529566764832,0.06857629120349884,-2.300522565841675,0.394241064786911,-0.5329709053039551,-0.3315800130367279,XTrueNorthZVertical,-0.08244048406219399,0.3248958233534329,0.8622561000018704,0.3796849918420118,0.3888857662677765,-0.497683972120285,-0.7752925157546997,-0.8806438446044922,-28.52184677124023,-28.61113166809082,2,10.3.35.51,10.83.46.32,3,0
2015-02-27 17:05:18.015,58,1425085517.429522,37.78755269940598,-122.3959980499769,12.35252,-1,-1,10,163.4201486794673,-9999,1425085518.002043,6.626899719238281,-31.01802062988281,-20.59000396728516,154.2893829345703,140.5161285400391,10,137162.242756,0.1575775146484375,-0.481048583984375,-0.6164093017578125,137162.1930156667,1.565181317952574,0.7130384786833414,-2.069686560115549,137162.1930156667,2.008578980138645,0.5710909238209219,0.5443385361605484,1.562076449394226,0.7207582592964172,-2.036473035812378,0.005242154933512211,-0.5472263693809509,-0.2822056114673615,XTrueNorthZVertical,-0.09049670139811938,0.3632517663680349,0.8204517186488699,0.4321081844840429,0.4624244570732117,-0.5178523659706116,-0.7197170257568359,3.415334701538086,-31.06772232055664,-25.61250305175781,2,10.3.35.51,10.83.46.32,3,0
2015-02-27 17:05:18.099,59,1425085517.429522,37.78755269940598,-122.3959980499769,12.35252,-1,-1,10,163.4201486794673,-9999,1425085518.053059,10.6164665222168,-31.49375915527344,-19.02577209472656,159.2455596923828,145.4723052978516,10,137162.2918005833,0.266143798828125,-0.4290771484375,-0.573516845703125,137162.2965833333,0.1371796940660906,1.364144613584672,-0.9912341503657817,137162.2448000417,1.911465077721731,0.6710226154777361,0.5301099868477188,0.1577291637659073,1.092395663261414,-1.234792828559875,-0.3788703083992004,0.02457965165376663,0.05928576365113258,XTrueNorthZVertical,-0.1167942928431402,0.3853719776196651,0.7940335440443403,0.4553660806676119,0.5364478230476379,-0.505628228187561,-0.6756950616836548,7.103293418884277,-32.2821044921875,-23.24385643005371,2,10.3.35.51,10.83.46.32,3,0
2015-02-27 17:05:18.112,60,1425085517.429522,37.78755269940598,-122.3959980499769,12.35252,-1,-1,10,163.4201486794673,-9999,1425085518.053059,10.6164665222168,-31.49375915527344,-19.02577209472656,159.2455596923828,145.4723052978516,10,137162.3408265,0.33453369140625,-0.0288543701171875,-0.38543701171875,137162.2965833333,0.1371796940660906,1.364144613584672,-0.9912341503657817,137162.2965833333,1.860003579942562,0.76079833043918,0.4940745185769194,0.1340749859809875,1.371864199638367,-0.9580212235450745,-0.3408973813056946,0.04513990506529808,0.0641501396894455,XTrueNorthZVertical,-0.1528597162721798,0.3972410045163346,0.7760005014667678,0.4654639810563062,0.6070411801338196,-0.4742170572280884,-0.6376670002937317,10.143798828125,-32.07578277587891,-22.38561248779297,2,10.3.35.51,10.83.46.32,3,0
2015-02-27 17:05:18.177,61,1425085517.429522,37.78755269940598,-122.3959980499769,12.35252,-1,-1,10,163.4201486794673,-9999,1425085518.161829,15.78244400024414,-31.03498840332031,-16.41320037841797,164.3422546386719,150.5690002441406,10,137162.3898775417,0.71490478515625,-0.125457763671875,-0.3167724609375,137162.34836675,0.5545979706868212,1.236749373363533,-0.5092688384048005,137162.34836675,1.81881171743362,0.8431969916972325,0.4844633309927794,0.5514932870864868,1.244468927383423,-0.4760562181472778,-0.3263045847415924,0.4368791580200195,0.2031078636646271,XTrueNorthZVertical,-0.179072520669255,0.4167260437874938,0.7593082234937988,0.4666084686013451,0.6608383059501648,-0.465733528137207,-0.5885448455810547,13.72505760192871,-31.56507110595703,-21.16925048828125,2,10.3.35.51,10.83.46.32,3,0
2015-02-27 17:05:18.214,62,1425085517.429522,37.78755269940598,-122.3959980499769,12.35252,-1,-1,10,163.4201486794673,-9999,1425085518.161829,15.78244400024414,-31.03498840332031,-16.41320037841797,164.3422546386719,150.5690002441406,10,137162.438906625,0.9231109619140625,-0.204742431640625,-0.253509521484375,137162.4001512917,0.8670040771002013,1.588710878815642,-0.2483853117045293,137162.4001512917,1.775745562966268,0.9362396091160393,0.4949902740883765,0.8638994693756104,1.596430420875549,-0.215173065662384,0.05946976318955421,0.331651508808136,0.2194202095270157,XTrueNorthZVertical,-0.2013877474790041,0.4456566207723784,0.7409372063228339,0.4602664579121644,0.7086729407310486,-0.475023090839386,-0.5216662883758545,15.56416416168213,-31.76084899902344,-19.54158020019531,2,10.3.35.51,10.83.46.32,3,0
2015-02-27 17:05:18.276,63,1425085517.429522,37.78755269940598,-122.3959980499769,12.35252,-1,-1,10,163.4201486794673,-9999,1425085518.214273,17.62378692626953,-31.00100708007812,-13.95038604736328,165.1841583251953,151.4109039306641,10,137162.48795825,1.287551879882812,-0.639373779296875,-0.25439453125,137162.4519348333,0.9308629516147754,1.787280430749694,-0.2730840002861422,137162.4519348333,1.727033997248288,1.050446426723296,0.5104883557121604,0.9277583360671997,1.794999837875366,-0.2398720681667328,0.2379083782434464,0.2312639206647873,0.1997870206832886,XTrueNorthZVertical,-0.2268449931840126,0.4812935099954199,0.7186261501205675,0.4477436399681669,0.7570257186889648,-0.488603413105011,-0.4337958097457886,17.22130393981934,-32.26261901855469,-17.18772888183594,2,10.3.35.51,10.83.46.32,3,0
2015-02-27 17:05:18.309,64,1425085517.429522,37.78755269940598,-122.3959980499769,12.35252,-1,-1,10,163.4201486794673,-9999,1425085518.28594,20.79498291015625,-31.20491027832031,-9.457420349121094,166.3517913818359,152.5785369873047,10,137162.537006375,0.84027099609375,-0.7461090087890625,-0.3220672607421875,137162.5037179583,1.409140850730433,0.6235093944214936,-1.055551354903958,137162.5037179583,1.648685696057859,1.147328118977841,0.5116635403220171,1.406036257743835,0.6312287449836731,-1.022339701652527,0.4624266028404236,-0.2243913561105728,0.07016641646623611,XTrueNorthZVertical,-0.2411157640311898,0.5125564567271548,0.6897723897084265,0.450958004546215,0.7949128746986389,-0.489628404378891,-0.358298122882843,19.33871841430664,-32.8451042175293,-13.41943740844727,2,10.3.35.51,10.83.46.32,3,0
2015-02-27 17:05:18.373,65,1425085517.429522,37.78755269940598,-122.3959980499769,12.35252,-1,-1,10,163.4201486794673,-9999,1425085518.338173,22.8238639831543,-30.88209533691406,-6.445465087890625,171.5180969238281,157.7448425292969,10,137162.586046625,0.7514190673828125,-0.5399017333984375,-0.27227783203125,137162.5555025,0.9759049951312855,0.3331262986425236,-1.469450796776367,137162.5555025,1.558075036276461,1.204305622010175,0.4750768084817511,0.9728004336357117,0.3408455550670624,-1.43623960018158,-0.05330130085349083,-0.29872727394104,0.02672665938735008,XTrueNorthZVertical,-0.2487932532269588,0.5279895939601095,0.6576061264859568,0.4763224671292948,0.8302025198936462,-0.457406759262085,-0.3186578154563904,21.14443969726562,-32.68489837646484,-10.83873462677002,2,10.3.35.51,10.83.46.32,3,0
2015-02-27 17:05:18.405,66,1425085517.429522,37.78755269940598,-122.3959980499769,12.35252,-1,-1,10,163.4201486794673,-9999,1425085518.394281,24.9891471862793,-29.06413269042969,-4.431961059570312,177.9831390380859,164.2098846435547,10,137162.6350940834,0.917694091796875,-0.3135986328125,-0.168060302734375,137162.607285875,0.4890101719925677,0.3959481382286208,-1.734376203063052,137162.607285875,1.491018222013221,1.256371068112038,0.4093524144041149,0.485905647277832,0.4036673009395599,-1.701165318489075,-0.01893376931548119,0.0371754877269268,0.0188098568469286,XTrueNorthZVertical,-0.2695002301821587,0.5343320871947724,0.6251520299200446,0.5010427032480435,0.872403621673584,-0.3980153203010559,-0.2837176918983459,23.32284164428711,-31.73260879516602,-9.052876472473145,2,10.3.35.51,10.83.46.32,3,0
2015-02-27 17:05:18.476,67,1425085517.429522,37.78755269940598,-122.3959980499769,12.35252,-1,-1,10,163.4201486794673,-9999,1425085518.467493,28.68888092041016,-24.90150451660156,-2.817825317382812,186.3739013671875,172.6006469726562,10,137162.6841519167,0.806793212890625,-0.21429443359375,-0.0295257568359375,137162.6590694167,0.1915380077079159,-0.1834808801459902,-1.947954798268572,137162.6590694167,1.446268239001242,1.273524685885997,0.329412989515052,0.1884335279464722,-0.1757617890834808,-1.914744138717651,-0.02765471115708351,-0.003264073049649596,0.1827725321054459,XTrueNorthZVertical,-0.2893034375790055,0.5269931882146012,0.5979459997980952,0.5301342154315781,0.9047299027442932,-0.3234876394271851,-0.2771633863449097,26.61993217468262,-29.44686889648438,-7.558383941650391,2,10.3.35.51,10.83.46.32,3,0
2015-02-27 17:05:18.507,68,1425085517.429522,37.78755269940598,-122.3959980499769,12.35252,-1,-1,10,163.4201486794673,-9999,1425085518.467493,28.68888092041016,-24.90150451660156,-2.817825317382812,186.3739013671875,172.6006469726562,10,137162.7331827084,0.818878173828125,-0.0829620361328125,-0.08636474609375,137162.7108537917,0.08729842053279743,0.7519922696318213,-2.356694898161171,137162.7108537917,1.407897050606658,1.294274612397453,0.2278240096259244,0.08407987654209137,0.7596836090087891,-2.323494672775269,-0.1267888993024826,0.09751661866903305,0.2093312293291092,XTrueNorthZVertical,-0.3185630122198492,0.5153050641146726,0.5652637149026222,0.5598707308147965,0.9371526837348938,-0.2258583009243011,-0.2659566104412079,29.033447265625,-27.10300827026367,-7.440011024475098,2,10.3.35.51,10.83.46.32,3,0
2015-02-27 17:05:18.565,69,1425085517.429522,37.78755269940598,-122.3959980499769,12.35252,-1,-1,10,163.4201486794673,-9999,1425085518.519607,30.90531158447266,-20.95973205566406,-1.985794067382812,194.9427795410156,181.1695251464844,10,137162.7822372083,1.074920654296875,-0.0281982421875,-0.131561279296875,137162.7626372917,-0.4730173570144239,2.000898707055457,-2.329726930014701,137162.7626372917,1.392177346593317,1.3787918821481,0.1129629021390779,-0.4762358665466309,2.008589744567871,-2.296527147293091,-0.01179003342986107,0.05847781524062157,0.09572331607341766,XTrueNorthZVertical,-0.3737861922874181,0.5152461145427158,0.521550312853721,0.5681466355893618,0.9753673076629639,-0.1127228066325188,-0.1896106451749802,31.85940170288086,-24.00425720214844,-6.453087329864502,2,10.3.35.51,10.83.46.32,3,0
2015-02-27 17:05:18.605,70,1425085517.429522,37.78755269940598,-122.3959980499769,12.35252,-1,-1,10,163.4201486794673,-9999,1425085518.571325,33.10469055175781,-16.4913330078125,0.0277252197265625,200.0673980712891,186.2941436767578,10,137162.8312672084,1.210281372070312,-0.00103759765625,-0.1003265380859375,137162.8144205417,-1.129939303104269,1.775453332348652,-2.353437053199677,137162.8144205417,1.41814996908055,1.479462375362721,-0.009175559973658371,-1.133157849311829,1.783144474029541,-2.320237398147583,0.2015824019908905,-0.006535660941153765,-0.07069256901741028,XTrueNorthZVertical,-0.441488483177638,0.5093980055095028,0.4786063050661121,0.5626167438148548,0.9957900643348694,0.009175430983304977,-0.09120318293571472,35.4268684387207,-19.18715858459473,-3.107756614685059,2,10.3.35.51,10.83.46.32,4,0
2015-02-27 17:05:18.677,71,1425085517.429522,37.78755269940598,-122.3959980499769,12.35252,-1,-1,10,163.4201486794673,-9999,1425085518.628291,34.36635208129883,-12.03982543945312,2.756790161132812,205.0340118408203,191.2607574462891,10,137162.8803195,1.157135009765625,0.146270751953125,0.016326904296875,137162.8662052084,-2.061176961484419,1.642358927394743,-2.163700940285309,137162.8662052084,1.491099766969543,1.570922873931554,-0.1246738300218112,-2.064395427703857,1.650049924850464,-2.130501508712769,0.1483867168426514,-0.02913625724613667,-0.03850141912698746,XTrueNorthZVertical,-0.5111451828915177,0.4886648999708259,0.446355749861667,0.5483646292150377,0.9922382831573486,0.1243510991334915,0.0001255649112863466,37.40030670166016,-15.26948642730713,-0.9631443023681641,2,10.3.35.51,10.83.46.32,4,0
2015-02-27 17:05:18.708,72,1425085517.429522,37.78755269940598,-122.3959980499769,12.35252,-1,-1,10,163.4201486794673,-9999,1425085518.701398,34.36634826660156,-5.005889892578125,7.449447631835938,211.2458343505859,197.4725799560547,10,137162.929343125,1.5096435546875,0.2721405029296875,0.26263427734375,137162.9179884167,-2.433027220273349,1.781284589871489,-2.320665258089598,137162.8662052084,1.491099766969543,1.570922873931554,-0.1246738300218112,-2.064395427703857,1.650049924850464,-2.130501508712769,0.1483867168426514,-0.02913625724613667,-0.03850141912698746,XTrueNorthZVertical,-0.5111451828915177,0.4886648999708259,0.446355749861667,0.5483646292150377,0.9922382831573486,0.1243510991334915,0.0001255649112863466,37.40030670166016,-15.26948642730713,-0.9631443023681641,2,10.3.35.51,10.83.46.32,4,0
2015-02-27 17:05:18.764,73,1425085517.429522,37.78755269940598,-122.3959980499769,12.35252,-1,-1,10,163.4201486794673,-9999,1425085518.752427,34.1617546081543,-1.471893310546875,11.31007385253906,212.9835052490234,199.2102508544922,10,137162.9783920833,1.194015502929688,0.7395172119140625,0.5400390625,137162.9697719167,-2.749479201014777,1.577674206626135,-1.675218606820795,137162.9697719167,1.768369239197748,1.793836102954082,-0.3058364122873298,-2.752697706222534,1.585365056991577,-1.642020106315613,0.524203360080719,0.3975785672664642,0.3163825571537018,XTrueNorthZVertical,-0.6575429089127672,0.4160560702593142,0.4015320264412,0.4830183283751802,0.9299744963645935,0.3010908663272858,0.210930660367012,39.71750640869141,-6.654488563537598,3.332493305206299,2,10.3.35.51,10.83.46.32,4,0
2015-02-27 17:05:18.803,74,1425085517.429522,37.78755269940598,-122.3959980499769,12.35252,-1,-1,10,163.4201486794673,-9999,1425085518.752427,34.1617546081543,-1.471893310546875,11.31007385253906,212.9835052490234,199.2102508544922,10,137163.0274177917,0.611663818359375,0.4813232421875,0.5908966064453125,137162.9697719167,-2.749479201014777,1.577674206626135,-1.675218606820795,137162.9697719167,1.768369239197748,1.793836102954082,-0.3058364122873298,-2.752697706222534,1.585365056991577,-1.642020106315613,0.524203360080719,0.3975785672664642,0.3163825571537018,XTrueNorthZVertical,-0.6575429089127672,0.4160560702593142,0.4015320264412,0.4830183283751802,0.9299744963645935,0.3010908663272858,0.210930660367012,39.71750640869141,-6.654488563537598,3.332493305206299,2,10.3.35.51,10.83.46.32,4,0
2015-02-27 17:05:18.864,75,1425085517.429522,37.78755269940598,-122.3959980499769,12.35252,-1,-1,10,163.4201486794673,-9999,1425085518.804825,33.15583801269531,1.60333251953125,15.154052734375,214.7261657714844,200.9529113769531,10,137163.0764705,0.5919342041015625,0.408416748046875,0.543548583984375,137163.07333975,-1.226429357823366,1.782117094028248,-3.432302785550625,137163.02155625,1.938537440553276,1.958165960427544,-0.3554874928475826,-2.790986299514771,2.553660154342651,-2.328152418136597,-0.1989632993936539,0.1476343423128128,0.2602439820766449,XTrueNorthZVertical,-0.7293295152306347,0.3809808499926322,0.3695861427723922,0.4316690140470828,0.8680154085159302,0.3480474054813385,0.3541359007358551,39.81296539306641,-4.012225151062012,5.630106925964355,2,10.3.35.51,10.83.46.32,4,0
2015-02-27 17:05:18.905,76,1425085517.429522,37.78755269940598,-122.3959980499769,12.35252,-1,-1,10,163.4201486794673,-9999,1425085518.862861,31.43384170532227,4.678619384765625,19.13115692138672,215.0421600341797,201.2689056396484,10,137163.125506625,0.4326324462890625,0.3749542236328125,0.566986083984375,137163.125123,-1.452448111112865,-0.5899602225892203,-3.190979644424768,137163.07333975,2.117373300300289,2.146962550731558,-0.4395525279870615,-1.229647994041443,1.789809346199036,-3.399106502532959,-0.2305257320404053,0.06164804473519325,0.1041130945086479,XTrueNorthZVertical,-0.7986559359951049,0.3296374904046646,0.3119739806096043,0.3951709259390332,0.7588460445404053,0.425534576177597,0.4930243492126465,39.21489715576172,-0.9454050064086914,9.703921318054199,2,10.3.35.51,10.83.46.32,4,0
2015-02-27 17:05:18.954,77,1425085517.429522,37.78755269940598,-122.3959980499769,12.35252,-1,-1,10,163.4201486794673,-9999,1425085518.935824,28.3990364074707,11.10098266601562,23.22474670410156,222.7268676757812,208.95361328125,10,137163.1745555417,0.036407470703125,0.3838653564453125,0.7193450927734375,137163.1769076667,-2.200395571681074,-0.1215954079991649,-2.504231625706579,137163.125123,2.282789281446505,2.244664040614585,-0.5405793399744611,-1.455665230751038,-0.5822682976722717,-3.157784223556519,-0.08910588175058365,-0.2120357602834702,0.04038883745670319,XTrueNorthZVertical,-0.8377589118671321,0.2562765769293425,0.2797356030836395,0.3927216807580493,0.6699927449226379,0.5146328210830688,0.5350353717803955,37.51920318603516,5.560844421386719,13.93752098083496,2,10.3.35.51,10.83.46.32,4,0
2015-02-27 17:05:19.002,78,1425085517.429522,37.78755269940598,-122.3959980499769,12.35252,-1,-1,10,163.4201486794673,-9999,1425085518.986045,26.94983673095703,14.38006591796875,24.93872833251953,159.758544921875,145.9852905273438,10,137163.223581625,0.10870361328125,0.608642578125,0.969635009765625,137163.1769076667,-2.200395571681074,-0.1215954079991649,-2.504231625706579,137163.1769076667,2.474629977468214,2.324046488583974,-0.5843453973840382,-2.203612565994263,-0.1139027327299118,-2.4710373878479,-0.5720236897468567,-0.1677881628274918,0.1488278359174728,XTrueNorthZVertical,-0.867787248516694,0.1794545086222168,0.2731533744584974,0.374337560410837,0.6084311604499817,0.5516535043716431,0.5705172419548035,36.67876434326172,9.906081199645996,13.76248550415039,2,10.3.35.51,10.83.46.32,4,0
2015-02-27 17:05:19.053,79,1425085517.429522,37.78755269940598,-122.3959980499769,12.35252,-1,-1,10,163.4201486794673,-9999,1425085519.037945,25.34719085693359,15.77328491210938,27.03544998168945,142.7148590087891,128.9416046142578,10,137163.2726300417,0.2191314697265625,0.587982177734375,1.141998291015625,137163.2804742084,-1.53745488152765,-0.452586117763554,-2.235298694611544,137163.228690875,2.671418467511443,2.433422178214856,-0.5901644250063783,-1.969965815544128,-0.1620203405618668,-2.466578960418701,-0.4317182898521423,0.05214493349194527,0.3385608792304993,XTrueNorthZVertical,-0.8962266682935113,0.1109721689024898,0.2590837324921091,0.3425471657917558,0.5404219031333923,0.5564976334571838,0.6310741305351257,35.52340698242188,12.71582221984863,14.46594333648682,2,10.3.35.51,10.83.46.32,4,0
2015-02-27 17:05:19.100,80,1425085517.429522,37.78755269940598,-122.3959980499769,12.35252,-1,-1,10,163.4201486794673,-9999,1425085519.094518,23.69339370727539,16.8096923828125,29.0489616394043,135.6353302001953,121.8620758056641,10,137163.321660875,0.13140869140625,0.5867462158203125,0.9862060546875,137163.2804742084,-1.53745488152765,-0.452586117763554,-2.235298694611544,137163.2804742084,2.848506315357071,2.516444444963613,-0.5938564435237218,-1.540672421455383,-0.444887787103653,-2.20211124420166,-0.2658903002738953,0.0284208245575428,0.4699529111385345,XTrueNorthZVertical,-0.9132904076186952,0.04385572694146248,0.2502478408833447,0.3183603762479791,0.4850217700004578,0.5595613718032837,0.6720454096794128,33.51435852050781,15.92768859863281,15.9988899230957,2,10.3.35.51,10.83.46.32,4,0
2015-02-27 17:05:19.151,81,1425085517.429522,37.78755269940598,-122.3959980499769,12.35252,-1,-1,10,163.4201486794673,-9999,1425085519.094518,23.69339370727539,16.8096923828125,29.0489616394043,135.6353302001953,121.8620758056641,10,137163.37082675,0.19390869140625,0.4643096923828125,1.012237548828125,137163.33225875,-0.5694403000740508,-0.008330101573658849,-1.412798702487657,137163.33225875,2.972302544893774,2.57521640228438,-0.5985595834964318,-0.5726578831672668,-0.0006318726227618754,-1.379611611366272,-0.2794437408447266,0.0445944257080555,0.2972694337368011,XTrueNorthZVertical,-0.9211690956828593,-0.004518297035123897,0.2421084279048694,0.3046483148707296,0.4432926177978516,0.5634530782699585,0.6971458196640015,32.13429260253906,18.01821327209473,16.6011848449707,2,10.3.35.51,10.83.46.32,4,0
2015-02-27 17:05:19.203,82,1425085517.429522,37.78755269940598,-122.3959980499769,12.35252,-1,-1,10,163.4201486794673,-9999,1425085519.167413,21.88615036010742,18.71258544921875,30.51333618164062,124.3533477783203,110.5800933837891,10,137163.41974325,0.1699676513671875,0.5792083740234375,0.927215576171875,137163.3840422917,0.149529837305224,0.1762887473061222,-0.7447609883239292,137163.3840422917,3.031252449628317,2.614152689138226,-0.617830233062128,0.1463122963905334,0.1839868873357773,-0.7115743160247803,-0.2422169297933578,-0.1187728717923164,0.3167288303375244,XTrueNorthZVertical,-0.9226982136190457,-0.0284151001654443,0.2317716270736227,0.3067613176654961,0.4102772176265717,0.5792678594589233,0.7043588161468506,30.94769287109375,19.5403938293457,17.12545967102051,2,10.3.35.51,10.83.46.32,6,0
2015-02-27 17:05:19.249,83,1425085517.429522,37.78755269940598,-122.3959980499769,12.35252,-1,-1,10,163.4201486794673,-9999,1425085519.220357,20.88023376464844,19.6810302734375,30.09732437133789,121.0315399169922,107.2582855224609,10,137163.468925,0.259735107421875,0.62030029296875,0.827545166015625,137163.4358255,0.5588177494340517,0.4218119597871434,0.2305437302976525,137163.4358255,3.028152118416986,2.629621279891027,-0.6399589464402375,0.5556002259254456,0.4295100569725037,0.2637300789356232,-0.2127956449985504,0.005696984939277172,0.2173226922750473,XTrueNorthZVertical,-0.9213482225129557,-0.02745608895090679,0.2227101004183565,0.3174331924811881,0.3929561674594879,0.5971624851226807,0.6992727518081665,29.87160110473633,20.95461463928223,17.36259841918945,2,10.3.35.51,10.83.46.32,6,0
2015-02-27 17:05:19.304,84,1425085517.429522,37.78755269940598,-122.3959980499769,12.35252,-1,-1,10,163.4201486794673,-9999,1425085519.27069,20.0448112487793,20.30966186523438,29.78115463256836,121.0007781982422,107.2275238037109,10,137163.5178355,0.32879638671875,0.6555023193359375,0.7686614990234375,137163.4876099583,0.808207605501759,0.2392836923630745,0.5319440571901711,137163.4876099583,2.980808754867467,2.619543451425121,-0.6605895284064089,0.8049901127815247,0.2469816952943802,0.5651300549507141,-0.1189596578478813,0.01311125699430704,0.1198853701353073,XTrueNorthZVertical,-0.9176736153854756,-0.01003621635489482,0.2181700497441713,0.3319280702903429,0.3937551975250244,0.6135824918746948,0.684451162815094,29.74050140380859,21.1149959564209,17.39332389831543,2,10.3.35.51,10.83.46.32,6,0
2015-02-27 17:05:19.347,85,1425085517.429522,37.78755269940598,-122.3959980499769,12.35252,-1,-1,10,163.4201486794673,-9999,1425085519.32715,20.23234939575195,20.56451416015625,28.86592483520508,125.3336181640625,111.5603637695312,10,137163.5668872083,0.2942352294921875,0.58740234375,0.724609375,137163.539393375,0.9414143958536693,-0.03600673688619833,0.7062343684142979,137163.539393375,2.915296137686084,2.581782281564743,-0.6825445577226568,0.9381969571113586,-0.02830881625413895,0.7394199967384338,-0.05433293804526329,-0.1865404397249222,0.07907990366220474,XTrueNorthZVertical,-0.9103041297794995,0.01038414965687545,0.2223498145685187,0.3489973139854436,0.4120599925518036,0.6307695508003235,0.6575228571891785,30.03331756591797,21.01833915710449,17.00286102294922,2,10.3.35.51,10.83.46.32,6,0
2015-02-27 17:05:19.402,86,1425085517.429522,37.78755269940598,-122.3959980499769,12.35252,-1,-1,10,163.4201486794673,-9999,1425085519.32715,20.23234939575195,20.56451416015625,28.86592483520508,125.3336181640625,111.5603637695312,10,137163.6159165833,0.37322998046875,0.5394744873046875,0.7140655517578125,137163.591176875,0.7629945870432657,-0.009408681815140941,0.4184289462544157,137163.591176875,2.84769608948849,2.539550380454115,-0.7010543671626487,0.7597771883010864,-0.00171083805616945,0.4516142904758453,-0.07253626734018326,-0.04123346880078316,0.09435883164405823,XTrueNorthZVertical,-0.902201029226447,0.03061572569489369,0.2274463231831597,0.3651905731789825,0.4327657520771027,0.6450237631797791,0.6298080682754517,30.90889930725098,20.62302780151367,15.88076591491699,2,10.3.35.51,10.83.46.32,6,0
2015-02-27 17:05:19.445,87,1425085517.429522,37.78755269940598,-122.3959980499769,12.35252,-1,-1,10,163.4201486794673,-9999,1425085519.400545,20.82908248901367,21.3291015625,27.65115356445312,131.2071533203125,117.4338989257812,10,137163.6649696667,0.384857177734375,0.6012115478515625,0.6877593994140625,137163.64296125,0.5273927148872257,0.1480097049550068,0.321913325188854,137163.64296125,2.808642979781475,2.523670961228437,-0.7090503815613921,0.5241753458976746,0.1557207107543945,0.355084091424942,-0.0979127436876297,-0.06789188832044601,0.06561677902936935,XTrueNorthZVertical,-0.898546168941206,0.04394689854825498,0.2264163406218214,0.3733886682184019,0.4397096335887909,0.6511133313179016,0.6186330914497375,31.33433723449707,20.40408515930176,15.31994342803955,2,10.3.35.51,10.83.46.32,6,0
2015-02-27 17:05:19.497,88,1425085517.429522,37.78755269940598,-122.3959980499769,12.35252,-1,-1,10,163.4201486794673,-9999,1425085519.452772,21.69860076904297,21.65188598632812,27.33498001098633,222.1002502441406,208.3269958496094,10,137163.713996625,0.3036651611328125,0.536529541015625,0.6937103271484375,137163.6947445833,0.1151654718632776,0.05038141518601002,0.04744900850972377,137163.6947445833,2.806787622021287,2.545025239562676,-0.7018668279913075,0.1118442863225937,0.05813021957874298,0.08055850863456726,-0.08807424455881119,-0.08456345647573471,0.06293745338916779,XTrueNorthZVertical,-0.9018719273805127,0.0499411119929611,0.2173600673953507,0.3699831313765151,0.4290166199207306,0.6456443667411804,0.6317341923713684,31.51209259033203,20.22926139831543,15.18660926818848,2,10.3.35.51,10.83.46.32,6,0
2015-02-27 17:05:19.544,89,1425085517.429522,37.78755269940598,-122.3959980499769,12.35252,-1,-1,10,163.4201486794673,-9999,1425085519.504247,21.97139739990234,21.85574340820312,27.00216293334961,144.9413146972656,131.1680603027344,10,137163.7631511667,0.3603668212890625,0.55926513671875,0.697509765625,137163.7465279583,0.04497386659260413,0.2717707955526241,-0.04608440476716717,137163.7465279583,2.814539095922227,2.571798052540839,-0.6975941977825724,0.04165029525756836,0.27955362200737,-0.01301092002540827,-0.1020193547010422,-0.06785184144973755,0.02798477932810783,XTrueNorthZVertical,-0.9055081939127352,0.05205338623393937,0.2072144364308104,0.3666163356133431,0.4134359955787659,0.6423757672309875,0.6453092694282532,30.9078483581543,19.95314979553223,16.71660232543945,2,10.3.35.51,10.83.46.32,6,0
2015-02-27 17:05:19.595,90,1425085517.429522,37.78755269940598,-122.3959980499769,12.35252,-1,-1,10,163.4201486794673,-9999,1425085519.555932,21.51105880737305,22.17855834960938,27.31834411621094,130.0455169677734,116.2722625732422,10,137163.8120737083,0.315582275390625,0.623199462890625,0.7258758544921875,137163.7983125417,-0.1856114090180536,0.01434085615396769,-0.1186803118699642,137163.7465279583,2.814539095922227,2.571798052540839,-0.6975941977825724,0.04165029525756836,0.27955362200737,-0.01301092002540827,-0.1020193547010422,-0.06785184144973755,0.02798477932810783,XTrueNorthZVertical,-0.9055081939127352,0.05205338623393937,0.2072144364308104,0.3666163356133431,0.4134359955787659,0.6423757672309875,0.6453092694282532,30.9078483581543,19.95314979553223,16.71660232543945,2,10.3.35.51,10.83.46.32,6,0
2015-02-27 17:05:19.641,91,1425085517.429522,37.78755269940598,-122.3959980499769,12.35252,-1,-1,10,163.4201486794673,-9999,1425085519.607913,21.1359748840332,22.17855834960938,27.78427886962891,129.1428375244141,115.3695907592773,10,137163.861211625,0.320587158203125,0.6490478515625,0.7342987060546875,137163.850096,-0.2324686631335617,0.05129674365267026,-0.0534762746887911,137163.850096,2.848944491531005,2.618861507227487,-0.6793981974046832,-0.2358014732599258,0.05912930145859718,-0.02045604027807713,-0.08265045285224915,0.01625206135213375,0.05172174423933029,XTrueNorthZVertical,-0.9136538783951079,0.04762215875386337,0.1940982284914979,0.3539697764655596,0.3883908092975616,0.6283249855041504,0.6740625500679016,30.36436462402344,19.84996223449707,17.80034828186035,2,10.3.35.51,10.83.46.32,6,0
2015-02-27 17:05:19.700,92,1425085517.429522,37.78755269940598,-122.3959980499769,12.35252,-1,-1,10,163.4201486794673,-9999,1425085519.66115,20.96548080444336,21.73678588867188,27.81756210327148,127.7473297119141,113.9740753173828,10,137163.9101180834,0.3251953125,0.6608428955078125,0.7508544921875,137163.90187925,-0.1360121642441998,-0.05933229960976634,-0.0838829164347708,137163.850096,2.848944491531005,2.618861507227487,-0.6793981974046832,-0.2358014732599258,0.05912930145859718,-0.02045604027807713,-0.08265045285224915,0.01625206135213375,0.05172174423933029,XTrueNorthZVertical,-0.9136538783951079,0.04762215875386337,0.1940982284914979,0.3539697764655596,0.3883908092975616,0.6283249855041504,0.6740625500679016,30.36436462402344,19.84996223449707,17.80034828186035,2,10.3.35.51,10.83.46.32,6,0
2015-02-27 17:05:19.739,93,1425085517.429522,37.78755269940598,-122.3959980499769,12.35252,-1,-1,10,163.4201486794673,-9999,1425085519.71396,21.0336799621582,21.193115234375,27.55130767822266,126.6879272460938,112.9146728515625,10,137163.9591706667,0.31842041015625,0.650238037109375,0.7657928466796875,137163.9536637917,0.03435797385533026,0.006694388032132181,0.01811695226359104,137163.90187925,2.861990109050036,2.631713736408231,-0.6736686001655176,-0.139349952340126,-0.05148987844586372,-0.05087413266301155,-0.04192328825592995,0.03336923196911812,0.06965586543083191,XTrueNorthZVertical,-0.9160043179724717,0.04473025608537396,0.1911276474907448,0.3498650032175185,0.3814465999603271,0.623857319355011,0.6821293830871582,29.8956298828125,19.88613128662109,18.53809928894043,2,10.3.35.51,10.83.46.32,6,0
2015-02-27 17:05:19.798,94,1425085517.429522,37.78755269940598,-122.3959980499769,12.35252,-1,-1,10,163.4201486794673,-9999,1425085519.788991,21.10187530517578,21.49896240234375,27.88411712646484,126.114501953125,112.3412475585938,10,137164.0081853333,0.3094024658203125,0.608306884765625,0.7231597900390625,137164.005447125,0.02133245296375271,-0.05943829342115149,0.1482467262920238,137163.9536637917,2.871573501552086,2.644645315623216,-0.6730971379526866,0.03101110458374023,0.01455594040453434,0.05110456049442291,-0.05503008514642715,0.02591190114617348,0.05448780581355095,XTrueNorthZVertical,-0.9175173284447591,0.04267392687553296,0.1869320839688655,0.3484211365819925,0.3727638423442841,0.6234105825424194,0.6873182058334351,29.74424171447754,19.91756439208984,18.74670028686523,2,10.3.35.51,10.83.46.32,6,0
2015-02-27 17:05:19.837,95,1425085517.429522,37.78755269940598,-122.3959980499769,12.35252,-1,-1,10,163.4201486794673,-9999,1425085519.788991,21.10187530517578,21.49896240234375,27.88411712646484,126.114501953125,112.3412475585938,10,137164.0572192917,0.27093505859375,0.584686279296875,0.7588958740234375,137164.0572307083,-0.01762666430690745,-0.1190725954985328,0.1082332635458013,137164.005447125,2.869269316758127,2.648527371976449,-0.6696240588755896,0.01798051968216896,-0.05156204476952553,0.1812197715044022,-0.04807161167263985,-0.006677600555121899,0.02808677218854427,XTrueNorthZVertical,-0.9183231784330983,0.04487932759549994,0.185103509674534,0.3469943530933814,0.3711154460906982,0.6206912994384766,0.69066321849823,29.64210891723633,19.93389511108398,18.89055824279785,2,10.3.35.51,10.83.46.32,6,0
2015-02-27 17:05:19.898,96,1425085517.429522,37.78755269940598,-122.3959980499769,12.35252,-1,-1,10,163.4201486794673,-9999,1425085519.847619,21.340576171875,21.73681640625,27.91740417480469,126.1515350341797,112.3782806396484,10,137164.10623925,0.2475738525390625,0.6022491455078125,0.780120849609375,137164.0572307083,-0.01762666430690745,-0.1190725954985328,0.1082332635458013,137164.0572307083,2.863626430141729,2.643484984591958,-0.6649151060747647,-0.02098271623253822,-0.1111832410097122,0.1411939412355423,-0.1050504893064499,-0.03230604529380798,0.06755272299051285,XTrueNorthZVertical,-0.918389851314741,0.04724041972564135,0.1869250080991837,0.3455249188680465,0.3759855329990387,0.6169923543930054,0.6913431286811829,29.72998046875,19.70667839050293,18.99060821533203,2,10.3.35.51,10.83.46.32,6,0
2015-02-27 17:05:19.936,97,1425085517.429522,37.78755269940598,-122.3959980499769,12.35252,-1,-1,10,163.4201486794673,-9999,1425085519.918951,21.54516983032227,21.63485717773438,27.68443298339844,124.0567398071289,110.2834854125977,10,137164.1553859167,0.2279205322265625,0.641387939453125,0.81939697265625,137164.1607985834,0.152017762395576,0.2761064218072731,0.3181305711765055,137164.1090150833,2.864609025424766,2.652821669527051,-0.6596076545771373,-0.01045751571655273,0.1714905649423599,0.1156714335083961,-0.1234729215502739,-0.01055770926177502,0.08241599053144455,XTrueNorthZVertical,-0.9200216435899422,0.04911825990694434,0.1833481560564671,0.3428279889476442,0.371046781539917,0.6128068566322327,0.6977048516273499,29.59559631347656,19.5786190032959,19.3299388885498,2,10.3.35.51,10.83.46.32,6,0
2015-02-27 17:05:19.999,98,1425085517.429522,37.78755269940598,-122.3959980499769,12.35252,-1,-1,10,163.4201486794673,-9999,1425085519.970504,21.45991897583008,21.31204223632812,27.66778945922852,124.8349990844727,111.0617446899414,10,137164.204295,0.1561431884765625,0.7529144287109375,1.056106567382812,137164.1607985834,0.152017762395576,0.2761064218072731,0.3181305711765055,137164.1607985834,2.862499310271673,2.674493096945511,-0.6584223373812196,0.1486431658267975,0.2840444445610046,0.3510425984859467,-0.1282468736171722,0.02951819077134132,0.1131673976778984,XTrueNorthZVertical,-0.9220647600517359,0.05395706040189861,0.1731271813034126,0.3419242569091496,0.3561674058437347,0.611869752407074,0.706229567527771,29.38174629211426,19.44186592102051,19.78876113891602,2,10.3.35.51,10.83.46.32,6,0
2015-02-27 17:05:20.033,99,1425085517.429522,37.78755269940598,-122.3959980499769,12.35252,-1,-1,10,163.4201486794673,-9999,1425085520.022133,21.85205841064453,20.78536987304688,27.41817855834961,132.6587829589844,118.8855285644531,10,137164.253329875,0.229461669921875,0.91705322265625,1.212387084960938,137164.2125818333,0.680528205992308,0.06954525607411122,0.9205458655518084,137164.2125818333,2.807995900743647,2.65199968753776,-0.6649505994015372,0.6771536469459534,0.07748321443796158,0.9534575343132019,-0.2139319181442261,0.1358941644430161,0.3616064488887787,XTrueNorthZVertical,-0.9174621744010404,0.07425108795484228,0.1733345906748159,0.350292818398907,0.3700751066207886,0.6170202493667603,0.6945001482963562,29.31333541870117,19.18062210083008,20.14200210571289,2,10.3.35.51,10.83.46.32,6,0
2015-02-27 17:05:20.098,100,1425085517.429522,37.78755269940598,-122.3959980499769,12.35252,-1,-1,10,163.4201486794673,-9999,1425085520.075616,22.51699066162109,20.73434448242188,25.6709098815918,139.0809936523438,125.3077392578125,10,137164.3023467083,0.34417724609375,1.00982666015625,1.445785522460938,137164.2643665,1.819732380212854,-0.235133422120295,1.026496267411194,137164.2643665,2.712747387295712,2.592168760974024,-0.6886387600478725,1.816357731819153,-0.2271955460309982,1.059407591819763,-0.1383163630962372,0.2646444737911224,0.6046306490898132,XTrueNorthZVertical,-0.9047457916916865,0.1033119822945784,0.1803669646632391,0.3717922124710738,0.4031936824321747,0.6354867219924927,0.6584766507148743,21.97335433959961,19.62430000305176,25.98351097106934,2,10.3.35.51,10.83.46.32,6,0
2015-02-27 17:05:20.132,101,1425085517.429522,37.78755269940598,-122.3959980499769,12.35252,-1,-1,10,163.4201486794673,-9999,1425085520.126398,24.37538146972656,20.98916625976562,22.19302368164062,251.1151123046875,237.3418579101562,10,137164.35150825,0.1477203369140625,0.7961273193359375,1.252471923828125,137164.31614975,2.702062949386462,-0.8792008222605463,1.436268874858416,137164.31614975,2.547353107070284,2.452680492731754,-0.7468967533576447,2.698688268661499,-0.8712630271911621,1.469179749488831,-0.1114644780755043,0.5041525959968567,0.8662753701210022,XTrueNorthZVertical,-0.8740509930054805,0.1387773971233756,0.2000977588376635,0.4204005079056837,0.4664754569530487,0.6793648600578308,0.5664486289024353,23.14596176147461,20.35534286499023,24.35177040100098,2,10.3.35.51,10.83.46.32,6,0
2015-02-27 17:05:20.171,102,1425085517.429522,37.78755269940598,-122.3959980499769,12.35252,-1,-1,10,163.4201486794673,-9999,1425085520.126398,24.37538146972656,20.98916625976562,22.19302368164062,251.1151123046875,237.3418579101562,10,137164.4004226667,0.2578582763671875,0.58575439453125,0.68292236328125,137164.3679332917,3.830448830626888,-1.212033374234834,1.644475874145247,137164.3679332917,2.29714598990435,2.217544568669198,-0.8081115978616525,3.827074527740479,-1.204095721244812,1.677386522293091,-0.3747683465480804,0.02124834433197975,0.7780244946479797,XTrueNorthZVertical,-0.8226033638924766,0.1774244370556319,0.2296540446578221,0.4889819005709677,0.5513430833816528,0.7229838371276855,0.4163114428520203,26.12062835693359,21.86156463623047,19.56703758239746,2,10.3.35.51,10.83.46.32,6,0
2015-02-27 17:05:20.230,103,1425085517.429522,37.78755269940598,-122.3959980499769,12.35252,-1,-1,10,163.4201486794673,-9999,1425085520.177231,26.88164901733398,21.65182495117188,17.01779174804688,250.9604797363281,237.1872253417969,10,137164.4495794167,0.7198638916015625,0.7126922607421875,0.0941925048828125,137164.4197176667,3.470584394639969,0.0002639192640268525,1.733168992140919,137164.4197176667,2.008197816416506,1.978041612540914,-0.8234277420708729,3.467210054397583,0.008201563730835915,1.766079306602478,-0.2910675406455994,-0.1903891861438751,0.2781271040439606,XTrueNorthZVertical,-0.7640352697350039,0.2255228588246422,0.2453741902133596,0.5524319487421749,0.6241211295127869,0.7334800362586975,0.2692209184169769,28.68764686584473,22.62860298156738,14.42392349243164,2,10.3.35.51,10.83.46.32,6,0
2015-02-27 17:05:20.270,104,1425085517.429522,37.78755269940598,-122.3959980499769,12.35252,-1,-1,10,163.4201486794673,-9999,1425085520.230348,30.22334289550781,20.39453125,11.79264068603516,253.6644897460938,239.8912353515625,10,137164.498493625,0.71343994140625,0.3000030517578125,-0.3674774169921875,137164.4715011667,2.784599637890198,-1.0518303862289,2.129145892509313,137164.4715011667,1.747062135174648,1.768607734026722,-0.7804156494195714,2.781225204467773,-1.043892860412598,2.162055969238281,0.05105462297797203,-0.1363293677568436,-0.3013056516647339,XTrueNorthZVertical,-0.7031876334045153,0.274507140512072,0.2604466398662232,0.6019472853021722,0.6967633962631226,0.7035748362541199,0.1396540403366089,30.57378578186035,22.25030708312988,10.64198207855225,2,10.3.35.51,10.83.46.32,6,0
2015-02-27 17:05:20.328,105,1425085517.429522,37.78755269940598,-122.3959980499769,12.35252,-1,-1,10,163.4201486794673,-9999,1425085520.280796,32.30337524414062,17.30227661132812,7.066703796386719,249.1575012207031,235.3842468261719,10,137164.547535,0.716033935546875,0.48077392578125,-0.22393798828125,137164.5232844584,1.644833536679644,-1.256110820804518,2.023813344022825,137164.5232844584,1.583608836599776,1.598774360341296,-0.6837810578375189,1.641459226608276,-1.248173356056213,2.05672287940979,0.06248553469777107,-0.09016362577676773,-0.3786953389644623,XTrueNorthZVertical,-0.6448653385820887,0.3082067839798956,0.2985207226364199,0.6324892536843818,0.7748863101005554,0.6317285895347595,0.02168545313179493,33.59330368041992,19.6392993927002,5.373281478881836,2,10.3.35.51,10.83.46.32,6,0
2015-02-27 17:05:20.371,106,1425085517.429522,37.78755269940598,-122.3959980499769,12.35252,-1,-1,10,163.4201486794673,-9999,1425085520.333037,34.60504913330078,13.37750244140625,3.32257080078125,244.4474639892578,230.6742095947266,10,137164.5965534583,0.752044677734375,0.387969970703125,-0.092681884765625,137164.5750691667,0.6382087120581859,-0.549010392403726,1.837742806032842,137164.5232844584,1.583608836599776,1.598774360341296,-0.6837810578375189,1.641459226608276,-1.248173356056213,2.05672287940979,0.06248553469777107,-0.09016362577676773,-0.3786953389644623,XTrueNorthZVertical,-0.6448653385820887,0.3082067839798956,0.2985207226364199,0.6324892536843818,0.7748863101005554,0.6317285895347595,0.02168545313179493,33.59330368041992,19.6392993927002,5.373281478881836,2,10.3.35.51,10.83.46.32,6,0
2015-02-27 17:05:20.426,107,1425085517.429522,37.78755269940598,-122.3959980499769,12.35252,-1,-1,10,163.4201486794673,-9999,1425085520.384736,35.78146362304688,9.011016845703125,0.576873779296875,239.1763305664062,225.403076171875,10,137164.6456032917,0.81463623046875,0.486541748046875,-0.0746612548828125,137164.6268524167,0.5206256225573344,-0.4138917187052477,1.707328872716098,137164.6268524167,1.505553898746275,1.482905850868813,-0.4948724144525239,0.5172513127326965,-0.4059543907642365,1.740237951278687,-0.01983623951673508,-0.02107721380889416,0.007605540566146374,XTrueNorthZVertical,-0.5794784939149566,0.3543745873104993,0.368126896815787,0.6349062287178833,0.8766325116157532,0.4749193787574768,-0.07724665105342865,36.84161376953125,13.62151050567627,0.4839084148406982,2,10.3.35.51,10.83.46.32,6,0
2015-02-27 17:05:20.500,108,1425085517.429522,37.78755269940598,-122.3959980499769,12.35252,-1,-1,10,163.4201486794673,-9999,1425085520.488455,36.8555793762207,0.566802978515625,-1.969146728515625,228.2607574462891,214.4875030517578,10,137164.6946264167,0.67889404296875,0.2875518798828125,-0.02606201171875,137164.6786359167,0.6012126108270232,-0.757929787282153,1.499361291611265,137164.6786359167,1.487074563474344,1.441710878754198,-0.4100932405165155,0.5978383421897888,-0.7499925494194031,1.532269954681396,-0.2098533362150192,-0.05796607956290245,0.1079218238592148,XTrueNorthZVertical,-0.5500031092338534,0.372115236974696,0.3989379421170472,0.6323569822886395,0.9094535708427429,0.3986948430538177,-0.1180536597967148,38.05372619628906,9.707866668701172,-0.8691561222076416,2,10.3.35.51,10.83.46.32,6,0
2015-02-27 17:05:20.525,109,1425085517.429522,37.78755269940598,-122.3959980499769,12.35252,-1,-1,10,163.4201486794673,-9999,1425085520.488455,36.8555793762207,0.566802978515625,-1.969146728515625,228.2607574462891,214.4875030517578,10,137164.7436714583,0.7802276611328125,0.285858154296875,-0.1728363037109375,137164.7304205,0.8271618556120709,-0.5704586928748971,1.319304171362681,137164.7304205,1.458568480238541,1.396142179634747,-0.3345854689166858,0.8236961960792542,-0.5625526905059814,1.352241516113281,-0.1982585042715073,-0.03696529939770699,0.05989875271916389,XTrueNorthZVertical,-0.5174201951237924,0.3875700857959722,0.4235390443242094,0.6345710777151086,0.930176854133606,0.3283776640892029,-0.1641315370798111,38.57373046875,7.030075073242188,-2.393634080886841,2,10.3.35.51,10.83.46.32,6,0
2015-02-27 17:05:20.571,110,1425085517.429522,37.78755269940598,-122.3959980499769,12.35252,-1,-1,10,163.4201486794673,-9999,1425085520.540777,37.29886627197266,-2.9671630859375,-2.934303283691406,225.7350006103516,211.9617462158203,10,137164.7926809583,0.8564605712890625,0.275390625,-0.1929779052734375,137164.782203875,0.608028172688754,-0.4839709385779198,1.333415995662902,137164.7304205,1.458568480238541,1.396142179634747,-0.3345854689166858,0.8236961960792542,-0.5625526905059814,1.352241516113281,-0.1982585042715073,-0.03696529939770699,0.05989875271916389,XTrueNorthZVertical,-0.5174201951237924,0.3875700857959722,0.4235390443242094,0.6345710777151086,0.930176854133606,0.3283776640892029,-0.1641315370798111,38.57373046875,7.030075073242188,-2.393634080886841,2,10.3.35.51,10.83.46.32,6,0
2015-02-27 17:05:20.622,111,1425085517.429522,37.78755269940598,-122.3959980499769,12.35252,-1,-1,10,163.4201486794673,-9999,1425085520.592314,36.78738403320312,-5.88946533203125,-3.733055114746094,222.6541442871094,208.8808898925781,10,137164.8418282083,0.948333740234375,0.304901123046875,-0.226226806640625,137164.833987125,0.6116247717409059,-0.4747180516865485,1.281801004259967,137164.833987125,1.419501839880729,1.337123730545612,-0.1892818478199026,0.6081591844558716,-0.4668122231960297,1.314737677574158,-0.03781452029943466,0.09965766221284866,0.03042528964579105,XTrueNorthZVertical,-0.4583682659475321,0.4197504076293848,0.4646347964506555,0.6307318276889913,0.9554475545883179,0.1881536245346069,-0.2274162620306015,38.96621704101562,1.168457984924316,-4.832475662231445,2,10.3.35.51,10.83.46.32,6,0
2015-02-27 17:05:20.671,112,1425085517.429522,37.78755269940598,-122.3959980499769,12.35252,-1,-1,10,163.4201486794673,-9999,1425085520.644922,36.49754333496094,-8.998687744140625,-4.415321350097656,220.1401672363281,206.3669128417969,10,137164.8907405,1.01348876953125,0.2184295654296875,-0.2344818115234375,137164.833987125,0.6116247717409059,-0.4747180516865485,1.281801004259967,137164.833987125,1.419501839880729,1.337123730545612,-0.1892818478199026,0.6081591844558716,-0.4668122231960297,1.314737677574158,-0.03781452029943466,0.09965766221284866,0.03042528964579105,XTrueNorthZVertical,-0.4583682659475321,0.4197504076293848,0.4646347964506555,0.6307318276889913,0.9554475545883179,0.1881536245346069,-0.2274162620306015,38.96621704101562,1.168457984924316,-4.832475662231445,2,10.3.35.51,10.83.46.32,6,0
2015-02-27 17:05:20.720,113,1425085517.429522,37.78755269940598,-122.3959980499769,12.35252,-1,-1,10,163.4201486794673,-9999,1425085520.696275,35.64507293701172,-11.88705444335938,-5.646736145019531,215.9159698486328,202.1427154541016,10,137164.9398495833,0.9611968994140625,0.17901611328125,-0.2985687255859375,137164.9375552917,0.3630149555564829,-0.6193956094856482,0.9813202668918527,137164.8857718333,1.41102604870991,1.316499092502929,-0.1234845784274091,0.4091835618019104,-0.4817709922790527,1.13932991027832,0.07494497299194336,0.09698281437158585,0.01193307805806398,XTrueNorthZVertical,-0.433065727371631,0.4331618625301948,0.4832329375149917,0.6255484067532302,0.9604706764221191,0.1231709942221642,-0.2496497482061386,38.8529052734375,-1.23878812789917,-5.656980514526367,2,10.3.35.51,10.83.46.32,6,0
2015-02-27 17:05:20.771,114,1425085517.429522,37.78755269940598,-122.3959980499769,12.35252,-1,-1,10,163.4201486794673,-9999,1425085520.748636,34.55390548706055,-14.70745849609375,-6.34564208984375,213.2901916503906,199.5169372558594,10,137164.98879775,0.9173431396484375,0.068389892578125,-0.31146240234375,137164.989338625,0.1410077218169705,-0.6681255984797,0.9646009415683352,137164.9375552917,1.405529204195012,1.287256400289912,-0.06681819754742818,0.3595493733882904,-0.6114897131919861,1.014256000518799,0.01968661695718765,0.1393014639616013,-0.008176039904356003,XTrueNorthZVertical,-0.4080358274300598,0.4403872316230341,0.5014303663608257,0.6230035649284317,0.9579287171363831,0.06676848977804184,-0.2791317105293274,38.49543380737305,-4.034571170806885,-6.701349258422852,2,10.3.35.51,10.83.46.32,4,0
2015-02-27 17:05:20.818,115,1425085517.429522,37.78755269940598,-122.3959980499769,12.35252,-1,-1,10,163.4201486794673,-9999,1425085520.798668,33.42864608764648,-16.98416137695312,-7.377349853515625,210.5689086914062,196.795654296875,10,137165.0379825,0.7914276123046875,-0.0724334716796875,-0.255126953125,137165.041123,0.06832978935259905,-0.8501896769257681,0.7895154104427108,137164.989338625,1.408785675052658,1.255966200659348,-0.01626857587871674,0.1375421583652496,-0.6602197885513306,0.9975363612174988,-0.03338003158569336,0.05212203413248062,-0.001848426880314946,XTrueNorthZVertical,-0.3854602636855277,0.4434110929673543,0.5203649014898203,0.6196994122281299,0.9507231712341309,0.01626785844564438,-0.309613972902298,38.07550430297852,-5.856227397918701,-7.684063911437988,2,10.3.35.51,10.83.46.32,4,0
2015-02-27 17:05:20.858,116,1425085517.429522,37.78755269940598,-122.3959980499769,12.35252,-1,-1,10,163.4201486794673,-9999,1425085520.85199,32.45682525634766,-18.73414611816406,-7.793373107910156,209.5718688964844,195.7986145019531,10,137165.0869709583,0.6554718017578125,-0.2793731689453125,-0.319915771484375,137165.041123,0.06832978935259905,-0.8501896769257681,0.7895154104427108,137165.041123,1.418591626509496,1.215956657928866,0.02634567235726975,0.06486425548791885,-0.8422839641571045,0.8224504590034485,-0.1459491848945618,-0.04609084874391556,0.09219250082969666,XTrueNorthZVertical,-0.3637916774724513,0.4404496418830783,0.5402527807857163,0.6178888781047682,0.9373767971992493,-0.02634262479841709,-0.3473194539546967,37.53173065185547,-7.560196399688721,-8.791852951049805,2,10.3.35.51,10.83.46.32,4,0
2015-02-27 17:05:20.917,117,1425085517.429522,37.78755269940598,-122.3959980499769,12.35252,-1,-1,10,163.4201486794673,-9999,1425085520.903895,31.05876922607422,-19.991455078125,-8.958213806152344,207.2480621337891,193.4748077392578,10,137165.1358999583,0.57958984375,-0.6978302001953125,-0.4822845458984375,137165.1446898333,0.2387467990873145,-0.4271356188062118,0.5302183288037998,137165.0929064167,1.428903631813012,1.179285938475657,0.06449336419056903,0.1029914319515228,-0.6615989208221436,0.7150707244873047,-0.2669402956962585,-0.2149244993925095,0.06087587773799896,XTrueNorthZVertical,-0.3439020726311001,0.437419181737266,0.5578259991142699,0.6158132696409853,0.922412097454071,-0.06444866210222244,-0.3807916343212128,36.65054702758789,-9.430683135986328,-10.53013610839844,2,10.3.35.51,10.83.46.32,4,0
2015-02-27 17:05:20.956,118,1425085517.429522,37.78755269940598,-122.3959980499769,12.35252,-1,-1,10,163.4201486794673,-9999,1425085520.903895,31.05876922607422,-19.991455078125,-8.958213806152344,207.2480621337891,193.4748077392578,10,137165.1849164584,0.593780517578125,-0.92431640625,-0.682586669921875,137165.1446898333,0.2387467990873145,-0.4271356188062118,0.5302183288037998,137165.1446898333,1.433299238320918,1.149315153449614,0.09398398431197451,0.2352813184261322,-0.419230043888092,0.5631527900695801,-0.328867107629776,-0.603984534740448,-0.07497760653495789,XTrueNorthZVertical,-0.3269112647714982,0.4352879012288041,0.5699994256110292,0.6154300344294544,0.9084569811820984,-0.09384568780660629,-0.4073069393634796,36.02063751220703,-10.58099555969238,-11.56029510498047,2,10.3.35.51,10.83.46.32,4,0
2015-02-27 17:05:21.014,119,1425085517.429522,37.78755269940598,-122.3959980499769,12.35252,-1,-1,10,163.4201486794673,-9999,1425085520.959576,30.00170516967773,-21.28269958496094,-9.690399169921875,205.7262420654297,191.9529876708984,10,137165.2339447083,0.485198974609375,-0.969757080078125,-0.617523193359375,137165.1964744584,0.01538108687575264,-0.08034064586885641,0.2490883862323102,137165.1964744584,1.435054229244061,1.140889651500878,0.1199153259947744,0.0119156576693058,-0.0724351704120636,0.2820224761962891,-0.3336902558803558,-0.7959144711494446,-0.2499643862247467,XTrueNorthZVertical,-0.3164304159158045,0.4392895670487024,0.5767970910414514,0.6117201879920711,0.9024769067764282,-0.1196281388401985,-0.4137929379940033,35.52226257324219,-11.60523986816406,-12.10667419433594,2,10.3.35.51,10.83.46.32,4,0
2015-02-27 17:05:21.053,120,1425085517.429522,37.78755269940598,-122.3959980499769,12.35252,-1,-1,10,163.4201486794673,-9999,1425085521.033596,29.31972503662109,-21.79241943359375,-10.05649566650391,204.1039733886719,190.3307189941406,10,137165.2829655,0.5461883544921875,-0.715667724609375,-0.565460205078125,137165.2482578333,-0.397767343569254,0.3251301574695608,-0.506563865685607,137165.2482578333,1.443965441170061,1.1466548262239,0.1082961547611292,-0.4012327194213867,0.3330355584621429,-0.4736300706863403,-0.4224105775356293,-0.8645105957984924,-0.2027956247329712,XTrueNorthZVertical,-0.3238294450544006,0.4365440368143966,0.5764194998398682,0.6101674844723587,0.9060531854629517,-0.1080845966935158,-0.4091275930404663,35.34173965454102,-12.05801105499268,-12.19221687316895,2,10.3.35.51,10.83.46.32,4,0
2015-02-27 17:05:21.112,121,1425085517.429522,37.78755269940598,-122.3959980499769,12.35252,-1,-1,10,163.4201486794673,-9999,1425085521.085478,29.71186447143555,-21.06184387207031,-10.33938598632812,203.8860931396484,190.1128387451172,10,137165.33200425,0.68048095703125,-0.4020538330078125,-0.4601593017578125,137165.30004125,-0.3803332258091592,0.4484579517578222,-0.888903783376141,137165.30004125,1.448281508605181,1.167146614107676,0.06785114193670359,-0.3837985694408417,0.4563632905483246,-0.8559703230857849,-0.3620670735836029,-0.5958971977233887,-0.151568204164505,XTrueNorthZVertical,-0.3436265614915079,0.4312586260621746,0.5665307649490137,0.6123558446819903,0.9175175428390503,-0.06779909133911133,-0.3918735682964325,35.79085922241211,-11.02816200256348,-11.85235404968262,2,10.3.35.51,10.83.46.32,4,0
2015-02-27 17:05:21.152,122,1425085517.429522,37.78755269940598,-122.3959980499769,12.35252,-1,-1,10,163.4201486794673,-9999,1425085521.137411,31.00762939453125,-19.43077087402344,-10.10640716552734,205.2943267822266,191.5210723876953,10,137165.3810858333,0.813446044921875,0.073455810546875,-0.322662353515625,137165.351826,-0.3968786467134945,0.525282426039447,-1.066955543323896,137165.351826,1.446956985438875,1.191274363535362,0.0166742597056123,-0.4003439545631409,0.5331876873970032,-1.034022450447083,-0.2195605039596558,-0.1788373738527298,-0.02045940794050694,XTrueNorthZVertical,-0.366218202395456,0.4250549758344223,0.551480997103695,0.6173177545248264,0.9287127256393433,-0.0166734866797924,-0.3704249858856201,36.41428375244141,-9.450798988342285,-11.30339050292969,2,10.3.35.51,10.83.46.32,4,0
2015-02-27 17:05:21.210,123,1425085517.429522,37.78755269940598,-122.3959980499769,12.35252,-1,-1,10,163.4201486794673,-9999,1425085521.193544,32.23518753051758,-17.08609008789062,-9.640472412109375,207.2841644287109,193.5109100341797,10,137165.4300725,0.85186767578125,0.1654815673828125,-0.224365234375,137165.4036092917,-0.5920502714127145,0.6856369479114071,-1.296947466643684,137165.4036092917,1.450364368548265,1.222823470727873,-0.04844958567553717,-0.5955155491828918,0.6935421228408813,-1.264014720916748,-0.08466894179582596,0.07542495429515839,0.05456672236323357,XTrueNorthZVertical,-0.3954657585465237,0.4163057438481712,0.5325474621490391,0.6218436833162186,0.9389627575874329,0.04843063279986382,-0.3405927121639252,37.29313278198242,-6.812553405761719,-10.29055213928223,2,10.3.35.51,10.83.46.32,4,0
2015-02-27 17:05:21.249,124,1425085517.429522,37.78755269940598,-122.3959980499769,12.35252,-1,-1,10,163.4201486794673,-9999,1425085521.193544,32.23518753051758,-17.08609008789062,-9.640472412109375,207.2841644287109,193.5109100341797,10,137165.479212375,0.8535003662109375,0.2423095703125,-0.1758270263671875,137165.4553928333,-0.4105225536101885,0.7199605669886753,-1.344621512265519,137165.4553928333,1.454247473932304,1.261041911487711,-0.1173630819120756,-0.4139878153800964,0.7278656363487244,-1.311689019203186,-0.08330787718296051,0.06027432531118393,0.1233760118484497,XTrueNorthZVertical,-0.4266140345118746,0.4082114127954747,0.5101547317748446,0.6253847312928102,0.9458566904067993,0.1170938387513161,-0.3027278184890747,37.92715454101562,-4.429367065429688,-9.219324111938477,2,10.3.35.51,10.83.46.32,4,0
2015-02-27 17:05:21.308,125,1425085517.429522,37.78755269940598,-122.3959980499769,12.35252,-1,-1,10,163.4201486794673,-9999,1425085521.267185,34.41751480102539,-13.21234130859375,-8.508918762207031,207.2533569335938,193.4801025390625,10,137165.5281214583,0.8060760498046875,0.2320098876953125,-0.1795196533203125,137165.50717725,-0.1676047116235918,0.5531859626768612,-1.430141740138471,137165.50717725,1.446464032928,1.290555537459198,-0.1859470744057982,-0.17106993496418,0.5610909461975098,-1.397209525108337,-0.1062881946563721,0.1034374535083771,0.1106405481696129,XTrueNorthZVertical,-0.4519126668841809,0.3998316822336316,0.4846005806680069,0.63330233622931,0.9444229602813721,0.1848773658275604,-0.271819144487381,38.39709854125977,-2.020871639251709,-8.041324615478516,2,10.3.35.51,10.83.46.32,4,0
2015-02-27 17:05:21.347,126,1425085517.429522,37.78755269940598,-122.3959980499769,12.35252,-1,-1,10,163.4201486794673,-9999,1425085521.318371,36.02016067504883,-10.39193725585938,-7.710174560546875,210.1503601074219,196.3771057128906,10,137165.5771345417,0.8490142822265625,0.197479248046875,-0.247161865234375,137165.5589608334,-0.1444677007052014,0.7825059704536222,-1.46165971900734,137165.5589608334,1.435062017669792,1.32132581935876,-0.2556849299134047,-0.1479328870773315,0.7904109358787537,-1.428727865219116,-0.1264285296201706,0.02406940795481205,0.03570902720093727,XTrueNorthZVertical,-0.4760383910644054,0.3923712248608575,0.4559913058515292,0.6414859356114051,0.9375399947166443,0.2529081404209137,-0.238864541053772,38.68990707397461,1.271940231323242,-6.675159454345703,2,10.3.35.51,10.83.46.32,4,0
2015-02-27 17:05:21.408,127,1425085517.429522,37.78755269940598,-122.3959980499769,12.35252,-1,-1,10,163.4201486794673,-9999,1425085521.370713,36.37820053100586,-7.41864013671875,-6.695091247558594,213.9548645019531,200.1816101074219,10,137165.6262742083,0.87786865234375,0.3315887451171875,-0.294769287109375,137165.610744125,-0.4801224044866463,0.8360887715860165,-1.527240060850542,137165.610744125,1.434279288595261,1.363706677763323,-0.3312032962710335,-0.4835875332355499,0.843993604183197,-1.494308590888977,-0.03680508211255074,-0.03382984548807144,-0.09802728891372681,XTrueNorthZVertical,-0.5050049432158379,0.3843839836367837,0.4249959190932627,0.6454435944918642,0.9254464507102966,0.3251811563968658,-0.1944379210472107,38.7366943359375,3.842164516448975,-5.271690845489502,2,10.3.35.51,10.83.46.32,4,0
2015-02-27 17:05:21.446,128,1425085517.429522,37.78755269940598,-122.3959980499769,12.35252,-1,-1,10,163.4201486794673,-9999,1425085521.424016,36.66804504394531,-4.037567138671875,-4.714866638183594,219.0425415039062,205.269287109375,10,137165.6752906667,0.7982940673828125,0.4498443603515625,-0.1678314208984375,137165.6625288333,-1.14867916874683,0.6927084395538945,-1.67899150713711,137165.610744125,1.434279288595261,1.363706677763323,-0.3312032962710335,-0.4835875332355499,0.843993604183197,-1.494308590888977,-0.03680508211255074,-0.03382984548807144,-0.09802728891372681,XTrueNorthZVertical,-0.5050049432158379,0.3843839836367837,0.4249959190932627,0.6454435944918642,0.9254464507102966,0.3251811563968658,-0.1944379210472107,38.7366943359375,3.842164516448975,-5.271690845489502,2,10.3.35.51,10.83.46.32,4,0
2015-02-27 17:05:21.504,129,1425085517.429522,37.78755269940598,-122.3959980499769,12.35252,-1,-1,10,163.4201486794673,-9999,1425085521.476465,36.66804504394531,-0.299713134765625,-3.050804138183594,223.6152801513672,209.8420257568359,10,137165.72433675,0.8115997314453125,0.6115264892578125,0.0050048828125,137165.714312125,-1.458303869717732,0.9167114462143123,-1.652287191938558,137165.714312125,1.526539724839687,1.479637404222576,-0.5069989309013645,-1.461851000785828,0.9245893955230713,-1.619316458702087,-0.05055326223373413,0.02971816249191761,0.007025775499641895,XTrueNorthZVertical,-0.5849862746118308,0.343511862795307,0.3720923103425579,0.6335124116258718,0.8705758452415466,0.48555588722229,-0.07958132028579712,37.8249397277832,10.49847412109375,-1.462927341461182,2,10.3.35.51,10.83.46.32,4,0
2015-02-27 17:05:21.544,130,1425085517.429522,37.78755269940598,-122.3959980499769,12.35252,-1,-1,10,163.4201486794673,-9999,1425085521.476465,36.66804504394531,-0.299713134765625,-3.050804138183594,223.6152801513672,209.8420257568359,10,137165.7732428334,0.78375244140625,0.7757568359375,0.1239166259765625,137165.7660957083,-1.469959194228463,1.00447698520231,-1.757231717854221,137165.714312125,1.526539724839687,1.479637404222576,-0.5069989309013645,-1.461851000785828,0.9245893955230713,-1.619316458702087,-0.05055326223373413,0.02971816249191761,0.007025775499641895,XTrueNorthZVertical,-0.5849862746118308,0.343511862795307,0.3720923103425579,0.6335124116258718,0.8705758452415466,0.48555588722229,-0.07958132028579712,37.8249397277832,10.49847412109375,-1.462927341461182,2,10.3.35.51,10.83.46.32,4,0
2015-02-27 17:05:21.603,131,1425085517.429522,37.78755269940598,-122.3959980499769,12.35252,-1,-1,10,163.4201486794673,-9999,1425085521.552653,36.63394927978516,6.0546875,0.1441879272460938,228.6504364013672,214.8771820068359,10,137165.8223930833,0.728424072265625,0.866790771484375,0.295867919921875,137165.8178802083,-1.329227642216534,0.8732995236010397,-1.893618588863795,137165.7660957083,1.609186560615547,1.573599377176186,-0.5934984421683859,-1.473506331443787,1.012354850769043,-1.724261403083801,-0.01996495388448238,0.2262883633375168,0.0996355339884758,XTrueNorthZVertical,-0.6310901059380133,0.3207602312032341,0.3429780088268048,0.6174173970598945,0.8289859294891357,0.559264600276947,0.002323695458471775,36.96171951293945,13.26855087280273,0.9278512001037598,2,10.3.35.51,10.83.46.32,4,0
2015-02-27 17:05:21.644,132,1425085517.429522,37.78755269940598,-122.3959980499769,12.35252,-1,-1,10,163.4201486794673,-9999,1425085521.603546,36.13951110839844,10.59109497070312,2.357391357421875,231.9846649169922,218.2114105224609,10,137165.8713480417,0.5534210205078125,1.037155151367188,0.4124603271484375,137165.86966375,-1.087371868872661,0.3458386317899079,-1.303381930153424,137165.8178802083,1.703537339082876,1.675606586660498,-0.678845567900732,-1.332774758338928,0.8811773061752319,-1.860648632049561,-0.05425480380654335,0.2015117853879929,0.1617244482040405,XTrueNorthZVertical,-0.674024419317458,0.293944316770315,0.311762019607665,0.6017410310073316,0.7740271687507629,0.6278949379920959,0.08142435550689697,35.73583984375,15.92253112792969,3.536517381668091,2,10.3.35.51,10.83.46.32,4,0
2015-02-27 17:05:21.701,133,1425085517.429522,37.78755269940598,-122.3959980499769,12.35252,-1,-1,10,163.4201486794673,-9999,1425085521.659488,34.94604873657227,14.39691162109375,4.653800964355469,235.8003540039062,222.027099609375,10,137165.9204441667,0.3964691162109375,1.212203979492188,0.64971923828125,137165.9214470834,-0.9217381627718368,0.4132395105542873,-0.8968285518318897,137165.86966375,1.794536439808214,1.768613514350992,-0.7482429517885976,-1.090918898582458,0.3537163138389587,-1.27041232585907,-0.08907601237297058,0.3999396562576294,0.2482087910175323,XTrueNorthZVertical,-0.7072317126399768,0.2680300881329726,0.2848313539212956,0.5889433595690997,0.7185925841331482,0.6803520917892456,0.1440336406230927,33.60802841186523,19.21549606323242,6.659540176391602,2,10.3.35.51,10.83.46.32,4,0
2015-02-27 17:05:21.740,134,1425085517.429522,37.78755269940598,-122.3959980499769,12.35252,-1,-1,10,163.4201486794673,-9999,1425085521.73369,32.50798416137695,18.593505859375,7.399497985839844,239.1901092529297,225.4168548583984,10,137165.9694615,0.511993408203125,1.313705444335938,0.7583465576171875,137165.9214470834,-0.9217381627718368,0.4132395105542873,-0.8968285518318897,137165.9214470834,1.885390530518563,1.848660613504233,-0.7870071815895328,-0.9252851605415344,0.4211171269416809,-0.863859236240387,-0.2824205160140991,0.5039603710174561,0.4560704231262207,XTrueNorthZVertical,-0.732227160648637,0.2463083219635673,0.2703099357307868,0.5745503797323298,0.6788896322250366,0.7082436084747314,0.1936488151550293,32.37074661254883,20.68487930297852,8.206993103027344,2,10.3.35.51,10.83.46.32,4,0
2015-02-27 17:05:21.798,135,1425085517.429522,37.78755269940598,-122.3959980499769,12.35252,-1,-1,10,163.4201486794673,-9999,1425085521.784822,31.94534683227539,19.01828002929688,8.348007202148438,239.0760803222656,225.3028259277344,10,137166.0183850417,0.5884246826171875,1.187515258789062,0.7166595458984375,137166.025015125,0.9374316384434558,-0.3445121112509394,1.144599205956829,137165.9732317917,1.92426444743269,1.894669334924994,-0.7905133956536572,-0.2024087011814117,0.2186475545167923,0.3044499754905701,-0.1549131721258163,0.6029909253120422,0.5344704985618591,XTrueNorthZVertical,-0.7432461575985436,0.2439737271368995,0.2633273789562294,0.5645535099876653,0.6669065952301025,0.7107145190238953,0.2238760590553284,31.44085884094238,21.4854736328125,9.640072822570801,2,10.3.35.51,10.83.46.32,4,0
2015-02-27 17:05:21.838,136,1425085517.429522,37.78755269940598,-122.3959980499769,12.35252,-1,-1,10,163.4201486794673,-9999,1425085521.784822,31.94534683227539,19.01828002929688,8.348007202148438,239.0760803222656,225.3028259277344,10,137166.067478125,0.7067413330078125,1.142044067382812,0.488739013671875,137166.025015125,0.9374316384434558,-0.3445121112509394,1.144599205956829,137166.025015125,1.878780130588001,1.860119189156228,-0.7578520690866436,0.9338846802711487,-0.3366346657276154,1.177567839622498,-0.1077018305659294,0.5001522898674011,0.5094397664070129,XTrueNorthZVertical,-0.7317231785596868,0.2611342444018006,0.2732542134219598,0.5672056379054908,0.6961265206336975,0.6873629689216614,0.2072198092937469,31.74352645874023,20.79950523376465,10.13968944549561,2,10.3.35.51,10.83.46.32,4,0
2015-02-27 17:05:21.898,137,1425085517.429522,37.78755269940598,-122.3959980499769,12.35252,-1,-1,10,163.4201486794673,-9999,1425085521.888944,33.90603256225586,15.50128173828125,6.467620849609375,237.0028076171875,223.2295532226562,10,137166.116458875,0.663055419921875,0.9423828125,0.266693115234375,137166.0767985834,1.452845188431396,-0.6637790532645818,1.286287099116205,137166.0767985834,1.775382573294363,1.763886913332491,-0.7093229168074773,1.44929826259613,-0.6559016704559326,1.319255352020264,-0.03796001896262169,0.4907239079475403,0.3431300520896912,XTrueNorthZVertical,-0.7008279865904573,0.2857352170565756,0.2931213507259275,0.5841878098344953,0.7447013258934021,0.6513201594352722,0.1456089615821838,32.97714233398438,19.48990821838379,8.702628135681152,2,10.3.35.51,10.83.46.32,4,0
2015-02-27 17:05:21.936,138,1425085517.429522,37.78755269940598,-122.3959980499769,12.35252,-1,-1,10,163.4201486794673,-9999,1425085521.888944,33.90603256225586,15.50128173828125,6.467620849609375,237.0028076171875,223.2295532226562,10,137166.1655292083,0.7258453369140625,0.6483154296875,0.068328857421875,137166.1285833333,1.484788207810243,-0.8768013141183848,1.174179468816557,137166.1285833333,1.669208063155036,1.657093315962083,-0.6588316414345787,1.481241226196289,-0.8689240217208862,1.207147359848022,-0.1756440103054047,0.2616621553897858,0.167841374874115,XTrueNorthZVertical,-0.6635648206949811,0.3061980716738242,0.3138892039373708,0.6061336830735049,0.7877656221389771,0.6121934652328491,0.06815106421709061,34.30608367919922,17.99725723266602,6.501970291137695,2,10.3.35.51,10.83.46.32,4,0
2015-02-27 17:05:21.997,139,1425085517.429522,37.78755269940598,-122.3959980499769,12.35252,-1,-1,10,163.4201486794673,-9999,1425085521.992979,36.12246704101562,10.0303955078125,1.941383361816406,234.2189636230469,220.4457092285156,10,137166.2145242083,0.9498443603515625,0.6580810546875,-0.061614990234375,137166.1803667917,1.303911632894241,-0.3926295731942731,1.465637416411483,137166.1803667917,1.575538155323392,1.574790702913133,-0.593312365031297,1.30036473274231,-0.3847523629665375,1.498605132102966,-0.04429660364985466,0.1079428791999817,0.009795598685741425,XTrueNorthZVertical,-0.6257718512869332,0.3317611202202139,0.3322277709701063,0.6228714649980419,0.8290866613388062,0.5591103434562683,0.003311701584607363,35.80575942993164,15.79204273223877,3.412237167358398,2,10.3.35.51,10.83.46.32,4,0
2015-02-27 17:05:22.034,140,1425085517.429522,37.78755269940598,-122.3959980499769,12.35252,-1,-1,10,163.4201486794673,-9999,1425085521.992979,36.12246704101562,10.0303955078125,1.941383361816406,234.2189636230469,220.4457092285156,10,137166.2635365,0.974517822265625,0.5840606689453125,-0.0936431884765625,137166.2321501667,0.7387441084731132,-0.3365242258773558,1.676850591936795,137166.2321501667,1.516839728369876,1.526002235037395,-0.5117844722735456,0.7351972460746765,-0.3286470770835876,1.709817886352539,0.07285023480653763,0.1739166527986526,-0.01363168563693762,XTrueNorthZVertical,-0.5926389053852141,0.359525104318184,0.3539334909636119,0.6278948284773055,0.870997428894043,0.4897338449954987,-0.03904165327548981,36.84546279907227,13.47985935211182,1.946593523025513,2,10.3.35.51,10.83.46.32,4,0
2015-02-27 17:05:22.094,141,1425085517.429522,37.78755269940598,-122.3959980499769,12.35252,-1,-1,10,163.4201486794673,-9999,1425085522.044261,36.97493743896484,6.156646728515625,0.5435714721679688,230.1394348144531,216.3661804199219,10,137166.3125729584,0.8954925537109375,0.573272705078125,0.002288818359375,137166.2839347083,0.5016396808300505,-0.5426004299760142,1.500220161062816,137166.2839347083,1.486240967637056,1.49282234004603,-0.4298560083802641,0.4980928897857666,-0.5347234010696411,1.5331871509552,0.07141263037919998,0.1629872620105743,-0.02307876944541931,XTrueNorthZVertical,-0.5641338300573265,0.3825555404741405,0.3786387462826305,0.6261285686792505,0.9062637686729431,0.4167399108409882,-0.07080855965614319,37.77383804321289,10.73923683166504,0.9433459043502808,2,10.3.35.51,10.83.46.32,4,0
2015-02-27 17:05:22.132,142,1425085517.429522,37.78755269940598,-122.3959980499769,12.35252,-1,-1,10,163.4201486794673,-9999,1425085522.095207,37.40117263793945,2.061981201171875,-0.8376007080078125,224.9735260009766,211.2002716064453,10,137166.3616967917,0.8678131103515625,0.358306884765625,-0.2121124267578125,137166.3357184167,0.607223099091223,-0.7519520558993612,1.345075314915269,137166.3357184167,1.46631771744513,1.449140386863605,-0.3602119610688136,0.6036763191223145,-0.7440750598907471,1.378041863441467,-0.08988573402166367,0.1588036417961121,0.08567463606595993,XTrueNorthZVertical,-0.5360625959201877,0.3947822728720164,0.4047704118559695,0.6268530676583487,0.9289054870605469,0.3524726033210754,-0.1135677024722099,38.5758171081543,7.389950752258301,-0.6159365177154541,2,10.3.35.51,10.83.46.32,4,0
2015-02-27 17:05:22.195,143,1425085517.429522,37.78755269940598,-122.3959980499769,12.35252,-1,-1,10,163.4201486794673,-9999,1425085522.147506,37.45232391357422,-1.692901611328125,-1.786109924316406,221.9497528076172,208.1764984130859,10,137166.4106225,1.00213623046875,0.3435211181640625,-0.298919677734375,137166.3875018333,0.0720049516569084,-0.385131975777373,1.429739602813869,137166.3875018333,1.453970427306538,1.422621496659885,-0.2835616504004906,0.06845822930335999,-0.3772550821304321,1.462705969810486,-0.01375383138656616,0.1512076705694199,-0.1594862639904022,XTrueNorthZVertical,-0.5095071388103503,0.4117447413178973,0.4294761024083682,0.6216261138529205,0.9495448470115662,0.2797768414020538,-0.1417374908924103,38.92916488647461,4.895270347595215,-1.908020973205566,2,10.3.35.51,10.83.46.32,4,0
2015-02-27 17:05:22.231,144,1425085517.429522,37.78755269940598,-122.3959980499769,12.35252,-1,-1,10,163.4201486794673,-9999,1425085522.200073,37.09428405761719,-4.700225830078125,-2.767921447753906,218.4321136474609,204.6588592529297,10,137166.459736,0.7849273681640625,0.323333740234375,-0.127166748046875,137166.4392862917,-0.6745057335032029,-1.029139188476988,1.331132335028159,137166.3875018333,1.453970427306538,1.422621496659885,-0.2835616504004906,0.06845822930335999,-0.3772550821304321,1.462705969810486,-0.01375383138656616,0.1512076705694199,-0.1594862639904022,XTrueNorthZVertical,-0.5095071388103503,0.4117447413178973,0.4294761024083682,0.6216261138529205,0.9495448470115662,0.2797768414020538,-0.1417374908924103,38.92916488647461,4.895270347595215,-1.908020973205566,2,10.3.35.51,10.83.46.32,4,0
2015-02-27 17:05:22.295,145,1425085517.429522,37.78755269940598,-122.3959980499769,12.35252,-1,-1,10,163.4201486794673,-9999,1425085522.251211,36.48050308227539,-7.724517822265625,-3.899482727050781,213.2211303710938,199.4478759765625,10,137166.5086590833,0.68011474609375,0.2242889404296875,0.058074951171875,137166.4910699167,-0.8441091475248992,-1.64613928456211,0.9690404311054973,137166.4910699167,1.539718987197999,1.337606879767923,-0.1697067964083142,-0.8476557731628418,-1.638262510299683,1.002006053924561,-0.2231176346540451,0.1210999190807343,0.248804047703743,XTrueNorthZVertical,-0.4777643040543723,0.3973162266264305,0.5063874884674208,0.597873566751243,0.9589574933052063,0.1688933670520782,-0.2277621775865555,38.94841384887695,-0.5941371917724609,-5.074658393859863,2,10.3.35.51,10.83.46.32,4,0
2015-02-27 17:05:22.328,146,1425085517.429522,37.78755269940598,-122.3959980499769,12.35252,-1,-1,10,163.4201486794673,-9999,1425085522.303119,35.44048690795898,-10.42596435546875,-6.412216186523438,207.7161560058594,193.9429016113281,10,137166.557675875,0.601898193359375,0.163909912109375,0.0024871826171875,137166.5428534583,-0.3050904028989325,-1.39887622894094,1.213812365843007,137166.5428534583,1.581081021448081,1.263323827639482,-0.1211498662163923,-0.3086370229721069,-1.390999555587769,1.246777653694153,-0.3311101496219635,0.0708882212638855,0.3278065919876099,XTrueNorthZVertical,-0.4532780560803679,0.3798984709545056,0.5473970857694028,0.5920917079296211,0.9461156725883484,0.1208537220954895,-0.3004323244094849,38.40561676025391,-2.228762626647949,-7.945159435272217,2,10.3.35.51,10.83.46.32,4,0
