loggingTime,loggingSample,locationTimestamp_since1970,locationLatitude,locationLongitude,locationAltitude,locationSpeed,locationCourse,locationVerticalAccuracy,locationHorizontalAccuracy,locationFloor,locationHeadingTimestamp_since1970,locationHeadingX,locationHeadingY,locationHeadingZ,locationTrueHeading,locationMagneticHeading,locationHeadingAccuracy,accelerometerTimestamp_sinceReboot,accelerometerAccelerationX,accelerometerAccelerationY,accelerometerAccelerationZ,gyroTimestamp_sinceReboot,gyroRotationX,gyroRotationY,gyroRotationZ,motionTimestamp_sinceReboot,motionYaw,motionRoll,motionPitch,motionRotationRateX,motionRotationRateY,motionRotationRateZ,motionUserAccelerationX,motionUserAccelerationY,motionUserAccelerationZ,motionAttitudeReferenceFrame,motionQuaternionX,motionQuaternionY,motionQuaternionZ,motionQuaternionW,motionGravityX,motionGravityY,motionGravityZ,motionMagneticFieldX,motionMagneticFieldY,motionMagneticFieldZ,motionMagneticFieldCalibrationAccuracy,IP_en0,IP_pdp_ip0,deviceOrientation,state
2015-03-03 08:11:26.841,100,1425399086.124266,37.77914992537143,-122.4389125128486,62.22195,1.07,172.6171875,4,30,-9999,1425399086.786277,24.09578323364258,-35.79254150390625,12.90799713134766,226.6620178222656,212.8847808837891,10,220281.8982871667,0.6522979736328125,-0.774322509765625,-0.2560882568359375,220281.8874347917,0.1298767737248753,-2.964500963215012,-0.1211088484680074,220281.8874347917,0.1176124036308402,0.9884377051342117,0.9446120620929923,0.1164119616150856,-2.949625492095947,-0.0902743935585022,-0.03817744553089142,-0.05275220796465874,0.1155263856053352,XTrueNorthZVertical,-0.3749840596480555,-0.4452219431205852,-0.2615008046490001,-0.7699231918469689,0.4894561469554901,-0.8102696537971497,-0.3223287463188171,22.62519645690918,-36.45894622802734,14.1025857925415,2,192.168.1.8,10.83.46.32,1,0
2015-03-03 08:11:26.847,101,1425399086.124266,37.77914992537143,-122.4389125128486,62.22195,1.07,172.6171875,4,30,-9999,1425399086.836315,25.34053802490234,-35.97944641113281,9.696136474609375,231.8156890869141,218.0384521484375,10,220281.9472576667,0.2472991943359375,-0.754730224609375,-0.2863311767578125,220281.9392095834,0.03447062556944062,-2.33794171671316,0.7867683597782941,220281.8874347917,0.1176124036308402,0.9884377051342117,0.9446120620929923,0.1164119616150856,-2.949625492095947,-0.0902743935585022,-0.03817744553089142,-0.05275220796465874,0.1155263856053352,XTrueNorthZVertical,-0.3749840596480555,-0.4452219431205852,-0.2615008046490001,-0.7699231918469689,0.4894561469554901,-0.8102696537971497,-0.3223287463188171,22.62519645690918,-36.45894622802734,14.1025857925415,2,192.168.1.8,10.83.46.32,1,0
2015-03-03 08:11:26.882,102,1425399086.124266,37.77914992537143,-122.4389125128486,62.22195,1.07,172.6171875,4,30,-9999,1425399086.836315,25.34053802490234,-35.97944641113281,9.696136474609375,231.8156890869141,218.0384521484375,10,220281.9963394584,0.0533905029296875,-0.80706787109375,-0.26708984375,220281.9909857083,0.1258391551962061,-0.6333377904244309,0.6053492989482432,220281.9392095834,0.14650503659829,0.8269426156977804,0.9695448052373951,0.02100595459342003,-2.323066234588623,0.8176025152206421,-0.08743326365947723,0.0526556484401226,0.08615978062152863,XTrueNorthZVertical,-0.3995751815446951,-0.3857749119326364,-0.2460327982238248,-0.7943458123620655,0.4162601828575134,-0.8246282935142517,-0.3830347955226898,24.59426879882812,-36.79306030273438,9.023852348327637,2,192.168.1.8,10.83.46.32,1,0
2015-03-03 08:11:26.948,103,1425399086.124266,37.77914992537143,-122.4389125128486,62.22195,1.07,172.6171875,4,30,-9999,1425399086.945255,24.77784729003906,-36.84591674804688,5.985031127929688,234.9364624023438,221.1592254638672,10,220282.0453960834,0.0941314697265625,-0.9576873779296875,-0.236846923828125,220282.0427619167,0.3383335775219556,1.206245526237765,1.029463827813869,220282.0427619167,0.2295521927827102,0.7034309405745431,1.028685618361319,0.3248691558837891,1.221120595932007,1.060297250747681,-0.2970508635044098,-0.04321972653269768,0.1087449789047241,XTrueNorthZVertical,-0.4244577875917711,-0.3508540934732371,-0.2619732957508799,-0.7925320181300558,0.3337329924106598,-0.8566215634346008,-0.3934739828109741,23.00935173034668,-38.23126220703125,6.998405456542969,2,192.168.1.8,10.83.46.32,1,0
2015-03-03 08:11:26.982,104,1425399086.124266,37.77914992537143,-122.4389125128486,62.22195,1.07,172.6171875,4,30,-9999,1425399086.945255,24.77784729003906,-36.84591674804688,5.985031127929688,234.9364624023438,221.1592254638672,10,220282.0944369167,0.45684814453125,-0.9681396484375,-0.209930419921875,220282.0427619167,0.3383335775219556,1.206245526237765,1.029463827813869,220282.0427619167,0.2295521927827102,0.7034309405745431,1.028685618361319,0.3248691558837891,1.221120595932007,1.060297250747681,-0.2970508635044098,-0.04321972653269768,0.1087449789047241,XTrueNorthZVertical,-0.4244577875917711,-0.3508540934732371,-0.2619732957508799,-0.7925320181300558,0.3337329924106598,-0.8566215634346008,-0.3934739828109741,23.00935173034668,-38.23126220703125,6.998405456542969,2,192.168.1.8,10.83.46.32,1,0
2015-03-03 08:11:27.045,105,1425399086.124266,37.77914992537143,-122.4389125128486,62.22195,1.07,172.6171875,4,30,-9999,1425399087.017778,20.65141296386719,-38.47689819335938,8.448005676269531,226.8513641357422,213.0741271972656,10,220282.1435165,0.2457275390625,-0.89276123046875,-0.3360137939453125,220282.1463130417,0.1136101857866713,2.084665243350591,1.865161647351862,220282.0945368333,0.3285039035458046,0.7320586317444947,1.087258279302029,0.1421024203300476,2.849696397781372,1.713071942329407,0.1460982263088226,-0.08278407156467438,0.1358730047941208,XTrueNorthZVertical,-0.4263937801578092,-0.3811648377233728,-0.3133073258299229,-0.7581162484140914,0.3107499182224274,-0.8853555917739868,-0.3458034098148346,19.12596893310547,-39.71955871582031,9.828084945678711,2,192.168.1.8,10.83.46.32,1,0
2015-03-03 08:11:27.080,106,1425399086.124266,37.77914992537143,-122.4389125128486,62.22195,1.07,172.6171875,4,30,-9999,1425399087.068554,15.74060821533203,-39.83607482910156,10.64472198486328,216.4434967041016,202.666259765625,10,220282.1925725417,0.3360595703125,-0.9315643310546875,-0.2049407958984375,220282.1463130417,0.1136101857866713,2.084665243350591,1.865161647351862,220282.1463130417,0.4720060914352227,0.7279516298817396,1.148914287803587,0.1001460552215576,2.099539995193481,1.895994544029236,-0.02671545930206776,0.01955867186188698,-0.03032239712774754,XTrueNorthZVertical,-0.4238293220579505,-0.409295745411147,-0.3715052967234995,-0.7175162220192106,0.2724429965019226,-0.9123198986053467,-0.3056913912296295,14.68857383728027,-40.98158645629883,12.0329761505127,2,192.168.1.8,10.83.46.32,1,0
2015-03-03 08:11:27.150,107,1425399086.124266,37.77914992537143,-122.4389125128486,62.22195,1.07,172.6171875,4,30,-9999,1425399087.120742,10.18186187744141,-40.92340087890625,11.70980072021484,206.0519409179688,192.2747039794922,10,220282.24165725,0.3910980224609375,-1.152740478515625,-0.1688385009765625,220282.1980892083,-0.1431979054974516,1.92390032835465,2.059278660259411,220282.1980892083,0.6813195063722501,0.6304378401829892,1.216534266398075,-0.1566777378320694,1.938763022422791,2.09018874168396,0.1315634995698929,0.006338403094559908,0.07527312636375427,XTrueNorthZVertical,-0.4270662911662186,-0.4213162971299137,-0.4276552972204517,-0.6761789136638773,0.2044960707426071,-0.9379027485847473,-0.2802139222621918,9.854555130004883,-42.00141143798828,13.37184810638428,2,192.168.1.8,10.83.46.32,1,0
2015-03-03 08:11:27.178,108,1425399087.151644,37.7791469497958,-122.438897928337,62.34695,0.98,166.640625,4,30,-9999,1425399087.120742,10.18186187744141,-40.92340087890625,11.70980072021484,206.0519409179688,192.2747039794922,10,220282.290724875,0.1780853271484375,-1.039306640625,-0.2243804931640625,220282.2498641667,-0.5303709279342613,1.326250228117825,1.58577714055881,220282.2498641667,0.9268989599091029,0.4799199321605444,1.242132480405712,-0.5438506603240967,1.341112732887268,1.616686820983887,0.2420684546232224,-0.2062660157680511,0.1174765154719353,XTrueNorthZVertical,-0.4192027329712157,-0.425572039246382,-0.4768482971282795,-0.6448047963601886,0.1490295678377151,-0.9464744925498962,-0.2863150238990784,3.734408378601074,-42.99243927001953,13.33198738098145,2,192.168.1.8,10.83.46.32,1,0
2015-03-03 08:11:27.244,109,1425399087.151644,37.7791469497958,-122.438897928337,62.34695,0.98,166.640625,4,30,-9999,1425399087.176902,4.776565551757812,-41.48403930664062,11.42688751220703,196.0419158935547,182.2646789550781,10,220282.3397775,0.1656951904296875,-1.0040283203125,-0.084014892578125,220282.3534165417,0.0339387922997518,0.6787649270345666,2.079384993857291,220282.3016405,1.257796769717313,0.2156512981129494,1.262915655778708,-0.09047339111566544,0.7765874266624451,2.29188060760498,0.09811832010746002,-0.05988520756363869,0.09933464974164963,XTrueNorthZVertical,-0.4235083083766678,-0.4154882556700793,-0.523436390895772,-0.6115754921710657,0.06484554708003998,-0.9529779553413391,-0.2960204482078552,-0.6346817016601562,-43.37474060058594,12.58040332794189,2,192.168.1.8,10.83.46.32,1,0
2015-03-03 08:11:27.277,110,1425399087.151644,37.7791469497958,-122.438897928337,62.34695,0.98,166.640625,4,30,-9999,1425399087.250916,-2.69195556640625,-41.34811401367188,10.42837524414062,183.0574798583984,169.2802429199219,10,220282.3888341667,0.0436859130859375,-1.072021484375,-0.0652313232421875,220282.3534165417,0.0339387922997518,0.6787649270345666,2.079384993857291,220282.3534165417,1.623162653534591,-0.09758539243223982,1.271937938542513,0.02045938745141029,0.6936271190643311,2.110294103622437,0.1802825033664703,-0.03596494719386101,0.2292774021625519,XTrueNorthZVertical,-0.436827580552479,-0.4033204067231825,-0.562927380990498,-0.5741315998293395,-0.02868643030524254,-0.9556732177734375,-0.2930286228656769,-5.42202091217041,-43.07980728149414,12.44062614440918,2,192.168.1.8,10.83.46.32,1,0
2015-03-03 08:11:27.345,111,1425399087.151644,37.7791469497958,-122.438897928337,62.34695,0.98,166.640625,4,30,-9999,1425399087.301974,-7.773277282714844,-40.26078796386719,10.29524993896484,174.6682586669922,160.8910217285156,10,220282.43792375,0.097198486328125,-1.05126953125,-0.11669921875,220282.4051914167,-0.1559800134653959,0.5509457115678865,1.51905297102742,220282.4051914167,1.919326964618197,-0.347410641960488,1.245936144584517,-0.1694592833518982,0.5658077597618103,1.549961686134338,0.1462352722883224,-0.1422857195138931,0.2185191661119461,XTrueNorthZVertical,-0.4447019018229122,-0.3901105778711624,-0.5972790945762594,-0.5415825463697852,-0.108668141067028,-0.9476953744888306,-0.3001078963279724,-11.05541229248047,-42.11246871948242,12.0147819519043,2,192.168.1.8,10.83.46.32,1,0
2015-03-03 08:11:27.378,112,1425399087.151644,37.7791469497958,-122.438897928337,62.34695,0.98,166.640625,4,30,-9999,1425399087.354324,-11.814453125,-39.22445678710938,9.679496765136719,167.9166259765625,154.1393890380859,10,220282.4869809167,0.07794189453125,-0.909423828125,-0.1304931640625,220282.4569676667,-0.3726034007452042,0.1807652547824364,1.051734778745766,220282.4569676667,2.073101066944684,-0.4744692486674495,1.208545334206092,-0.3860825300216675,0.1956271827220917,1.082643151283264,0.2606134414672852,-0.1107053980231285,0.1882346868515015,XTrueNorthZVertical,-0.4476500431307064,-0.37681911358341,-0.6204168193865067,-0.5222066454457704,-0.1619043350219727,-0.9351015090942383,-0.315233588218689,-13.86279678344727,-41.45830535888672,11.3608512878418,2,192.168.1.8,10.83.46.32,1,0
2015-03-03 08:11:27.441,113,1425399087.151644,37.7791469497958,-122.438897928337,62.34695,0.98,166.640625,4,30,-9999,1425399087.407058,-14.79844665527344,-38.12013244628906,9.196891784667969,163.1800689697266,149.40283203125,10,220282.5360570417,-0.1250762939453125,-0.7072296142578125,-0.1061248779296875,220282.5087437917,-0.5407330214196506,-0.6427062585071117,1.031236161519317,220282.5087437917,2.162007984470592,-0.5680305821586997,1.161252832769354,-0.5542120337486267,-0.627844512462616,1.062144160270691,0.2364173382520676,0.1103721559047699,0.2178007364273071,XTrueNorthZVertical,-0.4544673381797467,-0.3544427008944093,-0.6359470826912955,-0.5132262017171638,-0.2142158001661301,-0.917302668094635,-0.3356596231460571,-15.86485195159912,-40.95435333251953,10.5396728515625,2,192.168.1.8,10.83.46.32,1,0
2015-03-03 08:11:27.478,114,1425399087.151644,37.7791469497958,-122.438897928337,62.34695,0.98,166.640625,4,30,-9999,1425399087.460837,-16.70819854736328,-37.50851440429688,8.897346496582031,161.6365356445312,147.8592987060547,10,220282.585103375,-0.297760009765625,-0.6797332763671875,-0.0625,220282.560518875,-0.4513267088840555,-1.460802980084662,0.4437928924763304,220282.560518875,2.203102099629631,-0.6591668119401886,1.115230703777128,-0.4648055732250214,-1.44594132900238,0.4747005999088287,0.05709172040224075,0.2265340387821198,0.2119335234165192,XTrueNorthZVertical,-0.4713539697409562,-0.322376396508691,-0.6386220072901941,-0.5158108585424126,-0.2694635391235352,-0.8980123400688171,-0.3477977812290192,-17.65709495544434,-40.34906387329102,10.01086616516113,2,192.168.1.8,10.83.46.32,1,0
2015-03-03 08:11:27.539,115,1425399087.151644,37.7791469497958,-122.438897928337,62.34695,0.98,166.640625,4,30,-9999,1425399087.460837,-16.70819854736328,-37.50851440429688,8.897346496582031,161.6365356445312,147.8592987060547,10,220282.6341717917,-0.34136962890625,-0.8623809814453125,-0.0021209716796875,220282.6122949167,-0.1049218890463968,-1.34756883264391,-0.3290862832688735,220282.6122949167,2.187450932855784,-0.7223539430760902,1.105646093603227,-0.1184006258845329,-1.332707405090332,-0.2981788218021393,-0.01852932199835777,0.1461803317070007,0.3122691512107849,XTrueNorthZVertical,-0.4927143728548161,-0.2982737486041521,-0.6220409113606095,-0.5304059182095162,-0.2965646684169769,-0.8937541842460632,-0.3365306258201599,-17.31937789916992,-40.33618927001953,10.63336086273193,2,192.168.1.8,10.83.46.32,1,0
2015-03-03 08:11:27.570,116,1425399087.151644,37.7791469497958,-122.438897928337,62.34695,0.98,166.640625,4,30,-9999,1425399087.535535,-16.63999938964844,-37.81430053710938,9.263465881347656,164.2698059082031,150.4925689697266,10,220282.6833294167,-0.206817626953125,-0.7805938720703125,-0.0106658935546875,220282.6640711667,0.1736745883801004,0.04718269240071585,-0.7158574346971902,220282.6640711667,2.141278767032978,-0.7092473673252295,1.124398372962582,0.160195991396904,0.06204400584101677,-0.6849503517150879,-0.03759337961673737,0.06207272037863731,0.3144122958183289,XTrueNorthZVertical,-0.4975292667031188,-0.2977566963163699,-0.6074842210221402,-0.5429258840613946,-0.2811627089977264,-0.9020079970359802,-0.3276111483573914,-16.51757431030273,-40.53488159179688,11.1413688659668,2,192.168.1.8,10.83.46.32,1,0
2015-03-03 08:11:27.640,117,1425399087.151644,37.7791469497958,-122.438897928337,62.34695,0.98,166.640625,4,30,-9999,1425399087.588026,-16.06024932861328,-38.29000854492188,9.662857055664062,166.3169250488281,152.5396881103516,10,220282.7323203333,-0.137847900390625,-0.925628662109375,-0.1028289794921875,220282.7158460834,0.6087395030159141,1.821433074884979,-0.4996620174045577,220282.7158460834,2.120868402642355,-0.6386568233344839,1.15606922168375,0.5952610373497009,1.836294293403625,-0.4687552154064178,0.0377918928861618,0.03152880445122719,0.2244137227535248,XTrueNorthZVertical,-0.4828315820794697,-0.3242127157340526,-0.6100753227358394,-0.5381151314485162,-0.2401997298002243,-0.9152263402938843,-0.3235195577144623,-14.99903869628906,-41.03564071655273,11.45174407958984,2,192.168.1.8,10.83.46.32,1,0
2015-03-03 08:11:27.668,118,1425399087.151644,37.7791469497958,-122.438897928337,62.34695,0.98,166.640625,4,30,-9999,1425399087.643538,-15.51460266113281,-38.42591857910156,9.929130554199219,165.1540069580078,151.3767700195312,10,220282.781371,0.1210784912109375,-0.75579833984375,-0.20758056640625,220282.7676224167,0.8346373487919233,2.058212596875052,-0.2650724127788568,220282.7158460834,2.120868402642355,-0.6386568233344839,1.15606922168375,0.5952610373497009,1.836294293403625,-0.4687552154064178,0.0377918928861618,0.03152880445122719,0.2244137227535248,XTrueNorthZVertical,-0.4828315820794697,-0.3242127157340526,-0.6100753227358394,-0.5381151314485162,-0.2401997298002243,-0.9152263402938843,-0.3235195577144623,-14.99903869628906,-41.03564071655273,11.45174407958984,2,192.168.1.8,10.83.46.32,1,0
2015-03-03 08:11:27.745,119,1425399087.151644,37.7791469497958,-122.438897928337,62.34695,0.98,166.640625,4,30,-9999,1425399087.716884,-15.27587890625,-38.66378784179688,9.62957763671875,161.6071166992188,147.8298797607422,10,220282.8304560417,-0.048187255859375,-0.7413330078125,-0.2578582763671875,220282.8193984583,0.4519829117766511,-0.0101367900571686,-0.06538566476751645,220282.8193984583,2.163502979009224,-0.5184686536231895,1.232758978308464,0.4385048151016235,0.004724425263702869,-0.03448018804192543,0.2237449884414673,0.2554648518562317,0.07333056628704071,XTrueNorthZVertical,-0.4471497415867217,-0.39500757668131,-0.6266453833310128,-0.5013399069646463,-0.1643425226211548,-0.9434073567390442,-0.2880522310733795,-15.40097045898438,-40.88214111328125,11.46726989746094,2,192.168.1.8,10.83.46.32,1,0
2015-03-03 08:11:27.767,120,1425399087.151644,37.7791469497958,-122.438897928337,62.34695,0.98,166.640625,4,30,-9999,1425399087.716884,-15.27587890625,-38.66378784179688,9.62957763671875,161.6071166992188,147.8298797607422,10,220282.8795079583,-0.1223907470703125,-0.93609619140625,-0.1465911865234375,220282.871173375,0.4127132699228876,-2.266819070325395,-0.5697990278728845,220282.8193984583,2.163502979009224,-0.5184686536231895,1.232758978308464,0.4385048151016235,0.004724425263702869,-0.03448018804192543,0.2237449884414673,0.2554648518562317,0.07333056628704071,XTrueNorthZVertical,-0.4471497415867217,-0.39500757668131,-0.6266453833310128,-0.5013399069646463,-0.1643425226211548,-0.9434073567390442,-0.2880522310733795,-15.40097045898438,-40.88214111328125,11.46726989746094,2,192.168.1.8,10.83.46.32,1,0
2015-03-03 08:11:27.848,121,1425399087.151644,37.7791469497958,-122.438897928337,62.34695,0.98,166.640625,4,30,-9999,1425399087.820448,-13.19561004638672,-38.52787780761719,12.09256744384766,166.53271484375,152.7554779052734,10,220282.9285778333,-0.3629302978515625,-1.21185302734375,-0.005218505859375,220282.922949625,0.1926583995785122,-1.812311748151457,-0.3753786809171758,220282.871173375,2.145218827314457,-0.5710414842998344,1.256792920483484,0.3992353081703186,-2.251957893371582,-0.5388938784599304,0.04225141182541847,0.06441643834114075,0.05298455059528351,XTrueNorthZVertical,-0.4696788540966924,-0.3866137199733433,-0.6027551085753253,-0.5163505596309971,-0.1669462323188782,-0.9511046409606934,-0.2598631978034973,-14.61380004882812,-40.64043807983398,13.2222900390625,2,192.168.1.8,10.83.46.32,1,0
2015-03-03 08:11:27.866,122,1425399087.151644,37.7791469497958,-122.438897928337,62.34695,0.98,166.640625,4,30,-9999,1425399087.820448,-13.19561004638672,-38.52787780761719,12.09256744384766,166.53271484375,152.7554779052734,10,220282.9777540417,-0.328643798828125,-1.0579833984375,-0.1238861083984375,220282.974726,0.4719078841042969,-0.07814726639506715,-0.301007244315623,220282.922949625,2.118951296657906,-0.6582838966341296,1.280243302901003,0.1791805624961853,-1.79745090007782,-0.3444738388061523,-0.1304819583892822,-0.2315048575401306,0.2254448384046555,XTrueNorthZVertical,-0.5026657964613294,-0.3660836117246841,-0.5674257207351079,-0.5397573098577326,-0.1752583980560303,-0.9580855965614319,-0.226619765162468,-12.28668212890625,-40.69128799438477,15.27396392822266,2,192.168.1.8,10.83.46.32,1,0
2015-03-03 08:11:27.935,123,1425399087.151644,37.7791469497958,-122.438897928337,62.34695,0.98,166.640625,4,30,-9999,1425399087.93141,-9.819435119628906,-38.45991516113281,15.28778076171875,174.4291381835938,160.6519012451172,10,220283.0267044583,-0.180877685546875,-1.051513671875,-0.11346435546875,220283.0265007917,0.3288407398163681,0.6115549969203459,-0.3903312651735347,220282.974726,2.100783040041936,-0.6867151824089955,1.303871857957952,0.4584301710128784,-0.06328649073839188,-0.2701027095317841,-0.1825188845396042,-0.1594672799110413,0.07980295270681381,XTrueNorthZVertical,-0.5162548388222352,-0.3626174991638732,-0.5478601268608025,-0.5493985692472604,-0.1672278195619583,-0.9645866751670837,-0.2039789855480194,-11.03525638580322,-40.723876953125,16.11913681030273,2,192.168.1.8,10.83.46.32,1,0
2015-03-03 08:11:27.964,124,1425399087.151644,37.7791469497958,-122.438897928337,62.34695,0.98,166.640625,4,30,-9999,1425399087.93141,-9.819435119628906,-38.45991516113281,15.28778076171875,174.4291381835938,160.6519012451172,10,220283.075745625,0.015167236328125,-1.155838012695312,-0.1945037841796875,220283.0265007917,0.3288407398163681,0.6115549969203459,-0.3903312651735347,220283.0265007917,2.120170249691916,-0.6767851794761648,1.329799427795261,0.3153631687164307,0.6264156103134155,-0.3594270348548889,-0.1082437485456467,-0.03446893021464348,0.1012571230530739,XTrueNorthZVertical,-0.5123934049609933,-0.3800266588600436,-0.5475074514443979,-0.5415425592906962,-0.1494771987199783,-0.9711005091667175,-0.1860654801130295,-10.13516616821289,-40.41328048706055,17.43795967102051,2,192.168.1.8,10.83.46.32,1,0
2015-03-03 08:11:28.034,125,1425399087.151644,37.7791469497958,-122.438897928337,62.34695,0.98,166.640625,4,30,-9999,1425399088.002029,-9.342010498046875,-38.25604248046875,15.8203125,174.5567626953125,160.7795257568359,10,220283.1248268333,-0.16876220703125,-1.166244506835938,-0.1568450927734375,220283.1300531667,-0.4460006530200061,-1.600894041854427,-0.2927218838482775,220283.078277125,2.100013847296043,-0.6580220274758031,1.348328107483072,0.1092566773295403,-0.5894014239311218,-0.1424366980791092,0.1500989198684692,-0.1804821789264679,-0.01993444748222828,XTrueNorthZVertical,-0.512898759871489,-0.386846473463187,-0.5409530836589704,-0.5428208223468778,-0.1349316835403442,-0.975355863571167,-0.1745693385601044,-9.729086875915527,-40.34303665161133,17.82756042480469,2,192.168.1.8,10.83.46.32,1,0
2015-03-03 08:11:28.060,126,1425399087.151644,37.7791469497958,-122.438897928337,62.34695,0.98,166.640625,4,30,-9999,1425399088.002029,-9.342010498046875,-38.25604248046875,15.8203125,174.5567626953125,160.7795257568359,10,220283.173873625,-0.1197662353515625,-1.251235961914062,-0.148651123046875,220283.1300531667,-0.4460006530200061,-1.600894041854427,-0.2927218838482775,220283.1300531667,2.042561297149393,-0.6612075444606726,1.343850795699738,-0.4594769477844238,-1.586033344268799,-0.2618184983730316,-0.0305948480963707,-0.191886305809021,0.02073841169476509,XTrueNorthZVertical,-0.5241556327705296,-0.3694172714168849,-0.5257262589202145,-0.5589308263977667,-0.1381673514842987,-0.9743582010269165,-0.1775835007429123,-9.211696624755859,-40.34444427490234,18.0971794128418,2,192.168.1.8,10.83.46.32,1,0
2015-03-03 08:11:28.140,127,1425399087.151644,37.7791469497958,-122.438897928337,62.34695,0.98,166.640625,4,30,-9999,1425399088.107538,-6.358016967773438,-38.91862487792969,15.93680572509766,182.5567474365234,168.7795104980469,10,220283.2229532917,-0.1291351318359375,-1.000274658203125,0.00384521484375,220283.18182825,-0.4156621881979324,-1.329174645310842,-0.1711989138307627,220283.18182825,1.939820938526072,-0.6372891898073458,1.329581503899645,-0.4291517734527588,-1.314328193664551,-0.1402147114276886,0.0223733764141798,-0.2801874577999115,0.04334153980016708,XTrueNorthZVertical,-0.5345945117001325,-0.3438202666499326,-0.5072394640083013,-0.5819832250636978,-0.1421396136283875,-0.9710484743118286,-0.1919926702976227,-6.640525817871094,-41.04343414306641,17.64588737487793,2,192.168.1.8,10.83.46.32,1,0
2015-03-03 08:11:28.166,128,1425399088.146103,37.77914208829196,-122.438884517292,62.23874,0.92,157.1484375,4,30,-9999,1425399088.162975,-4.601722717285156,-39.13951110839844,16.18643951416016,186.9436187744141,173.1663818359375,10,220283.2719950833,-0.5216522216796875,-1.076858520507812,-0.1951446533203125,220283.2336043333,0.4935833522164518,-1.752310728791972,0.2769831344381272,220283.2336043333,1.948040464789542,-0.7204010413817791,1.328278911464776,0.48009392619133,-1.737464547157288,0.3079670071601868,-0.05251573398709297,0.07425212860107422,0.3210444748401642,XTrueNorthZVertical,-0.5537360362182747,-0.3211481694863598,-0.4874491657593291,-0.593829590060544,-0.1584217697381973,-0.9707365036010742,-0.1804805099964142,-5.424779891967773,-41.23369216918945,17.61793899536133,2,192.168.1.8,10.83.46.32,1,0
2015-03-03 08:11:28.232,129,1425399088.146103,37.77914208829196,-122.438884517292,62.23874,0.92,157.1484375,4,30,-9999,1425399088.162975,-4.601722717285156,-39.13951110839844,16.18643951416016,186.9436187744141,173.1663818359375,10,220283.32107875,-0.003204345703125,-1.056427001953125,-0.0137176513671875,220283.2853805417,-0.02225177617204807,0.7059262406761757,0.8286798574334161,220283.2853805417,2.085365762102405,-0.893693680036979,1.309019363522643,-0.03574105352163315,0.7207723259925842,0.8596634268760681,-0.210023432970047,-0.133738785982132,-0.02826813422143459,XTrueNorthZVertical,-0.5727600623428427,-0.3014510967125461,-0.4854181696915183,-0.5877434505047824,-0.2017044723033905,-0.9659316539764404,-0.1621463000774384,-4.973435878753662,-40.94065856933594,18.41642761230469,2,192.168.1.8,10.83.46.32,1,0
2015-03-03 08:11:28.262,130,1425399088.146103,37.77914208829196,-122.438884517292,62.23874,0.92,157.1484375,4,30,-9999,1425399088.235409,-6.102241516113281,-38.59585571289062,16.88538360595703,186.0054321289062,172.2281951904297,10,220283.3702550417,-0.5345306396484375,-1.72332763671875,-0.148468017578125,220283.3371554583,0.06396300411319612,0.4758192687972962,0.9285209677521596,220283.3371554583,2.187186411032836,-0.9354131891828618,1.277801781658283,0.05047384649515152,0.4906652271747589,0.959504246711731,0.2048829048871994,-0.1164539977908134,0.1422360837459564,XTrueNorthZVertical,-0.5659517993312936,-0.3065829635810782,-0.5130118593618939,-0.5679122249359236,-0.2324555367231369,-0.9573832750320435,-0.1714108884334564,-8.142391204833984,-40.42873382568359,18.41891670227051,2,192.168.1.8,10.83.46.32,1,0
2015-03-03 08:11:28.337,131,1425399088.146103,37.77914208829196,-122.438884517292,62.23874,0.92,157.1484375,4,30,-9999,1425399088.287714,-8.438285827636719,-38.37496948242188,17.40128707885742,181.7281494140625,167.9509124755859,10,220283.41921,-0.051971435546875,-0.8592071533203125,0.11456298828125,220283.3889318334,-0.06563200716834877,-0.4346172372565714,0.7902736124050563,220283.3889318334,2.285156944822281,-1.038848430345938,1.238584846674451,-0.07912103086709976,-0.4197714030742645,0.8212565779685974,-0.3189977407455444,-0.6204419732093811,0.1273031830787659,XTrueNorthZVertical,-0.5769455838350602,-0.2905580420965924,-0.5234164265004869,-0.555648339993724,-0.2810693979263306,-0.9453234076499939,-0.1654196381568909,-10.00412654876709,-39.94569396972656,18.55521965026855,2,192.168.1.8,10.83.46.32,1,0
2015-03-03 08:11:28.355,132,1425399088.146103,37.77914208829196,-122.438884517292,62.23874,0.92,157.1484375,4,30,-9999,1425399088.344348,-10.68906402587891,-37.79731750488281,17.40128707885742,178.4537658691406,164.6765289306641,10,220283.4682829583,-0.203277587890625,-0.976593017578125,-0.07391357421875,220283.440707875,0.01099273003152007,0.8744571997268971,0.6482229967052109,220283.440707875,2.310245345466256,-1.040975609446288,1.209618195153789,-0.002496143337339163,0.8893028497695923,0.679205596446991,0.2690392136573792,-0.02835552021861076,0.2910005152225494,XTrueNorthZVertical,-0.573452147701515,-0.2861086009187678,-0.5387202685296181,-0.5468774916325463,-0.3049278855323792,-0.9354811310768127,-0.1785890012979507,-10.76551246643066,-39.75626754760742,18.53592300415039,2,192.168.1.8,10.83.46.32,1,0
2015-03-03 08:11:28.437,133,1425399088.146103,37.77914208829196,-122.438884517292,62.23874,0.92,157.1484375,4,30,-9999,1425399088.416674,-13.40023803710938,-36.6929931640625,16.15316009521484,173.2379760742188,159.4607391357422,10,220283.517343875,-0.088226318359375,-0.9870147705078125,-0.132080078125,220283.4924829583,-0.2669454139735096,-0.246963449998536,0.83482616691321,220283.4924829583,2.35752846424343,-1.066848610519477,1.172207230173854,-0.2804341614246368,-0.2321179509162903,0.8658084869384766,0.129007562994957,-0.08714903891086578,0.05306342616677284,XTrueNorthZVertical,-0.5734507041478689,-0.2782907792422109,-0.5554798112320727,-0.5339950629142202,-0.3398687839508057,-0.9216095209121704,-0.187417060136795,-13.61662864685059,-39.20783615112305,17.81488800048828,2,192.168.1.8,10.83.46.32,1,0
2015-03-03 08:11:28.453,134,1425399088.146103,37.77914208829196,-122.438884517292,62.23874,0.92,157.1484375,4,30,-9999,1425399088.416674,-13.40023803710938,-36.6929931640625,16.15316009521484,173.2379760742188,159.4607391357422,10,220283.566499625,-0.4262847900390625,-0.8754425048828125,-0.0815887451171875,220283.544259,-0.8606649547574857,-1.337688238683607,1.092167156731458,220283.544259,2.342171367326324,-1.098076381741217,1.113655317910658,-0.8741535544395447,-1.322842836380005,1.123149156570435,0.2330519109964371,0.01471920032054186,0.1104209646582603,XTrueNorthZVertical,-0.5835469307946216,-0.242877891113381,-0.5597520495033965,-0.5358740229264203,-0.3929792642593384,-0.8973180651664734,-0.2009666264057159,-14.73592662811279,-39.02217102050781,17.32513046264648,2,192.168.1.8,10.83.46.32,1,0
2015-03-03 08:11:28.537,135,1425399088.146103,37.77914208829196,-122.438884517292,62.23874,0.92,157.1484375,4,30,-9999,1425399088.520728,-16.11141204833984,-35.82650756835938,15.30442810058594,171.7763061523438,157.9990692138672,10,220283.6154729583,-0.5705413818359375,-0.807342529296875,0.009368896484375,220283.5960352083,-0.6280623346210931,-1.20769641639964,1.176539029542367,220283.5960352083,2.321725690520652,-1.143450352055645,1.039864443890914,-0.6415507793426514,-1.192851185798645,1.207520723342896,-0.1260360330343246,-0.02117880620062351,0.08042989671230316,XTrueNorthZVertical,-0.597192926532761,-0.1960437053470657,-0.5622296861916083,-0.5374246643577302,-0.460801750421524,-0.8623356223106384,-0.2098549455404282,-15.40096378326416,-38.94738006591797,16.91003799438477,2,192.168.1.8,10.83.46.32,1,0
2015-03-03 08:11:28.551,136,1425399088.146103,37.77914208829196,-122.438884517292,62.23874,0.92,157.1484375,4,30,-9999,1425399088.520728,-16.11141204833984,-35.82650756835938,15.30442810058594,171.7763061523438,157.9990692138672,10,220283.6645182084,-0.69097900390625,-0.9260711669921875,-0.1480560302734375,220283.6478101667,-0.6945790439035661,0.6252186112091064,1.169529589553278,220283.5960352083,2.321725690520652,-1.143450352055645,1.039864443890914,-0.6415507793426514,-1.192851185798645,1.207520723342896,-0.1260360330343246,-0.02117880620062351,0.08042989671230316,XTrueNorthZVertical,-0.597192926532761,-0.1960437053470657,-0.5622296861916083,-0.5374246643577302,-0.460801750421524,-0.8623356223106384,-0.2098549455404282,-15.40096378326416,-38.94738006591797,16.91003799438477,2,192.168.1.8,10.83.46.32,1,0
2015-03-03 08:11:28.639,137,1425399088.146103,37.77914208829196,-122.438884517292,62.23874,0.92,157.1484375,4,30,-9999,1425399088.626654,-20.93695068359375,-34.92607116699219,11.06077575683594,164.1595611572266,150.38232421875,10,220283.713606125,-0.1261749267578125,-0.66729736328125,-0.1881103515625,220283.6995865,-1.370582272887721,3.279108438585452,0.8370863917303601,220283.6995865,2.283852013743194,-1.015909230124785,0.9068148083691265,-1.384069204330444,3.293953895568848,0.868066668510437,0.1132105737924576,-0.01901949010789394,0.1773194372653961,XTrueNorthZVertical,-0.5568014992619481,-0.1662387208140487,-0.625726675218945,-0.5203872806317469,-0.5237940549850464,-0.787544846534729,-0.3246735632419586,-20.75033950805664,-37.84736633300781,13.30555629730225,2,192.168.1.8,10.83.46.32,1,0
2015-03-03 08:11:28.652,138,1425399088.146103,37.77914208829196,-122.438884517292,62.23874,0.92,157.1484375,4,30,-9999,1425399088.626654,-20.93695068359375,-34.92607116699219,11.06077575683594,164.1595611572266,150.38232421875,10,220283.7626507083,-0.0738525390625,-0.85162353515625,-0.54998779296875,220283.7513625833,-0.8657244281964183,1.477820845766377,-1.046125096225623,220283.7513625833,2.202518741948107,-0.8214098378255228,0.8621997688094173,-0.8792112469673157,1.492666125297546,-1.015145063400269,0.5013499855995178,-0.05215594545006752,-0.04814277589321136,XTrueNorthZVertical,-0.4968231025766868,-0.177533893835829,-0.667321439765029,-0.5256716019698957,-0.4764323532581329,-0.7592759132385254,-0.4432970285415649,-22.7774543762207,-37.78960418701172,9.652495384216309,2,192.168.1.8,10.83.46.32,1,0
2015-03-03 08:11:28.734,139,1425399088.146103,37.77914208829196,-122.438884517292,62.23874,0.92,157.1484375,4,30,-9999,1425399088.678738,-21.94298553466797,-35.04498291015625,7.349662780761719,160.9165344238281,147.1392974853516,10,220283.811721875,-0.517333984375,-0.73974609375,-0.4900360107421875,220283.8031375,-0.7787421248850133,-1.692534746544599,-1.07511227311059,220283.7513625833,2.202518741948107,-0.8214098378255228,0.8621997688094173,-0.8792112469673157,1.492666125297546,-1.015145063400269,0.5013499855995178,-0.05215594545006752,-0.04814277589321136,XTrueNorthZVertical,-0.4968231025766868,-0.177533893835829,-0.667321439765029,-0.5256716019698957,-0.4764323532581329,-0.7592759132385254,-0.4432970285415649,-22.7774543762207,-37.78960418701172,9.652495384216309,2,192.168.1.8,10.83.46.32,1,0
2015-03-03 08:11:28.748,140,1425399088.146103,37.77914208829196,-122.438884517292,62.23874,0.92,157.1484375,4,30,-9999,1425399088.678738,-21.94298553466797,-35.04498291015625,7.349662780761719,160.9165344238281,147.1392974853516,10,220283.8607806667,-0.3996734619140625,-0.9964599609375,-0.24298095703125,220283.85491375,-0.7352889232748444,-1.280255305563285,-2.209727554456821,220283.8031375,2.100824209066706,-0.7807845273347681,0.8800783173132557,-0.7922288179397583,-1.677689671516418,-1.044132590293884,-0.02310381084680557,-0.009637248702347279,-0.01206530630588531,XTrueNorthZVertical,-0.4945872178776275,-0.1705903671686777,-0.6453111425783261,-0.5566470655699927,-0.4484080374240875,-0.7707887887954712,-0.4525648355484009,-21.17668914794922,-39.52682113647461,5.405134201049805,2,192.168.1.8,10.83.46.32,1,0
2015-03-03 08:11:28.832,141,1425399088.146103,37.77914208829196,-122.438884517292,62.23874,0.92,157.1484375,4,30,-9999,1425399088.806172,-14.951904296875,-39.56419372558594,4.187736511230469,175.4090423583984,161.6318054199219,10,220283.9098700834,-0.4931793212890625,-0.739013671875,-0.33013916015625,220283.906690125,-0.04892786186304477,0.7487211088648771,-2.226707603251057,220283.906690125,1.798281963211125,-0.6210802847542088,0.9664360860901904,-0.06241428479552269,0.7635658979415894,-2.195728778839111,-0.1996090561151505,0.1100209504365921,0.1474053859710693,XTrueNorthZVertical,-0.4871152195738453,-0.177932030502616,-0.5716602916968355,-0.6358171766159932,-0.3306643664836884,-0.8228657841682434,-0.4621179103851318,-15.20171546936035,-42.22658157348633,5.08537483215332,2,192.168.1.8,10.83.46.32,1,0
2015-03-03 08:11:28.845,142,1425399088.146103,37.77914208829196,-122.438884517292,62.23874,0.92,157.1484375,4,30,-9999,1425399088.806172,-14.951904296875,-39.56419372558594,4.187736511230469,175.4090423583984,161.6318054199219,10,220283.958918,-0.1855010986328125,-0.7919464111328125,-0.35369873046875,220283.906690125,-0.04892786186304477,0.7487211088648771,-2.226707603251057,220283.906690125,1.798281963211125,-0.6210802847542088,0.9664360860901904,-0.06241428479552269,0.7635658979415894,-2.195728778839111,-0.1996090561151505,0.1100209504365921,0.1474053859710693,XTrueNorthZVertical,-0.4871152195738453,-0.177932030502616,-0.5716602916968355,-0.6358171766159932,-0.3306643664836884,-0.8228657841682434,-0.4621179103851318,-15.20171546936035,-42.22658157348633,5.08537483215332,2,192.168.1.8,10.83.46.32,1,0
2015-03-03 08:11:28.932,143,1425399088.146103,37.77914208829196,-122.438884517292,62.23874,0.92,157.1484375,4,30,-9999,1425399088.860977,-10.10930633544922,-41.22920227050781,4.021316528320312,182.0848388671875,168.3076019287109,10,220284.0079967084,-0.25592041015625,-1.224090576171875,-0.519683837890625,220284.0102410833,0.8966064441969771,-1.074750882150667,-0.6594748523107956,220283.9584650834,1.632969617421997,-0.4552034768609386,1.023654958911069,0.2855390310287476,0.128434032201767,-1.909990072250366,0.005274792201817036,0.05662140995264053,0.09654448926448822,XTrueNorthZVertical,-0.4701022491093917,-0.2129973298164577,-0.5432920258874929,-0.662170524323242,-0.2287244945764542,-0.8540152311325073,-0.467272013425827,-8.468179702758789,-44.14823913574219,4.388626098632812,2,192.168.1.8,10.83.46.32,1,0
2015-03-03 08:11:28.944,144,1425399088.146103,37.77914208829196,-122.438884517292,62.23874,0.92,157.1484375,4,30,-9999,1425399088.935159,-4.652862548828125,-42.75823974609375,4.620414733886719,190.1469268798828,176.3696899414062,10,220284.0570342084,-0.73138427734375,-1.070159912109375,-0.941192626953125,220284.0102410833,0.8966064441969771,-1.074750882150667,-0.6594748523107956,220284.0102410833,1.521570734166051,-0.3785312715417826,1.076728490155932,0.8831202983856201,-1.059906482696533,-0.6284964680671692,-0.08067276328802109,-0.3436794281005859,-0.07904280722141266,XTrueNorthZVertical,-0.476107823096626,-0.2302190849231661,-0.5115216419495358,-0.6772489493108758,-0.1752476394176483,-0.8804111480712891,-0.4406410157680511,-4.994565486907959,-44.58864974975586,5.19074821472168,2,192.168.1.8,10.83.46.32,1,0
2015-03-03 08:11:29.034,145,1425399088.146103,37.77914208829196,-122.438884517292,62.23874,0.92,157.1484375,4,30,-9999,1425399088.986947,-3.680923461914062,-42.67330932617188,6.034965515136719,193.3725891113281,179.5953521728516,10,220284.1061035834,-0.07855224609375,-0.9186553955078125,0.7184906005859375,220284.0620174583,0.4316877600574842,0.7340710597083512,0.3256382886055478,220284.0620174583,1.593255137303628,-0.4897892821527766,1.086358270250548,0.418201744556427,0.7489153742790222,0.356616348028183,-0.512295126914978,-0.1852231174707413,-0.530234158039093,XTrueNorthZVertical,-0.4989709230369382,-0.2134216415631615,-0.506218567360034,-0.6702402544895436,-0.2190891355276108,-0.8849368095397949,-0.4109584391117096,-4.210307121276855,-44.50310134887695,6.464111328125,2,192.168.1.8,10.83.46.32,1,0
2015-03-03 08:11:29.042,146,1425399088.146103,37.77914208829196,-122.438884517292,62.23874,0.92,157.1484375,4,30,-9999,1425399088.986947,-3.680923461914062,-42.67330932617188,6.034965515136719,193.3725891113281,179.5953521728516,10,220284.1551487083,-0.010955810546875,-0.7376556396484375,-0.4843902587890625,220284.1137923333,1.468236927951509,2.692937894227414,-0.1305550808545185,220284.1137923333,1.64779346726612,-0.4087354376143589,1.168602712132397,1.454751014709473,2.707782030105591,-0.09957729279994965,0.07702444493770599,0.00154914939776063,1.077683448791504,XTrueNorthZVertical,-0.4911678274208094,-0.2813498481675891,-0.5232676932231284,-0.6370144152794694,-0.155576691031456,-0.9202045202255249,-0.3591928482055664,-5.455785274505615,-43.83078384399414,9.441089630126953,2,192.168.1.8,10.83.46.32,1,0
2015-03-03 08:11:29.137,147,1425399088.146103,37.77914208829196,-122.438884517292,62.23874,0.92,157.1484375,4,30,-9999,1425399089.092841,-5.386070251464844,-41.41609191894531,10.32854461669922,185.1230010986328,171.3457641601562,10,220284.2042169583,-0.213165283203125,-0.947998046875,-0.2737884521484375,220284.2173447083,0.4921564305043873,0.4204351055035724,-0.3466564885606712,220284.1655687084,1.71497566048694,-0.4229717849105913,1.208025829153138,1.280626177787781,-0.1385388970375061,-0.09346381574869156,0.1472494453191757,-0.04950351640582085,0.02008002251386642,XTrueNorthZVertical,-0.4940020519141378,-0.306864260670679,-0.5305238840726836,-0.6167177007822905,-0.1456625312566757,-0.9349172711372375,-0.3235926032066345,-6.519917488098145,-43.34832382202148,10.88350391387939,2,192.168.1.8,10.83.46.32,1,0
2015-03-03 08:11:29.150,148,1425399089.131641,37.7791416691968,-122.4388711062469,62.19687,0.64,157.1484375,4,30,-9999,1425399089.144356,-5.55657958984375,-40.53263854980469,11.56002807617188,184.2652130126953,170.4879760742188,10,220284.253263125,-0.005645751953125,-0.9942474365234375,-0.00506591796875,220284.2173447083,0.4921564305043873,0.4204351055035724,-0.3466564885606712,220284.2173447083,1.752598430240274,-0.4505894381331786,1.236387695530967,0.4786597192287445,0.4352630078792572,-0.3155948221683502,-0.02019721642136574,0.1045319363474846,0.0002250797115266323,XTrueNorthZVertical,-0.5014291336675784,-0.3175574887553291,-0.5274840669219764,-0.6078541273943483,-0.1429345011711121,-0.9446045756340027,-0.2954521179199219,-6.51032543182373,-42.94975280761719,12.3681812286377,2,192.168.1.8,10.83.46.32,1,0
2015-03-03 08:11:29.199,149,1425399089.131641,37.7791416691968,-122.4388711062469,62.19687,0.64,157.1484375,4,30,-9999,1425399089.19486,-5.334915161132812,-39.83607482910156,12.80815887451172,184.4306030273438,170.6533660888672,10,220284.3023404584,-0.1744537353515625,-0.9584808349609375,-0.12640380859375,220284.2691197083,0.6276721815213964,-0.4086072081542035,0.05811630025603616,220284.2691197083,1.778024394050583,-0.4793710530000321,1.262461789407363,0.6141756176948547,-0.393779456615448,0.0891776829957962,0.03703201189637184,-0.04763270914554596,0.2501165866851807,XTrueNorthZVertical,-0.5100693447005683,-0.3243394534471365,-0.5206233495756382,-0.6029797063028662,-0.1399677991867065,-0.9528403282165527,-0.2692663669586182,-6.323489665985107,-42.5044059753418,13.9077730178833,2,192.168.1.8,10.83.46.32,1,0
2015-03-03 08:11:29.243,150,1425399089.131641,37.7791416691968,-122.4388711062469,62.19687,0.64,157.1484375,4,30,-9999,1425399089.19486,-5.334915161132812,-39.83607482910156,12.80815887451172,184.4306030273438,170.6533660888672,10,220284.351386,-0.15155029296875,-1.013809204101562,-0.2104339599609375,220284.3208959167,0.6303182983804991,0.3598551149231039,0.04482819168097679,220284.3208959167,1.823924996573686,-0.5234679694278094,1.291515164890153,0.616821825504303,0.3746827244758606,0.07588925957679749,0.0807638093829155,-0.06943158060312271,0.08924511075019836,XTrueNorthZVertical,-0.5192764457610954,-0.3331315191787432,-0.5146551391771477,-0.5954036171606958,-0.1378011554479599,-0.961253821849823,-0.2387507259845734,-6.132657527923584,-42.09823608398438,15.17123508453369,2,192.168.1.8,10.83.46.32,1,0
2015-03-03 08:11:29.303,151,1425399089.131641,37.7791416691968,-122.4388711062469,62.19687,0.64,157.1484375,4,30,-9999,1425399089.298226,-5.471336364746094,-39.39434814453125,14.90502166748047,184.2285919189453,170.4513549804688,10,220284.4004653333,-0.0880584716796875,-0.9898834228515625,0.043487548828125,220284.3726723334,0.1445617102916812,-0.9102634005830125,0.3236289335630831,220284.3726723334,1.9088021023509,-0.614907869160969,1.29779991815832,0.1310654133558273,-0.8954359889030457,0.3546896576881409,0.09036789834499359,-0.02192646451294422,0.1337902247905731,XTrueNorthZVertical,-0.5297164739257504,-0.3305825559616066,-0.5139105026525312,-0.5882275427171758,-0.1555381864309311,-0.9629673361778259,-0.2202312648296356,-6.429867744445801,-41.7989616394043,15.8600492477417,2,192.168.1.8,10.83.46.32,1,0
2015-03-03 08:11:29.341,152,1425399089.131641,37.7791416691968,-122.4388711062469,62.19687,0.64,157.1484375,4,30,-9999,1425399089.298226,-5.471336364746094,-39.39434814453125,14.90502166748047,184.2285919189453,170.4513549804688,10,220284.449516875,-0.18975830078125,-1.055068969726562,-0.007965087890625,220284.4244471667,0.4532495111910927,-0.5784708130144005,0.3244846072213255,220284.4244471667,1.993919775836437,-0.735957593232091,1.297224639875194,0.4397533535957336,-0.5636435151100159,0.3555450439453125,-0.03637716546654701,0.04406512156128883,0.1671520471572876,XTrueNorthZVertical,-0.5467359922900341,-0.317735068428714,-0.5065051767517418,-0.5861541629563185,-0.1813657581806183,-0.962812066078186,-0.2002483606338501,-6.777382850646973,-41.30577850341797,16.96870803833008,2,192.168.1.8,10.83.46.32,1,0
2015-03-03 08:11:29.403,153,1425399089.131641,37.7791416691968,-122.4388711062469,62.19687,0.64,157.1484375,4,30,-9999,1425399089.350874,-5.539535522460938,-38.81668090820312,15.67053985595703,185.1266021728516,171.349365234375,10,220284.4985977084,-0.305816650390625,-0.9211578369140625,-0.0215301513671875,220284.4762234583,0.01778885081729328,-0.6687495771231056,0.2920720725422982,220284.4762234583,2.064135015843206,-0.8315865206562992,1.289460330647541,0.004292805679142475,-0.6539223790168762,0.323132187128067,0.0104736965149641,-0.00177800829987973,0.1071365550160408,XTrueNorthZVertical,-0.5591690741518648,-0.3062785191037961,-0.5030613022551343,-0.5834832964388981,-0.2051758468151093,-0.9606853723526001,-0.1870468258857727,-7.077686309814453,-40.97947311401367,17.62459373474121,2,192.168.1.8,10.83.46.32,1,0
2015-03-03 08:11:29.437,154,1425399089.131641,37.7791416691968,-122.4388711062469,62.19687,0.64,157.1484375,4,30,-9999,1425399089.402357,-5.727096557617188,-38.22203063964844,15.8203125,185.3205871582031,171.5433502197266,10,220284.5476469584,-0.3468475341796875,-0.8983154296875,0.0483856201171875,220284.5279995833,0.1686420128681777,-0.4537187601751647,0.09555235569928001,220284.5279995833,2.097188372584906,-0.8927307773600097,1.284623936370099,0.1551461070775986,-0.438891738653183,0.1266121864318848,-0.1137648597359657,0.03356537595391273,0.2595765292644501,XTrueNorthZVertical,-0.5691146911945575,-0.2959262286414666,-0.4970112917513334,-0.5843936405731467,-0.2198380380868912,-0.9593313932418823,-0.1770722717046738,-7.116645812988281,-40.90297698974609,17.78586196899414,2,192.168.1.8,10.83.46.32,1,0
2015-03-03 08:11:29.529,155,1425399089.131641,37.7791416691968,-122.4388711062469,62.19687,0.64,157.1484375,4,30,-9999,1425399089.506213,-5.590682983398438,-37.64439392089844,16.38613891601562,186.8291625976562,173.0519256591797,10,220284.5967458333,-0.2338714599609375,-0.990020751953125,0.0535430908203125,220284.5797746667,0.2645269973876086,0.1204971203656162,-0.02431119864300634,220284.5797746667,2.138538187320534,-0.9368932370492087,1.289402941426639,0.251031219959259,0.1353239864110947,0.006748288404196501,-0.05230218172073364,-0.03469189256429672,0.1798424273729324,XTrueNorthZVertical,-0.5742285830442939,-0.2966869021550969,-0.4948977880739507,-0.5807879231407701,-0.2237445712089539,-0.9606694579124451,-0.1644768267869949,-7.010709285736084,-40.60057067871094,18.5062370300293,2,192.168.1.8,10.83.46.32,1,0
2015-03-03 08:11:29.533,156,1425399089.131641,37.7791416691968,-122.4388711062469,62.19687,0.64,157.1484375,4,30,-9999,1425399089.506213,-5.590682983398438,-37.64439392089844,16.38613891601562,186.8291625976562,173.0519256591797,10,220284.645769,-0.205841064453125,-0.9515228271484375,0.07574462890625,220284.63155075,0.06013897110395134,-0.0006069344124290584,-0.07226221301821005,220284.5797746667,2.138538187320534,-0.9368932370492087,1.289402941426639,0.251031219959259,0.1353239864110947,0.006748288404196501,-0.05230218172073364,-0.03469189256429672,0.1798424273729324,XTrueNorthZVertical,-0.5742285830442939,-0.2966869021550969,-0.4948977880739507,-0.5807879231407701,-0.2237445712089539,-0.9606694579124451,-0.1644768267869949,-7.010709285736084,-40.60057067871094,18.5062370300293,2,192.168.1.8,10.83.46.32,1,0
2015-03-03 08:11:29.601,157,1425399089.131641,37.7791416691968,-122.4388711062469,62.19687,0.64,157.1484375,4,30,-9999,1425399089.560298,-5.573631286621094,-37.55946350097656,17.00187683105469,186.7948303222656,173.0175933837891,10,220284.6948576667,-0.1414794921875,-1.029708862304688,-0.0589141845703125,220284.683327125,0.03528448759856884,0.2374224090772181,-0.1699672018266011,220284.683327125,2.147169169159693,-0.9320084555668572,1.299860111665079,0.02178898081183434,0.2522489726543427,-0.1389083117246628,0.07210017740726471,-0.05289769917726517,0.1501240879297256,XTrueNorthZVertical,-0.5722584180111496,-0.3045253052179058,-0.4954277507817345,-0.578217952899054,-0.2148614078760147,-0.9635207653045654,-0.1595692783594131,-7.013896942138672,-40.45200729370117,18.82757759094238,2,192.168.1.8,10.83.46.32,1,0
2015-03-03 08:11:29.635,158,1425399089.131641,37.7791416691968,-122.4388711062469,62.19687,0.64,157.1484375,4,30,-9999,1425399089.610614,-5.369010925292969,-37.62744140625,17.40128326416016,187.0700073242188,173.2927703857422,10,220284.7439084584,-0.020355224609375,-1.07177734375,-0.0606536865234375,220284.7351019584,-0.192684232241086,-0.02358069355599761,-0.01373791648317375,220284.683327125,2.147169169159693,-0.9320084555668572,1.299860111665079,0.02178898081183434,0.2522489726543427,-0.1389083117246628,0.07210017740726471,-0.05289769917726517,0.1501240879297256,XTrueNorthZVertical,-0.5722584180111496,-0.3045253052179058,-0.4954277507817345,-0.578217952899054,-0.2148614078760147,-0.9635207653045654,-0.1595692783594131,-7.013896942138672,-40.45200729370117,18.82757759094238,2,192.168.1.8,10.83.46.32,1,0
2015-03-03 08:11:29.702,159,1425399089.131641,37.7791416691968,-122.4388711062469,62.19687,0.64,157.1484375,4,30,-9999,1425399089.662234,-5.471328735351562,-37.72935485839844,17.43456268310547,186.3607482910156,172.5835113525391,10,220284.7929959167,-0.1983489990234375,-0.97796630859375,-0.008575439453125,220284.7868783333,-0.4144882667894255,-0.09146813185153449,0.1106945570252525,220284.7351019584,2.117780640141524,-0.8973846149448265,1.299098156462328,-0.2061795890331268,-0.008754275739192963,0.01732063852250576,0.1977129578590393,-0.07336557656526566,0.1112169548869133,XTrueNorthZVertical,-0.568109746232469,-0.3058866875531684,-0.4970334194641514,-0.5802089678308207,-0.2097826600074768,-0.9633165597915649,-0.1673693060874939,-6.942798137664795,-40.56832122802734,18.60231399536133,2,192.168.1.8,10.83.46.32,1,0
2015-03-03 08:11:29.739,160,1425399089.131641,37.7791416691968,-122.4388711062469,62.19687,0.64,157.1484375,4,30,-9999,1425399089.713301,-5.55657958984375,-38.15409851074219,16.78553009033203,186.5682220458984,172.7909851074219,10,220284.8420442083,0.0153045654296875,-1.038681030273438,-0.02862548828125,220284.8386544167,-0.4389379498091159,0.3019665149402695,0.2280203851648024,220284.7868783333,2.072736710858502,-0.8666185854391647,1.283521680429777,-0.4279834628105164,-0.07664186507463455,0.1417527943849564,0.06766074895858765,-0.03257276862859726,0.2054088413715363,XTrueNorthZVertical,-0.5661613294257647,-0.2962148842755658,-0.4976169225442507,-0.5865965441392891,-0.2159456610679626,-0.959019660949707,-0.1834361851215363,-6.874273777008057,-40.82295227050781,18.06289863586426,2,192.168.1.8,10.83.46.32,1,0
2015-03-03 08:11:29.803,161,1425399089.131641,37.7791416691968,-122.4388711062469,62.19687,0.64,157.1484375,4,30,-9999,1425399089.766528,-6.068122863769531,-38.493896484375,15.65388488769531,186.1053924560547,172.3281555175781,10,220284.8911304167,-0.2877655029296875,-0.95269775390625,-0.01348876953125,220284.8904295417,-0.4685099568694648,-0.06631643956849914,0.3939414463472461,220284.8386544167,2.046692498413736,-0.8300217132362623,1.2629644493521,-0.4524330198764801,0.3167926669120789,0.2590783536434174,0.1999415010213852,-0.07068890333175659,0.2128092050552368,XTrueNorthZVertical,-0.5590773547987563,-0.2918793590123826,-0.5067923055027125,-0.5877078577142687,-0.2235926240682602,-0.9529927372932434,-0.2044779062271118,-7.042643070220947,-41.00931167602539,17.56913948059082,2,192.168.1.8,10.83.46.32,1,0
2015-03-03 08:11:29.835,162,1425399089.131641,37.7791416691968,-122.4388711062469,62.19687,0.64,157.1484375,4,30,-9999,1425399089.817596,-7.3128662109375,-38.44293212890625,14.73858642578125,184.0854797363281,170.3082427978516,10,220284.9401755834,-0.0418701171875,-1.010787963867188,-0.1126708984375,220284.8904295417,-0.4685099568694648,-0.06631643956849914,0.3939414463472461,220284.8904295417,2.027585024508241,-0.807724594974992,1.231493534609207,-0.4820049107074738,-0.05149045214056969,0.4249990880489349,0.03079420886933804,-0.01431896165013313,0.0788952112197876,XTrueNorthZVertical,-0.553074184211977,-0.2812333344490657,-0.5172129944840528,-0.5894976611419747,-0.2405415177345276,-0.9429869651794434,-0.2300335168838501,-8.195049285888672,-41.42333984375,16.03076553344727,2,192.168.1.8,10.83.46.32,1,0
2015-03-03 08:11:29.903,163,1425399089.131641,37.7791416691968,-122.4388711062469,62.19687,0.64,157.1484375,4,30,-9999,1425399089.869777,-8.335952758789062,-38.71473693847656,13.20755767822266,182.3870544433594,168.6098175048828,10,220284.9893735833,-0.236663818359375,-0.9463348388671875,-0.1334991455078125,220284.9939818333,-1.056424072793177,-0.2984452833469668,0.6846417246120444,220284.942205625,1.99640480838806,-0.7647865353687127,1.190409961996512,-0.9160334467887878,0.2410999685525894,0.5517215132713318,0.2151973396539688,-0.08226671069860458,0.1552183032035828,XTrueNorthZVertical,-0.5415347043580153,-0.2698065302249437,-0.5323402517128685,-0.5920797855291433,-0.2570674419403076,-0.9285212755203247,-0.2678892016410828,-9.066301345825195,-41.71089935302734,14.76619148254395,2,192.168.1.8,10.83.46.32,1,0
2015-03-03 08:11:29.940,164,1425399089.131641,37.7791416691968,-122.4388711062469,62.19687,0.64,157.1484375,4,30,-9999,1425399089.928435,-9.478401184082031,-39.54722595214844,11.26046752929688,181.5587921142578,167.7815551757812,10,220285.0383285834,-0.242645263671875,-0.9760894775390625,-0.2376251220703125,220284.9939818333,-1.056424072793177,-0.2984452833469668,0.6846417246120444,220284.9939818333,1.975769249875251,-0.7596888356663802,1.132557320708536,-1.069918751716614,-0.283619612455368,0.7156987190246582,0.0555812232196331,-0.04083450138568878,0.1741727590560913,XTrueNorthZVertical,-0.5354961121882343,-0.2437374889958611,-0.5448290508030236,-0.5974924865573279,-0.2922450304031372,-0.9055003523826599,-0.3076719045639038,-9.843671798706055,-41.9314079284668,13.59766578674316,2,192.168.1.8,10.83.46.32,1,0
2015-03-03 08:11:30.003,165,1425399089.131641,37.7791416691968,-122.4388711062469,62.19687,0.64,157.1484375,4,30,-9999,1425399089.999093,-11.08123779296875,-40.09086608886719,8.431365966796875,181.1544189453125,167.3771820068359,10,220285.0874802083,-0.3192138671875,-0.907745361328125,-0.381591796875,220285.0457568333,-1.117965730843273,-0.2761735334667431,0.6890825457297516,220285.0457568333,1.946635302769901,-0.7380418241508143,1.067758920450959,-1.131460309028625,-0.2613479793071747,0.7201392650604248,0.08172371983528137,-0.09996717423200607,0.1190182417631149,XTrueNorthZVertical,-0.5237155128363532,-0.2177162824104692,-0.5605338299726929,-0.6034264853701468,-0.3243689835071564,-0.8761222958564758,-0.3566433787345886,-11.83256340026855,-42.31964874267578,10.44390106201172,2,192.168.1.8,10.83.46.32,1,0
2015-03-03 08:11:30.037,166,1425399089.131641,37.7791416691968,-122.4388711062469,62.19687,0.64,157.1484375,4,30,-9999,1425399089.999093,-11.08123779296875,-40.09086608886719,8.431365966796875,181.1544189453125,167.3771820068359,10,220285.1364565417,-0.4530792236328125,-0.850921630859375,-0.3720245361328125,220285.0975332083,-0.3912756220960768,-0.0543769557694559,0.2846359941465789,220285.0975332083,1.935249279211135,-0.7340737276711852,1.026784005354013,-0.4047700166702271,-0.03955157846212387,0.3156923651695251,-0.0282778088003397,-0.03559644892811775,0.01656679064035416,XTrueNorthZVertical,-0.5174736811581705,-0.2002109999659982,-0.5696160478838842,-0.6063613762406665,-0.3467221856117249,-0.8556389212608337,-0.3842730820178986,-12.83912467956543,-42.38139343261719,8.88885498046875,2,192.168.1.8,10.83.46.32,1,0
2015-03-03 08:11:30.082,167,1425399089.131641,37.7791416691968,-122.4388711062469,62.19687,0.64,157.1484375,4,30,-9999,1425399090.051703,-12.03610992431641,-40.02291870117188,7.399574279785156,180.4021911621094,166.6249542236328,10,220285.1855457083,-0.1941986083984375,-0.8659820556640625,-0.4318389892578125,220285.1493093334,-0.3627965763470964,0.111988320682813,0.3244204250390546,220285.1493093334,1.935823291704218,-0.7320964685681659,1.006519908198785,-0.3762908577919006,0.1268135458230972,0.3554764986038208,-0.08684104681015015,-0.0390116311609745,0.02904546447098255,XTrueNorthZVertical,-0.5136203777242673,-0.1931503470456928,-0.5758905297288058,-0.6060009608847895,-0.3574796319007874,-0.8449757695198059,-0.3977741003036499,-13.21517562866211,-42.36552810668945,8.399900436401367,2,192.168.1.8,10.83.46.32,1,0
2015-03-03 08:11:30.142,168,1425399089.131641,37.7791416691968,-122.4388711062469,62.19687,0.64,157.1484375,4,30,-9999,1425399090.102534,-12.66701507568359,-39.93797302246094,6.683982849121094,179.5264739990234,165.7492370605469,10,220285.234616125,-0.488800048828125,-0.66314697265625,-0.4652099609375,220285.2010843334,0.2322042112373169,0.3838177057794189,-0.02967773455562502,220285.2010843334,1.908374505152399,-0.6809959705612162,1.006566006263892,0.2186779975891113,0.3986469805240631,0.001393234939314425,0.07510469853878021,-0.02478104457259178,-0.1201604902744293,XTrueNorthZVertical,-0.5015635930451471,-0.2017224347877284,-0.5805100641526617,-0.6088925214309406,-0.3366708755493164,-0.8450004458427429,-0.4154840409755707,-13.33663558959961,-42.55691528320312,7.147065162658691,2,192.168.1.8,10.83.46.32,1,0
2015-03-03 08:11:30.180,169,1425399090.134731,37.77913270056041,-122.4388623890676,62.16049,0.72,157.1484375,4,30,-9999,1425399090.153539,-12.78636169433594,-39.85302734375,5.73541259765625,179.1499786376953,165.3727416992188,10,220285.283715875,-0.038909912109375,-0.79522705078125,-0.3271331787109375,220285.2528605417,-0.3541290522633246,1.41805391826671,-0.5232240688329247,220285.2528605417,1.86920452956658,-0.6149056875546813,1.012888580883553,-0.3676551282405853,1.432883024215698,-0.4921534061431885,-0.03069714456796646,0.2815006077289581,-0.09595782309770584,XTrueNorthZVertical,-0.4875546667678881,-0.2146416935489079,-0.5831927977823596,-0.6132744627980177,-0.3054082095623016,-0.8483646512031555,-0.4324387907981873,-12.99005222320557,-42.70256805419922,6.912782669067383,2,192.168.1.8,10.83.46.32,1,0
2015-03-03 08:11:30.234,170,1425399090.134731,37.77913270056041,-122.4388623890676,62.16049,0.72,157.1484375,4,30,-9999,1425399090.206802,-12.47943878173828,-39.95498657226562,5.169593811035156,177.4963684082031,163.7191314697266,10,220285.3327607083,-0.4486236572265625,-0.587615966796875,-0.03460693359375,220285.3046369583,-0.04746871590179036,-0.5023134605858406,-0.3236172156542867,220285.3046369583,1.833619429144399,-0.5712328283313309,0.9994548677535467,-0.06099485233426094,-0.487484335899353,-0.2925473749637604,0.3610832989215851,0.2831318974494934,0.2188383489847183,XTrueNorthZVertical,-0.4759748528752518,-0.214463054953755,-0.586254964039945,-0.6194825828309549,-0.2923729717731476,-0.8411763310432434,-0.454907089471817,-12.71832370758057,-42.93352127075195,5.91560173034668,2,192.168.1.8,10.83.46.32,1,0
2015-03-03 08:11:30.278,171,1425399090.134731,37.77913270056041,-122.4388623890676,62.16049,0.72,157.1484375,4,30,-9999,1425399090.261978,-12.76930236816406,-39.80209350585938,6.018318176269531,177.3570861816406,163.5798492431641,10,220285.3818432083,-0.969757080078125,-1.122756958007812,-0.8199920654296875,220285.3564119583,1.490548092615866,0.1681325501516455,0.9912195029797862,220285.3564119583,1.90752502926122,-0.6582530001340458,1.020779758890112,1.477022171020508,0.1829614788293839,1.022289037704468,-0.4164356589317322,0.1869580000638962,0.2273015230894089,XTrueNorthZVertical,-0.4975114317411459,-0.2138638411372555,-0.5820936177636853,-0.606557226238202,-0.3197551369667053,-0.8525158762931824,-0.4134892523288727,-12.72611999511719,-42.80458831787109,6.771289825439453,2,192.168.1.8,10.83.46.32,1,0
2015-03-03 08:11:30.334,172,1425399090.134731,37.77913270056041,-122.4388623890676,62.16049,0.72,157.1484375,4,30,-9999,1425399090.261978,-12.76930236816406,-39.80209350585938,6.018318176269531,177.3570861816406,163.5798492431641,10,220285.430896375,0.5669708251953125,-1.873199462890625,-0.4942626953125,220285.408188,1.483927474145929,5.717425495732025,-0.3635065750937116,220285.408188,2.028057741290148,-0.6175875235181166,1.056354754867797,1.470401644706726,5.732254028320312,-0.3324373066425323,0.2709841728210449,-0.4384381175041199,-0.0460786372423172,XTrueNorthZVertical,-0.4765682453880212,-0.2688949100320247,-0.6176573851454329,-0.5648695470850428,-0.2849307060241699,-0.8705676198005676,-0.4011564552783966,-14.90044212341309,-41.80035018920898,8.411004066467285,2,192.168.1.8,10.83.46.32,1,0
2015-03-03 08:11:30.378,173,1425399090.134731,37.77913270056041,-122.4388623890676,62.16049,0.72,157.1484375,4,30,-9999,1425399090.336258,-14.74726867675781,-39.46229553222656,6.517570495605469,171.8633575439453,158.0861206054688,10,220285.4799749167,-0.109954833984375,-0.693145751953125,-0.1593475341796875,220285.4599642917,-1.788372060480517,-3.548849639071327,0.2542626419142252,220285.4599642917,1.982544628059364,-0.5123571601483394,1.069584077662249,-1.801897764205933,-3.534020900726318,0.2853315770626068,1.209489583969116,-0.2778302133083344,0.01756025478243828,XTrueNorthZVertical,-0.4524068734843923,-0.2931432481301098,-0.6256810662365626,-0.5638424212978187,-0.2355516254901886,-0.8770007491111755,-0.4187901020050049,-15.5541820526123,-41.69462585449219,7.724165916442871,2,192.168.1.8,10.83.46.32,1,0
2015-03-03 08:11:30.438,174,1425399090.134731,37.77913270056041,-122.4388623890676,62.16049,0.72,157.1484375,4,30,-9999,1425399090.392872,-15.19059753417969,-39.12248229980469,6.284591674804688,166.5052642822266,152.72802734375,10,220285.5290386667,-0.867095947265625,-0.6176910400390625,-0.1223602294921875,220285.51173925,-0.3442947973059889,-2.76183227373111,-0.2684897810896465,220285.4599642917,1.982544628059364,-0.5123571601483394,1.069584077662249,-1.801897764205933,-3.534020900726318,0.2853315770626068,1.209489583969116,-0.2778302133083344,0.01756025478243828,XTrueNorthZVertical,-0.4524068734843923,-0.2931432481301098,-0.6256810662365626,-0.5638424212978187,-0.2355516254901886,-0.8770007491111755,-0.4187901020050049,-15.5541820526123,-41.69462585449219,7.724165916442871,2,192.168.1.8,10.83.46.32,1,0
2015-03-03 08:11:30.477,175,1425399090.134731,37.77913270056041,-122.4388623890676,62.16049,0.72,157.1484375,4,30,-9999,1425399090.465911,-13.36610412597656,-39.27540588378906,7.599288940429688,176.3885345458984,162.6112976074219,10,220285.578133125,-0.152435302734375,-0.87847900390625,-0.236480712890625,220285.5635156667,-0.2558381680151161,0.8594739891180023,-0.03469353215268025,220285.5635156667,1.921289833735212,-0.6672079608313333,1.041537974595412,-0.2693636119365692,0.8743023276329041,-0.00362522853538394,0.09288205951452255,0.1386944502592087,0.2869094908237457,XTrueNorthZVertical,-0.5021632012778816,-0.2225354630533196,-0.5783705986299293,-0.6031563258464216,-0.3124255239963531,-0.8631817698478699,-0.3966201841831207,-12.7789249420166,-42.46894454956055,8.551314353942871,2,192.168.1.8,10.83.46.32,1,0
2015-03-03 08:11:30.536,176,1425399090.134731,37.77913270056041,-122.4388623890676,62.16049,0.72,157.1484375,4,30,-9999,1425399090.517314,-12.78636169433594,-39.51327514648438,7.798995971679688,177.1499176025391,163.3726806640625,10,220285.627191125,-0.3597412109375,-1.049880981445312,-0.056884765625,220285.61529175,-0.01320395268461286,-0.828577059415339,0.2227699630757112,220285.61529175,1.934172234958338,-0.699302343767441,1.022499303588697,-0.02672929503023624,-0.813748836517334,0.2538379728794098,0.07208263874053955,-0.1357375979423523,0.2354442775249481,XTrueNorthZVertical,-0.506906458635306,-0.2088004533510519,-0.5793768304863446,-0.6031340787684845,-0.3355103731155396,-0.8534134030342102,-0.3988964259624481,-13.01691436767578,-42.51739883422852,7.928929328918457,2,192.168.1.8,10.83.46.32,1,0
2015-03-03 08:11:30.577,177,1425399090.134731,37.77913270056041,-122.4388623890676,62.16049,0.72,157.1484375,4,30,-9999,1425399090.517314,-12.78636169433594,-39.51327514648438,7.798995971679688,177.1499176025391,163.3726806640625,10,220285.6762844167,-0.310638427734375,-0.858551025390625,-0.2545166015625,220285.667066875,-0.1811048078214215,-0.1149007536509237,-0.07016710418864472,220285.61529175,1.934172234958338,-0.699302343767441,1.022499303588697,-0.02672929503023624,-0.813748836517334,0.2538379728794098,0.07208263874053955,-0.1357375979423523,0.2354442775249481,XTrueNorthZVertical,-0.506906458635306,-0.2088004533510519,-0.5793768304863446,-0.6031340787684845,-0.3355103731155396,-0.8534134030342102,-0.3988964259624481,-13.01691436767578,-42.51739883422852,7.928929328918457,2,192.168.1.8,10.83.46.32,1,0
2015-03-03 08:11:30.634,178,1425399090.134731,37.77913270056041,-122.4388623890676,62.16049,0.72,157.1484375,4,30,-9999,1425399090.621211,-12.71817016601562,-39.75115966796875,7.133331298828125,178.7542877197266,164.97705078125,10,220285.72532925,-0.3181915283203125,-0.928924560546875,-0.417022705078125,220285.718843,-0.1301380298278121,-0.01159460443787798,-0.03984009095925838,220285.667066875,1.92244431303004,-0.7048295557997916,1.021361813185049,-0.1946299970149994,-0.1000726968050003,-0.03909942135214806,-0.02099046483635902,-0.0004210085608065128,0.07340375334024429,XTrueNorthZVertical,-0.5095236976334636,-0.2037107186261918,-0.5747357443925307,-0.6070966847104255,-0.3383387625217438,-0.8528199791908264,-0.3977750837802887,-13.16837215423584,-42.44310760498047,8.075508117675781,2,192.168.1.8,10.83.46.32,1,0
2015-03-03 08:11:30.671,179,1425399090.134731,37.77913270056041,-122.4388623890676,62.16049,0.72,157.1484375,4,30,-9999,1425399090.621211,-12.71817016601562,-39.75115966796875,7.133331298828125,178.7542877197266,164.97705078125,10,220285.77439425,-0.3116607666015625,-0.935302734375,-0.205230712890625,220285.77061925,-0.4089675338496912,-0.3960581267816411,0.0572137549626083,220285.77061925,1.894058115771874,-0.6939512103491952,1.012628012457876,-0.4224666059017181,-0.3812165260314941,0.08824530243873596,0.07459781318902969,-0.06031216308474541,0.1807935237884521,XTrueNorthZVertical,-0.5077687390359323,-0.1964680794894001,-0.57122051301884,-0.6142298777397616,-0.3387427031993866,-0.8482266664505005,-0.4071424007415771,-13.2087459564209,-42.52075576782227,7.586277961730957,2,192.168.1.8,10.83.46.32,1,0
2015-03-03 08:11:30.734,180,1425399090.134731,37.77913270056041,-122.4388623890676,62.16049,0.72,157.1484375,4,30,-9999,1425399090.726202,-13.00804901123047,-40.34580993652344,6.084892272949219,179.2305145263672,165.4532775878906,10,220285.8234412083,-0.2281036376953125,-0.8598175048828125,-0.289398193359375,220285.77061925,-0.4089675338496912,-0.3960581267816411,0.0572137549626083,220285.77061925,1.894058115771874,-0.6939512103491952,1.012628012457876,-0.4224666059017181,-0.3812165260314941,0.08824530243873596,0.07459781318902969,-0.06031216308474541,0.1807935237884521,XTrueNorthZVertical,-0.5077687390359323,-0.1964680794894001,-0.57122051301884,-0.6142298777397616,-0.3387427031993866,-0.8482266664505005,-0.4071424007415771,-13.2087459564209,-42.52075576782227,7.586277961730957,2,192.168.1.8,10.83.46.32,1,0
2015-03-03 08:11:30.769,181,1425399090.134731,37.77913270056041,-122.4388623890676,62.16049,0.72,157.1484375,4,30,-9999,1425399090.726202,-13.00804901123047,-40.34580993652344,6.084892272949219,179.2305145263672,165.4532775878906,10,220285.8726638333,-0.479644775390625,-0.9714508056640625,-0.3484954833984375,220285.8741704584,-0.3342022157229156,0.2422957275559541,0.1889728509459516,220285.82239425,1.896849248916206,-0.7153742192537006,1.016331119578457,-0.3890335261821747,-0.223667249083519,-0.008758054114878178,0.09172284603118896,-0.06604712456464767,0.08569707721471786,XTrueNorthZVertical,-0.5142205517437304,-0.1920098585354538,-0.5655935673692163,-0.6154781643098602,-0.345323920249939,-0.8501821160316467,-0.397418886423111,-12.60335063934326,-42.6218147277832,8.035788536071777,2,192.168.1.8,10.83.46.32,1,0
2015-03-03 08:11:30.835,182,1425399090.134731,37.77913270056041,-122.4388623890676,62.16049,0.72,157.1484375,4,30,-9999,1425399090.777427,-13.02510070800781,-40.32882690429688,5.535713195800781,180.1253662109375,166.3481292724609,10,220285.9215680417,-0.2353973388671875,-0.8277130126953125,-0.316436767578125,220285.92594675,-0.2623365473910184,-0.4821312268968931,-0.02160782382046691,220285.8741704584,1.884022571860637,-0.7220540131279206,1.011602153979247,-0.3476059436798096,0.2571558058261871,0.2199651002883911,-0.129020556807518,-0.1237679272890091,0.04962059110403061,XTrueNorthZVertical,-0.5165048952458688,-0.1848368345795609,-0.5612081215726238,-0.6197608392377598,-0.3506242334842682,-0.8476828932762146,-0.3981160819530487,-12.09157276153564,-42.75014495849609,8.139802932739258,2,192.168.1.8,10.83.46.32,1,0
2015-03-03 08:11:30.867,183,1425399090.134731,37.77913270056041,-122.4388623890676,62.16049,0.72,157.1484375,4,30,-9999,1425399090.828895,-13.05919647216797,-40.32882690429688,4.770195007324219,180.2627410888672,166.4855041503906,10,220285.970749125,-0.451934814453125,-0.827239990234375,-0.47412109375,220285.92594675,-0.2623365473910184,-0.4821312268968931,-0.02160782382046691,220285.92594675,1.826358471913444,-0.6552993614768645,1.014576573047605,-0.2757512032985687,-0.4672617018222809,0.009313503280282021,0.08635164052248001,0.02154405415058136,0.1021800562739372,XTrueNorthZVertical,-0.5037728657693141,-0.1921054090110765,-0.5594163989012937,-0.6295726486956619,-0.3217489719390869,-0.8492570519447327,-0.4186168313026428,-12.43362045288086,-42.77305603027344,7.477163314819336,2,192.168.1.8,10.83.46.32,1,0
2015-03-03 08:11:30.935,184,1425399090.134731,37.77913270056041,-122.4388623890676,62.16049,0.72,157.1484375,4,30,-9999,1425399090.881155,-12.76933288574219,-40.20988464355469,4.354148864746094,180.9154968261719,167.1382598876953,10,220286.019691125,-0.3504791259765625,-0.8492279052734375,-0.4150543212890625,220285.9777219167,-0.2077699745519489,-0.3738324495882758,-0.08070762946706933,220285.9777219167,1.824858249492326,-0.6790169246032581,1.006795754357193,-0.2211690694093704,-0.3589608669281006,-0.04977485910058022,-0.1162088066339493,0.0178832970559597,-0.0581226646900177,XTrueNorthZVertical,-0.509041893132804,-0.1813205351266607,-0.5550272921259715,-0.6324112075023397,-0.3357260227203369,-0.845123291015625,-0.4159984290599823,-11.45407104492188,-43.14575576782227,6.876430511474609,2,192.168.1.8,10.83.46.32,1,0
2015-03-03 08:11:30.965,185,1425399090.134731,37.77913270056041,-122.4388623890676,62.16049,0.72,157.1484375,4,30,-9999,1425399090.932342,-12.85459136962891,-40.19287109375,4.004676818847656,181.5617370605469,167.7845001220703,10,220286.0687694167,-0.362640380859375,-0.783905029296875,-0.2991943359375,220286.08127425,-0.07295862964326577,-0.3109134046223908,0.08504165782506429,220286.0294980417,1.83341695239855,-0.6918177937917178,0.9909899530930147,-0.3173241913318634,0.110489547252655,0.04989925026893616,-0.0009770962642505765,-0.012659159488976,0.00684742396697402,XTrueNorthZVertical,-0.5088679948022423,-0.1735006952926275,-0.5587210365097759,-0.6314916402949963,-0.3495020270347595,-0.8365687727928162,-0.4219017326831818,-11.84535217285156,-43.04768371582031,6.82801342010498,2,192.168.1.8,10.83.46.32,1,0
2015-03-03 08:11:31.005,186,1425399090.134731,37.77913270056041,-122.4388623890676,62.16049,0.72,157.1484375,4,30,-9999,1425399090.985565,-12.63291931152344,-40.37977600097656,3.755058288574219,182.5673828125,168.7901458740234,10,220286.1178215833,-0.3131103515625,-0.8645477294921875,-0.5284271240234375,220286.08127425,-0.07295862964326577,-0.3109134046223908,0.08504165782506429,220286.08127425,1.836503229457521,-0.7212964036670962,0.9800136336747972,-0.08633246272802353,-0.29604771733284,0.1160338148474693,-0.04718129336833954,-0.01144449785351753,0.1016373485326767,XTrueNorthZVertical,-0.5147743979057648,-0.1608211703938487,-0.5551040534880766,-0.6332482735997943,-0.3678272664546967,-0.8305049538612366,-0.4182877540588379,-11.9973030090332,-43.09406280517578,6.245280265808105,2,192.168.1.8,10.83.46.32,1,0
2015-03-03 08:11:31.063,187,1425399090.134731,37.77913270056041,-122.4388623890676,62.16049,0.72,157.1484375,4,30,-9999,1425399091.035913,-13.14444732666016,-40.24385070800781,3.056098937988281,182.1539001464844,168.3766632080078,10,220286.1669080417,-0.392059326171875,-0.852081298828125,-0.3676910400390625,220286.1330492917,-0.2008063409336097,-0.1042015039715304,-0.0459376645911038,220286.1330492917,1.826367244626407,-0.7069690146421559,0.9757721825864303,-0.214180052280426,-0.08933595567941666,-0.01494578644633293,0.1174078956246376,0.02874226495623589,-0.072498619556427,XTrueNorthZVertical,-0.5108153696097711,-0.1611617022912794,-0.5567026910490238,-0.634961962219697,-0.364081472158432,-0.8281349539756775,-0.426189124584198,-12.13399028778076,-43.05916213989258,6.221903800964355,2,192.168.1.8,10.83.46.32,1,0
2015-03-03 08:11:31.154,188,1425399090.134731,37.77913270056041,-122.4388623890676,62.16049,0.72,157.1484375,4,30,-9999,1425399091.096788,-13.43431854248047,-40.56666564941406,2.839759826660156,182.2316436767578,168.4544067382812,10,220286.2159445834,-0.3725433349609375,-0.839202880859375,-0.305267333984375,220286.1848256667,-0.2714187256565156,-0.5906702213358355,0.1059152481329963,220286.1848256667,1.814683025389938,-0.7186405243291963,0.9668107399575435,-0.2847964465618134,-0.5758035182952881,0.1368911564350128,-0.0325312577188015,-0.001964090624824166,-0.002802782226353884,XTrueNorthZVertical,-0.5132614530875426,-0.1510720871361543,-0.5523885771552967,-0.639223576609343,-0.3739018440246582,-0.8230786323547363,-0.4274798035621643,-11.90447807312012,-43.1535530090332,6.007650375366211,2,192.168.1.8,10.83.46.32,1,0
2015-03-03 08:11:31.167,189,1425399091.131994,37.77912813242318,-122.4388611317821,62.19235,0.64,157.1484375,4,50,-9999,1425399091.096788,-13.43431854248047,-40.56666564941406,2.839759826660156,182.2316436767578,168.4544067382812,10,220286.2650209167,-0.377105712890625,-0.8388519287109375,-0.487457275390625,220286.2366017917,-0.301981694958483,-0.2135064235399796,0.1037879150542411,220286.2366017917,1.811161983131405,-0.7380397000782973,0.9530851512961059,-0.3153587877750397,-0.1986600160598755,0.1348591148853302,0.04197143763303757,-0.005121547728776932,0.08483625203371048,XTrueNorthZVertical,-0.5162443822996996,-0.1387791361020947,-0.5499361804417897,-0.6417182421982072,-0.3896887302398682,-0.8152062296867371,-0.4284641742706299,-12.07840728759766,-43.13736724853516,5.77210807800293,2,192.168.1.8,10.83.46.32,1,0
2015-03-03 08:11:31.240,190,1425399091.131994,37.77912813242318,-122.4388611317821,62.19235,0.64,157.1484375,4,50,-9999,1425399091.216764,-13.91176605224609,-40.56669616699219,1.941093444824219,184.031982421875,170.2547454833984,10,220286.3140725417,-0.30706787109375,-0.7415618896484375,-0.3462677001953125,220286.2883768333,-0.5741375836047325,-0.688358432229359,0.165192153992089,220286.2883768333,1.78808966752387,-0.7381295259891355,0.9269841154674863,-0.5875225067138672,-0.673511803150177,0.1962523758411407,-0.03200235217809677,-0.08528801798820496,0.101415604352951,XTrueNorthZVertical,-0.5127015415246243,-0.1229899623008027,-0.5493998351145132,-0.6482055503231751,-0.4039107263088226,-0.7998132705688477,-0.4440211951732635,-12.39875602722168,-43.16001510620117,4.849874496459961,2,192.168.1.8,10.83.46.32,1,0
2015-03-03 08:11:31.265,191,1425399091.131994,37.77912813242318,-122.4388611317821,62.19235,0.64,157.1484375,4,50,-9999,1425399091.216764,-13.91176605224609,-40.56669616699219,1.941093444824219,184.031982421875,170.2547454833984,10,220286.3631695833,-0.410369873046875,-0.7818145751953125,-0.314544677734375,220286.3401530834,-0.8323659386981948,-0.6187226286781852,0.3498259165739745,220286.3401530834,1.764335895563283,-0.7490181492036231,0.8917025720089352,-0.8457491397857666,-0.6038758754730225,0.3808856606483459,0.07916702330112457,0.03323867544531822,0.01136155705899,XTrueNorthZVertical,-0.509882411184059,-0.1001365040070872,-0.5481068729247832,-0.6554170267738609,-0.4276777803897858,-0.7781422138214111,-0.459985226392746,-12.56643962860107,-43.16998672485352,4.298162460327148,2,192.168.1.8,10.83.46.32,1,0
2015-03-03 08:11:31.333,192,1425399091.131994,37.77912813242318,-122.4388611317821,62.19235,0.64,157.1484375,4,50,-9999,1425399091.321274,-15.19062805175781,-40.44775390625,-0.5052413940429688,185.6324157714844,171.8551788330078,10,220286.4122186667,-0.4964599609375,-0.8428802490234375,-0.4254302978515625,220286.3919294584,-1.16941374204586,-0.1154411090361008,0.5114212051978025,220286.3919294584,1.741368351977437,-0.7577069970121488,0.841330486131028,-1.182795643806458,-0.1005944162607193,0.5424805283546448,0.051161989569664,0.1513685286045074,0.1533388197422028,XTrueNorthZVertical,-0.5026496775233283,-0.07263779728114143,-0.5512792150279046,-0.6619352649407331,-0.4580376148223877,-0.7455304861068726,-0.4841341078281403,-13.12824058532715,-43.10334014892578,3.128658294677734,2,192.168.1.8,10.83.46.32,1,0
2015-03-03 08:11:31.365,193,1425399091.131994,37.77912813242318,-122.4388611317821,62.19235,0.64,157.1484375,4,50,-9999,1425399091.321274,-15.19062805175781,-40.44775390625,-0.5052413940429688,185.6324157714844,171.8551788330078,10,220286.4613096667,-0.4528961181640625,-0.6262359619140625,-0.6038055419921875,220286.443704375,-1.340642216964723,-0.2126880341369982,0.7037813307342259,220286.443704375,1.716173101451435,-0.7461181306966634,0.7820485411850019,-1.354023218154907,-0.1978414207696915,0.7348402738571167,0.07371698319911957,0.197867825627327,0.2778216004371643,XTrueNorthZVertical,-0.4870154136575877,-0.04819910570880738,-0.5605397911283108,-0.6680478960619012,-0.4815843999385834,-0.7047342658042908,-0.5209856629371643,-14.73238563537598,-42.69640350341797,0.1055011749267578,2,192.168.1.8,10.83.46.32,1,0
2015-03-03 08:11:31.440,194,1425399091.131994,37.77912813242318,-122.4388611317821,62.19235,0.64,157.1484375,4,50,-9999,1425399091.377375,-16.75934600830078,-40.44775390625,-2.50225830078125,185.0511322021484,171.2738952636719,10,220286.5103505417,-0.4114990234375,-0.5424041748046875,-0.4820556640625,220286.49548075,-0.8837545614084727,-0.240474924318667,0.4455654924978871,220286.443704375,1.716173101451435,-0.7461181306966634,0.7820485411850019,-1.354023218154907,-0.1978414207696915,0.7348402738571167,0.07371698319911957,0.197867825627327,0.2778216004371643,XTrueNorthZVertical,-0.4870154136575877,-0.04819910570880738,-0.5605397911283108,-0.6680478960619012,-0.4815843999385834,-0.7047342658042908,-0.5209856629371643,-14.73238563537598,-42.69640350341797,0.1055011749267578,2,192.168.1.8,10.83.46.32,1,0
2015-03-03 08:11:31.465,195,1425399091.131994,37.77912813242318,-122.4388611317821,62.19235,0.64,157.1484375,4,50,-9999,1425399091.451478,-19.24884796142578,-39.19049072265625,-5.630905151367188,183.0987243652344,169.3214874267578,10,220286.5594391667,-0.3881072998046875,-0.47869873046875,-0.3726959228515625,220286.547256875,-1.108009236791903,-0.2948604022036111,0.7164470585625338,220286.547256875,1.69112639649193,-0.7398090117041827,0.6571773482841459,-1.121392011642456,-0.2800140678882599,0.7475047707557678,0.1135998591780663,-0.1375895887613297,0.08096262067556381,XTrueNorthZVertical,-0.4556486446389487,0.001812096454286105,-0.5830122548816484,-0.672664667873264,-0.5337353348731995,-0.6108845472335815,-0.5847620368003845,-16.94965553283691,-41.75677490234375,-3.019607543945312,2,192.168.1.8,10.83.46.32,1,0
2015-03-03 08:11:31.540,196,1425399091.131994,37.77912813242318,-122.4388611317821,62.19235,0.64,157.1484375,4,50,-9999,1425399091.502503,-20.69821166992188,-37.67840576171875,-7.2784423828125,181.9543609619141,168.1771240234375,10,220286.6084799167,-0.5667877197265625,-0.7520599365234375,-0.5532379150390625,220286.599031875,-1.097728902351979,-0.1437845998855961,0.97071209732174,220286.547256875,1.69112639649193,-0.7398090117041827,0.6571773482841459,-1.121392011642456,-0.2800140678882599,0.7475047707557678,0.1135998591780663,-0.1375895887613297,0.08096262067556381,XTrueNorthZVertical,-0.4556486446389487,0.001812096454286105,-0.5830122548816484,-0.672664667873264,-0.5337353348731995,-0.6108845472335815,-0.5847620368003845,-16.94965553283691,-41.75677490234375,-3.019607543945312,2,192.168.1.8,10.83.46.32,1,0
2015-03-03 08:11:31.562,197,1425399091.131994,37.77912813242318,-122.4388611317821,62.19235,0.64,157.1484375,4,50,-9999,1425399091.502503,-20.69821166992188,-37.67840576171875,-7.2784423828125,181.9543609619141,168.1771240234375,10,220286.65757625,-0.55859375,-0.49810791015625,-0.5374755859375,220286.6508081667,-0.8488319974020456,-0.2871212560758408,0.8552323724498331,220286.6508081667,1.680697363265916,-0.7571781409892341,0.5251989382562573,-0.8622148633003235,-0.2722754776477814,0.8862904906272888,-0.04774463549256325,0.1025051325559616,0.08651258051395416,XTrueNorthZVertical,-0.426810854504346,0.05847984999343107,-0.6043851117527678,-0.6701725554778513,-0.5942994356155396,-0.5013851523399353,-0.6288251876831055,-20.53772354125977,-39.52845001220703,-7.465973854064941,2,192.168.1.8,10.83.46.32,1,0
2015-03-03 08:11:31.636,198,1425399091.131994,37.77912813242318,-122.4388611317821,62.19235,0.64,157.1484375,4,50,-9999,1425399091.560361,-22.4715576171875,-36.11538696289062,-8.876045227050781,180.5201873779297,166.7429504394531,10,220286.7066210833,-0.66259765625,-0.369659423828125,-0.5418853759765625,220286.702584625,-0.6198427542326724,-0.1932299139484432,0.6909872385413762,220286.6508081667,1.680697363265916,-0.7571781409892341,0.5251989382562573,-0.8622148633003235,-0.2722754776477814,0.8862904906272888,-0.04774463549256325,0.1025051325559616,0.08651258051395416,XTrueNorthZVertical,-0.426810854504346,0.05847984999343107,-0.6043851117527678,-0.6701725554778513,-0.5942994356155396,-0.5013851523399353,-0.6288251876831055,-20.53772354125977,-39.52845001220703,-7.465973854064941,2,192.168.1.8,10.83.46.32,1,0
2015-03-03 08:11:31.652,199,1425399091.131994,37.77912813242318,-122.4388611317821,62.19235,0.64,157.1484375,4,50,-9999,1425399091.632314,-25.04632568359375,-33.65190124511719,-10.98954772949219,177.1052703857422,163.3280334472656,10,220286.7557105417,-0.5885772705078125,-0.5264739990234375,-0.7859954833984375,220286.7543594583,-0.7384303880967018,0.114945228441128,0.6540633089757546,220286.702584625,1.687472568820549,-0.7565561995153304,0.468031660423629,-0.6332241296768188,-0.1783839464187622,0.7220436334609985,-0.04261033236980438,-0.01098192669451237,0.02860737405717373,XTrueNorthZVertical,-0.411642554717035,0.07778686807906425,-0.6184631621020102,-0.6648330190546867,-0.6126020550727844,-0.4511305093765259,-0.6489992141723633,-22.0729923248291,-38.41291427612305,-8.790245056152344,2,192.168.1.8,10.83.46.32,1,0
2015-03-03 08:11:31.739,200,1425399091.131994,37.77912813242318,-122.4388611317821,62.19235,0.64,157.1484375,4,50,-9999,1425399091.69437,-26.92198944091797,-31.91899108886719,-12.38745880126953,174.53466796875,160.7574310302734,10,220286.8047646667,-0.8339080810546875,-0.356231689453125,-0.6815185546875,220286.7543594583,-0.7384303880967018,0.114945228441128,0.6540633089757546,220286.7543594583,1.689782601717399,-0.7553389474031128,0.4158801375857793,-0.7518123984336853,0.1297902911901474,0.6851227879524231,0.05800939351320267,-0.1246608048677444,-0.1799500435590744,XTrueNorthZVertical,-0.3972335017455649,0.09599250377505054,-0.6296818480725638,-0.6606752381616684,-0.6271011829376221,-0.4039952158927917,-0.6659819483757019,-24.25237655639648,-36.51325607299805,-10.89227485656738,2,192.168.1.8,10.83.46.32,1,0
2015-03-03 08:11:31.779,201,1425399091.131994,37.77912813242318,-122.4388611317821,62.19235,0.64,157.1484375,4,50,-9999,1425399091.69437,-26.92198944091797,-31.91899108886719,-12.38745880126953,174.53466796875,160.7574310302734,10,220286.8538405,-0.7937469482421875,-0.2457122802734375,-0.72625732421875,220286.857912,-0.3194203400924309,-0.1325676316902913,0.5201140293119302,220286.80613575,1.686155541075731,-0.7670968108865382,0.3730010127900256,-0.6430377960205078,-0.3932088315486908,0.59293532371521,-0.187584176659584,0.008180036209523678,-0.01109367702156305,XTrueNorthZVertical,-0.3889523713863844,0.1162050512324395,-0.6342794630853749,-0.6579528990522092,-0.6463239192962646,-0.3644117116928101,-0.6704248785972595,-24.93228912353516,-35.82192993164062,-11.62787342071533,2,192.168.1.8,10.83.46.32,1,0
2015-03-03 08:11:31.802,202,1425399091.131994,37.77912813242318,-122.4388611317821,62.19235,0.64,157.1484375,4,50,-9999,1425399091.760307,-28.47365570068359,-29.72732543945312,-14.03499603271484,173.0323486328125,159.2551116943359,10,220286.902881625,-0.7042999267578125,-0.3693084716796875,-0.748382568359375,220286.857912,-0.3194203400924309,-0.1325676316902913,0.5201140293119302,220286.857912,1.687340419622452,-0.7661422904219517,0.3326932948993145,-0.3328042924404144,-0.1177242174744606,0.551178514957428,-0.138405978679657,0.08087754249572754,-0.04517926648259163,XTrueNorthZVertical,-0.3774731976791314,0.1302879725532911,-0.6422352819770445,-0.6542727929753872,-0.6553409695625305,-0.326589822769165,-0.6810780763626099,-28.06142234802246,-30.81027603149414,-13.84783554077148,2,192.168.1.8,10.83.46.32,1,0
2015-03-03 08:11:31.851,203,1425399091.131994,37.77912813242318,-122.4388611317821,62.19235,0.64,157.1484375,4,50,-9999,1425399091.813047,-29.34327697753906,-28.21525573730469,-14.55088806152344,171.4036712646484,157.6264343261719,10,220286.95210325,-0.854522705078125,-0.1629486083984375,-0.82708740234375,220286.9096870417,-0.4120578659786192,-0.06263115725204749,0.3594974523887063,220286.9096870417,1.69509557131536,-0.768347090729977,0.2998469876369203,-0.4254412353038788,-0.04778758436441422,0.3905604779720306,-0.04035966098308563,-0.07393444329500198,-0.0614054799079895,XTrueNorthZVertical,-0.3694616611306098,0.1414550705719438,-0.6501706806223627,-0.64866528026807,-0.6639402508735657,-0.2953740358352661,-0.6869770884513855,-29.30755996704102,-29.09622573852539,-14.93170166015625,2,192.168.1.8,10.83.46.32,1,0
2015-03-03 08:11:31.902,204,1425399091.131994,37.77912813242318,-122.4388611317821,62.19235,0.64,157.1484375,4,50,-9999,1425399091.866522,-30.31519317626953,-26.63525390625,-14.86708068847656,169.1075897216797,155.3303527832031,10,220287.0010504167,-0.7424468994140625,-0.1721038818359375,-0.7293548583984375,220286.9614634583,-0.3748708160972977,0.286523110095009,0.4068841429289222,220286.9614634583,1.699626190414424,-0.7800804196003143,0.2686513855655075,-0.3882580399513245,0.3013580441474915,0.4379773736000061,-0.1764149814844131,0.102482832968235,-0.1417290419340134,XTrueNorthZVertical,-0.3648016907634018,0.1556937654166601,-0.654868253196117,-0.6432936845520207,-0.678107738494873,-0.2654314339160919,-0.6853583455085754,-29.67619514465332,-28.63762283325195,-15.08937644958496,2,192.168.1.8,10.83.46.32,1,0
2015-03-03 08:11:31.947,205,1425399091.131994,37.77912813242318,-122.4388611317821,62.19235,0.64,157.1484375,4,50,-9999,1425399091.917857,-31.11662292480469,-26.51632690429688,-14.95028686523438,167.4181823730469,153.6409454345703,10,220287.05011725,-0.797576904296875,-0.22100830078125,-0.782012939453125,220287.0132395833,-0.1870830718364314,-0.502696689466703,0.3249442688254732,220287.0132395833,1.69611661948496,-0.7784791222219677,0.2437606483010197,-0.2004815489053726,-0.4878632426261902,0.356047511100769,-0.08015821129083633,0.08942203223705292,-0.07052522897720337,XTrueNorthZVertical,-0.3569032441786511,0.1647817098586115,-0.6582315480438886,-0.642026718566039,-0.6814384460449219,-0.2413537949323654,-0.6909341216087341,-30.33342170715332,-27.64216232299805,-15.62925148010254,2,192.168.1.8,10.83.46.32,1,0
2015-03-03 08:11:31.999,206,1425399091.131994,37.77912813242318,-122.4388611317821,62.19235,0.64,157.1484375,4,50,-9999,1425399091.968121,-31.21893310546875,-26.38040161132812,-15.31641387939453,168.4682312011719,154.6909942626953,10,220287.099164625,-0.772735595703125,-0.3818817138671875,-0.70111083984375,220287.0650147917,-0.1185213211528864,-0.4963586323884234,0.03476037749604124,220287.0650147917,1.698844395304808,-0.7871805863813699,0.2190343102608297,-0.1319345831871033,-0.4815299510955811,0.06588480621576309,-0.1057233586907387,0.09550671279430389,-0.04623317718505859,XTrueNorthZVertical,-0.3529127741814779,0.1759603516968151,-0.6616466508922776,-0.6377415257103791,-0.691441535949707,-0.2172871083021164,-0.6889810562133789,-31.04860877990723,-26.56402778625488,-16.08774375915527,2,192.168.1.8,10.83.46.32,1,0
2015-03-03 08:11:32.044,207,1425399091.131994,37.77912813242318,-122.4388611317821,62.19235,0.64,157.1484375,4,50,-9999,1425399092.020444,-31.49176788330078,-25.83671569824219,-15.44954681396484,168.9455718994141,155.1683349609375,10,220287.1482365,-0.7462310791015625,-0.1383056640625,-0.82574462890625,220287.1167909167,0.05099633908170931,0.3099551992621802,0.1449843539566768,220287.1167909167,1.703933950921374,-0.7905575763669035,0.2211566735993704,0.03761060535907745,0.3247814476490021,0.176095575094223,0.01368642505258322,-0.2126790881156921,0.02356594614684582,XTrueNorthZVertical,-0.3550860635813804,0.1753732928515681,-0.6623214274596309,-0.6359940551094939,-0.6934349536895752,-0.2193582653999329,-0.686316192150116,-31.51278305053711,-26.1422119140625,-15.87477684020996,2,192.168.1.8,10.83.46.32,1,0
2015-03-03 08:11:32.084,208,1425399091.131994,37.77912813242318,-122.4388611317821,62.19235,0.64,157.1484375,4,50,-9999,1425399092.073195,-31.74755096435547,-25.64984130859375,-15.49947357177734,168.1326293945312,154.3553924560547,10,220287.1972829583,-0.670562744140625,-0.21002197265625,-0.650054931640625,220287.1685671667,0.07380764539878303,-0.0188919321408041,0.005237106283640822,220287.1685671667,1.710686653706476,-0.7914412250477105,0.2106964963610339,0.06040092185139656,-0.004066410940140486,0.03636496886610985,0.06486757844686508,-0.1532704532146454,-0.179405689239502,XTrueNorthZVertical,-0.3529865113845845,0.1782172501638496,-0.6660150281211925,-0.6325054408014266,-0.6956353783607483,-0.2091410458087921,-0.6872782707214355,-31.43847274780273,-26.21757698059082,-15.89780235290527,2,192.168.1.8,10.83.46.32,1,0
2015-03-03 08:11:32.143,209,1425399091.131994,37.77912813242318,-122.4388611317821,62.19235,0.64,157.1484375,4,50,-9999,1425399092.124384,-31.78165435791016,-25.75178527832031,-15.06678009033203,168.4005889892578,154.6233520507812,10,220287.2463608333,-0.875701904296875,-0.4206390380859375,-0.5483245849609375,220287.22034225,0.2060839272658197,-0.7781972421259831,-0.177661340531949,220287.22034225,1.711470177727854,-0.8175794676240639,0.2164438700081555,0.1926669031381607,-0.7633948922157288,-0.146435335278511,-0.2798077166080475,0.1116694509983063,-0.06317149102687836,XTrueNorthZVertical,-0.3633605195676872,0.1842669011598147,-0.6606349701181596,-0.6305365128329536,-0.7124713659286499,-0.2147578299045563,-0.6680296659469604,-31.95967102050781,-25.95566558837891,-15.27618789672852,2,192.168.1.8,10.83.46.32,1,0
2015-03-03 08:11:32.183,210,1425399092.136495,37.77913475412669,-122.4388473854609,62.20163,0.61,157.1484375,6,30,-9999,1425399092.178081,-31.83280944824219,-26.14253234863281,-14.28462982177734,169.1609802246094,155.3837432861328,10,220287.295611375,-0.669281005859375,-0.200592041015625,-0.7708282470703125,220287.2721186667,0.3457829717231252,0.2578986557505104,-0.3337284393649906,220287.2721186667,1.712950442539515,-0.815585885866789,0.2357071097790699,0.3323660492897034,0.2727008759975433,-0.3025026917457581,0.02012798935174942,-0.01450101472437382,0.00836224015802145,XTrueNorthZVertical,-0.3682674369012376,0.1764498774768672,-0.6582235970187481,-0.6324446598607629,-0.7079942226409912,-0.2335305958986282,-0.6664890646934509,-32.04531860351562,-26.24184036254883,-14.59255504608154,2,192.168.1.8,10.83.46.32,1,0
2015-03-03 08:11:32.244,211,1425399092.136495,37.77913475412669,-122.4388473854609,62.20163,0.61,157.1484375,6,30,-9999,1425399092.178081,-31.83280944824219,-26.14253234863281,-14.28462982177734,169.1609802246094,155.3837432861328,10,220287.3444838334,-0.834381103515625,-0.3467254638671875,-0.6572418212890625,220287.3238948334,0.5314737429416632,-0.178063477856551,-0.2985917572069211,220287.3238948334,1.72215002177,-0.8244745394733529,0.2553807914512495,0.5180321931838989,-0.1632518321275711,-0.2673673033714294,-0.04201639443635941,-0.1614181101322174,0.02096700482070446,XTrueNorthZVertical,-0.3774723569581948,0.1704500279235528,-0.656092837947657,-0.6308752741304562,-0.7103792428970337,-0.2526138722896576,-0.6569228172302246,-31.56149864196777,-26.68027687072754,-14.84970569610596,2,192.168.1.8,10.83.46.32,1,0
2015-03-03 08:11:32.282,212,1425399092.136495,37.77913475412669,-122.4388473854609,62.20163,0.61,157.1484375,6,30,-9999,1425399092.253427,-31.01433563232422,-27.39974975585938,-13.05314636230469,170.0324859619141,156.2552490234375,10,220287.39354,-0.8440704345703125,-0.4233551025390625,-0.5776519775390625,220287.37567,0.7434421909521219,-0.3297318335171087,-0.637642257694326,220287.3238948334,1.72215002177,-0.8244745394733529,0.2553807914512495,0.5180321931838989,-0.1632518321275711,-0.2673673033714294,-0.04201639443635941,-0.1614181101322174,0.02096700482070446,XTrueNorthZVertical,-0.3774723569581948,0.1704500279235528,-0.656092837947657,-0.6308752741304562,-0.7103792428970337,-0.2526138722896576,-0.6569228172302246,-31.56149864196777,-26.68027687072754,-14.84970569610596,2,192.168.1.8,10.83.46.32,1,0
2015-03-03 08:11:32.339,213,1425399092.136495,37.77913475412669,-122.4388473854609,62.20163,0.61,157.1484375,6,30,-9999,1425399092.306221,-30.34931182861328,-28.84388732910156,-12.33754730224609,171.9769592285156,158.1997222900391,10,220287.44260975,-0.57275390625,-0.44781494140625,-0.709442138671875,220287.427446125,0.7936606206794191,0.2812053100303388,-0.7559047195892568,220287.427446125,1.736693139315196,-0.8351474002613722,0.3477013574254172,0.7802249193191528,0.2960162758827209,-0.7246840596199036,0.0003128645475953817,-0.1250674277544022,-0.008631001226603985,XTrueNorthZVertical,-0.4070255063077736,0.1373860425060487,-0.6418392803451992,-0.6352146617856732,-0.697029173374176,-0.3407376110553741,-0.6309106349945068,-30.6529655456543,-29.02352523803711,-12.1041259765625,2,192.168.1.8,10.83.46.32,1,0
2015-03-03 08:11:32.378,214,1425399092.136495,37.77913475412669,-122.4388473854609,62.20163,0.61,157.1484375,6,30,-9999,1425399092.362777,-29.30918121337891,-30.18606567382812,-11.28910827636719,172.4343109130859,158.6570739746094,10,220287.491657,-0.70709228515625,-0.4525909423828125,-0.584442138671875,220287.479222375,0.8010152063457819,-0.3341723883187068,-0.9299806463456322,220287.479222375,1.741312016806006,-0.837364172722543,0.4056896406777543,0.7875798940658569,-0.3193613290786743,-0.8987608551979065,0.03626535832881927,-0.08735737204551697,-0.02352436631917953,XTrueNorthZVertical,-0.4231322604214053,0.1158268246377689,-0.6315991837450762,-0.6392383935431762,-0.682581901550293,-0.3946525156497955,-0.6150864958763123,-29.56884384155273,-30.40617370605469,-11.38538932800293,2,192.168.1.8,10.83.46.32,1,0
2015-03-03 08:11:32.441,215,1425399092.136495,37.77913475412669,-122.4388473854609,62.20163,0.61,157.1484375,6,30,-9999,1425399092.434899,-26.95608520507812,-32.42869567871094,-8.992546081542969,174.9767913818359,161.1995544433594,10,220287.5407388333,-0.72674560546875,-0.4824981689453125,-0.5764617919921875,220287.5309974584,0.7737652094398731,-0.1142272402112427,-1.110403152295775,220287.479222375,1.741312016806006,-0.837364172722543,0.4056896406777543,0.7875798940658569,-0.3193613290786743,-0.8987608551979065,0.03626535832881927,-0.08735737204551697,-0.02352436631917953,XTrueNorthZVertical,-0.4231322604214053,0.1158268246377689,-0.6315991837450762,-0.6392383935431762,-0.682581901550293,-0.3946525156497955,-0.6150864958763123,-29.56884384155273,-30.40617370605469,-11.38538932800293,2,192.168.1.8,10.83.46.32,1,0
2015-03-03 08:11:32.478,216,1425399092.136495,37.77913475412669,-122.4388473854609,62.20163,0.61,157.1484375,6,30,-9999,1425399092.434899,-26.95608520507812,-32.42869567871094,-8.992546081542969,174.9767913818359,161.1995544433594,10,220287.5897913334,-0.50213623046875,-0.356231689453125,-0.5619354248046875,220287.582773875,0.5673185596335847,0.09614837115123974,-1.199745016332991,220287.5309974584,1.732102319483552,-0.8482944738662223,0.4679971023121423,0.760330855846405,-0.0994168147444725,-1.079183459281921,-0.03782880678772926,0.01611735858023167,0.01830658502876759,XTrueNorthZVertical,-0.4418639449042016,0.09836738634811955,-0.6135349857554969,-0.6470355079536528,-0.6694923639297485,-0.4510996639728546,-0.5901602506637573,-27.50790786743164,-33.00700378417969,-9.073685646057129,2,192.168.1.8,10.83.46.32,1,0
2015-03-03 08:11:32.542,217,1425399092.136495,37.77913475412669,-122.4388473854609,62.20163,0.61,157.1484375,6,30,-9999,1425399092.486979,-24.85875701904297,-34.65434265136719,-7.444854736328125,177.8061828613281,164.0289459228516,10,220287.6388591667,-0.786773681640625,-0.656219482421875,-0.368865966796875,220287.6345500417,0.8522155435669914,-0.4684732052464217,-0.8936551290769513,220287.6345500417,1.716686648040557,-0.8563487964323425,0.5959240544781509,0.8387818932533264,-0.4536634385585785,-0.8624357581138611,-0.09558753669261932,-0.04536990821361542,0.1085323616862297,XTrueNorthZVertical,-0.4749516183226163,0.05735189633510467,-0.5784277394000517,-0.6607216405825865,-0.6252376437187195,-0.5612737536430359,-0.5422634482383728,-24.67133903503418,-35.60720062255859,-7.206342697143555,2,192.168.1.8,10.83.46.32,1,0
2015-03-03 08:11:32.579,218,1425399092.136495,37.77913475412669,-122.4388473854609,62.20163,0.61,157.1484375,6,30,-9999,1425399092.542331,-22.21578216552734,-36.57415771484375,-5.6641845703125,181.630126953125,167.8528900146484,10,220287.687909875,-0.6544952392578125,-0.5464324951171875,-0.4430389404296875,220287.6345500417,0.8522155435669914,-0.4684732052464217,-0.8936551290769513,220287.6345500417,1.716686648040557,-0.8563487964323425,0.5959240544781509,0.8387818932533264,-0.4536634385585785,-0.8624357581138611,-0.09558753669261932,-0.04536990821361542,0.1085323616862297,XTrueNorthZVertical,-0.4749516183226163,0.05735189633510467,-0.5784277394000517,-0.6607216405825865,-0.6252376437187195,-0.5612737536430359,-0.5422634482383728,-24.67133903503418,-35.60720062255859,-7.206342697143555,2,192.168.1.8,10.83.46.32,1,0
2015-03-03 08:11:32.641,219,1425399092.136495,37.77913475412669,-122.4388473854609,62.20163,0.61,157.1484375,6,30,-9999,1425399092.616156,-18.5667724609375,-38.40904235839844,-2.968223571777344,186.0175323486328,172.2402954101562,10,220287.7369925,-0.543212890625,-0.658721923828125,-0.3531646728515625,220287.738101375,0.9762653208267732,0.7083457225265127,-1.12908549365879,220287.6863250417,1.714345843126004,-0.8699738065779152,0.659710813501448,0.9923649430274963,0.1196441575884819,-1.033755660057068,0.003426434239372611,0.06241229549050331,0.1733106821775436,XTrueNorthZVertical,-0.4936778256432421,0.03889929663880493,-0.5592869136152301,-0.6648061471211146,-0.6039360761642456,-0.6128883957862854,-0.5095381140708923,-22.20918083190918,-37.6384391784668,-4.310403823852539,2,192.168.1.8,10.83.46.32,1,0
2015-03-03 08:11:32.675,220,1425399092.136495,37.77913475412669,-122.4388473854609,62.20163,0.61,157.1484375,6,30,-9999,1425399092.668623,-16.53766632080078,-39.37744140625,-1.553672790527344,188.0415344238281,174.2642974853516,10,220287.786031,-0.1714324951171875,-0.4729766845703125,-0.586395263671875,220287.7898777917,0.8812887405551684,0.7777833868925847,-1.100087930445571,220287.738101375,1.715964545436074,-0.8493796207959405,0.7303774427742756,0.9628322124481201,0.7231548428535461,-1.097866535186768,0.01612779498100281,0.008428924717009068,0.1388188153505325,XTrueNorthZVertical,-0.5039621298769474,0.005515799183555256,-0.5476330992717667,-0.6678995074061376,-0.5593406558036804,-0.6671508550643921,-0.4919835031032562,-21.00006103515625,-38.42533874511719,-3.312089920043945,2,192.168.1.8,10.83.46.32,1,0
2015-03-03 08:11:32.739,221,1425399092.136495,37.77913475412669,-122.4388473854609,62.20163,0.61,157.1484375,6,30,-9999,1425399092.720317,-14.32098388671875,-40.26089477539062,-0.089202880859375,188.5767364501953,174.7994995117188,10,220287.8351058333,-0.712310791015625,-0.7124786376953125,-0.3301239013671875,220287.7898777917,0.8812887405551684,0.7777833868925847,-1.100087930445571,220287.7898777917,1.714963520589762,-0.801346187534039,0.8050283826023672,0.8678557276725769,0.7925923466682434,-1.068869113922119,0.3264099955558777,0.2478736340999603,-0.10418401658535,XTrueNorthZVertical,-0.5073998756285274,-0.03794392448043575,-0.5406782400621175,-0.6699049793311086,-0.4978424906730652,-0.7208502888679504,-0.4822112619876862,-19.0185661315918,-39.52073287963867,-2.210180282592773,2,192.168.1.8,10.83.46.32,1,0
2015-03-03 08:11:32.771,222,1425399092.136495,37.77913475412669,-122.4388473854609,62.20163,0.61,157.1484375,6,30,-9999,1425399092.720317,-14.32098388671875,-40.26089477539062,-0.089202880859375,188.5767364501953,174.7994995117188,10,220287.8842527083,-0.3952484130859375,-0.6798858642578125,-0.3302154541015625,220287.84165275,0.5895743305472678,-0.4391802974683131,-0.2933272203640525,220287.84165275,1.716798495470584,-0.8137173776539611,0.8461527091393457,0.5761414766311646,-0.4243714511394501,-0.2621087729930878,-0.2305078208446503,0.0362570658326149,0.1251351088285446,XTrueNorthZVertical,-0.5195392375456805,-0.04949218000728386,-0.5275389812193039,-0.670322417844415,-0.4818029701709747,-0.7487357258796692,-0.4552589952945709,-16.35734176635742,-40.75221252441406,-0.4169101715087891,2,192.168.1.8,10.83.46.32,1,0
2015-03-03 08:11:32.839,223,1425399092.136495,37.77913475412669,-122.4388473854609,62.20163,0.61,157.1484375,6,30,-9999,1425399092.828186,-11.86558532714844,-40.53269958496094,2.007652282714844,190.8142395019531,177.0370025634766,10,220287.9332266667,-0.1261749267578125,-0.943878173828125,-0.47930908203125,220287.9452052917,0.536105512709529,0.08360807821027463,-0.1400726859582437,220287.893429,1.723565220983718,-0.7863948648898361,0.8715384452646169,0.5188895463943481,1.304680585861206,-0.2188082188367844,0.060334213078022,0.0854341983795166,0.1244599148631096,XTrueNorthZVertical,-0.5174863626355144,-0.06978667481038088,-0.5302656826529797,-0.6679491044292583,-0.4555826187133789,-0.7653200626373291,-0.4546753764152527,-15.97421073913574,-40.90507125854492,0.2808361053466797,2,192.168.1.8,10.83.46.32,1,0
2015-03-03 08:11:32.869,224,1425399092.136495,37.77913475412669,-122.4388473854609,62.20163,0.61,157.1484375,6,30,-9999,1425399092.828186,-11.86558532714844,-40.53269958496094,2.007652282714844,190.8142395019531,177.0370025634766,10,220287.9823846667,-0.3223114013671875,-0.97821044921875,-0.533294677734375,220287.9452052917,0.536105512709529,0.08360807821027463,-0.1400726859582437,220287.9452052917,1.748080273138762,-0.7694797375110946,0.9061245893078194,0.5226732492446899,0.09841671586036682,-0.1088553294539452,0.3901448845863342,-0.1022239625453949,0.1396712213754654,XTrueNorthZVertical,-0.5191669512004716,-0.09460483767629466,-0.5337173112412107,-0.6608036387256089,-0.4291463494300842,-0.7871193289756775,-0.4430311918258667,-15.50232791900635,-41.08549118041992,0.3733634948730469,2,192.168.1.8,10.83.46.32,1,0
2015-03-03 08:11:32.931,225,1425399092.136495,37.77913475412669,-122.4388473854609,62.20163,0.61,157.1484375,6,30,-9999,1425399092.902483,-10.91071319580078,-40.39680480957031,2.70660400390625,190.6868896484375,176.9096527099609,10,220288.0313698333,-0.6696319580078125,-0.890289306640625,-0.4552459716796875,220287.9969805,0.3462202627741162,-0.423983767656103,-0.4351666473894547,220287.9969805,1.734488159489721,-0.7722022820657019,0.9271959869543791,0.3327897787094116,-0.4091566801071167,-0.4039803147315979,0.08750738948583603,-0.1116958931088448,-0.06930889934301376,XTrueNorthZVertical,-0.5248416402651126,-0.09797989849714638,-0.5229113311819945,-0.6644583867014495,-0.4186841547489166,-0.7999404668807983,-0.4298823773860931,-14.41931533813477,-41.45149230957031,1.528482437133789,2,192.168.1.8,10.83.46.32,1,0
2015-03-03 08:11:32.968,226,1425399092.136495,37.77913475412669,-122.4388473854609,62.20163,0.61,157.1484375,6,30,-9999,1425399092.953586,-10.51853179931641,-40.92349243164062,3.322349548339844,191.3603820800781,177.5831451416016,10,220288.0805625,-0.2866058349609375,-0.7955169677734375,-0.348968505859375,220288.0487567083,-0.1893614061489942,0.2377856642499049,0.009015066606027229,220288.0487567083,1.73629126809485,-0.7729497107977842,0.9309031357043934,-0.202791765332222,0.2526125907897949,0.04020112752914429,-0.168685257434845,-0.1032970026135445,-0.03807162120938301,XTrueNorthZVertical,-0.5257017800124957,-0.09957851269907943,-0.5223233966012342,-0.6640030447711716,-0.4169318079948425,-0.8021595478057861,-0.4274435043334961,-14.05022239685059,-41.55740356445312,2.013097763061523,2,192.168.1.8,10.83.46.32,1,0
2015-03-03 08:11:33.032,227,1425399092.136495,37.77913475412669,-122.4388473854609,62.20163,0.61,157.1484375,6,30,-9999,1425399093.006144,-10.56968688964844,-41.17831420898438,2.873023986816406,191.3950958251953,177.6178588867188,10,220288.1294895833,-0.3218841552734375,-0.80804443359375,-0.286834716796875,220288.100533125,-0.4120405554315336,0.1338131921321214,0.3508685441407405,220288.100533125,1.726981323032905,-0.7563055675375897,0.920580037359958,-0.425470769405365,0.1486399620771408,0.3820542693138123,-0.09371940791606903,-0.1138829290866852,0.02168331481516361,XTrueNorthZVertical,-0.5196782316419133,-0.09885752456007417,-0.5263236051117594,-0.665691523079311,-0.4154206216335297,-0.7959528565406799,-0.4403234422206879,-14.1193675994873,-41.5483283996582,1.690832138061523,2,192.168.1.8,10.83.46.32,1,0
2015-03-03 08:11:33.065,228,1425399092.136495,37.77913475412669,-122.4388473854609,62.20163,0.61,157.1484375,6,30,-9999,1425399093.061824,-10.53558349609375,-41.5860595703125,2.573463439941406,191.7592315673828,177.9819946289062,10,220288.1785327917,-0.229156494140625,-0.9174041748046875,-0.47906494140625,220288.152308,-0.1376489430501625,0.214632408048865,-0.01128754196419184,220288.152308,1.719093908550164,-0.7455273604206415,0.9095199337941525,-0.1510790139436722,0.2294590324163437,0.01989786513149738,0.1253222227096558,0.04340517893433571,0.04453876242041588,XTrueNorthZVertical,-0.5148920084612234,-0.09632349342286307,-0.5293921990477953,-0.667346925989044,-0.4165972471237183,-0.7892090082168579,-0.4512160122394562,-14.48734283447266,-41.44844055175781,0.7891521453857422,2,192.168.1.8,10.83.46.32,1,0
2015-03-03 08:11:33.140,229,1425399092.136495,37.77913475412669,-122.4388473854609,62.20163,0.61,157.1484375,6,30,-9999,1425399093.061824,-10.53558349609375,-41.5860595703125,2.573463439941406,191.7592315673828,177.9819946289062,10,220288.2276075,-0.4890899658203125,-0.783905029296875,-0.2947235107421875,220288.2040843334,-0.3444948007038539,-0.8895517304693572,0.1184845695298433,220288.2040843334,1.713940970122959,-0.753606753028526,0.8863791600087333,-0.3579314351081848,-0.8747493028640747,0.149767741560936,0.09879583120346069,0.002494567539542913,-0.02372431568801403,XTrueNorthZVertical,-0.512316735275463,-0.08375849494031799,-0.531626519907656,-0.6692453484448011,-0.4326123595237732,-0.7747876644134521,-0.4610321521759033,-14.69500732421875,-41.38096237182617,0.38983154296875,2,192.168.1.8,10.83.46.32,1,0
2015-03-03 08:11:33.163,230,1425399092.136495,37.77913475412669,-122.4388473854609,62.20163,0.61,157.1484375,6,30,-9999,1425399093.134467,-11.66098022460938,-41.07640075683594,1.841232299804688,189.6115264892578,175.8342895507812,10,220288.2766544167,-0.502655029296875,-0.7013092041015625,-0.41943359375,220288.2558606667,-0.437764294716718,-0.06747225148159353,0.4514063374006489,220288.2558606667,1.70439740729382,-0.7722323265239743,0.8485564551025694,-0.4512000977993011,-0.05267044901847839,0.482689380645752,0.1085433959960938,-0.07534142583608627,0.09720052033662796,XTrueNorthZVertical,-0.5093971150286267,-0.06111711078423544,-0.5334256828724341,-0.6724851928660451,-0.4612503051757812,-0.750326931476593,-0.4735585451126099,-15.17525291442871,-41.20911026000977,-0.00904083251953125,2,192.168.1.8,10.83.46.32,1,0
2015-03-03 08:11:33.233,231,1425399093.151292,37.77914267502518,-122.4388330524065,62.16525,0.59,157.1484375,4,30,-9999,1425399093.185444,-12.54765319824219,-40.09101867675781,0.9425811767578125,189.3826141357422,175.6053771972656,10,220288.3257445417,-0.363128662109375,-0.713836669921875,-0.3240509033203125,220288.3076357083,-1.098492430636505,-0.05252259670243373,0.6344730959971318,220288.3076357083,1.694111824614597,-0.7794967480524341,0.8234247368758532,-1.111907601356506,-0.0377260223031044,0.6657496690750122,0.0009326759609393775,0.04960955679416656,0.02329855039715767,XTrueNorthZVertical,-0.5060442676421171,-0.04680035089859331,-0.5345303090107,-0.6752823786338218,-0.4777850806713104,-0.7334779500961304,-0.4834578633308411,-16.23234748840332,-40.79009246826172,-1.076265335083008,2,192.168.1.8,10.83.46.32,1,0
2015-03-03 08:11:33.265,232,1425399093.151292,37.77914267502518,-122.4388330524065,62.16525,0.59,157.1484375,4,30,-9999,1425399093.237543,-13.96292877197266,-39.87016296386719,-0.3721237182617188,188.2558135986328,174.4785766601562,10,220288.3747949583,-0.466644287109375,-0.59405517578125,-0.4486846923828125,220288.3594120417,-0.6378214884356884,-0.3160067002071673,0.1791476507363223,220288.3076357083,1.694111824614597,-0.7794967480524341,0.8234247368758532,-1.111907601356506,-0.0377260223031044,0.6657496690750122,0.0009326759609393775,0.04960955679416656,0.02329855039715767,XTrueNorthZVertical,-0.5060442676421171,-0.04680035089859331,-0.5345303090107,-0.6752823786338218,-0.4777850806713104,-0.7334779500961304,-0.4834578633308411,-16.23234748840332,-40.79009246826172,-1.076265335083008,2,192.168.1.8,10.83.46.32,1,0
2015-03-03 08:11:33.337,233,1425399093.151292,37.77914267502518,-122.4388330524065,62.16525,0.59,157.1484375,4,30,-9999,1425399093.291731,-15.13947296142578,-40.05705261230469,-2.2193603515625,187.7259674072266,173.94873046875,10,220288.423887375,-0.4761962890625,-0.5730133056640625,-0.5350494384765625,220288.4111882917,-1.04064963702442,0.5621387113133806,0.9748061748655188,220288.4111882917,1.678398939680257,-0.7446360105254425,0.7067236504094895,-1.054064631462097,0.5769350528717041,1.00608217716217,0.1787807196378708,-0.01647164300084114,0.1086098626255989,XTrueNorthZVertical,-0.4693090315756153,-0.01185116216994834,-0.5662028476555744,-0.6775123127630992,-0.515389621257782,-0.6493456363677979,-0.5592171549797058,-18.09159088134766,-39.84677505493164,-3.66168212890625,2,192.168.1.8,10.83.46.32,1,0
2015-03-03 08:11:33.364,234,1425399093.151292,37.77914267502518,-122.4388330524065,62.16525,0.59,157.1484375,4,30,-9999,1425399093.342155,-17.01512908935547,-39.71726989746094,-4.282943725585938,185.4694519042969,171.6922149658203,10,220288.472988875,-0.22705078125,-0.76495361328125,-0.3554534912109375,220288.4629635417,-1.18383715619362,0.2577678945409875,0.7552298745690307,220288.4111882917,1.678398939680257,-0.7446360105254425,0.7067236504094895,-1.054064631462097,0.5769350528717041,1.00608217716217,0.1787807196378708,-0.01647164300084114,0.1086098626255989,XTrueNorthZVertical,-0.4693090315756153,-0.01185116216994834,-0.5662028476555744,-0.6775123127630992,-0.515389621257782,-0.6493456363677979,-0.5592171549797058,-18.09159088134766,-39.84677505493164,-3.66168212890625,2,192.168.1.8,10.83.46.32,1,0
2015-03-03 08:11:33.440,235,1425399093.151292,37.77914267502518,-122.4388330524065,62.16525,0.59,157.1484375,4,30,-9999,1425399093.393246,-18.68617248535156,-38.66392517089844,-6.745918273925781,183.7941741943359,170.0169372558594,10,220288.5220197917,-0.696502685546875,-0.4941864013671875,-0.628448486328125,220288.51473975,-1.254592286350954,-0.793016402011729,1.038757993702137,220288.51473975,1.662056022242556,-0.7478571727319034,0.5611561854373059,-1.268006205558777,-0.7782201766967773,1.070032358169556,-0.09365943819284439,0.1297148615121841,-0.06013460084795952,XTrueNorthZVertical,-0.4330224373360185,0.04620914746624755,-0.5925116377394783,-0.6777066167593487,-0.5757741332054138,-0.5321654081344604,-0.6207125782966614,-18.46765518188477,-39.01470947265625,-6.815948486328125,2,192.168.1.8,10.83.46.32,1,0
2015-03-03 08:11:33.465,236,1425399093.151292,37.77914267502518,-122.4388330524065,62.16525,0.59,157.1484375,4,30,-9999,1425399093.445871,-20.86874389648438,-36.99891662597656,-8.809501647949219,182.1488494873047,168.3716125488281,10,220288.5710762917,-0.5281219482421875,-0.4509735107421875,-0.5918426513671875,220288.5665160417,-0.9922384284128505,-0.3301238508295683,0.8944948237686533,220288.51473975,1.662056022242556,-0.7478571727319034,0.5611561854373059,-1.268006205558777,-0.7782201766967773,1.070032358169556,-0.09365943819284439,0.1297148615121841,-0.06013460084795952,XTrueNorthZVertical,-0.4330224373360185,0.04620914746624755,-0.5925116377394783,-0.6777066167593487,-0.5757741332054138,-0.5321654081344604,-0.6207125782966614,-18.46765518188477,-39.01470947265625,-6.815948486328125,2,192.168.1.8,10.83.46.32,1,0
2015-03-03 08:11:33.538,237,1425399093.151292,37.77914267502518,-122.4388330524065,62.16525,0.59,157.1484375,4,30,-9999,1425399093.49671,-22.50567626953125,-34.99417114257812,-10.24069976806641,180.9320983886719,167.1548614501953,10,220288.6201686667,-0.5648651123046875,-0.642364501953125,-0.3542327880859375,220288.6182911667,-0.8583863541288139,0.04513205836135483,0.6120058700928963,220288.5665160417,1.6497097448204,-0.7562471302279586,0.4904132989929241,-1.005652189254761,-0.3153277933597565,0.9257689118385315,0.2343331575393677,-0.1649042665958405,0.2154427766799927,XTrueNorthZVertical,-0.4161434155056784,0.07735477498726306,-0.60132754627618,-0.6776769838274809,-0.6053200960159302,-0.4709905087947845,-0.6416817903518677,-20.45891189575195,-37.70465850830078,-8.333703994750977,2,192.168.1.8,10.83.46.32,1,0
2015-03-03 08:11:33.565,238,1425399093.151292,37.77914267502518,-122.4388330524065,62.16525,0.59,157.1484375,4,30,-9999,1425399093.54942,-24.261962890625,-32.83648681640625,-12.02136993408203,178.8397827148438,165.0625457763672,10,220288.6692616667,-0.768218994140625,-0.3232269287109375,-0.805511474609375,220288.6182911667,-0.8583863541288139,0.04513205836135483,0.6120058700928963,220288.6182911667,1.650747155087303,-0.7566113770185774,0.4246068408189328,-0.8717999458312988,0.05992794781923294,0.6432796716690063,-0.1005854085087776,-0.1983432173728943,0.1794554889202118,XTrueNorthZVertical,-0.3981194854280304,0.1010129138060644,-0.6147257196277325,-0.6733569424883065,-0.6255040764808655,-0.4119625687599182,-0.6625945568084717,-22.94231224060059,-35.52967834472656,-10.99779510498047,2,192.168.1.8,10.83.46.32,1,0
2015-03-03 08:11:33.643,239,1425399093.151292,37.77914267502518,-122.4388330524065,62.16525,0.59,157.1484375,4,30,-9999,1425399093.600609,-25.60901641845703,-31.29046630859375,-13.60233306884766,176.6987609863281,162.9215240478516,10,220288.7183492917,-0.7401885986328125,-0.3100433349609375,-0.9066925048828125,220288.7218437917,-0.7648833008883499,-0.1570663168740393,0.8615842779657811,220288.6700676667,1.649867331040107,-0.7411312528135691,0.3564988723345359,-0.8219355344772339,0.1520827412605286,0.7680771350860596,-0.1355448365211487,0.0257684588432312,-0.1141898036003113,XTrueNorthZVertical,-0.3739347423414818,0.1204656566142392,-0.63022527676325,-0.6696842169092082,-0.6326741576194763,-0.3489953875541687,-0.6913216710090637,-23.72117042541504,-34.66188430786133,-12.06311988830566,2,192.168.1.8,10.83.46.32,1,0
2015-03-03 08:11:33.653,240,1425399093.151292,37.77914267502518,-122.4388330524065,62.16525,0.59,157.1484375,4,30,-9999,1425399093.600609,-25.60901641845703,-31.29046630859375,-13.60233306884766,176.6987609863281,162.9215240478516,10,220288.7674209167,-0.85308837890625,-0.1398162841796875,-0.69525146484375,220288.7218437917,-0.7648833008883499,-0.1570663168740393,0.8615842779657811,220288.7218437917,1.652083003476724,-0.7512155289614024,0.298745159473621,-0.7782965898513794,-0.1422707438468933,0.8928573727607727,-0.08789244294166565,-0.01572215557098389,-0.2082050144672394,XTrueNorthZVertical,-0.3605511296277473,0.14408031342372,-0.6393772181081177,-0.6636569407263871,-0.6522961854934692,-0.2943211793899536,-0.6984875202178955,-24.92824935913086,-33.16875839233398,-13.71403503417969,2,192.168.1.8,10.83.46.32,1,0
2015-03-03 08:11:33.741,241,1425399093.151292,37.77914267502518,-122.4388330524065,62.16525,0.59,157.1484375,4,30,-9999,1425399093.704262,-29.08750915527344,-28.16438293457031,-16.06529998779297,174.1990966796875,160.4218597412109,10,220288.8165159583,-0.7447967529296875,-0.1758575439453125,-0.577301025390625,220288.8253951667,-0.3829111657443559,0.0240105277559364,0.6948637358240956,220288.7736189167,1.653430073208451,-0.770938954513776,0.2531500453883136,-0.5849210023880005,-0.2470961064100266,0.7471475601196289,-0.1784878522157669,0.1106385588645935,-0.00085495098028332,XTrueNorthZVertical,-0.3536361295819676,0.1665629938340406,-0.644124223519222,-0.6574969638083441,-0.6746005415916443,-0.250454843044281,-0.6943964958190918,-27.04727172851562,-30.90935516357422,-14.92367076873779,2,192.168.1.8,10.83.46.32,1,0
2015-03-03 08:11:33.752,242,1425399093.151292,37.77914267502518,-122.4388330524065,62.16525,0.59,157.1484375,4,30,-9999,1425399093.704262,-29.08750915527344,-28.16438293457031,-16.06529998779297,174.1990966796875,160.4218597412109,10,220288.8655698333,-0.72381591796875,-0.3638916015625,-0.7754058837890625,220288.8253951667,-0.3829111657443559,0.0240105277559364,0.6948637358240956,220288.8253951667,1.660945734125977,-0.7680230201053128,0.2147998182969858,-0.3963223099708557,0.03880076855421066,0.7261424660682678,-0.06604734063148499,0.03729430586099625,0.1254546493291855,XTrueNorthZVertical,-0.3420255043081983,0.1778783783027055,-0.6534506676620087,-0.6514446082893786,-0.6787493824958801,-0.2131518572568893,-0.7027556896209717,-27.67845153808594,-30.09379768371582,-15.42483901977539,2,192.168.1.8,10.83.46.32,1,0
2015-03-03 08:11:33.841,243,1425399093.151292,37.77914267502518,-122.4388330524065,62.16525,0.59,157.1484375,4,30,-9999,1425399093.760117,-30.38340759277344,-26.6693115234375,-16.63112640380859,171.4697570800781,157.6925201416016,10,220288.9146476667,-0.957733154296875,-0.2112579345703125,-0.658355712890625,220288.8771716667,-0.1567331554216704,-0.8447786662229451,0.3310788603964707,220288.8771716667,1.66927254445239,-0.7780875101719391,0.185443778163958,-0.1701422780752182,-0.829987108707428,0.362353503704071,-0.1380428373813629,-0.04925985634326935,-0.01019033137708902,XTrueNorthZVertical,-0.3373995009975657,0.1901024578735176,-0.6591489181370085,-0.6446280724246786,-0.6898837685585022,-0.1843827217817307,-0.7000452876091003,-28.50045013427734,-28.97567749023438,-16.05595016479492,2,192.168.1.8,10.83.46.32,3,0
2015-03-03 08:11:33.851,244,1425399093.151292,37.77914267502518,-122.4388330524065,62.16525,0.59,157.1484375,4,30,-9999,1425399093.833737,-31.27008056640625,-24.97035217285156,-16.69768524169922,171.2821197509766,157.5048828125,10,220288.9636987083,-0.6810760498046875,-0.105194091796875,-0.8702850341796875,220288.928946625,0.05753519850618087,0.4612752134521555,0.3075093521170514,220288.928946625,1.682914235805098,-0.7878000674504759,0.1678465904378777,0.04412620142102242,0.4760666191577911,0.3387837111949921,-0.179163783788681,-0.1230252459645271,-0.01619205251336098,XTrueNorthZVertical,-0.3367356215386835,0.1971358853543492,-0.6646537029119581,-0.6371671954048171,-0.6988421678543091,-0.1670595854520798,-0.6954931020736694,-29.81470489501953,-27.79742240905762,-15.74946594238281,2,192.168.1.8,10.83.46.32,3,0
