loggingTime,loggingSample,locationTimestamp_since1970,locationLatitude,locationLongitude,locationAltitude,locationSpeed,locationCourse,locationVerticalAccuracy,locationHorizontalAccuracy,locationFloor,locationHeadingTimestamp_since1970,locationHeadingX,locationHeadingY,locationHeadingZ,locationTrueHeading,locationMagneticHeading,locationHeadingAccuracy,accelerometerTimestamp_sinceReboot,accelerometerAccelerationX,accelerometerAccelerationY,accelerometerAccelerationZ,gyroTimestamp_sinceReboot,gyroRotationX,gyroRotationY,gyroRotationZ,motionTimestamp_sinceReboot,motionYaw,motionRoll,motionPitch,motionRotationRateX,motionRotationRateY,motionRotationRateZ,motionUserAccelerationX,motionUserAccelerationY,motionUserAccelerationZ,motionAttitudeReferenceFrame,motionQuaternionX,motionQuaternionY,motionQuaternionZ,motionQuaternionW,motionGravityX,motionGravityY,motionGravityZ,motionMagneticFieldX,motionMagneticFieldY,motionMagneticFieldZ,motionMagneticFieldCalibrationAccuracy,IP_en0,IP_pdp_ip0,deviceOrientation,state
2015-03-01 11:20:44.030,1,1425237641.83585,37.74684055157145,-122.4444233108302,174.6221,-1,-1,10,65,-9999,1425237644.001368,-36.80909729003906,-2.194488525390625,-14.75816345214844,63.33223724365234,49.56061553955078,25,181094.4479384167,-0.6284027099609375,-0.5399017333984375,-0.5409698486328125,181094.4237232917,0.01862401813514213,-0.03603416744542614,-0.0309275560551992,181094.4237232917,-1.78128730386378,-0.867571542068173,0.5726891136935894,0.008908565156161785,-0.02353654429316521,0.004664517939090729,0.02465049363672733,0.008187397383153439,0.006131990347057581,XTrueNorthZVertical,0.1522926115045198,0.4528317327455348,0.7514043198686586,-0.455128376319662,-0.6410598158836365,-0.5418940782546997,-0.5435007810592651,-38.72258758544922,-3.460719108581543,-13.54018592834473,1,0.0.0.0,10.83.46.32,3,0
2015-03-01 11:20:44.042,2,1425237641.83585,37.74684055157145,-122.4444233108302,174.6221,-1,-1,10,65,-9999,1425237644.001368,-36.80909729003906,-2.194488525390625,-14.75816345214844,63.33223724365234,49.56061553955078,25,181094.496982375,-0.6383514404296875,-0.53448486328125,-0.5317840576171875,181094.4755020417,0.03962038016932684,-0.0555532740229439,-0.03414225780703385,181094.4755020417,-1.779911902997689,-0.870775717271583,0.5726615690527311,0.02990483306348324,-0.04305557906627655,0.001449491595849395,0.002550599398091435,0.009354433044791222,0.0007430766709148884,XTrueNorthZVertical,0.1531930962581637,0.453657483477862,0.7508459325255181,-0.4549253313480128,-0.6428093910217285,-0.5418708920478821,-0.5414535403251648,-38.75035095214844,-3.444362640380859,-13.46470832824707,1,0.0.0.0,10.83.46.32,3,0
2015-03-01 11:20:44.109,3,1425237641.83585,37.74684055157145,-122.4444233108302,174.6221,-1,-1,10,65,-9999,1425237644.076524,-37.25251770019531,-2.12652587890625,-14.59181213378906,63.73210525512695,49.96048355102539,25,181094.5460398333,-0.62689208984375,-0.534454345703125,-0.5350494384765625,181094.5272803333,0.04064729508566139,-0.02283048107692228,-0.03497023458993948,181094.5272803333,-1.778314859508801,-0.8725843909283185,0.5737087107905363,0.03093184158205986,-0.01033295132219791,0.0006211542640812695,0.01487365551292896,0.005717616528272629,0.002266258234158158,XTrueNorthZVertical,0.1531740622578459,0.4545054805599649,0.7503734590757685,-0.4548648758212649,-0.6433526873588562,-0.5427507162094116,-0.5399249792098999,-38.77284240722656,-3.451796531677246,-13.39790725708008,1,0.0.0.0,10.83.46.32,3,0
2015-03-01 11:20:44.141,4,1425237641.83585,37.74684055157145,-122.4444233108302,174.6221,-1,-1,10,65,-9999,1425237644.128799,-37.26958465576172,-2.2794189453125,-13.97627258300781,63.75375747680664,49.98213577270508,25,181094.5952100417,-0.622894287109375,-0.535980224609375,-0.5249481201171875,181094.5790593333,0.06666238419410044,-0.05834187000036587,-0.02555782434927243,181094.5272803333,-1.778314859508801,-0.8725843909283185,0.5737087107905363,0.03093184158205986,-0.01033295132219791,0.0006211542640812695,0.01487365551292896,0.005717616528272629,0.002266258234158158,XTrueNorthZVertical,0.1531740622578459,0.4545054805599649,0.7503734590757685,-0.4548648758212649,-0.6433526873588562,-0.5427507162094116,-0.5399249792098999,-38.77284240722656,-3.451796531677246,-13.39790725708008,1,0.0.0.0,10.83.46.32,3,0
2015-03-01 11:20:44.209,5,1425237641.83585,37.74684055157145,-122.4444233108302,174.6221,-1,-1,10,65,-9999,1425237644.180158,-37.1160888671875,-2.60223388671875,-13.8265380859375,63.79018402099609,50.01856231689453,25,181094.6441543333,-0.6384124755859375,-0.5420989990234375,-0.5311431884765625,181094.6308379167,0.06672283795084523,-0.06806001113417402,-0.02408935732420274,181094.6308379167,-1.773699519198767,-0.8782945907039941,0.5765513746321114,0.05702999234199524,-0.05552971363067627,0.01141398027539253,0.009645560756325722,0.002258840017020702,0.008582905866205692,XTrueNorthZVertical,0.1533512439830561,0.457007397584734,0.748967751867466,-0.4546150566502559,-0.6452351808547974,-0.545136034488678,-0.5352552533149719,-38.80376052856445,-3.509363174438477,-13.29302024841309,1,0.0.0.0,10.83.46.32,3,0
2015-03-01 11:20:44.239,6,1425237641.83585,37.74684055157145,-122.4444233108302,174.6221,-1,-1,10,65,-9999,1425237644.23396,-37.13314819335938,-2.72119140625,-13.97626495361328,63.82075500488281,50.04913330078125,25,181094.6933182917,-0.6387481689453125,-0.5375823974609375,-0.5188751220703125,181094.6826165,0.06915057560056147,-0.06535210893778146,-0.04373336615684522,181094.6308379167,-1.773699519198767,-0.8782945907039941,0.5765513746321114,0.05702999234199524,-0.05552971363067627,0.01141398027539253,0.009645560756325722,0.002258840017020702,0.008582905866205692,XTrueNorthZVertical,0.1533512439830561,0.457007397584734,0.748967751867466,-0.4546150566502559,-0.6452351808547974,-0.545136034488678,-0.5352552533149719,-38.80376052856445,-3.509363174438477,-13.29302024841309,1,0.0.0.0,10.83.46.32,3,0
2015-03-01 11:20:44.309,7,1425237641.83585,37.74684055157145,-122.4444233108302,174.6221,-1,-1,10,65,-9999,1425237644.283984,-37.23546600341797,-2.789154052734375,-13.90972137451172,63.85114669799805,50.07952499389648,25,181094.7422795834,-0.63751220703125,-0.5599822998046875,-0.5279541015625,181094.7343950417,0.1035109463008728,-0.05975600853919795,-0.0329273237177397,181094.7343950417,-1.766931668309694,-0.8865849930914507,0.5808547794404811,0.09381852298974991,-0.04722638800740242,0.002575417514890432,0.006667438428848982,0.00502229668200016,-0.001797149423509836,XTrueNorthZVertical,0.153515282832036,0.460687595716697,0.7469219433320883,-0.454210871961064,-0.6478264927864075,-0.5487387180328369,-0.5284000039100647,-38.87300109863281,-3.589920043945312,-13.06729698181152,1,0.0.0.0,10.83.46.32,3,0
2015-03-01 11:20:44.337,8,1425237641.83585,37.74684055157145,-122.4444233108302,174.6221,-1,-1,10,65,-9999,1425237644.283984,-37.23546600341797,-2.789154052734375,-13.90972137451172,63.85114669799805,50.07952499389648,25,181094.7914243334,-0.650543212890625,-0.5528411865234375,-0.5251312255859375,181094.7861738333,0.07424786592697313,-0.09356297436499082,-0.02468217698285438,181094.7343950417,-1.766931668309694,-0.8865849930914507,0.5808547794404811,0.09381852298974991,-0.04722638800740242,0.002575417514890432,0.006667438428848982,0.00502229668200016,-0.001797149423509836,XTrueNorthZVertical,0.153515282832036,0.460687595716697,0.7469219433320883,-0.454210871961064,-0.6478264927864075,-0.5487387180328369,-0.5284000039100647,-38.87300109863281,-3.589920043945312,-13.06729698181152,1,0.0.0.0,10.83.46.32,3,0
2015-03-01 11:20:44.407,9,1425237641.83585,37.74684055157145,-122.4444233108302,174.6221,-1,-1,10,65,-9999,1425237644.387619,-37.08197021484375,-3.0780029296875,-13.29419708251953,63.92555618286133,50.15393447875977,25,181094.8403733333,-0.6469879150390625,-0.545806884765625,-0.503662109375,181094.83795225,0.04688015730088285,-0.03538675298442788,-0.01019990697500348,181094.7861738333,-1.763553407781494,-0.8918601382988243,0.5835966749443645,0.06456305831670761,-0.08099084347486496,0.01073305029422045,0.00132967543322593,0.004108093678951263,-0.001514733186922967,XTrueNorthZVertical,0.1538201109886666,0.462952625630222,0.7458342982237082,-0.4535916092913446,-0.6494314670562744,-0.551028847694397,-0.524028480052948,-38.90593338012695,-3.658202171325684,-12.9498176574707,1,0.0.0.0,10.83.46.32,3,0
2015-03-01 11:20:44.435,10,1425237641.83585,37.74684055157145,-122.4444233108302,174.6221,-1,-1,10,65,-9999,1425237644.387619,-37.08197021484375,-3.0780029296875,-13.29419708251953,63.92555618286133,50.15393447875977,25,181094.8894104583,-0.613037109375,-0.5485687255859375,-0.5160980224609375,181094.83795225,0.04688015730088285,-0.03538675298442788,-0.01019990697500348,181094.83795225,-1.760548366970897,-0.8960165678395616,0.5844523477361089,0.03719588741660118,-0.02281468361616135,0.02521443739533424,0.009359325282275677,0.006820840295404196,0.01431602798402309,XTrueNorthZVertical,0.1543962511575423,0.4643779170865294,0.7448595569200193,-0.4535406230588736,-0.6512355208396912,-0.5517427325248718,-0.5210298895835876,-38.94554901123047,-3.670883178710938,-12.82656955718994,1,0.0.0.0,10.83.46.32,3,0
2015-03-01 11:20:44.512,11,1425237641.83585,37.74684055157145,-122.4444233108302,174.6221,-1,-1,10,65,-9999,1425237644.491718,-37.84944915771484,-3.12896728515625,-13.31084442138672,64.03342437744141,50.26180267333984,25,181094.9384792084,-0.6506805419921875,-0.557373046875,-0.507293701171875,181094.9415097917,0.02431093232689733,-0.1673660923899207,-0.08266665076493161,181094.8897311667,-1.758651306856159,-0.8976331615368792,0.586667822851198,0.06324072182178497,-0.06735675036907196,-0.007961590774357319,0.03808256238698959,0.005020372103899717,0.003115030704066157,XTrueNorthZVertical,0.1538411848242408,0.465538788093658,0.7443759070713836,-0.4533331491879475,-0.6511196494102478,-0.5535891056060791,-0.519213080406189,-38.96367645263672,-3.692376136779785,-12.76518726348877,1,0.0.0.0,10.83.46.32,3,0
2015-03-01 11:20:44.533,12,1425237641.83585,37.74684055157145,-122.4444233108302,174.6221,-1,-1,10,65,-9999,1425237644.491718,-37.84944915771484,-3.12896728515625,-13.31084442138672,64.03342437744141,50.26180267333984,25,181094.987518875,-0.6332244873046875,-0.57440185546875,-0.50457763671875,181094.9415097917,0.02431093232689733,-0.1673660923899207,-0.08266665076493161,181094.9415097917,-1.758096658944114,-0.9042364635541317,0.5904128762727683,0.01461497135460377,-0.1547352969646454,-0.04733521118760109,0.002219389425590634,-0.0006689957226626575,0.006323072127997875,XTrueNorthZVertical,0.1549575021010252,0.4681664082161692,0.7438617511255589,-0.4510853472701638,-0.6528999209403992,-0.556704044342041,-0.5136168003082275,-39.00389099121094,-3.818819046020508,-12.60416316986084,1,0.0.0.0,10.83.46.32,3,0
2015-03-01 11:20:44.609,13,1425237641.83585,37.74684055157145,-122.4444233108302,174.6221,-1,-1,10,65,-9999,1425237644.595235,-37.66184997558594,-3.519775390625,-12.92822265625,66.322998046875,52.55137634277344,25,181095.0365846667,-0.531890869140625,-0.55108642578125,-0.476470947265625,181095.0450669584,0.0830762449405858,0.02374208111805641,-0.4826934202030088,181094.9932882917,-1.762267304006494,-0.9061725278597833,0.5955517024255169,-0.01589350961148739,0.0003987540258094668,-0.1882007867097855,0.01840811036527157,-0.01343629509210587,0.00600292207673192,XTrueNorthZVertical,0.1549950837644566,0.4697725455502962,0.7448132173750563,-0.4478207891872664,-0.6516326069831848,-0.5609655380249023,-0.5105805397033691,-39.06834411621094,-3.967368125915527,-12.35623836517334,1,0.0.0.0,10.83.46.32,3,0
2015-03-01 11:20:44.631,14,1425237641.83585,37.74684055157145,-122.4444233108302,174.6221,-1,-1,10,65,-9999,1425237644.595235,-37.66184997558594,-3.519775390625,-12.92822265625,66.322998046875,52.55137634277344,25,181095.0856866667,-0.5231170654296875,-0.595794677734375,-0.4854583740234375,181095.0450669584,0.0830762449405858,0.02374208111805641,-0.4826934202030088,181095.0450669584,-1.773711930188734,-0.8969209307773126,0.6094467817906429,0.07338586449623108,0.03637504205107689,-0.4473713040351868,0.1088371500372887,0.02132750302553177,0.03520258888602257,XTrueNorthZVertical,0.1497515367993008,0.4708903367710964,0.7484628016012043,-0.4423122326252942,-0.6407279968261719,-0.5724139213562012,-0.5116735100746155,-38.97514724731445,-4.602451324462891,-12.43009471893311,1,0.0.0.0,10.83.46.32,3,0
2015-03-01 11:20:44.708,15,1425237641.83585,37.74684055157145,-122.4444233108302,174.6221,-1,-1,10,65,-9999,1425237644.699664,-37.26959228515625,-5.81365966796875,-12.44578552246094,69.70105743408203,55.92943572998047,25,181095.1346889167,-0.5190582275390625,-0.6182098388671875,-0.5133819580078125,181095.0968459167,0.1922610559438724,-0.1879829539687691,-0.7992484652786234,181095.0968459167,-1.791796088383906,-0.889251929249612,0.6386793044574312,0.1825711727142334,-0.1753495931625366,-0.7639277577400208,0.1049501001834869,0.007222632877528667,-0.001238315715454519,XTrueNorthZVertical,0.1417636187917019,0.4764424980493799,0.753592198728351,-0.4301212956878117,-0.6235200166702271,-0.5961356163024902,-0.5058112740516663,-38.8505744934082,-5.643010139465332,-12.39117431640625,1,0.0.0.0,10.83.46.32,3,0
2015-03-01 11:20:44.728,16,1425237641.83585,37.74684055157145,-122.4444233108302,174.6221,-1,-1,10,65,-9999,1425237644.699664,-37.26959228515625,-5.81365966796875,-12.44578552246094,69.70105743408203,55.92943572998047,25,181095.1837247917,-0.572235107421875,-0.6429595947265625,-0.4941253662109375,181095.1486241667,0.0343758170346338,-0.4858122481556006,-0.8856336878736326,181095.1486241667,-1.819582950609426,-0.8911516905732159,0.6744856170573247,0.02468599006533623,-0.473178893327713,-0.8503134846687317,0.0550362654030323,-0.01428303495049477,-0.02433901838958263,XTrueNorthZVertical,0.1377387126088511,0.4853693647431842,0.7597259991382602,-0.4101962232881607,-0.6074807047843933,-0.6244956254959106,-0.4908892512321472,-38.76347351074219,-7.123354911804199,-11.89128589630127,1,0.0.0.0,10.83.46.32,3,0
2015-03-01 11:20:44.814,17,1425237641.83585,37.74684055157145,-122.4444233108302,174.6221,-1,-1,10,65,-9999,1425237644.751185,-36.97966003417969,-7.597869873046875,-11.56407928466797,72.74038696289062,58.9687614440918,25,181095.2327985833,-0.4807891845703125,-0.6846771240234375,-0.50299072265625,181095.2004030417,0.1074457668114649,-0.001485511256046199,-1.057008902968559,181095.2004030417,-1.855997030944087,-0.8783702863554153,0.7123057078500389,0.0977567732334137,0.01115052029490471,-1.021692752838135,0.04921187832951546,0.006791046820580959,-0.008578004315495491,XTrueNorthZVertical,0.1298115909201974,0.4914853264082788,0.7678670446418885,-0.3898348818280515,-0.5825523138046265,-0.6535806059837341,-0.4831822514533997,-38.55136871337891,-9.227856636047363,-11.10811901092529,1,0.0.0.0,10.83.46.32,3,0
2015-03-01 11:20:44.826,18,1425237641.83585,37.74684055157145,-122.4444233108302,174.6221,-1,-1,10,65,-9999,1425237644.802667,-36.84321594238281,-9.63690185546875,-11.56407928466797,75.51451873779297,61.74289321899414,25,181095.2818375417,-0.55419921875,-0.7223663330078125,-0.4968109130859375,181095.2521817083,-0.02496100994898568,-0.234965909287729,-1.009287985711538,181095.2521817083,-1.899305140826475,-0.8538822799521137,0.7529161935551792,-0.03467413410544395,-0.222245529294014,-0.9740838408470154,0.04775392636656761,-0.01883659698069096,-0.02556374296545982,XTrueNorthZVertical,0.1184183421554146,0.4962347194785936,0.7769742649491921,-0.3688347862941763,-0.5500732660293579,-0.6837695837020874,-0.4794563949108124,-38.09209823608398,-11.06082344055176,-11.01826477050781,1,0.0.0.0,10.83.46.32,3,0
2015-03-01 11:20:44.909,19,1425237641.83585,37.74684055157145,-122.4444233108302,174.6221,-1,-1,10,65,-9999,1425237644.855347,-36.21217346191406,-11.52297973632812,-11.38109588623047,78.54393005371094,64.77230834960938,25,181095.33089875,-0.5059661865234375,-0.8249969482421875,-0.48101806640625,181095.3039602083,-0.06938493377648844,-0.004877579536480125,-1.05293639702961,181095.3039602083,-1.947548715150833,-0.8278242402383383,0.7858578387212525,-0.07909796386957169,0.007842683233320713,-1.017732739448547,-0.01961334981024265,-0.05787282064557076,0.008991951122879982,XTrueNorthZVertical,0.1101919425197884,0.4987945725245177,0.7860477746238671,-0.3481242806549236,-0.5205172896385193,-0.7074317336082458,-0.4781234264373779,-37.50839233398438,-13.19464302062988,-10.6664867401123,1,0.0.0.0,10.83.46.32,3,0
2015-03-01 11:20:44.925,20,1425237641.83585,37.74684055157145,-122.4444233108302,174.6221,-1,-1,10,65,-9999,1425237644.90728,-35.41057586669922,-13.44308471679688,-11.69716644287109,80.91967010498047,67.14804840087891,25,181095.3799367917,-0.426849365234375,-0.751983642578125,-0.461761474609375,181095.355738875,-0.08188554561721138,0.4031687668921526,-1.337214196009573,181095.355738875,-2.011339841585593,-0.7697278263418053,0.8241457656985058,-0.09159839153289795,0.4158889055252075,-1.302011013031006,-0.006546254269778728,-0.0550946332514286,-0.003336152993142605,XTrueNorthZVertical,0.09172824698172717,0.4977196303032714,0.7977459115817322,-0.3278146845702735,-0.4726712703704834,-0.7339678406715393,-0.4877221882343292,-36.70759582519531,-15.01913738250732,-11.03312397003174,1,0.0.0.0,10.83.46.32,3,0
2015-03-01 11:20:45.013,21,1425237641.83585,37.74684055157145,-122.4444233108302,174.6221,-1,-1,10,65,-9999,1425237644.95872,-33.32986450195312,-15.4481201171875,-11.56407928466797,84.95572662353516,71.18410491943359,25,181095.4290324583,-0.2876739501953125,-0.83160400390625,-0.5800933837890625,181095.4075178333,0.05011829487031019,0.6749068055633688,-1.663568608632243,181095.4075178333,-2.095899711052394,-0.6760159477784242,0.872145290369076,0.04040557891130447,0.6876267790794373,-1.628365755081177,0.02841126173734665,0.02349250018596649,0.007467934861779213,XTrueNorthZVertical,0.06143725007580984,0.495338418838382,0.8108271202823026,-0.3056543876494589,-0.4024347066879272,-0.7657105326652527,-0.5017306208610535,-35.42119979858398,-17.25400161743164,-11.9327278137207,1,0.0.0.0,10.83.46.32,3,0
2015-03-01 11:20:45.024,22,1425237641.83585,37.74684055157145,-122.4444233108302,174.6221,-1,-1,10,65,-9999,1425237645.010954,-31.14682769775391,-18.43869018554688,-12.39588165283203,89.73987579345703,75.96825408935547,25,181095.478075875,-0.329345703125,-0.897003173828125,-0.596405029296875,181095.4592960833,-0.4286437669315236,-0.1943463110774045,-1.997942598245469,181095.4075178333,-2.095899711052394,-0.6760159477784242,0.872145290369076,0.04040557891130447,0.6876267790794373,-1.628365755081177,0.02841126173734665,0.02349250018596649,0.007467934861779213,XTrueNorthZVertical,0.06143725007580984,0.495338418838382,0.8108271202823026,-0.3056543876494589,-0.4024347066879272,-0.7657105326652527,-0.5017306208610535,-35.42119979858398,-17.25400161743164,-11.9327278137207,1,0.0.0.0,10.83.46.32,3,0
2015-03-01 11:20:45.110,23,1425237641.83585,37.74684055157145,-122.4444233108302,174.6221,-1,-1,10,65,-9999,1425237645.062797,-28.94673156738281,-21.34432983398438,-13.47721099853516,94.96749877929688,81.19587707519531,25,181095.5271420833,-0.3592071533203125,-0.8239288330078125,-0.5037689208984375,181095.5110750833,-0.7829816110243104,0.5038309297749677,-2.04795862772992,181095.5110750833,-2.396538908436222,-0.4245159045025384,0.9350140889410969,-0.7926941514015198,0.5165507793426514,-2.012756586074829,-0.1523650735616684,-0.04260630160570145,-0.0002974378294311464,XTrueNorthZVertical,0.01481644249496068,0.4787803719728634,0.8473604765182349,-0.2291941531299456,-0.2445770651102066,-0.8046074509620667,-0.5410996675491333,-31.20920562744141,-23.28129577636719,-13.36856842041016,1,0.0.0.0,10.83.46.32,3,0
2015-03-01 11:20:45.121,24,1425237641.83585,37.74684055157145,-122.4444233108302,174.6221,-1,-1,10,65,-9999,1425237645.114124,-26.66136169433594,-23.75717163085938,-14.8746337890625,99.8470458984375,86.07542419433594,25,181095.5761825833,-0.1210784912109375,-0.822967529296875,-0.5059051513671875,181095.5628536667,-0.5203236200897194,1.721149080876955,-2.158669696353931,181095.5628536667,-2.578590606830816,-0.212692805624341,0.9369341710626622,-0.5300360321998596,1.733868598937988,-2.123467683792114,-0.0985650047659874,0.01659206673502922,0.1062282547354698,XTrueNorthZVertical,-0.03374020388553708,0.4576069118243599,0.8656132293570775,-0.2004274397461297,-0.1250220239162445,-0.8057461380958557,-0.578914999961853,-28.33211326599121,-25.55513381958008,-15.45891952514648,1,0.0.0.0,10.83.46.32,3,0
2015-03-01 11:20:45.211,25,1425237641.83585,37.74684055157145,-122.4444233108302,174.6221,-1,-1,10,65,-9999,1425237645.169609,-22.46582794189453,-25.89817810058594,-16.67129516601562,104.2528991699219,90.48127746582031,25,181095.6252430833,0.193695068359375,-0.8599853515625,-0.574951171875,181095.6146322083,-0.2431402159376183,1.566263892935691,-2.326506635624578,181095.5628536667,-2.578590606830816,-0.212692805624341,0.9369341710626622,-0.5300360321998596,1.733868598937988,-2.123467683792114,-0.0985650047659874,0.01659206673502922,0.1062282547354698,XTrueNorthZVertical,-0.03374020388553708,0.4576069118243599,0.8656132293570775,-0.2004274397461297,-0.1250220239162445,-0.8057461380958557,-0.578914999961853,-28.33211326599121,-25.55513381958008,-15.45891952514648,1,0.0.0.0,10.83.46.32,3,0
2015-03-01 11:20:45.219,26,1425237641.83585,37.74684055157145,-122.4444233108302,174.6221,-1,-1,10,65,-9999,1425237645.169609,-22.46582794189453,-25.89817810058594,-16.67129516601562,104.2528991699219,90.48127746582031,25,181095.6742779583,0.22186279296875,-0.8430633544921875,-0.6314239501953125,181095.666410875,-0.1448256295557081,0.564273234927079,-2.23533464728626,181095.6146322083,-2.767090265607819,0.02541777435722636,0.928217999982961,-0.2528524994850159,1.578983306884766,-2.291305065155029,0.04795639216899872,-0.085356704890728,0.05448170751333237,XTrueNorthZVertical,-0.09448844150114877,0.4376505346449941,0.877459461153771,-0.1720428624738931,0.01523025240749121,-0.8005533218383789,-0.5990678668022156,-24.42230224609375,-27.75578308105469,-18.10855293273926,1,0.0.0.0,10.83.46.32,3,0
2015-03-01 11:20:45.316,27,1425237641.83585,37.74684055157145,-122.4444233108302,174.6221,-1,-1,10,65,-9999,1425237645.295084,-9.879219055175781,-30.38406372070312,-20.03175354003906,117.4485321044922,103.6769104003906,25,181095.7233462083,0.12603759765625,-0.7750396728515625,-0.630157470703125,181095.7181897917,-0.05938449756713189,0.8800655506664949,-1.938880343170236,181095.7181897917,-3.103281717202031,0.376101904495066,0.8703488387274062,-0.06909658014774323,0.8927846550941467,-1.903679490089417,-0.1101431250572205,-0.05362243950366974,-0.01778698898851871,XTrueNorthZVertical,-0.1774220854768975,0.4108135131535772,0.8891370797472693,-0.0958583484250857,0.236745297908783,-0.7645538449287415,-0.5995073318481445,-15.35688209533691,-32.00009918212891,-20.85453796386719,1,0.0.0.0,10.83.46.32,3,0
2015-03-01 11:20:45.319,28,1425237641.83585,37.74684055157145,-122.4444233108302,174.6221,-1,-1,10,65,-9999,1425237645.295084,-9.879219055175781,-30.38406372070312,-20.03175354003906,117.4485321044922,103.6769104003906,25,181095.7723905834,0.35650634765625,-0.70867919921875,-0.611846923828125,181095.7181897917,-0.05938449756713189,0.8800655506664949,-1.938880343170236,181095.7181897917,-3.103281717202031,0.376101904495066,0.8703488387274062,-0.06909658014774323,0.8927846550941467,-1.903679490089417,-0.1101431250572205,-0.05362243950366974,-0.01778698898851871,XTrueNorthZVertical,-0.1774220854768975,0.4108135131535772,0.8891370797472693,-0.0958583484250857,0.236745297908783,-0.7645538449287415,-0.5995073318481445,-15.35688209533691,-32.00009918212891,-20.85453796386719,1,0.0.0.0,10.83.46.32,3,0
2015-03-01 11:20:45.415,29,1425237641.83585,37.74684055157145,-122.4444233108302,174.6221,-1,-1,10,65,-9999,1425237645.400937,-1.164108276367188,-31.35258483886719,-20.78036499023438,124.8710632324219,111.0994415283203,25,181095.8214611667,0.325653076171875,-0.6514892578125,-0.5543670654296875,181095.8217470417,-0.06849543797240197,0.8527945147879745,-1.03544715183495,181095.7699680833,3.058795746950338,0.5194108122039005,0.8284544730947845,-0.09317626059055328,1.046633124351501,-1.574807524681091,-0.02537224628031254,0.03124475106596947,-0.03069678321480751,XTrueNorthZVertical,-0.2187778080741662,0.3983814844037935,0.8882488198249413,-0.0666513781322971,0.3355529010295868,-0.7368874549865723,-0.5868569016456604,-10.44408512115479,-33.35899353027344,-21.7451286315918,1,0.0.0.0,10.83.46.32,3,0
2015-03-01 11:20:45.418,30,1425237641.83585,37.74684055157145,-122.4444233108302,174.6221,-1,-1,10,65,-9999,1425237645.400937,-1.164108276367188,-31.35258483886719,-20.78036499023438,124.8710632324219,111.0994415283203,25,181095.870516125,0.3048095703125,-0.6932373046875,-0.40167236328125,181095.8735257083,0.2797842472726725,1.017662295759292,-0.2170138066956139,181095.8217470417,2.990269322923942,0.6155003724354887,0.7908036191572627,-0.07820732146501541,0.8655133843421936,-1.000247001647949,-0.08039432764053345,0.05942940711975098,0.01984550803899765,XTrueNorthZVertical,-0.2509955967287455,0.3871626583966749,0.8857877117893275,-0.04986305804772291,0.4060474038124084,-0.710918664932251,-0.5742125511169434,-7.55492115020752,-33.75025177001953,-22.32925415039062,1,0.0.0.0,10.83.46.32,3,0
2015-03-01 11:20:45.479,31,1425237641.83585,37.74684055157145,-122.4444233108302,174.6221,-1,-1,10,65,-9999,1425237645.451227,1.530593872070312,-31.9302978515625,-20.0816650390625,127.8118209838867,114.0401992797852,25,181095.9196009167,0.301971435546875,-0.615692138671875,-0.299774169921875,181095.8735257083,0.2797842472726725,1.017662295759292,-0.2170138066956139,181095.8735257083,2.952722059167166,0.6889726676152935,0.7773326727425138,0.2700724303722382,1.030380964279175,-0.1818139851093292,-0.1483407467603683,0.008143375627696514,0.1485274583101273,XTrueNorthZVertical,-0.277498347188588,0.3845708710026175,0.8792327473959429,-0.04527247441121761,0.4531503319740295,-0.7013806700706482,-0.5501998066902161,-5.442706108093262,-34.00367736816406,-22.5583438873291,1,0.0.0.0,10.83.46.32,1,0
2015-03-01 11:20:45.521,32,1425237641.83585,37.74684055157145,-122.4444233108302,174.6221,-1,-1,10,65,-9999,1425237645.502681,2.963211059570312,-32.47404479980469,-19.44950103759766,129.210693359375,115.4390716552734,25,181095.9686500417,0.4519500732421875,-0.676849365234375,-0.4774169921875,181095.925304125,0.6810235539550628,1.127536066536582,0.2895708316464957,181095.925304125,2.929741705178977,0.761610996633414,0.8021452136862168,0.6713118553161621,1.140254616737366,0.3247703313827515,-0.1777545660734177,0.1031568869948387,0.2033351063728333,XTrueNorthZVertical,-0.3019361711283131,0.3965853090620662,0.8652437653570175,-0.05392380049822418,0.4797260165214539,-0.7188490033149719,-0.5031092762947083,-3.938352584838867,-34.66379547119141,-21.85549545288086,1,0.0.0.0,10.83.46.32,1,0
2015-03-01 11:20:45.617,33,1425237641.83585,37.74684055157145,-122.4444233108302,174.6221,-1,-1,10,65,-9999,1425237645.554855,3.952400207519531,-33.49356079101562,-18.45133972167969,125.7040710449219,111.9324493408203,25,181096.0177161667,0.1055145263671875,-0.808349609375,-0.221160888671875,181096.0288619167,1.862232170152775,2.67132660829753,1.278420920204438,181095.9770829584,2.932505455114633,0.8192056591165975,0.8454252714203885,0.2803615033626556,1.07553493976593,1.041459679603577,-0.03274194896221161,0.07140394300222397,-0.02443738281726837,XTrueNorthZVertical,-0.3219401964947872,0.4121464606067891,0.8490209994669119,-0.07518680670997464,0.4846920371055603,-0.7482532858848572,-0.4529796242713928,-3.601961135864258,-35.19900512695312,-21.04300117492676,1,0.0.0.0,10.83.46.32,1,0
2015-03-01 11:20:45.621,34,1425237641.83585,37.74684055157145,-122.4444233108302,174.6221,-1,-1,10,65,-9999,1425237645.606402,4.140007019042969,-34.69998168945312,-16.97074890136719,121.2967529296875,107.5251312255859,25,181096.0668000834,1.218185424804688,-1.29156494140625,-0.4523162841796875,181096.0288619167,1.862232170152775,2.67132660829753,1.278420920204438,181096.0288619167,2.955398220139227,0.8946495269762526,0.9268043848862377,1.852520704269409,2.68404483795166,1.31361973285675,-0.2787705957889557,-0.02834330312907696,0.3278388679027557,XTrueNorthZVertical,-0.3477956719882754,0.4372387140218715,0.8210028666832773,-0.1175358624140198,0.4683000147342682,-0.7997053861618042,-0.3757209479808807,-4.352819442749023,-35.41081237792969,-20.53969955444336,1,0.0.0.0,10.83.46.32,1,0
2015-03-01 11:20:45.677,35,1425237641.83585,37.74684055157145,-122.4444233108302,174.6221,-1,-1,10,65,-9999,1425237645.658054,4.941596984863281,-35.90643310546875,-14.19256591796875,115.2630157470703,101.4913940429688,25,181096.1158246667,0.792999267578125,-0.5835418701171875,-0.11383056640625,181096.080640375,1.481192407706418,2.329242767328525,-0.6742878869260344,181096.080640375,2.851447502803093,1.114806574424865,1.001259765799077,1.471480965614319,2.341960906982422,-0.6390894651412964,0.9042522311210632,-0.8279082179069519,-0.09532322734594345,XTrueNorthZVertical,-0.4003081947416233,0.4701334900841618,0.7733722380260283,-0.1436075928474629,0.4841450154781342,-0.8421509861946106,-0.2374556958675385,-3.311946868896484,-37.22224807739258,-17.27099609375,1,0.0.0.0,10.83.46.32,1,0
2015-03-01 11:20:45.712,36,1425237641.83585,37.74684055157145,-122.4444233108302,174.6221,-1,-1,10,65,-9999,1425237645.658054,4.941596984863281,-35.90643310546875,-14.19256591796875,115.2630157470703,101.4913940429688,25,181096.1648642917,0.310272216796875,-0.769012451171875,-0.2844390869140625,181096.1324189584,0.2750821700520286,-1.343752789117935,0.5422840464385128,181096.1324189584,2.808295398795983,1.127425286914803,0.9998281398082491,0.2653708457946777,-1.331034660339355,0.5774821639060974,0.02961566299200058,0.4119652807712555,0.05726883560419083,XTrueNorthZVertical,-0.3952312690160964,0.477357228665848,0.7740444724616876,-0.129527539283111,0.4881913363933563,-0.8413780927658081,-0.2318446338176727,-2.55720329284668,-37.71878814697266,-16.29434967041016,1,0.0.0.0,10.83.46.32,1,0
2015-03-01 11:20:45.776,37,1425237641.83585,37.74684055157145,-122.4444233108302,174.6221,-1,-1,10,65,-9999,1425237645.762555,5.282691955566406,-36.51812744140625,-11.13158416748047,116.4622573852539,102.6906356811523,25,181096.2139148334,0.5085906982421875,-0.7113494873046875,-0.095794677734375,181096.18419775,0.4716378395697629,0.207403789902063,0.1174613830390349,181096.18419775,2.78552392147285,1.136334329806657,1.049554998815943,0.4619266390800476,0.2201217412948608,0.1526591181755066,0.1626391112804413,0.05937090888619423,-0.09688682109117508,XTrueNorthZVertical,-0.3835316832712303,0.498099226789498,0.7656791203350051,-0.1361469846551766,0.4516949951648712,-0.8672017455101013,-0.2096012234687805,-4.514102935791016,-37.97293853759766,-15.24568367004395,1,0.0.0.0,10.83.46.32,1,0
2015-03-01 11:20:45.810,38,1425237641.83585,37.74684055157145,-122.4444233108302,174.6221,-1,-1,10,65,-9999,1425237645.762555,5.282691955566406,-36.51812744140625,-11.13158416748047,116.4622573852539,102.6906356811523,25,181096.26294025,0.57061767578125,-0.841033935546875,-0.16363525390625,181096.23597625,0.6955649461391135,-0.2377004430950224,0.3301257150423314,181096.23597625,2.739507171467007,1.174555463078926,1.067079351141682,0.6858538389205933,-0.2249826341867447,0.3653230667114258,0.121396042406559,-0.01939288713037968,0.1362598687410355,XTrueNorthZVertical,-0.3829315967017686,0.5101143698270376,0.7585891937671174,-0.1330002465862249,0.4452848732471466,-0.8757944703102112,-0.186293438076973,-4.843894958496094,-38.40238952636719,-14.01945972442627,1,0.0.0.0,10.83.46.32,1,0
2015-03-01 11:20:45.880,39,1425237641.83585,37.74684055157145,-122.4444233108302,174.6221,-1,-1,10,65,-9999,1425237645.869292,4.088851928710938,-36.62008666992188,-8.835830688476562,117.0053939819336,103.233772277832,25,181096.3119982083,0.5155792236328125,-0.80938720703125,-0.0896759033203125,181096.2877551667,0.2988178595834688,-0.2409100848407859,0.2098208749074189,181096.2877551667,2.717224841415754,1.177633491093196,1.089702440230606,0.2890858054161072,-0.2281208485364914,0.2449253052473068,0.008058931678533554,0.1644433587789536,0.03894844278693199,XTrueNorthZVertical,-0.3735407916476263,0.5213683573324233,0.7558562211545526,-0.1316191264161832,0.4274421632289886,-0.8864892721176147,-0.1772846281528473,-5.668864250183105,-38.57656478881836,-13.20851135253906,1,0.0.0.0,10.83.46.32,1,0
2015-03-01 11:20:45.916,40,1425237641.83585,37.74684055157145,-122.4444233108302,174.6221,-1,-1,10,65,-9999,1425237645.869292,4.088851928710938,-36.62008666992188,-8.835830688476562,117.0053939819336,103.233772277832,25,181096.3610253333,0.482635498046875,-0.837493896484375,-0.1350860595703125,181096.3395337917,0.2202482158395151,-0.2504644415675542,0.1661676698993851,181096.3395337917,2.697065165503604,1.187584649999999,1.103347653008098,0.2105162739753723,-0.2376753240823746,0.2012717872858047,0.1493951976299286,0.01192250568419695,0.03791411221027374,XTrueNorthZVertical,-0.3690247847824788,0.5287522319066348,0.7531461601657006,-0.1304321871567823,0.4179265797138214,-0.8927208185195923,-0.1684835702180862,-6.109969139099121,-38.69143676757812,-12.66462993621826,1,0.0.0.0,10.83.46.32,1,0
2015-03-01 11:20:45.980,41,1425237641.83585,37.74684055157145,-122.4444233108302,174.6221,-1,-1,10,65,-9999,1425237645.969889,1.4696044921875,-39.57447814941406,-6.557929992675781,124.1986846923828,110.4270629882812,25,181096.4101916667,0.4674835205078125,-0.8779449462890625,-0.127899169921875,181096.3913124167,0.2269679039020031,-0.3502474949745341,0.1111835134013911,181096.3913124167,2.687351522162265,1.179647118106263,1.114993410986205,0.2172360718250275,-0.3374585211277008,0.1462872475385666,0.06788613647222519,0.07481829077005386,0.04832875356078148,XTrueNorthZVertical,-0.3608699604682499,0.5346613010450944,0.753356409996955,-0.1279226049678261,0.4069368541240692,-0.8979079127311707,-0.1678203344345093,-6.767309188842773,-38.75466918945312,-12.12563037872314,1,0.0.0.0,10.83.46.32,1,0
2015-03-01 11:20:46.013,42,1425237641.83585,37.74684055157145,-122.4444233108302,174.6221,-1,-1,10,65,-9999,1425237645.969889,1.4696044921875,-39.57447814941406,-6.557929992675781,124.1986846923828,110.4270629882812,25,181096.4591277083,0.34210205078125,-0.951812744140625,-0.12445068359375,181096.4430910833,0.2915812519533966,-0.481457180824994,0.01896996276074342,181096.3913124167,2.687351522162265,1.179647118106263,1.114993410986205,0.2172360718250275,-0.3374585211277008,0.1462872475385666,0.06788613647222519,0.07481829077005386,0.04832875356078148,XTrueNorthZVertical,-0.3608699604682499,0.5346613010450944,0.753356409996955,-0.1279226049678261,0.4069368541240692,-0.8979079127311707,-0.1678203344345093,-6.767309188842773,-38.75466918945312,-12.12563037872314,1,0.0.0.0,10.83.46.32,1,0
2015-03-01 11:20:46.063,43,1425237641.83585,37.74684055157145,-122.4444233108302,174.6221,-1,-1,10,65,-9999,1425237646.022665,1.111541748046875,-39.69343566894531,-6.108787536621094,125.2139358520508,111.4423141479492,25,181096.5083010417,0.3730010986328125,-0.916473388671875,-0.0921630859375,181096.4948700417,0.2417697532406635,-0.3810900961909597,-0.09600962045844662,181096.4948700417,2.647730665299849,1.172864489682475,1.127627350051783,0.2320380955934525,-0.3683013617992401,-0.0609065480530262,-0.03885408863425255,0.01757884956896305,0.007216258905827999,XTrueNorthZVertical,-0.3447513697485103,0.5459514271214367,0.7549366851770508,-0.1146910729016099,0.3952994048595428,-0.9033973217010498,-0.1661670655012131,-1.170812606811523,-37.39402770996094,-9.382562637329102,1,0.0.0.0,10.83.46.32,1,0
2015-03-01 11:20:46.112,44,1425237641.83585,37.74684055157145,-122.4444233108302,174.6221,-1,-1,10,65,-9999,1425237646.073164,0.6682205200195312,-39.82937622070312,-5.709548950195312,126.1601867675781,112.3885650634766,25,181096.55724025,0.4727630615234375,-0.893798828125,-0.131072998046875,181096.5466483333,0.08397692602125061,-0.3019582591408903,-0.2665270313662581,181096.4948700417,2.647730665299849,1.172864489682475,1.127627350051783,0.2320380955934525,-0.3683013617992401,-0.0609065480530262,-0.03885408863425255,0.01757884956896305,0.007216258905827999,XTrueNorthZVertical,-0.3447513697485103,0.5459514271214367,0.7549366851770508,-0.1146910729016099,0.3952994048595428,-0.9033973217010498,-0.1661670655012131,-1.170812606811523,-37.39402770996094,-9.382562637329102,1,0.0.0.0,10.83.46.32,1,0
2015-03-01 11:20:46.161,45,1425237641.83585,37.74684055157145,-122.4444233108302,174.6221,-1,-1,10,65,-9999,1425237646.12608,0.4636077880859375,-39.69343566894531,-5.809356689453125,126.5121994018555,112.7405776977539,25,181096.6063092083,0.3606109619140625,-0.865692138671875,-0.12847900390625,181096.5984273333,0.1288823493738397,-0.6160163243784466,-0.2782505328008959,181096.5984273333,2.606293661880034,1.170881554805488,1.113717308488499,0.1191509068012238,-0.6032278537750244,-0.2431482076644897,0.0226176343858242,0.01961411349475384,0.05631780996918678,XTrueNorthZVertical,-0.3358844243280671,0.548879068767493,0.759591056254929,-0.09452384444729969,0.406505286693573,-0.8973454236984253,-0.1718268394470215,-0.8359012603759766,-37.5341682434082,-8.84331226348877,1,0.0.0.0,10.83.46.32,1,0
2015-03-01 11:20:46.211,46,1425237641.83585,37.74684055157145,-122.4444233108302,174.6221,-1,-1,10,65,-9999,1425237646.176559,0.6341094970703125,-39.69343566894531,-5.576469421386719,128.6017761230469,114.8301467895508,25,181096.6553477084,0.404327392578125,-0.9354095458984375,-0.0945892333984375,181096.650206,0.04053544231987807,-0.4464826851773104,-0.4560676682566146,181096.5984273333,2.606293661880034,1.170881554805488,1.113717308488499,0.1191509068012238,-0.6032278537750244,-0.2431482076644897,0.0226176343858242,0.01961411349475384,0.05631780996918678,XTrueNorthZVertical,-0.3358844243280671,0.548879068767493,0.759591056254929,-0.09452384444729969,0.406505286693573,-0.8973454236984253,-0.1718268394470215,-0.8359012603759766,-37.5341682434082,-8.84331226348877,1,0.0.0.0,10.83.46.32,1,0
2015-03-01 11:20:46.259,47,1425237641.83585,37.74684055157145,-122.4444233108302,174.6221,-1,-1,10,65,-9999,1425237646.229327,1.264991760253906,-39.88034057617188,-5.426765441894531,130.5375213623047,116.7658996582031,25,181096.7045343333,0.494384765625,-0.8295745849609375,-0.174285888671875,181096.7019845417,0.02329600163546814,-0.4369789285112536,-0.4342590420899557,181096.650206,2.579392744763802,1.167258455842041,1.098597984662425,0.0308040976524353,-0.4336943328380585,-0.4209656715393066,-0.05225237086415291,-0.04741774499416351,0.06347846239805222,XTrueNorthZVertical,-0.3306843651510252,0.5489488467735921,0.7635878820067635,-0.07897131929932523,0.4183107316493988,-0.8905705213546753,-0.1786060333251953,-0.5249176025390625,-37.59226608276367,-8.617587089538574,1,0.0.0.0,10.83.46.32,1,0
2015-03-01 11:20:46.308,48,1425237641.83585,37.74684055157145,-122.4444233108302,174.6221,-1,-1,10,65,-9999,1425237646.281052,1.708320617675781,-40.22024536132812,-5.559837341308594,132.1027526855469,118.3311233520508,25,181096.7534802083,0.4817657470703125,-0.8696441650390625,-0.1289825439453125,181096.7019845417,0.02329600163546814,-0.4369789285112536,-0.4342590420899557,181096.7019845417,2.565882373235768,1.160047100449792,1.080880254769006,0.01356474496424198,-0.4241907000541687,-0.3991573452949524,0.04180873557925224,0.03940055146813393,-0.005561362486332655,XTrueNorthZVertical,-0.3284232620153794,0.5460708545901893,0.7677817754925227,-0.06675205243819729,0.4314121007919312,-0.8823723793029785,-0.1878895610570908,0.1410579681396484,-37.59197998046875,-8.633638381958008,1,0.0.0.0,10.83.46.32,1,0
2015-03-01 11:20:46.358,49,1425237641.83585,37.74684055157145,-122.4444233108302,174.6221,-1,-1,10,65,-9999,1425237646.336314,2.577919006347656,-40.47514343261719,-5.143966674804688,135.8020629882812,122.0304412841797,25,181096.802678,0.4345550537109375,-0.8381805419921875,-0.2031402587890625,181096.8055421667,0.03479286806134021,-0.5212306927570004,-0.5556967909525878,181096.75376325,2.539245871337004,1.157813691974264,1.060292326636352,0.1002821698784828,-0.5554945468902588,-0.4975250363349915,0.03422792628407478,0.002854190301150084,0.06712041795253754,XTrueNorthZVertical,-0.3252051311390706,0.5442335343941851,0.7717212929894687,-0.04997636658601869,0.4475378096103668,-0.8724983334541321,-0.19610296189785,0.7399606704711914,-37.60417938232422,-8.549549102783203,1,0.0.0.0,10.83.46.32,1,0
2015-03-01 11:20:46.406,50,1425237641.83585,37.74684055157145,-122.4444233108302,174.6221,-1,-1,10,65,-9999,1425237646.336314,2.577919006347656,-40.47514343261719,-5.143966674804688,135.8020629882812,122.0304412841797,25,181096.8516073333,0.506866455078125,-0.823150634765625,-0.1692657470703125,181096.8055421667,0.03479286806134021,-0.5212306927570004,-0.5556967909525878,181096.8055421667,2.513390582763797,1.151521803521016,1.038778294298076,0.02506181225180626,-0.508442759513855,-0.5205958485603333,-0.02878056280314922,0.02360459044575691,0.003369663376361132,XTrueNorthZVertical,-0.3209146655123332,0.5419952180070197,0.776033162896772,-0.03205307707393016,0.4633356034755707,-0.8617851138114929,-0.206509917974472,1.354750633239746,-37.61160659790039,-8.440877914428711,1,0.0.0.0,10.83.46.32,1,0
2015-03-01 11:20:46.456,51,1425237641.83585,37.74684055157145,-122.4444233108302,174.6221,-1,-1,10,65,-9999,1425237646.411062,3.771476745605469,-40.84902954101562,-4.877799987792969,140.5017852783203,126.7301559448242,25,181096.90079175,0.6257171630859375,-0.7891693115234375,-0.1873626708984375,181096.9090995,0.06826187874480202,-0.5733410321226898,-0.5740129476657169,181096.8573205417,2.489797932550843,1.152755284510456,1.014380739242875,0.02995919063687325,-0.3039714694023132,-0.502525806427002,0.02420146763324738,0.02600301988422871,0.04514609277248383,XTrueNorthZVertical,-0.3209229858144076,0.5383330914367159,0.7790669868124167,-0.01613872510518096,0.4826650023460388,-0.8491536378860474,-0.2144118398427963,6.048089981079102,-39.77413177490234,-6.036314487457275,1,0.0.0.0,10.83.46.32,1,0
2015-03-01 11:20:46.510,52,1425237641.83585,37.74684055157145,-122.4444233108302,174.6221,-1,-1,10,65,-9999,1425237646.463011,4.453498840332031,-40.30523681640625,-5.010879516601562,141.9967041015625,128.2250823974609,25,181096.9497241667,0.5520782470703125,-0.73870849609375,-0.18548583984375,181096.9090995,0.06826187874480202,-0.5733410321226898,-0.5740129476657169,181096.9090995,2.464668330506678,1.153933799161678,0.9922868328143203,0.0585310086607933,-0.5605533123016357,-0.5389126539230347,0.1257645785808563,0.04810924082994461,0.03402364626526833,XTrueNorthZVertical,-0.3200216778126069,0.535623905108058,0.7814685047647119,-0.0002064375172847392,0.4999525845050812,-0.8372785449028015,-0.2213863134384155,6.858200073242188,-39.6445198059082,-6.022900581359863,1,0.0.0.0,10.83.46.32,1,0
2015-03-01 11:20:46.554,53,1425237641.83585,37.74684055157145,-122.4444233108302,174.6221,-1,-1,10,65,-9999,1425237646.515636,5.578861236572266,-39.52346801757812,-5.177230834960938,143.6533355712891,129.8817138671875,25,181096.9987940417,0.628173828125,-0.7641754150390625,-0.2125701904296875,181096.9608781667,-0.0119818280603755,-0.5143671939956482,-0.6597592779152162,181096.9608781667,2.441877392992539,1.144418266576528,0.9657128732557929,-0.02171259000897408,-0.5015795826911926,-0.6246594190597534,0.04859480261802673,0.08486002683639526,0.08129341900348663,XTrueNorthZVertical,-0.3167330902111919,0.5310864807482129,0.7856621971963492,0.01902945025997942,0.5179029703140259,-0.8224546313285828,-0.2352546006441116,7.709762573242188,-39.46858596801758,-6.147213935852051,1,0.0.0.0,10.83.46.32,1,0
2015-03-01 11:20:46.614,54,1425237641.83585,37.74684055157145,-122.4444233108302,174.6221,-1,-1,10,65,-9999,1425237646.568472,6.653072357177734,-39.77836608886719,-5.393486022949219,146.7890777587891,133.0174560546875,25,181097.04783,0.5431060791015625,-0.7442626953125,-0.18438720703125,181097.0126567917,-0.06702883516009533,-0.5544293925898192,-0.7026846409973313,181097.0126567917,2.424126169711855,1.135268332351337,0.9352462800588548,-0.07675950229167938,-0.5416419506072998,-0.6675851345062256,0.09726336598396301,0.03901348635554314,0.03294312581419945,XTrueNorthZVertical,-0.3159287427164825,0.5243739865306308,0.7898275897588111,0.03732611391758631,0.5382041335105896,-0.8047453165054321,-0.2504419088363647,6.81486701965332,-38.18341064453125,-7.56876277923584,1,0.0.0.0,10.83.46.32,1,0
2015-03-01 11:20:46.652,55,1425237641.83585,37.74684055157145,-122.4444233108302,174.6221,-1,-1,10,65,-9999,1425237646.644025,8.238803863525391,-39.72737121582031,-6.308395385742188,151.2141265869141,137.4425048828125,25,181097.0968939167,0.5677642822265625,-0.71990966796875,-0.216583251953125,181097.0644355,-0.3275072950585655,-0.7448150504940578,-0.7842585967670034,181097.0644355,2.413847353884366,1.107653488130895,0.8999991211609204,-0.3372378647327423,-0.7320277094841003,-0.7491593956947327,-0.05786513164639473,0.06834528595209122,0.03776755183935165,XTrueNorthZVertical,-0.3109164982661289,0.5142712578422611,0.7971209196422181,0.05877203825677411,0.5561256408691406,-0.7833263874053955,-0.2777120172977448,7.729545593261719,-37.90892791748047,-8.054121017456055,1,0.0.0.0,10.83.46.32,1,0
2015-03-01 11:20:46.715,56,1425237641.83585,37.74684055157145,-122.4444233108302,174.6221,-1,-1,10,65,-9999,1425237646.695629,9.466457366943359,-39.42147827148438,-7.605918884277344,152.5533447265625,138.7817230224609,25,181097.145938375,0.6868896484375,-0.6455535888671875,-0.317138671875,181097.1162145,-0.5696970288031344,-0.311492642159483,-0.8522541594027975,181097.1162145,2.418091516989803,1.083198752669564,0.8534156295950347,-0.5794274806976318,-0.2987054586410522,-0.8171553015708923,0.06271009892225266,0.03268982097506523,0.07554879784584045,XTrueNorthZVertical,-0.3133977976559763,0.4977762792488608,0.8050744599045887,0.07652201513108677,0.5807988047599792,-0.7535302639007568,-0.3080011904239655,8.856423377990723,-37.45636749267578,-8.960239410400391,1,0.0.0.0,10.83.46.32,1,0
2015-03-01 11:20:46.750,57,1425237641.83585,37.74684055157145,-122.4444233108302,174.6221,-1,-1,10,65,-9999,1425237646.695629,9.466457366943359,-39.42147827148438,-7.605918884277344,152.5533447265625,138.7817230224609,25,181097.1950004583,1.0650634765625,-0.6852874755859375,-0.34893798828125,181097.1679927917,-0.3450775003503632,0.3284551140905247,-0.6718758619267496,181097.1679927917,2.423178893163632,1.069391515548103,0.810592801882015,-0.3548078536987305,0.3412421941757202,-0.6367773413658142,0.1163004040718079,0.09173069149255753,-0.08006374537944794,XTrueNorthZVertical,-0.319147679014295,0.4822256332114599,0.810880825715432,0.08986318873430897,0.6042501330375671,-0.7246958017349243,-0.3312063813209534,10.37204742431641,-36.73650741577148,-10.22502899169922,1,0.0.0.0,10.83.46.32,1,0
2015-03-01 11:20:46.809,58,1425237641.83585,37.74684055157145,-122.4444233108302,174.6221,-1,-1,10,65,-9999,1425237646.802296,10.79413223266602,-39.44099426269531,-8.401168823242188,154.0734252929688,140.3018035888672,25,181097.244033875,1.18670654296875,-0.57855224609375,-0.1488037109375,181097.2197718333,-0.2079204431535384,1.296336803805729,0.3676366053122064,181097.2197718333,2.435524434575334,1.119838030321292,0.7992841896631427,-0.2176507264375687,1.309123754501343,0.4027347266674042,0.665800929069519,0.01010060589760542,0.1277511864900589,XTrueNorthZVertical,-0.3451080912510362,0.4785042752345558,0.803843433982114,0.07595858166135759,0.6275187730789185,-0.7168571949005127,-0.3038681149482727,11.32428359985352,-36.47108459472656,-10.16475677490234,1,0.0.0.0,10.83.46.32,1,0
2015-03-01 11:20:46.848,59,1425237641.83585,37.74684055157145,-122.4444233108302,174.6221,-1,-1,10,65,-9999,1425237646.802296,10.79413223266602,-39.44099426269531,-8.401168823242188,154.0734252929688,140.3018035888672,25,181097.2931968333,0.5623321533203125,-0.451751708984375,-0.2797393798828125,181097.2715505,0.3868566388993083,-0.5795073153106594,0.1937465671999186,181097.2715505,2.446513772556742,1.121843172033591,0.8233008098589613,0.3771083056926727,-0.5666602253913879,0.2287685573101044,0.2663168907165527,0.2602491974830627,0.114691473543644,XTrueNorthZVertical,-0.3429860772083105,0.4845981555570187,0.8021261357267824,0.0641774836282404,0.6124367713928223,-0.7333937287330627,-0.2950503528118134,10.76381206512451,-36.69702911376953,-9.95842170715332,1,0.0.0.0,10.83.46.32,1,0
2015-03-01 11:20:46.910,60,1425237641.83585,37.74684055157145,-122.4444233108302,174.6221,-1,-1,10,65,-9999,1425237646.877107,10.53838348388672,-40.06979370117188,-7.719123840332031,154.1840362548828,140.4124145507812,25,181097.3421207917,0.62066650390625,-0.6684722900390625,-0.4156951904296875,181097.3233289584,0.2372876531260601,-0.05451410856559498,-0.1323798788334408,181097.2715505,2.446513772556742,1.121843172033591,0.8233008098589613,0.3771083056926727,-0.5666602253913879,0.2287685573101044,0.2663168907165527,0.2602491974830627,0.114691473543644,XTrueNorthZVertical,-0.3429860772083105,0.4845981555570187,0.8021261357267824,0.0641774836282404,0.6124367713928223,-0.7333937287330627,-0.2950503528118134,10.76381206512451,-36.69702911376953,-9.95842170715332,1,0.0.0.0,10.83.46.32,1,0
2015-03-01 11:20:46.946,61,1425237641.83585,37.74684055157145,-122.4444233108302,174.6221,-1,-1,10,65,-9999,1425237646.92938,10.35083389282227,-40.2567138671875,-7.702491760253906,154.0318908691406,140.2602691650391,25,181097.3912926667,0.76123046875,-0.707061767578125,-0.2652740478515625,181097.3751080417,-0.41333005803135,0.3351593558186902,0.2613863315140781,181097.3751080417,2.434796844638162,1.11815986550027,0.8311673966668892,-0.423078179359436,0.3480061888694763,0.2964075803756714,0.088075190782547,0.08991500735282898,-0.0223820973187685,XTrueNorthZVertical,-0.3368207290797163,0.4890458874571272,0.8017652266362404,0.06751552657916325,0.6061387062072754,-0.7387186884880066,-0.294771820306778,10.75068283081055,-37.78878021240234,-8.746969223022461,1,0.0.0.0,10.83.46.32,1,0
2015-03-01 11:20:47.009,62,1425237641.83585,37.74684055157145,-122.4444233108302,174.6221,-1,-1,10,65,-9999,1425237646.981206,10.23148345947266,-40.00178527832031,-8.284736633300781,153.4499206542969,139.6782989501953,25,181097.4402276667,0.74346923828125,-0.699188232421875,-0.2029266357421875,181097.4268868333,-0.2805320629067668,0.1202422558492956,0.3717698313240094,181097.4268868333,2.475643786242546,1.098174513915188,0.8402797698622105,-0.2902801036834717,0.1330889612436295,0.4067907631397247,0.1702805310487747,0.05023448914289474,0.1013412028551102,XTrueNorthZVertical,-0.3366237639541673,0.4845718955866711,0.8056213574961641,0.05337280621956602,0.594108521938324,-0.7448298335075378,-0.3037490248680115,10.21397876739502,-37.78754425048828,-9.373058319091797,1,0.0.0.0,10.83.46.32,1,0
2015-03-01 11:20:47.045,63,1425237641.83585,37.74684055157145,-122.4444233108302,174.6221,-1,-1,10,65,-9999,1425237647.033243,9.924583435058594,-40.27369689941406,-8.717254638671875,152.2188720703125,138.4472503662109,25,181097.4893129167,0.64239501953125,-0.75079345703125,-0.260162353515625,181097.4786653334,0.08495164298021961,-0.21258017611285,0.2204982866658736,181097.4268868333,2.475643786242546,1.098174513915188,0.8402797698622105,-0.2902801036834717,0.1330889612436295,0.4067907631397247,0.1702805310487747,0.05023448914289474,0.1013412028551102,XTrueNorthZVertical,-0.3366237639541673,0.4845718955866711,0.8056213574961641,0.05337280621956602,0.594108521938324,-0.7448298335075378,-0.3037490248680115,10.21397876739502,-37.78754425048828,-9.373058319091797,1,0.0.0.0,10.83.46.32,1,0
2015-03-01 11:20:47.107,64,1425237641.83585,37.74684055157145,-122.4444233108302,174.6221,-1,-1,10,65,-9999,1425237647.08451,8.986820220947266,-40.35865783691406,-8.933502197265625,150.7097473144531,136.9381256103516,25,181097.5383397917,0.48797607421875,-0.761627197265625,-0.29815673828125,181097.530444,0.08933627139892607,-0.3296953482101745,0.1904208116306277,181097.4786653334,2.4928029309744,1.082192949456043,0.8521112873263219,0.07520367950201035,-0.1997336000204086,0.2555188536643982,0.1036872416734695,0.05485720187425613,0.07992031425237656,XTrueNorthZVertical,-0.3316574511398148,0.4852630103354652,0.8076590714363058,0.04700934778417204,0.5813561081886292,-0.7526721358299255,-0.3090462982654572,9.429985046386719,-37.8975830078125,-9.743040084838867,1,0.0.0.0,10.83.46.32,1,0
2015-03-01 11:20:47.142,65,1425237641.83585,37.74684055157145,-122.4444233108302,174.6221,-1,-1,10,65,-9999,1425237647.137135,8.338909149169922,-40.32469177246094,-8.634071350097656,150.7886810302734,137.0170593261719,25,181097.5874907917,0.444854736328125,-0.79608154296875,-0.2991943359375,181097.5822229167,0.08148340829260942,-0.2676064105560672,0.02006398933654797,181097.5822229167,2.495813665575837,1.050179473318332,0.8735605917856476,0.07173565775156021,-0.2547600865364075,0.05508384108543396,-0.1311730295419693,-0.01769696548581123,0.04093321040272713,XTrueNorthZVertical,-0.3146097835882569,0.4912486716798579,0.8108153577615314,0.04768428263284798,0.5570305585861206,-0.7666200399398804,-0.3193908631801605,8.41569995880127,-38.14979553222656,-9.68748664855957,1,0.0.0.0,10.83.46.32,1,0
2015-03-01 11:20:47.206,66,1425237641.83585,37.74684055157145,-122.4444233108302,174.6221,-1,-1,10,65,-9999,1425237647.188485,8.032009124755859,-40.29071044921875,-8.600807189941406,151.1505279541016,137.37890625,25,181097.6364470834,0.438018798828125,-0.793792724609375,-0.3001251220703125,181097.5822229167,0.08148340829260942,-0.2676064105560672,0.02006398933654797,181097.5822229167,2.495813665575837,1.050179473318332,0.8735605917856476,0.07173565775156021,-0.2547600865364075,0.05508384108543396,-0.1311730295419693,-0.01769696548581123,0.04093321040272713,XTrueNorthZVertical,-0.3146097835882569,0.4912486716798579,0.8108153577615314,0.04768428263284798,0.5570305585861206,-0.7666200399398804,-0.3193908631801605,8.41569995880127,-38.14979553222656,-9.68748664855957,1,0.0.0.0,10.83.46.32,1,0
2015-03-01 11:20:47.241,67,1425237641.83585,37.74684055157145,-122.4444233108302,174.6221,-1,-1,10,65,-9999,1425237647.188485,8.032009124755859,-40.29071044921875,-8.600807189941406,151.1505279541016,137.37890625,25,181097.6856274584,0.4619293212890625,-0.835662841796875,-0.324371337890625,181097.6857804167,0.135747712347955,-0.1379469507761424,-0.3221354328237666,181097.6340014167,2.49523997864904,1.035493754585272,0.8712289061875812,-0.04477142915129662,-0.2994813323020935,-0.1221666112542152,-0.1109908372163773,-0.03448553383350372,0.02897844277322292,XTrueNorthZVertical,-0.3090295911059461,0.4901805722117377,0.8133286314154147,0.05215519452401587,0.5538161396980286,-0.765120804309845,-0.3284474313259125,8.260772705078125,-38.15253448486328,-9.809295654296875,1,0.0.0.0,10.83.46.32,1,0
2015-03-01 11:20:47.310,68,1425237641.83585,37.74684055157145,-122.4444233108302,174.6221,-1,-1,10,65,-9999,1425237647.293373,7.810356140136719,-40.71554565429688,-8.916885375976562,151.6097564697266,137.838134765625,25,181097.7345572083,0.52099609375,-0.8737640380859375,-0.265533447265625,181097.737559125,0.1533000744604492,0.007903729483137164,-0.2818130433910949,181097.6857804167,2.483944355189688,1.03181584356627,0.8624976009014411,0.1260001510381699,-0.1251008957624435,-0.2871162593364716,-0.09638737887144089,-0.07619311660528183,0.009526963345706463,XTrueNorthZVertical,-0.3067295726768944,0.4888433477938567,0.8144611659940854,0.06001723252153163,0.558316707611084,-0.759469747543335,-0.3338983058929443,8.481877326965332,-38.08133697509766,-9.896856307983398,1,0.0.0.0,10.83.46.32,1,0
2015-03-01 11:20:47.339,69,1425237641.83585,37.74684055157145,-122.4444233108302,174.6221,-1,-1,10,65,-9999,1425237647.293373,7.810356140136719,-40.71554565429688,-8.916885375976562,151.6097564697266,137.838134765625,25,181097.783736125,0.680145263671875,-0.8336334228515625,-0.2919769287109375,181097.737559125,0.1533000744604492,0.007903729483137164,-0.2818130433910949,181097.737559125,2.46206750436974,1.046157825033605,0.8550633963828964,0.1435526162385941,0.02074965089559555,-0.2467942535877228,-0.04692286998033524,-0.1191515251994133,0.06314250081777573,XTrueNorthZVertical,-0.3088963592135789,0.4901480041177033,0.8122752585957731,0.06742986093743304,0.5679189562797546,-0.7546125054359436,-0.3286759555339813,8.927669525146484,-38.04305648803711,-9.648882865905762,1,0.0.0.0,10.83.46.32,1,0
2015-03-01 11:20:47.378,70,1425237641.83585,37.74684055157145,-122.4444233108302,174.6221,-1,-1,10,65,-9999,1425237647.344593,8.321857452392578,-40.64755249023438,-8.650726318359375,151.7534027099609,137.9817810058594,25,181097.8326665,0.9546356201171875,-0.7849884033203125,-0.4462738037109375,181097.7893377917,-0.1949854697390235,-0.07098229779831797,-0.2376074987729787,181097.7893377917,2.45562076362638,1.04969705107688,0.84581179235727,-0.2047328352928162,-0.05813649296760559,-0.2025890052318573,0.1050362884998322,-0.08512374758720398,0.03814850747585297,XTrueNorthZVertical,-0.3108782358541044,0.4881516208736219,0.8123536934792095,0.0717224006167259,0.5751090049743652,-0.7485097050666809,-0.3301254212856293,9.411733627319336,-37.94746017456055,-9.564931869506836,1,0.0.0.0,10.83.46.32,1,0
2015-03-01 11:20:47.436,71,1425237641.83585,37.74684055157145,-122.4444233108302,174.6221,-1,-1,10,65,-9999,1425237647.396687,8.884517669677734,-40.63056945800781,-9.432571411132812,151.5052947998047,137.7336730957031,25,181097.88173675,0.9402313232421875,-0.7171478271484375,-0.558624267578125,181097.8928955417,-1.067906025516945,-1.801797055535607,-1.058379898297731,181097.8411165417,2.473141340334555,1.022797123692271,0.8154091876683337,-0.8127939105033875,-0.6801128387451172,-0.6261523365974426,0.3694541752338409,-0.05698221549391747,-0.08910498768091202,XTrueNorthZVertical,-0.3109946628484088,0.4740231120949542,0.8199354284996547,0.07931084742675992,0.5851814150810242,-0.7280061841011047,-0.3571688234806061,9.907343864440918,-37.61177444458008,-10.35747909545898,1,0.0.0.0,10.83.46.32,1,0
2015-03-01 11:20:47.479,72,1425237641.83585,37.74684055157145,-122.4444233108302,174.6221,-1,-1,10,65,-9999,1425237647.449486,9.310768127441406,-39.72987365722656,-10.97963714599609,151.7389221191406,137.9673004150391,25,181097.9307724583,0.7411041259765625,-0.4947052001953125,-0.4313507080078125,181097.8928955417,-1.067906025516945,-1.801797055535607,-1.058379898297731,181097.8928955417,2.49536878164557,0.9396946711235438,0.7500281717644079,-1.077653169631958,-1.788951516151428,-1.023362159729004,0.3131204545497894,-0.01009782962501049,-0.08846176415681839,XTrueNorthZVertical,-0.2957846833103409,0.4434594055978497,0.839392920667999,0.1061819663930468,0.5907339453697205,-0.6816594004631042,-0.4317103624343872,10.70238494873047,-36.77119445800781,-12.38614082336426,1,0.0.0.0,10.83.46.32,1,0
2015-03-01 11:20:47.535,73,1425237641.83585,37.74684055157145,-122.4444233108302,174.6221,-1,-1,10,65,-9999,1425237647.501099,9.0379638671875,-38.9481201171875,-13.47489929199219,156.6332702636719,142.8616485595703,25,181097.9798240833,0.46917724609375,-0.26751708984375,-0.312896728515625,181097.9446739167,-1.318384049206059,-2.339539347051098,-0.3140985452861255,181097.9446739167,2.532596656169452,0.8102604608942394,0.6835800169295712,-1.328131079673767,-2.326693773269653,-0.2790811359882355,0.1246492490172386,0.1979026645421982,0.1276339739561081,XTrueNorthZVertical,-0.2619020445286817,0.4052044795720828,0.8656635741277402,0.1335781935184213,0.5616911053657532,-0.6315727233886719,-0.5344333052635193,10.69487285614014,-35.20677947998047,-16.3150463104248,1,0.0.0.0,10.83.46.32,1,0
2015-03-01 11:20:47.580,74,1425237641.83585,37.74684055157145,-122.4444233108302,174.6221,-1,-1,10,65,-9999,1425237647.551847,7.213592529296875,-38.01341247558594,-16.28620910644531,161.0680541992188,147.2964324951172,25,181098.0288584167,0.2707672119140625,-0.169403076171875,-0.3564910888671875,181097.9964529167,-0.9494084064977601,-2.491140324736077,1.051721995572533,181097.9964529167,2.59903471654119,0.6474397495640977,0.6527824307702802,-0.9591553807258606,-2.478295087814331,1.086739063262939,-0.04874803870916367,0.3772202730178833,0.3594957888126373,XTrueNorthZVertical,-0.2088290559964346,0.373594466805748,0.8924950367985864,0.1423731631400418,0.4791374504566193,-0.6073991060256958,-0.6336352229118347,8.512779235839844,-34.30733108520508,-19.25144386291504,1,0.0.0.0,10.83.46.32,1,0
2015-03-01 11:20:47.633,75,1425237641.83585,37.74684055157145,-122.4444233108302,174.6221,-1,-1,10,65,-9999,1425237647.603976,2.0133056640625,-37.01075744628906,-18.49867248535156,157.9740905761719,144.2024688720703,25,181098.0779155,0.144744873046875,-0.208099365234375,-0.6040802001953125,181098.0482316667,-0.4235235734197373,-2.754643869316768,2.82619155621451,181098.0482316667,2.737518175511433,0.4293520734822676,0.6786269034523403,-0.4332704544067383,-2.741798639297485,2.861208200454712,-0.1266607493162155,0.4502650201320648,0.2916129529476166,XTrueNorthZVertical,-0.1315422452876877,0.3588955980789342,0.9168256325069394,0.1154177434857103,0.3240484595298767,-0.6277247667312622,-0.707781195640564,3.572299003601074,-34.0345458984375,-21.1888313293457,1,0.0.0.0,10.83.46.32,1,0
2015-03-01 11:20:47.710,76,1425237641.83585,37.74684055157145,-122.4444233108302,174.6221,-1,-1,10,65,-9999,1425237647.655162,-5.522865295410156,-35.85511779785156,-19.36370086669922,152.9374542236328,139.1658325195312,25,181098.1269425,0.361328125,-0.586029052734375,-0.666412353515625,181098.1000102917,0.5671790099924645,-2.020862028902799,3.485994509971603,181098.1000102917,2.941500680565993,0.1823392725491652,0.7303462389675768,0.557432234287262,-2.008017063140869,3.521010875701904,0.1291707009077072,0.3519420623779297,-0.01124154217541218,XTrueNorthZVertical,-0.049095116518348,0.362343367480843,0.9287786886515675,0.06055583896051304,0.1350810080766678,-0.6671276092529297,-0.7325938940048218,-5.889549255371094,-33.63898468017578,-21.30282402038574,1,0.0.0.0,10.83.46.32,1,0
2015-03-01 11:20:47.730,77,1425237641.83585,37.74684055157145,-122.4444233108302,174.6221,-1,-1,10,65,-9999,1425237647.706768,-14.30368804931641,-33.93473815917969,-18.38222503662109,143.04248046875,129.2708587646484,25,181098.1760091667,-0.171539306640625,-0.716522216796875,-0.807525634765625,181098.1517890833,0.9874111826209728,-2.811637647173336,3.922317768222479,181098.1517890833,-3.075619954081689,-0.1191053275211043,0.7744766641597757,0.9776645302772522,-2.798792839050293,3.95733380317688,0.2127566784620285,0.08453496545553207,0.09813553839921951,XTrueNorthZVertical,0.04264816509599039,0.3785757551054751,0.9245523828936343,-0.00802069166665564,-0.084933802485466,-0.6993420720100403,-0.7097230553627014,-13.70107555389404,-32.56586456298828,-19.28272247314453,1,0.0.0.0,10.83.46.32,1,0
2015-03-01 11:20:47.779,78,1425237641.83585,37.74684055157145,-122.4444233108302,174.6221,-1,-1,10,65,-9999,1425237647.759765,-22.67530059814453,-31.43655395507812,-14.67261505126953,135.5725555419922,121.8009338378906,25,181098.2250472917,-0.0753326416015625,-0.63250732421875,-0.87774658203125,181098.2035680417,1.355061636370848,-2.763231764883947,3.098438791286149,181098.2035680417,-2.814011847689197,-0.4449353096460139,0.792575820664134,1.345315098762512,-2.750386953353882,3.133454322814941,0.2445594519376755,-0.1362705528736115,-0.208956703543663,XTrueNorthZVertical,0.1394245955704458,0.4046340459973253,0.9016107780425593,-0.06268958794080318,-0.3021461069583893,-0.7121638655662537,-0.6336641311645508,-21.1418399810791,-30.65999984741211,-15.26648235321045,1,0.0.0.0,10.83.46.32,1,0
2015-03-01 11:20:47.829,79,1425237641.83585,37.74684055157145,-122.4444233108302,174.6221,-1,-1,10,65,-9999,1425237647.810705,-30.33082580566406,-27.54481506347656,-9.831817626953125,126.8355712890625,113.0639495849609,25,181098.2741010417,-0.4055328369140625,-0.62310791015625,-0.582763671875,181098.2553464583,1.291714355101678,-1.832959502398951,3.236531683290028,181098.2553464583,-2.582795076623696,-0.7270354291522578,0.7530926113860767,1.281952142715454,-1.820064187049866,3.271485567092896,0.1904244422912598,0.2090753316879272,-0.1172359809279442,XTrueNorthZVertical,0.223051447060943,0.4215411165071727,0.8715215415798381,-0.114023024732081,-0.4849190711975098,-0.6838983297348022,-0.5451022982597351,-28.53110885620117,-26.81262397766113,-9.334739685058594,1,0.0.0.0,10.83.46.32,1,0
2015-03-01 11:20:47.877,80,1425237641.83585,37.74684055157145,-122.4444233108302,174.6221,-1,-1,10,65,-9999,1425237647.86246,-35.30946350097656,-22.786376953125,-5.307075500488281,118.6582794189453,104.8866577148438,25,181098.3231339167,-0.500823974609375,-0.6263275146484375,-0.575469970703125,181098.3071254583,1.266420450016432,-1.148592349695294,2.879248116715504,181098.2553464583,-2.582795076623696,-0.7270354291522578,0.7530926113860767,1.281952142715454,-1.820064187049866,3.271485567092896,0.1904244422912598,0.2090753316879272,-0.1172359809279442,XTrueNorthZVertical,0.223051447060943,0.4215411165071727,0.8715215415798381,-0.114023024732081,-0.4849190711975098,-0.6838983297348022,-0.5451022982597351,-28.53110885620117,-26.81262397766113,-9.334739685058594,1,0.0.0.0,10.83.46.32,1,0
2015-03-01 11:20:47.929,81,1425237641.83585,37.74684055157145,-122.4444233108302,174.6221,-1,-1,10,65,-9999,1425237647.913924,-38.85589599609375,-17.5860595703125,-1.447738647460938,111.1439819335938,97.37236022949219,25,181098.372308875,-0.5013885498046875,-0.531402587890625,-0.3349761962890625,181098.3589042083,1.287001891552783,-1.555728427663337,2.319473759817896,181098.3589042083,-2.22553345021047,-1.085080852806093,0.6064940164678361,1.277239680290222,-1.542833089828491,2.354426145553589,0.2672085165977478,0.01603519544005394,-0.06032797694206238,XTrueNorthZVertical,0.3288815129250408,0.4472656856040807,0.8012549715033815,-0.2231159701303516,-0.7266201376914978,-0.5699902772903442,-0.3835807144641876,-35.39823150634766,-18.94030570983887,-2.882411956787109,1,0.0.0.0,10.83.46.32,1,0
2015-03-01 11:20:47.985,82,1425237641.83585,37.74684055157145,-122.4444233108302,174.6221,-1,-1,10,65,-9999,1425237647.970174,-40.91895294189453,-12.43673706054688,2.7276611328125,103.3819961547852,89.61037445068359,25,181098.4212181667,-0.834747314453125,-0.4308624267578125,-0.2871246337890625,181098.41068275,1.129920128344421,-1.99910719859016,2.085083093325625,181098.3589042083,-2.22553345021047,-1.085080852806093,0.6064940164678361,1.277239680290222,-1.542833089828491,2.354426145553589,0.2672085165977478,0.01603519544005394,-0.06032797694206238,XTrueNorthZVertical,0.3288815129250408,0.4472656856040807,0.8012549715033815,-0.2231159701303516,-0.7266201376914978,-0.5699902772903442,-0.3835807144641876,-35.39823150634766,-18.94030570983887,-2.882411956787109,1,0.0.0.0,10.83.46.32,1,0
2015-03-01 11:20:48.056,83,1425237641.83585,37.74684055157145,-122.4444233108302,174.6221,-1,-1,10,65,-9999,1425237647.970174,-40.91895294189453,-12.43673706054688,2.7276611328125,103.3819961547852,89.61037445068359,25,181098.4702692917,-0.886627197265625,-0.3574676513671875,-0.130828857421875,181098.462461625,1.354353235520887,-1.766503513189332,1.886764144850149,181098.462461625,-2.0134771397793,-1.379174616238789,0.44448991414978,1.344582676887512,-1.753612041473389,1.921720266342163,0.004286195151507854,0.06679245829582214,-0.0007539358921349049,XTrueNorthZVertical,0.4335248995885738,0.4754825360418248,0.7109330641164132,-0.2838073400228487,-0.8863052129745483,-0.4299974143505096,-0.1719450354576111,-39.18598175048828,-10.7291259765625,7.0357985496521,1,0.0.0.0,10.83.46.32,1,0
2015-03-01 11:20:48.064,84,1425237641.83585,37.74684055157145,-122.4444233108302,174.6221,-1,-1,10,65,-9999,1425237648.044397,-41.92074584960938,-5.08148193359375,8.269538879394531,90.09220886230469,76.32058715820312,15,181098.519305625,-0.926788330078125,-0.427459716796875,-0.1177825927734375,181098.5142405,1.579729368039349,-0.8616761570233888,1.943026352355272,181098.462461625,-2.0134771397793,-1.379174616238789,0.44448991414978,1.344582676887512,-1.753612041473389,1.921720266342163,0.004286195151507854,0.06679245829582214,-0.0007539358921349049,XTrueNorthZVertical,0.4335248995885738,0.4754825360418248,0.7109330641164132,-0.2838073400228487,-0.8863052129745483,-0.4299974143505096,-0.1719450354576111,-39.18598175048828,-10.7291259765625,7.0357985496521,1,0.0.0.0,10.83.46.32,1,0
2015-03-01 11:20:48.130,85,1425237641.83585,37.74684055157145,-122.4444233108302,174.6221,-1,-1,10,65,-9999,1425237648.095586,-41.76730346679688,-0.407867431640625,10.98117065429688,83.70106506347656,69.929443359375,15,181098.5683617083,-0.77667236328125,-0.2765350341796875,-0.036224365234375,181098.5660190417,1.513142883936316,-0.199876897713172,2.125822001152784,181098.5142405,-1.919273367852055,-1.480109003311307,0.3564545507875869,1.56995964050293,-0.8487857580184937,1.977983832359314,-0.01510592363774776,-0.08479248732328415,-0.01441868208348751,XTrueNorthZVertical,0.4683950999750576,0.4880275616621833,0.6637824070751278,-0.319104926291986,-0.9332888722419739,-0.3489538431167603,-0.08487025648355484,-39.37479019165039,-6.677801609039307,10.2562255859375,1,0.0.0.0,10.83.46.32,1,0
2015-03-01 11:20:48.162,86,1425237641.83585,37.74684055157145,-122.4444233108302,174.6221,-1,-1,10,65,-9999,1425237648.147323,-41.30698394775391,4.46966552734375,12.0625,75.89296722412109,62.12134170532227,15,181098.6173923333,-0.74273681640625,-0.32470703125,-0.118560791015625,181098.5660190417,1.513142883936316,-0.199876897713172,2.125822001152784,181098.5660190417,-1.82962266077932,-1.528227180999883,0.2598660994165213,1.503373503684998,-0.1869852542877197,2.160776853561401,0.1913788616657257,-0.02652663365006447,-0.01278186868876219,XTrueNorthZVertical,0.4866122163665392,0.4925899251774243,0.622000675219427,-0.3656210949493561,-0.9655488133430481,-0.2569511532783508,-0.04112743213772774,-39.4520263671875,-0.8489933013916016,11.95719337463379,1,0.0.0.0,10.83.46.32,1,0
2015-03-01 11:20:48.221,87,1425237641.83585,37.74684055157145,-122.4444233108302,174.6221,-1,-1,10,65,-9999,1425237648.199199,-39.90898895263672,9.330169677734375,12.76119995117188,65.8179931640625,52.04636764526367,15,181098.66645825,-0.8017425537109375,-0.077880859375,-0.06396484375,181098.6695767917,0.6320818436543496,-1.294734646093937,2.418032824387876,181098.617797875,-1.764990754163918,-1.569231996515706,0.1508034549494994,1.014402866363525,-0.9513257145881653,2.255565404891968,0.245912566781044,-0.1744745075702667,-0.1170142143964767,XTrueNorthZVertical,0.5102766835051389,0.4887171150595287,0.5788010937932154,-0.4071393988445606,-0.9886493682861328,-0.1502325236797333,-0.001546575454995036,-39.06769943237305,3.747285842895508,12.6423978805542,1,0.0.0.0,10.83.46.32,3,0
2015-03-01 11:20:48.260,88,1425237648.25405,37.74685643326364,-122.4444178726299,174.5415,-1,-1,10,65,-9999,1425237648.251108,-37.96544647216797,13.68081665039062,14.09206390380859,58.58246612548828,44.81084442138672,15,181098.715492,-0.85577392578125,0.000213623046875,0.0060882568359375,181098.6695767917,0.6320818436543496,-1.294734646093937,2.418032824387876,181098.6695767917,-1.728256083367069,-1.635400217859646,0.03291591538972022,0.6223127841949463,-1.281843185424805,2.4529869556427,0.1956306993961334,-0.04497088864445686,-0.1284888237714767,XTrueNorthZVertical,0.5474800198500759,0.4822111780402228,0.5278523449033008,-0.4348675869353246,-0.9973732233047485,-0.03290997073054314,0.06452398747205734,-37.92456436157227,9.361839294433594,14.5989933013916,1,0.0.0.0,10.83.46.32,3,0
2015-03-01 11:20:48.321,89,1425237648.25405,37.74685643326364,-122.4444178726299,174.5415,-1,-1,10,65,-9999,1425237648.303153,-34.74327850341797,18.42233276367188,15.60591125488281,48.42447662353516,34.65285491943359,15,181098.7645615,-0.8541412353515625,-0.0389251708984375,0.039642333984375,181098.7731342083,-0.1003958467738071,-1.754643125274664,3.020544791510749,181098.7213552917,-1.722237423275817,-1.690228386979601,-0.1032385594845797,0.1638105362653732,-0.970114529132843,2.921768188476562,0.1318159997463226,-0.1028416454792023,-0.1124256700277328,XTrueNorthZVertical,0.5890031373349115,0.4607952576751699,0.4776035145190693,-0.4611266921157161,-0.9875898957252502,0.1030552685260773,0.1185139268636703,-34.8736572265625,15.50894832611084,16.80320739746094,1,0.0.0.0,10.83.46.32,3,0
2015-03-01 11:20:48.358,90,1425237648.25405,37.74685643326364,-122.4444178726299,174.5415,-1,-1,10,65,-9999,1425237648.354805,-30.54932403564453,22.70504760742188,17.36930084228516,37.95609283447266,24.18446922302246,15,181098.813602125,-1.36590576171875,0.3924407958984375,0.2652130126953125,181098.7731342083,-0.1003958467738071,-1.754643125274664,3.020544791510749,181098.7731342083,-1.746783707603241,-1.758467108946653,-0.2548113812217163,-0.1101647168397903,-1.741751909255981,3.055498123168945,0.09657792747020721,-0.2909880578517914,-0.140904501080513,XTrueNorthZVertical,0.6376619577034395,0.4285564706643959,0.4220199012494004,-0.4812750675526254,-0.9507191777229309,0.2520628869533539,0.180546835064888,-31.50619316101074,20.09296798706055,18.51161766052246,1,0.0.0.0,10.83.46.32,3,0
2015-03-01 11:20:48.435,91,1425237648.25405,37.74685643326364,-122.4444178726299,174.5415,-1,-1,10,65,-9999,1425237648.407985,-25.48588562011719,25.30523681640625,19.91458129882812,29.90212249755859,16.13050079345703,15,181098.8626775,-1.40673828125,0.615692138671875,0.574249267578125,181098.824913125,-0.504243986060039,-2.496652535560323,1.941558950594638,181098.824913125,-1.790872550143903,-1.887389397499502,-0.3723567446323495,-0.5140127539634705,-2.483761548995972,1.976511836051941,-0.5769632458686829,0.1608312577009201,0.06887544691562653,XTrueNorthZVertical,0.6889660956629172,0.4127029500083115,0.3563675053434113,-0.4774977526288384,-0.8851796984672546,0.3638116717338562,0.2899959981441498,-28.50337791442871,22.65317916870117,20.33318328857422,1,0.0.0.0,10.83.46.32,3,0
2015-03-01 11:20:48.456,92,1425237648.25405,37.74685643326364,-122.4444178726299,174.5415,-1,-1,10,65,-9999,1425237648.407985,-25.48588562011719,25.30523681640625,19.91458129882812,29.90212249755859,16.13050079345703,15,181098.911718375,-0.6498260498046875,0.403533935546875,0.52874755859375,181098.876691625,-1.424716082049652,-1.392183172489353,2.026641088468272,181098.876691625,-1.888128122201306,-2.022867486122351,-0.4403464561360945,-1.434484839439392,-1.379292368888855,2.061593770980835,-0.4332474768161774,0.1052565053105354,0.1573935449123383,XTrueNorthZVertical,0.7379054816078436,0.391247192816108,0.3108512437192212,-0.4536436345344986,-0.8137312531471252,0.4262529015541077,0.3951577246189117,-21.02390289306641,25.06671142578125,25.85929107666016,1,0.0.0.0,10.83.46.32,3,0
2015-03-01 11:20:48.522,93,1425237648.25405,37.74685643326364,-122.4444178726299,174.5415,-1,-1,10,65,-9999,1425237648.510471,-15.03508758544922,25.15231323242188,26.55226135253906,22.74055671691895,8.968934059143066,15,181098.960784625,-0.566741943359375,0.714080810546875,0.78436279296875,181098.9284705,-1.671969283974789,-1.51667716501896,2.142762901478997,181098.9284705,-2.022708375301435,-2.147243417134343,-0.4947297534347744,-1.681737899780273,-1.503786444664001,2.177715063095093,0.1523058712482452,-0.04277173057198524,0.09827682375907898,XTrueNorthZVertical,0.7842426291398947,0.3532864186820402,0.2777169246498803,-0.4278147067673355,-0.7378771305084229,0.4747938215732574,0.479695588350296,-17.1252555847168,25.00799179077148,28.64215850830078,1,0.0.0.0,10.83.46.32,3,0
2015-03-01 11:20:48.555,94,1425237648.25405,37.74685643326364,-122.4444178726299,174.5415,-1,-1,10,65,-9999,1425237648.510471,-15.03508758544922,25.15231323242188,26.55226135253906,22.74055671691895,8.968934059143066,15,181099.009822875,-0.4691314697265625,0.7354888916015625,0.8451385498046875,181098.9802494167,-1.67865062251758,-1.878425521161002,1.640605502133035,181098.9802494167,-2.166853094083905,-2.308886818717107,-0.5197128011691073,-1.688419103622437,-1.865534901618958,1.675557374954224,0.06935540586709976,0.2925994694232941,0.196654349565506,XTrueNorthZVertical,0.8296180020476407,0.3221017083552468,0.2352949226690856,-0.3906669528743196,-0.6420788168907166,0.4966308772563934,0.5840311050415039,-12.51098155975342,24.09586715698242,31.65299034118652,1,0.0.0.0,10.83.46.32,3,0
2015-03-01 11:20:48.619,95,1425237648.25405,37.74685643326364,-122.4444178726299,174.5415,-1,-1,10,65,-9999,1425237648.587447,-8.062202453613281,22.00823974609375,30.52822875976562,76.56229400634766,62.79066848754883,15,181099.0588827083,-0.2064361572265625,0.5700531005859375,0.8136138916015625,181099.0320279583,-1.533759479199056,-0.4590802360817122,1.773317210838299,181099.0320279583,-2.301120973747145,-2.431983826059253,-0.5202532181834855,-1.543527841567993,-0.4461897611618042,1.808268785476685,0.1888388991355896,0.1571207046508789,0.1676506102085114,XTrueNorthZVertical,0.8637784728351966,0.2881146511118897,0.2081124762017704,-0.3571635528426468,-0.5653342604637146,0.4970998764038086,0.6582465767860413,-7.445969581604004,21.81331253051758,34.75318908691406,1,0.0.0.0,10.83.46.32,3,0
2015-03-01 11:20:48.657,96,1425237648.25405,37.74685643326364,-122.4444178726299,174.5415,-1,-1,10,65,-9999,1425237648.639121,-4.68658447265625,18.983154296875,32.2916259765625,92.42491149902344,78.65328979492188,15,181099.1079185417,-0.1352996826171875,0.3856353759765625,0.9228668212890625,181099.0838070417,-1.593103230401509,-0.1756285496718916,1.96932080706206,181099.0838070417,-2.44330625678366,-2.509668713402551,-0.5225109706917881,-1.602871417999268,-0.1627382040023804,2.004271984100342,0.3468415141105652,0.01794065348803997,0.1817536950111389,XTrueNorthZVertical,0.8902992327552656,0.2387072450787976,0.1980889322828912,-0.3333868785032563,-0.5118805766105652,0.4990576505661011,0.6992277503013611,-5.359430313110352,19.9930362701416,36.20223999023438,1,0.0.0.0,10.83.46.32,3,0
2015-03-01 11:20:48.714,97,1425237648.25405,37.74685643326364,-122.4444178726299,174.5415,-1,-1,10,65,-9999,1425237648.691097,-1.617835998535156,16.16201782226562,34.62063598632812,100.7717895507812,87.00016784667969,15,181099.15697325,-0.102935791015625,0.4823455810546875,0.82232666015625,181099.1355857083,-2.49190731513002,-1.05613085875716,1.498985253265346,181099.1355857083,-2.595341212600982,-2.616300150553779,-0.4824030393184543,-2.501675605773926,-1.043240666389465,1.533936142921448,0.3506731390953064,-0.0908929631114006,0.1023289784789085,XTrueNorthZVertical,0.919719828057333,0.1932308331032998,0.1805517349575185,-0.2901349040861307,-0.4442400336265564,0.4639093279838562,0.7664454579353333,-3.026795387268066,17.18371200561523,37.87619018554688,1,0.0.0.0,10.83.46.32,3,0
2015-03-01 11:20:48.757,98,1425237648.25405,37.74685643326364,-122.4444178726299,174.5415,-1,-1,10,65,-9999,1425237648.743504,0.9224090576171875,12.40618896484375,36.06794738769531,109.5744094848633,95.80278778076172,15,181099.2060136667,-0.28076171875,0.51220703125,1.1024169921875,181099.18736425,-1.763870179503461,-0.8516408334037523,1.115767557679522,181099.1355857083,-2.595341212600982,-2.616300150553779,-0.4824030393184543,-2.501675605773926,-1.043240666389465,1.533936142921448,0.3506731390953064,-0.0908929631114006,0.1023289784789085,XTrueNorthZVertical,0.919719828057333,0.1932308331032998,0.1805517349575185,-0.2901349040861307,-0.4442400336265564,0.4639093279838562,0.7664454579353333,-3.026795387268066,17.18371200561523,37.87619018554688,1,0.0.0.0,10.83.46.32,3,0
2015-03-01 11:20:48.817,99,1425237648.25405,37.74685643326364,-122.4444178726299,174.5415,-1,-1,10,65,-9999,1425237648.794313,3.428543090820312,8.752288818359375,37.51526260375977,115.7739715576172,102.0023498535156,15,181099.2550812917,-0.0767669677734375,0.389434814453125,0.978485107421875,181099.2391432083,-1.744785168183626,-0.399517040405436,0.706776321696129,181099.2391432083,-2.79351908353067,-2.773465918990828,-0.3544464373389519,-1.754553198814392,-0.3866270780563354,0.7417264580726624,0.2194716483354568,0.08098354190587997,0.2912839651107788,XTrueNorthZVertical,0.9586785614677779,0.135788696228319,0.1474256920028562,-0.2018970520958834,-0.3374983668327332,0.3470712602138519,0.8750063180923462,2.413581848144531,9.265825271606445,39.53178405761719,1,0.0.0.0,10.83.46.32,6,0
2015-03-01 11:20:48.855,100,1425237648.25405,37.74685643326364,-122.4444178726299,174.5415,-1,-1,10,65,-9999,1425237648.794313,3.428543090820312,8.752288818359375,37.51526260375977,115.7739715576172,102.0023498535156,15,181099.3041275417,-0.3356781005859375,0.230865478515625,1.023849487304688,181099.2909220833,-1.087330057243547,-0.8852904064091215,0.489119361597261,181099.2909220833,-2.852561567911702,-2.82522069161042,-0.2964226306644343,-1.097037076950073,-0.8723966479301453,0.5240436196327209,0.1351678222417831,0.01447885856032372,0.02319136820733547,XTrueNorthZVertical,0.9698571106637617,0.1176364095833586,0.1331751938987061,-0.1667427249212443,-0.2975518405437469,0.292100727558136,0.9089222550392151,3.615514755249023,6.264712333679199,40.02654266357422,1,0.0.0.0,10.83.46.32,6,0
2015-03-01 11:20:48.928,101,1425237648.25405,37.74685643326364,-122.4444178726299,174.5415,-1,-1,10,65,-9999,1425237648.899458,6.872360229492188,2.6341552734375,37.61506271362305,122.5891571044922,108.8175354003906,15,181099.353167625,-0.145111083984375,0.3054046630859375,1.023345947265625,181099.342700625,-0.7021980814661738,-0.4601785237152609,-0.09965841746796418,181099.2909220833,-2.852561567911702,-2.82522069161042,-0.2964226306644343,-1.097037076950073,-0.8723966479301453,0.5240436196327209,0.1351678222417831,0.01447885856032372,0.02319136820733547,XTrueNorthZVertical,0.9698571106637617,0.1176364095833586,0.1331751938987061,-0.1667427249212443,-0.2975518405437469,0.292100727558136,0.9089222550392151,3.615514755249023,6.264712333679199,40.02654266357422,1,0.0.0.0,10.83.46.32,6,0
2015-03-01 11:20:48.947,102,1425237648.25405,37.74685643326364,-122.4444178726299,174.5415,-1,-1,10,65,-9999,1425237648.899458,6.872360229492188,2.6341552734375,37.61506271362305,122.5891571044922,108.8175354003906,15,181099.40226475,-0.225494384765625,0.276763916015625,0.9672698974609375,181099.3944795417,-0.6622884820024644,-0.7430424504725011,0.06765121590684686,181099.342700625,-2.872870332108502,-2.865068297484943,-0.2577797323202939,-0.7119049429893494,-0.4472849071025848,-0.06473447382450104,-0.07607979327440262,0.04250529780983925,0.08118997514247894,XTrueNorthZVertical,0.9757614937651904,0.1140232737251436,0.1183933318286929,-0.1444684320585969,-0.2639928460121155,0.2549342811107635,0.9302235841751099,5.493741989135742,3.909421920776367,40.11206817626953,1,0.0.0.0,10.83.46.32,6,0
2015-03-01 11:20:49.018,103,1425237648.25405,37.74685643326364,-122.4444178726299,174.5415,-1,-1,10,65,-9999,1425237649.00214,9.685379028320312,-0.44189453125,36.9329948425293,124.2493209838867,110.4776992797852,15,181099.4512500417,-0.247344970703125,0.181365966796875,1.014251708984375,181099.446258375,-0.4401424975701588,-0.7078607608920093,0.1764533306614891,181099.446258375,-2.896490859143737,-2.935166260013994,-0.2008490392305572,-0.4498491287231445,-0.6949673891067505,0.2113765329122543,-0.02358309738337994,-0.03954348713159561,0.07127121835947037,XTrueNorthZVertical,0.983506945819734,0.1107292803909973,0.08955161512638299,-0.111505743195273,-0.2008431702852249,0.1995013803243637,0.9590937495231628,7.763447761535645,1.579521179199219,39.89582061767578,1,0.0.0.0,10.83.46.32,6,0
2015-03-01 11:20:49.046,104,1425237648.25405,37.74685643326364,-122.4444178726299,174.5415,-1,-1,10,65,-9999,1425237649.00214,9.685379028320312,-0.44189453125,36.9329948425293,124.2493209838867,110.4776992797852,15,181099.500433625,-0.162200927734375,0.15631103515625,1.0765380859375,181099.446258375,-0.4401424975701588,-0.7078607608920093,0.1764533306614891,181099.446258375,-2.896490859143737,-2.935166260013994,-0.2008490392305572,-0.4498491287231445,-0.6949673891067505,0.2113765329122543,-0.02358309738337994,-0.03954348713159561,0.07127121835947037,XTrueNorthZVertical,0.983506945819734,0.1107292803909973,0.08955161512638299,-0.111505743195273,-0.2008431702852249,0.1995013803243637,0.9590937495231628,7.763447761535645,1.579521179199219,39.89582061767578,1,0.0.0.0,10.83.46.32,6,0
2015-03-01 11:20:49.118,105,1425237648.25405,37.74685643326364,-122.4444178726299,174.5415,-1,-1,10,65,-9999,1425237649.053579,10.69124603271484,-1.5125732421875,36.11783981323242,125.3535461425781,111.5819244384766,15,181099.5493474583,-0.1176605224609375,0.2693634033203125,1.049453735351562,181099.5498158333,-0.2127295794500034,-0.3329646447643558,0.2558754522703772,181099.4980370417,-2.912546699856875,-2.964866602968128,-0.1841638854846032,-0.3733164668083191,-0.347079873085022,0.3186613917350769,-0.009828387759625912,0.01858131028711796,0.1172597631812096,XTrueNorthZVertical,0.9863083488692063,0.1052833016066005,0.07683197050173997,-0.10103476733965,-0.172834575176239,0.1831246167421341,0.9677774906158447,9.19047737121582,0.4887509346008301,39.61993026733398,1,0.0.0.0,10.83.46.32,6,0
2015-03-01 11:20:49.144,106,1425237648.25405,37.74685643326364,-122.4444178726299,174.5415,-1,-1,10,65,-9999,1425237649.104385,11.44138336181641,-2.702239990234375,35.85166549682617,126.9730453491211,113.2014236450195,15,181099.598372875,-0.0452728271484375,0.1839141845703125,1.053909301757812,181099.601594875,-0.09728048093063243,-0.3433067645415696,0.1556258130404154,181099.5498158333,-2.931343942859717,-2.985157349774629,-0.1715455328508159,-0.2224360257387161,-0.3200715184211731,0.2907979488372803,0.03585069999098778,0.0986580029129982,0.0761636421084404,XTrueNorthZVertical,0.9884965534646354,0.09756849691560632,0.06845919151371917,-0.09310316774577822,-0.1535112261772156,0.1707053929567337,0.9732900857925415,10.56242275238037,-1.136999130249023,39.06939315795898,1,0.0.0.0,10.83.46.32,6,0
2015-03-01 11:20:49.213,107,1425237648.25405,37.74685643326364,-122.4444178726299,174.5415,-1,-1,10,65,-9999,1425237649.159038,11.85055541992188,-3.552001953125,35.48567581176758,128.5130157470703,114.7413940429688,15,181099.6474229583,-0.097503662109375,0.1786956787109375,1.060348510742188,181099.601594875,-0.09728048093063243,-0.3433067645415696,0.1556258130404154,181099.601594875,-2.943913602366648,-3.001734251072758,-0.165585737514604,-0.1069868355989456,-0.3304137885570526,0.1905479580163956,0.09222329407930374,0.01908409968018532,0.07721820473670959,XTrueNorthZVertical,0.9898570561459179,0.09235018578917865,0.0611524053337929,-0.08896484391925411,-0.1374961137771606,0.1648300886154175,0.9766910672187805,11.0561466217041,-1.582663536071777,38.91698455810547,1,0.0.0.0,10.83.46.32,6,0
2015-03-01 11:20:49.242,108,1425237648.25405,37.74685643326364,-122.4444178726299,174.5415,-1,-1,10,65,-9999,1425237649.237179,12.82232666015625,-4.112823486328125,35.66867446899414,130.2458648681641,116.474235534668,15,181099.6965255833,-0.093231201171875,0.20355224609375,1.116729736328125,181099.6533732083,-0.06061993799681965,-0.1217147176160004,0.06801127528622557,181099.6533732083,-2.951417909927416,-3.015656596792808,-0.1632004962272239,-0.07032620906829834,-0.1088218614459038,0.1029331237077713,0.02643077075481415,0.01621867716312408,0.08145060390233994,XTrueNorthZVertical,0.9906908000189752,0.0893347288261639,0.05471018094790298,-0.08693531867320038,-0.1239344328641891,0.1624770015478134,0.9788979291915894,11.69503593444824,-1.87562084197998,38.71670532226562,1,0.0.0.0,10.83.46.32,6,0
2015-03-01 11:20:49.310,109,1425237648.25405,37.74685643326364,-122.4444178726299,174.5415,-1,-1,10,65,-9999,1425237649.237179,12.82232666015625,-4.112823486328125,35.66867446899414,130.2458648681641,116.474235534668,15,181099.7455335417,-0.0059814453125,0.2162933349609375,1.197616577148438,181099.7569310417,0.5999947472605299,0.29720957660117,0.0379015760017897,181099.7051522917,-2.953058779404252,-3.009681770013567,-0.1622549626988513,0.04101213067770004,0.3489029705524445,-0.01524127367883921,0.03656987845897675,0.04200828447937965,0.1384379267692566,XTrueNorthZVertical,0.9906309308396847,0.08829645645473592,0.05778783688902522,-0.08668661429406457,-0.1298010796308517,0.1615439653396606,0.9782918095588684,11.59510612487793,-1.97195291519165,38.74196624755859,1,0.0.0.0,10.83.46.32,6,0
2015-03-01 11:20:49.339,110,1425237648.25405,37.74685643326364,-122.4444178726299,174.5415,-1,-1,10,65,-9999,1425237649.312643,12.54954147338867,-3.94287109375,35.93485641479492,130.29443359375,116.5228042602539,15,181099.7947565,-0.1360015869140625,0.23138427734375,1.195144653320312,181099.7569310417,0.5999947472605299,0.29720957660117,0.0379015760017897,181099.7569310417,-2.952250561918308,-2.990428232671858,-0.1783917668388983,0.5902886390686035,0.3101021349430084,0.0728226900100708,0.1363587230443954,0.01131938677281141,0.2409596592187881,XTrueNorthZVertical,0.9893694233060633,0.08718892956195057,0.0664768502008953,-0.0955351857960211,-0.1481995433568954,0.1774470955133438,0.972907543182373,10.91906929016113,-1.653032779693604,38.9527473449707,1,0.0.0.0,10.83.46.32,6,0
2015-03-01 11:20:49.412,111,1425237648.25405,37.74685643326364,-122.4444178726299,174.5415,-1,-1,10,65,-9999,1425237649.364379,11.69710922241211,-2.99114990234375,36.13449096679688,130.3924102783203,116.6207809448242,15,181099.8436754583,-0.0233306884765625,0.241485595703125,1.138763427734375,181099.8087096667,0.8018306662715642,0.626716373006167,0.01087315409857551,181099.8087096667,-2.949826103007721,-2.970576489162744,-0.2151333867249388,0.7921246886253357,0.6396088600158691,0.04579391703009605,0.02876370958983898,0.03105961158871651,0.2193715125322342,XTrueNorthZVertical,0.9869155133369831,0.08570852523198476,0.07427963012260799,-0.1146048137516475,-0.1662606596946716,0.2134777456521988,0.962696373462677,10.08924674987793,-0.1030192375183105,39.21060562133789,1,0.0.0.0,10.83.46.32,6,0
2015-03-01 11:20:49.437,112,1425237648.25405,37.74685643326364,-122.4444178726299,174.5415,-1,-1,10,65,-9999,1425237649.41996,10.60599899291992,-1.563629150390625,36.63356399536133,130.5267639160156,116.7551422119141,15,181099.8927201667,-0.0730743408203125,0.2615814208984375,1.0697021484375,181099.8604884583,1.178440792876793,0.8942277087113184,-0.02224325405655981,181099.8604884583,-2.941316172841461,-2.924264580449492,-0.2630540809494641,1.168734908103943,0.9071200489997864,0.01267719455063343,0.1964699625968933,-0.03424647822976112,0.1929626166820526,XTrueNorthZVertical,0.9820003599403879,0.08437112718224725,0.09394130939848318,-0.1404697295230856,-0.2082039713859558,0.2600307762622833,0.9428864121437073,8.581588745117188,1.50523567199707,39.53942108154297,1,0.0.0.0,10.83.46.32,6,0
2015-03-01 11:20:49.515,113,1425237648.25405,37.74685643326364,-122.4444178726299,174.5415,-1,-1,10,65,-9999,1425237649.470505,9.53424072265625,0.170989990234375,37.75505828857422,130.772705078125,117.0010833740234,15,181099.9417793333,-0.2176361083984375,0.5197601318359375,1.147979736328125,181099.9122675,1.324913321250606,0.8106084452244654,-0.3372065277486341,181099.9122675,-2.918783401010641,-2.878981827789993,-0.3215404601015678,1.315207481384277,0.8235006332397461,-0.3022864162921906,0.1458951532840729,-0.02484497427940369,0.1306223571300507,XTrueNorthZVertical,0.9748706863739458,0.0879670664770363,0.1107953973599482,-0.1720849457009878,-0.2462979853153229,0.3160284459590912,0.916222095489502,7.132829666137695,3.672753810882568,39.68511962890625,1,0.0.0.0,10.83.46.32,6,0
2015-03-01 11:20:49.537,114,1425237648.25405,37.74685643326364,-122.4444178726299,174.5415,-1,-1,10,65,-9999,1425237649.521711,7.352210998535156,2.346160888671875,37.68851089477539,130.2370910644531,116.465461730957,15,181099.9908245833,-0.141510009765625,0.493621826171875,1.095504760742188,181099.964045875,1.519918232065587,1.641262503973957,-0.4820705068240392,181099.964045875,-2.875988548195655,-2.797616505298787,-0.3854541933933158,1.510212540626526,1.654154658317566,-0.4471507966518402,0.08920751512050629,0.1733821332454681,0.2918224334716797,XTrueNorthZVertical,0.9628308548466324,0.09555196276693659,0.1415062497524356,-0.2092903657518296,-0.31248939037323,0.3759800493717194,0.8723468780517578,4.248230934143066,7.155735015869141,39.62351608276367,1,0.0.0.0,10.83.46.32,6,0
2015-03-01 11:20:49.613,115,1425237648.25405,37.74685643326364,-122.4444178726299,174.5415,-1,-1,10,65,-9999,1425237649.597215,3.073394775390625,7.291259765625,37.53876113891602,124.4774017333984,110.7057800292969,15,181100.0398871667,-0.224517822265625,0.6123199462890625,1.130783081054688,181100.0158249583,1.830816722985873,1.793173207293712,-0.6821769690231761,181100.0158249583,-2.812498592511475,-2.684002522351341,-0.4505222945889237,1.82111120223999,1.806065201759338,-0.6472575664520264,0.2450873255729675,0.07387208938598633,0.2821168899536133,XTrueNorthZVertical,0.9448097937019226,0.1055312873909598,0.1824536927666622,-0.2508149908821042,-0.3977057337760925,0.4354357719421387,0.8076047897338867,0.9665288925170898,10.06329345703125,39.20549774169922,1,0.0.0.0,10.83.46.32,6,0
2015-03-01 11:20:49.637,116,1425237648.25405,37.74685643326364,-122.4444178726299,174.5415,-1,-1,10,65,-9999,1425237649.597215,3.073394775390625,7.291259765625,37.53876113891602,124.4774017333984,110.7057800292969,15,181100.0889319167,-0.2498931884765625,0.6673583984375,1.130905151367188,181100.0676036667,2.222797550138603,1.315723817593178,-1.133200343859072,181100.0676036667,-2.712312462603172,-2.556752354523588,-0.5182561940077282,2.213092088699341,1.328615546226501,-1.098281264305115,0.2510403096675873,0.1880293041467667,0.3900708258152008,XTrueNorthZVertical,0.9200739519734141,0.1249738172926648,0.2199913975476537,-0.2990805266900509,-0.4795711934566498,0.4953660666942596,0.7243090867996216,-2.426311492919922,13.4453125,38.11314392089844,1,0.0.0.0,10.83.46.32,6,0
2015-03-01 11:20:49.714,117,1425237648.25405,37.74685643326364,-122.4444178726299,174.5415,-1,-1,10,65,-9999,1425237649.65417,-0.30194091796875,11.81158447265625,37.03962326049805,118.6260147094727,104.8543930053711,15,181100.1379925417,-0.3239288330078125,0.773590087890625,1.098861694335938,181100.119382375,2.370948136315275,1.36032510794928,-1.434278960891909,181100.119382375,-2.570800248218263,-2.418988404798302,-0.5681478045657034,2.361242771148682,1.37321674823761,-1.399360299110413,0.2445005029439926,0.2926472425460815,0.4990247488021851,XTrueNorthZVertical,0.889517451470803,0.1577403285285567,0.251787725611968,-0.347101630743199,-0.5574430227279663,0.5380717515945435,0.6322466135025024,-6.518638610839844,18.07224655151367,35.63953399658203,1,0.0.0.0,10.83.46.32,6,0
2015-03-01 11:20:49.737,118,1425237648.25405,37.74685643326364,-122.4444178726299,174.5415,-1,-1,10,65,-9999,1425237649.726843,-5.893386840820312,18.60897827148438,34.1113166809082,105.048698425293,91.27707672119141,15,181100.1870442917,-0.381591796875,0.4939422607421875,0.8804168701171875,181100.171161125,2.831460087799014,1.525454411339644,-1.866173914882201,181100.119382375,-2.570800248218263,-2.418988404798302,-0.5681478045657034,2.361242771148682,1.37321674823761,-1.399360299110413,0.2445005029439926,0.2926472425460815,0.4990247488021851,XTrueNorthZVertical,0.889517451470803,0.1577403285285567,0.251787725611968,-0.347101630743199,-0.5574430227279663,0.5380717515945435,0.6322466135025024,-6.518638610839844,18.07224655151367,35.63953399658203,1,0.0.0.0,10.83.46.32,6,0
2015-03-01 11:20:49.815,119,1425237648.25405,37.74685643326364,-122.4444178726299,174.5415,-1,-1,10,65,-9999,1425237649.778575,-10.11702728271484,22.93869018554688,30.47994995117188,32.72366333007812,18.95203971862793,10,181100.2361062917,-0.6505889892578125,0.24395751953125,0.3794708251953125,181100.2229401667,3.164844180435057,1.357818807047407,-2.649064445797231,181100.2229401667,-2.159860542205544,-2.042728601819819,-0.5869780531731913,3.155138969421387,1.370710253715515,-2.61414647102356,0.3131542801856995,-0.2029563188552856,0.2221930325031281,XTrueNorthZVertical,0.7911766579531142,0.2515889188469266,0.3245516687385476,-0.4532202937771486,-0.741605818271637,0.5538474321365356,0.3785149753093719,-12.89521884918213,23.48592376708984,30.35456848144531,1,0.0.0.0,10.83.46.32,6,0
2015-03-01 11:20:49.831,120,1425237648.25405,37.74685643326364,-122.4444178726299,174.5415,-1,-1,10,65,-9999,1425237649.778575,-10.11702728271484,22.93869018554688,30.47994995117188,32.72366333007812,18.95203971862793,10,181100.2852516667,-0.7419891357421875,0.10272216796875,-0.084381103515625,181100.2747185834,2.062361801853395,1.50160686904242,-2.558975298758139,181100.2229401667,-2.159860542205544,-2.042728601819819,-0.5869780531731913,3.155138969421387,1.370710253715515,-2.61414647102356,0.3131542801856995,-0.2029563188552856,0.2221930325031281,XTrueNorthZVertical,0.7911766579531142,0.2515889188469266,0.3245516687385476,-0.4532202937771486,-0.741605818271637,0.5538474321365356,0.3785149753093719,-12.89521884918213,23.48592376708984,30.35456848144531,1,0.0.0.0,10.83.46.32,6,0
2015-03-01 11:20:49.917,121,1425237648.25405,37.74685643326364,-122.4444178726299,174.5415,-1,-1,10,65,-9999,1425237649.883878,-21.38508605957031,27.10211181640625,21.41220092773438,31.33394241333008,17.56232070922852,10,181100.3342047083,-0.7672576904296875,0.1667633056640625,-0.2135009765625,181100.3264974167,1.239328911195383,1.354419015599812,-2.30180128914024,181100.3264974167,-1.842922969652907,-1.739551699954356,-0.417709465862495,1.229681968688965,1.367309093475342,-2.266899824142456,0.1207629293203354,-0.2527443468570709,-0.3379782736301422,XTrueNorthZVertical,0.6762984124317631,0.345510999282834,0.4067626530318884,-0.5077269535529499,-0.9010363817214966,0.4056679308414459,0.1535147875547409,-24.79736518859863,25.26221084594727,19.65163040161133,1,0.0.0.0,10.83.46.32,6,0
2015-03-01 11:20:49.929,122,1425237648.25405,37.74685643326364,-122.4444178726299,174.5415,-1,-1,10,65,-9999,1425237649.883878,-21.38508605957031,27.10211181640625,21.41220092773438,31.33394241333008,17.56232070922852,10,181100.3832420417,-0.81964111328125,0.050811767578125,-0.2200927734375,181100.378276375,0.09208252311501577,1.034367506329032,-1.736325104348772,181100.3264974167,-1.842922969652907,-1.739551699954356,-0.417709465862495,1.229681968688965,1.367309093475342,-2.266899824142456,0.1207629293203354,-0.2527443468570709,-0.3379782736301422,XTrueNorthZVertical,0.6762984124317631,0.345510999282834,0.4067626530318884,-0.5077269535529499,-0.9010363817214966,0.4056679308414459,0.1535147875547409,-24.79736518859863,25.26221084594727,19.65163040161133,1,0.0.0.0,10.83.46.32,6,0
2015-03-01 11:20:50.013,123,1425237648.25405,37.74685643326364,-122.4444178726299,174.5415,-1,-1,10,65,-9999,1425237649.986734,-29.80629730224609,24.41708374023438,16.28768920898438,40.61359786987305,26.84197616577148,10,181100.432301375,-0.840118408203125,0.0116424560546875,-0.0255279541015625,181100.430054875,0.02924204140128805,1.076005497340203,-1.651638978529233,181100.378276375,-1.801861188615615,-1.66696283060024,-0.3264391666142031,0.08243574947118759,1.047257423400879,-1.7014240026474,0.1564977467060089,-0.2354366928339005,-0.3440909385681152,XTrueNorthZVertical,0.6404226790193672,0.3678758030413894,0.4453299778876791,-0.5061692454878249,-0.9428136944770813,0.3206722736358643,0.09094762802124023,-28.08639144897461,23.48725891113281,17.28520965576172,1,0.0.0.0,10.83.46.32,6,0
2015-03-01 11:20:50.028,124,1425237648.25405,37.74685643326364,-122.4444178726299,174.5415,-1,-1,10,65,-9999,1425237649.986734,-29.80629730224609,24.41708374023438,16.28768920898438,40.61359786987305,26.84197616577148,10,181100.4813401667,-0.8009033203125,0.0417938232421875,0.0064849853515625,181100.430054875,0.02924204140128805,1.076005497340203,-1.651638978529233,181100.430054875,-1.796054143130554,-1.613461754305633,-0.2430862219386772,0.01959535479545593,1.088895320892334,-1.616738200187683,0.1035359501838684,-0.2530893981456757,-0.07559343427419662,XTrueNorthZVertical,0.6128052468118759,0.3810104627030181,0.4825610499436233,-0.4964227013511981,-0.9697163701057434,0.2406992614269257,0.04139848798513412,-31.33667373657227,20.50578308105469,15.38833522796631,1,0.0.0.0,10.83.46.32,6,0
2015-03-01 11:20:50.113,125,1425237648.25405,37.74685643326364,-122.4444178726299,174.5415,-1,-1,10,65,-9999,1425237650.08981,-34.78401184082031,21.12030029296875,12.66059875488281,49.02933502197266,35.25771331787109,10,181100.530405375,-0.8089752197265625,-0.077728271484375,-0.0728912353515625,181100.5336127084,0.4377781431543864,0.221049028379302,-0.8993095527034075,181100.4818339584,-1.789415648795095,-1.560363177882193,-0.1753232419753104,0.2467705458402634,0.9371994137763977,-1.181523680686951,0.1837132126092911,-0.1326326131820679,0.01675800979137421,XTrueNorthZVertical,0.5855098280848935,0.3899252869781645,0.5137673195420392,-0.4911003580841975,-0.9846165180206299,0.1744264364242554,-0.01027302350848913,-33.27903366088867,18.48422241210938,13.78820610046387,1,0.0.0.0,10.83.46.32,6,0
2015-03-01 11:20:50.126,126,1425237648.25405,37.74685643326364,-122.4444178726299,174.5415,-1,-1,10,65,-9999,1425237650.08981,-34.78401184082031,21.12030029296875,12.66059875488281,49.02933502197266,35.25771331787109,10,181100.5795845,-1.034072875976562,0.0042266845703125,-0.1173858642578125,181100.5336127084,0.4377781431543864,0.221049028379302,-0.8993095527034075,181100.5336127084,-1.774150603930487,-1.531640096152441,-0.1244010576717448,0.4281316697597504,0.2339385747909546,-0.8644094467163086,0.1825362741947174,-0.2018087059259415,-0.03404752910137177,XTrueNorthZVertical,0.5645963365572282,0.4022550478373752,0.5304982906572576,-0.4878455958539338,-0.9915114641189575,0.1240804418921471,-0.03884370625019073,-34.2232666015625,17.43069648742676,12.81460666656494,1,0.0.0.0,10.83.46.32,6,0
2015-03-01 11:20:50.222,127,1425237648.25405,37.74685643326364,-122.4444178726299,174.5415,-1,-1,10,65,-9999,1425237650.192987,-37.00011444091797,18.46926879882812,10.69730377197266,50.9766960144043,37.20507431030273,10,181100.628524875,-0.8722686767578125,-0.12646484375,-0.1246185302734375,181100.6371702084,0.3333372210008579,0.08572955233463175,-0.3207974606921108,181100.5853914584,-1.751830377769368,-1.523389617270223,-0.08573393102876675,0.3846396803855896,0.1397445797920227,-0.6270976066589355,-0.03886522725224495,-0.0814022570848465,-0.07017096877098083,XTrueNorthZVertical,0.5494937331561,0.4176711499729691,0.5364227728757679,-0.4856521028385929,-0.995207667350769,0.085628941655159,-0.04721489548683167,-35.46397018432617,15.64358520507812,11.69871997833252,1,0.0.0.0,10.83.46.32,3,0
2015-03-01 11:20:50.227,128,1425237648.25405,37.74685643326364,-122.4444178726299,174.5415,-1,-1,10,65,-9999,1425237650.192987,-37.00011444091797,18.46926879882812,10.69730377197266,50.9766960144043,37.20507431030273,10,181100.6775625417,-1.0264892578125,0.0881500244140625,-0.1226348876953125,181100.6371702084,0.3333372210008579,0.08572955233463175,-0.3207974606921108,181100.6371702084,-1.737758168303667,-1.516031429555379,-0.06548071941971324,0.3236909210681915,0.09861886501312256,-0.2858980298042297,0.1240921318531036,-0.1918987780809402,-0.06999831646680832,XTrueNorthZVertical,0.5400327625305106,0.4255050041257862,0.5397037464920403,-0.4858290660601521,-0.9963607788085938,0.06543393433094025,-0.05462021380662918,-35.83768844604492,15.09690189361572,11.27026462554932,1,0.0.0.0,10.83.46.32,3,0
2015-03-01 11:20:50.314,129,1425237648.25405,37.74685643326364,-122.4444178726299,174.5415,-1,-1,10,65,-9999,1425237650.296873,-38.19341278076172,17.48367309570312,10.33126831054688,53.29935836791992,39.52773666381836,10,181100.726638875,-0.912750244140625,-0.14306640625,-0.1422119140625,181100.688949125,0.1323431272103977,0.004547613877419307,-0.4443779889678208,181100.688949125,-1.723667304354081,-1.509812398716026,-0.04448329532882817,0.1226969361305237,0.01743678003549576,-0.4094789624214172,-0.02643649652600288,0.02103735506534576,-0.08492714911699295,XTrueNorthZVertical,0.5305251040037544,0.4337051922109585,0.5427761185574904,-0.4856304293838796,-0.9971535801887512,0.04446862637996674,-0.06088583916425705,-36.14690399169922,14.67389869689941,10.83296585083008,1,0.0.0.0,10.83.46.32,3,0
2015-03-01 11:20:50.321,130,1425237648.25405,37.74685643326364,-122.4444178726299,174.5415,-1,-1,10,65,-9999,1425237650.296873,-38.19341278076172,17.48367309570312,10.33126831054688,53.29935836791992,39.52773666381836,10,181100.7756829167,-1.07952880859375,-0.0204010009765625,-0.1167144775390625,181100.7407276667,0.02428003965825241,0.009220130009963331,-0.3733554774370426,181100.7407276667,-1.724956963117186,-1.509438756010534,-0.02953877010518862,0.01463394239544868,0.02210916578769684,-0.3384568095207214,0.03222861140966415,-0.1585322767496109,-0.06823953986167908,XTrueNorthZVertical,0.5272345848386847,0.4374671766925634,0.5465945152843891,-0.4815397245051398,-0.9976826906204224,0.0295344740152359,-0.06129232421517372,-35.49497604370117,16.02555847167969,12.97782707214355,1,0.0.0.0,10.83.46.32,3,0
2015-03-01 11:20:50.410,131,1425237648.25405,37.74685643326364,-122.4444178726299,174.5415,-1,-1,10,65,-9999,1425237650.4005,-38.67073822021484,16.12420654296875,10.36454010009766,57.21322631835938,43.44160461425781,10,181100.8247474583,-1.003311157226562,-0.1397705078125,-0.0932464599609375,181100.7925067084,-0.2373430468767338,-0.0008277104667966272,-0.518194422798201,181100.7925067084,-1.731544335285063,-1.509896473823309,-0.005602039296099239,-0.2469890564680099,0.01206121034920216,-0.4832960665225983,-0.0485919825732708,-0.03970540314912796,-0.0648253932595253,XTrueNorthZVertical,0.5232043267576425,0.4425229990411816,0.5534295586607546,-0.4734408726874857,-0.9981304407119751,0.005602010060101748,-0.0608612559735775,-35.82058334350586,15.23809432983398,13.03158378601074,1,0.0.0.0,10.83.46.32,3,0
2015-03-01 11:20:50.419,132,1425237648.25405,37.74685643326364,-122.4444178726299,174.5415,-1,-1,10,65,-9999,1425237650.4005,-38.67073822021484,16.12420654296875,10.36454010009766,57.21322631835938,43.44160461425781,10,181100.8738130417,-1.031723022460938,-0.10369873046875,-0.12451171875,181100.8442855,-0.2120882902595124,0.08103253512005899,-0.5753506534812637,181100.8442855,-1.746743905067638,-1.505147321288877,0.0153584141684972,-0.2217341959476471,0.09392132610082626,-0.5404526591300964,-0.01840043067932129,-0.09677903354167938,-0.02936132624745369,XTrueNorthZVertical,0.520301674538154,0.4432709202272408,0.5628467095345977,-0.4647585920331218,-0.9977281093597412,-0.01535781007260084,-0.06559411436319351,-36.03459167480469,14.66201877593994,13.10226821899414,1,0.0.0.0,10.83.46.32,3,0
2015-03-01 11:20:50.479,133,1425237648.25405,37.74685643326364,-122.4444178726299,174.5415,-1,-1,10,65,-9999,1425237650.452766,-39.11396026611328,14.9346923828125,10.53092193603516,59.3840446472168,45.61242294311523,10,181100.9228445833,-1.043655395507812,-0.1142120361328125,-0.1041717529296875,181100.8960641667,-0.2129311807445224,0.2169850445558411,-0.5897900465955643,181100.8960641667,-1.759018826488523,-1.497295169812572,0.04722276174040806,-0.2225764691829681,0.229881688952446,-0.5549024343490601,-0.02435018680989742,-0.05573057755827904,-0.0530201680958271,XTrueNorthZVertical,0.5132164542391034,0.4471379086286299,0.5745094495594122,-0.4545496262029537,-0.9961881637573242,-0.04720521345734596,-0.0733531266450882,-36.75933456420898,12.85464477539062,12.98635768890381,1,0.0.0.0,10.83.46.32,3,0
2015-03-01 11:20:50.520,134,1425237648.25405,37.74685643326364,-122.4444178726299,174.5415,-1,-1,10,65,-9999,1425237650.504264,-39.93220520019531,13.47320556640625,10.39781188964844,61.69447326660156,47.9228515625,10,181100.9718734584,-0.9793243408203125,-0.1163482666015625,-0.1237945556640625,181100.9478430417,-0.2636441594862473,0.2619565143034641,-0.7266110128628211,181100.9478430417,-1.773741646124433,-1.478030183985725,0.07784420769221739,-0.2732886970043182,0.274858832359314,-0.691731333732605,-0.07405702769756317,-0.04813465476036072,-0.02840543910861015,XTrueNorthZVertical,0.5035075333226683,0.4475531867668294,0.5890267413730521,-0.4463448391081358,-0.9926849007606506,-0.07776561379432678,-0.09235262125730515,-37.31092071533203,11.69650268554688,12.49892520904541,1,0.0.0.0,10.83.46.32,3,0
2015-03-01 11:20:50.578,135,1425237648.25405,37.74685643326364,-122.4444178726299,174.5415,-1,-1,10,65,-9999,1425237650.556921,-40.66522979736328,12.13067626953125,9.882034301757812,64.25832366943359,50.48670196533203,10,181101.0209337917,-1.001205444335938,-0.208343505859375,-0.1280517578125,181100.9996220417,-0.3158517042317247,0.3903256725352455,-0.4582051213475122,181100.9996220417,-1.791602260451936,-1.458722671519159,0.1068900549883335,-0.3254949152469635,0.4032350778579712,-0.4233355820178986,0.03720329701900482,-0.03691383823752403,-0.004292898345738649,XTrueNorthZVertical,0.4946279800539941,0.4469258587921844,0.6035115439992942,-0.4374633274904398,-0.9880547523498535,-0.1066866293549538,-0.1112008765339851,-37.64808654785156,10.83330345153809,12.26363658905029,1,0.0.0.0,10.83.46.32,3,0
2015-03-01 11:20:50.619,136,1425237648.25405,37.74685643326364,-122.4444178726299,174.5415,-1,-1,10,65,-9999,1425237650.607868,-41.15959167480469,11.12808227539062,8.800559997558594,65.26567840576172,51.49405670166016,10,181101.0700729583,-0.925506591796875,-0.138092041015625,-0.119384765625,181101.0514004584,-0.2690349301647857,0.3542622103178285,-0.5809230517461454,181100.9996220417,-1.791602260451936,-1.458722671519159,0.1068900549883335,-0.3254949152469635,0.4032350778579712,-0.4233355820178986,0.03720329701900482,-0.03691383823752403,-0.004292898345738649,XTrueNorthZVertical,0.4946279800539941,0.4469258587921844,0.6035115439992942,-0.4374633274904398,-0.9880547523498535,-0.1066866293549538,-0.1112008765339851,-37.64808654785156,10.83330345153809,12.26363658905029,1,0.0.0.0,10.83.46.32,3,0
2015-03-01 11:20:50.709,137,1425237648.25405,37.74685643326364,-122.4444178726299,174.5415,-1,-1,10,65,-9999,1425237650.660049,-41.72214508056641,9.5816650390625,8.31805419921875,67.80311584472656,54.031494140625,10,181101.11901775,-0.9892578125,-0.2180633544921875,-0.1558380126953125,181101.1031795,-0.3431520348822359,0.4323458271628428,-0.4959130855380531,181101.1031795,-1.828057179519438,-1.411673542213153,0.1631413035103132,-0.3527823686599731,0.445279061794281,-0.4610864222049713,-0.01051545329391956,-0.1072042062878609,0.03328605368733406,XTrueNorthZVertical,0.4741575504182253,0.4438474110772141,0.6330100090543429,-0.4212746491866202,-0.9742562770843506,-0.1624185889959335,-0.1563481837511063,-38.8924674987793,7.627043724060059,10.6929931640625,1,0.0.0.0,10.83.46.32,3,0
2015-03-01 11:20:50.713,138,1425237648.25405,37.74685643326364,-122.4444178726299,174.5415,-1,-1,10,65,-9999,1425237650.660049,-41.72214508056641,9.5816650390625,8.31805419921875,67.80311584472656,54.031494140625,10,181101.1680569584,-0.9799041748046875,-0.19873046875,-0.1408843994140625,181101.1549582917,-0.316098845580884,0.4230236980831294,-0.5348692733315142,181101.1549582917,-1.849792835356316,-1.388743375105238,0.1874953250343945,-0.3257288932800293,0.4359564185142517,-0.5000426173210144,0.03017214685678482,0.0309116430580616,0.04068415984511375,XTrueNorthZVertical,0.4654566887415594,0.4409218798973384,0.6470180655664034,-0.4126808671517201,-0.9662378430366516,-0.1863986998796463,-0.1778759360313416,-39.13345336914062,6.912781238555908,10.29184722900391,1,0.0.0.0,10.83.46.32,3,0
2015-03-01 11:20:50.778,139,1425237648.25405,37.74685643326364,-122.4444178726299,174.5415,-1,-1,10,65,-9999,1425237650.763978,-42.47221374511719,7.47442626953125,6.654251098632812,70.15046691894531,56.37884521484375,10,181101.217126375,-0.906036376953125,-0.18890380859375,-0.1611175537109375,181101.2067369584,-0.2620710302303375,0.4364790531746457,-0.4166544820200959,181101.1549582917,-1.849792835356316,-1.388743375105238,0.1874953250343945,-0.3257288932800293,0.4359564185142517,-0.5000426173210144,0.03017214685678482,0.0309116430580616,0.04068415984511375,XTrueNorthZVertical,0.4654566887415594,0.4409218798973384,0.6470180655664034,-0.4126808671517201,-0.9662378430366516,-0.1863986998796463,-0.1778759360313416,-39.13345336914062,6.912781238555908,10.29184722900391,1,0.0.0.0,10.83.46.32,3,0
2015-03-01 11:20:50.822,140,1425237648.25405,37.74685643326364,-122.4444178726299,174.5415,-1,-1,10,65,-9999,1425237650.763978,-42.47221374511719,7.47442626953125,6.654251098632812,70.15046691894531,56.37884521484375,10,181101.266163625,-0.9463043212890625,-0.1761932373046875,-0.18109130859375,181101.2585157917,-0.162468272829156,0.4351264336569945,-0.2284246530182764,181101.2067369584,-1.869633510286552,-1.364226474389572,0.2078893707869502,-0.2716993987560272,0.4494089484214783,-0.3818265795707703,0.009378639049828053,0.02496817521750927,0.02873643115162849,XTrueNorthZVertical,0.4566026225203539,0.4372301257064631,0.6599614287170786,-0.4059491143441558,-0.9576665759086609,-0.2063951790332794,-0.2006877213716507,-39.65728378295898,5.167765617370605,9.259040832519531,1,0.0.0.0,10.83.46.32,3,0
2015-03-01 11:20:50.919,141,1425237648.25405,37.74685643326364,-122.4444178726299,174.5415,-1,-1,10,65,-9999,1425237650.89356,-42.45516204833984,5.758087158203125,4.275009155273438,69.79902648925781,56.02740097045898,10,181101.3152965417,-0.9339599609375,-0.2323455810546875,-0.2238006591796875,181101.3102948334,-0.05722920129693077,0.2857651744487725,-0.3447174409709846,181101.3102948334,-1.890839642706845,-1.324570095806504,0.2275276293294805,-0.06687203049659729,0.2987108528614044,-0.3099035620689392,0.02290745824575424,-0.03035084530711174,0.02339814230799675,XTrueNorthZVertical,0.44291470963526,0.4302263512878754,0.6760741065290746,-0.402064121348815,-0.9448434710502625,-0.225569561123848,-0.2374636977910995,-39.99962997436523,4.438492774963379,8.091073036193848,1,0.0.0.0,10.83.46.32,3,0
2015-03-01 11:20:50.922,142,1425237648.25405,37.74685643326364,-122.4444178726299,174.5415,-1,-1,10,65,-9999,1425237650.89356,-42.45516204833984,5.758087158203125,4.275009155273438,69.79902648925781,56.02740097045898,10,181101.364260625,-0.9562835693359375,-0.1763916015625,-0.25115966796875,181101.3102948334,-0.05722920129693077,0.2857651744487725,-0.3447174409709846,181101.3102948334,-1.890839642706845,-1.324570095806504,0.2275276293294805,-0.06687203049659729,0.2987108528614044,-0.3099035620689392,0.02290745824575424,-0.03035084530711174,0.02339814230799675,XTrueNorthZVertical,0.44291470963526,0.4302263512878754,0.6760741065290746,-0.402064121348815,-0.9448434710502625,-0.225569561123848,-0.2374636977910995,-39.99962997436523,4.438492774963379,8.091073036193848,1,0.0.0.0,10.83.46.32,3,0
2015-03-01 11:20:50.978,143,1425237648.25405,37.74685643326364,-122.4444178726299,174.5415,-1,-1,10,65,-9999,1425237650.945039,-42.65973663330078,5.2142333984375,3.409828186035156,70.09257507324219,56.32095336914062,10,181101.4133115833,-0.9262542724609375,-0.240020751953125,-0.285888671875,181101.4138523334,0.03199068996235883,0.3502389728590458,-0.4101121604862072,181101.3620732917,-1.895094554302437,-1.300343396760041,0.2379236803319904,-0.01190546900033951,0.5499310493469238,-0.2869794070720673,-0.01529413741081953,0.0465678758919239,0.02836417220532894,XTrueNorthZVertical,0.4329015020170024,0.4275224796405694,0.6836884660415129,-0.4029774297700205,-0.9365033507347107,-0.2356853038072586,-0.2596416473388672,-40.28358459472656,3.597908020019531,7.030214309692383,1,0.0.0.0,10.83.46.32,3,0
2015-03-01 11:20:51.014,144,1425237648.25405,37.74685643326364,-122.4444178726299,174.5415,-1,-1,10,65,-9999,1425237650.996883,-42.84725189208984,4.51751708984375,2.328346252441406,70.38674926757812,56.61512756347656,10,181101.4623499583,-0.9566192626953125,-0.2772369384765625,-0.343109130859375,181101.465631125,0.0346916679399172,0.5123184241690503,-0.392190950562737,181101.4138523334,-1.900598447561353,-1.27820230063256,0.2469384002718739,0.02234021387994289,0.3631675839424133,-0.375266045331955,0.002199135953560472,0.004415630362927914,-0.006201361306011677,XTrueNorthZVertical,0.4241163209443159,0.4245959150653356,0.6907540855606918,-0.403363802352848,-0.9284533858299255,-0.2444363832473755,-0.2796873152256012,-40.44315719604492,3.265832901000977,6.230681419372559,1,0.0.0.0,10.83.46.32,3,0
2015-03-01 11:20:51.078,145,1425237648.25405,37.74685643326364,-122.4444178726299,174.5415,-1,-1,10,65,-9999,1425237651.049648,-43.06886291503906,3.412933349609375,1.313430786132812,71.28158569335938,57.50996398925781,10,181101.511576125,-0.9792327880859375,-0.258392333984375,-0.398040771484375,181101.465631125,0.0346916679399172,0.5123184241690503,-0.392190950562737,181101.465631125,-1.904340197310399,-1.252501817473543,0.2659256565189245,0.02504212781786919,0.5252504944801331,-0.357350766658783,-0.04023356363177299,-0.01443443819880486,-0.0411621630191803,XTrueNorthZVertical,0.4109853410042025,0.4244025986083912,0.699309550588022,-0.4024171278404158,-0.9163857102394104,-0.2628025114536285,-0.3019469678401947,-40.55005645751953,2.830220222473145,5.728750228881836,1,0.0.0.0,10.83.46.32,3,0
2015-03-01 11:20:51.110,146,1425237648.25405,37.74685643326364,-122.4444178726299,174.5415,-1,-1,10,65,-9999,1425237651.10038,-43.29048156738281,2.274383544921875,0.4648895263671875,73.16793823242188,59.39631271362305,10,181101.5604674583,-0.8790435791015625,-0.333587646484375,-0.430389404296875,181101.517409875,-0.09520854160255078,0.4525381808639325,-0.5286712985265728,181101.517409875,-1.914206804304229,-1.225561824334859,0.2850490888272598,-0.1048588380217552,0.4654709696769714,-0.4938309788703918,-0.07620794326066971,0.02281222492456436,-0.07327930629253387,XTrueNorthZVertical,0.3985112860433578,0.422856977561982,0.7090455812817974,-0.3995434940489196,-0.9030248522758484,-0.2812045514583588,-0.3247614502906799,-40.80586242675781,1.57404899597168,4.188051223754883,1,0.0.0.0,10.83.46.32,3,0
2015-03-01 11:20:51.177,147,1425237648.25405,37.74685643326364,-122.4444178726299,174.5415,-1,-1,10,65,-9999,1425237651.151974,-43.01773071289062,1.628631591796875,-0.100799560546875,75.24514770507812,61.47352600097656,10,181101.6096321667,-0.879180908203125,-0.2793121337890625,-0.4064788818359375,181101.6209677084,-0.8113605219163038,0.6807774778703395,-0.4719875126208902,181101.5691887917,-1.935177333258003,-1.189106487201922,0.3037476854824935,-0.4375662505626678,0.6484354734420776,-0.4648268520832062,0.006509468890726566,-0.0344892218708992,-0.0749519094824791,XTrueNorthZVertical,0.3848783431510105,0.417312727249362,0.7224245387801513,-0.3947422487727461,-0.8855530619621277,-0.2990984320640564,-0.3554374873638153,-40.92526245117188,0.6311750411987305,3.140132904052734,1,0.0.0.0,10.83.46.32,3,0
2015-03-01 11:20:51.208,148,1425237648.25405,37.74685643326364,-122.4444178726299,174.5415,-1,-1,10,65,-9999,1425237651.151974,-43.01773071289062,1.628631591796875,-0.100799560546875,75.24514770507812,61.47352600097656,10,181101.6585658333,-0.70416259765625,-0.29840087890625,-0.36279296875,181101.6209677084,-0.8113605219163038,0.6807774778703395,-0.4719875126208902,181101.6209677084,-1.976777911540304,-1.144439964626164,0.3114211774331188,-0.8210116028785706,0.6937113404273987,-0.4371477961540222,0.01565526984632015,0.002731343032792211,-0.002576592611148953,XTrueNorthZVertical,0.3750449299987387,0.4031246452759357,0.7397997158681111,-0.3866886471099204,-0.8666837215423584,-0.3064117729663849,-0.3936636447906494,-40.98285293579102,0.009098052978515625,2.354082107543945,1,0.0.0.0,10.83.46.32,3,0
