loggingTime,loggingSample,locationTimestamp_since1970,locationLatitude,locationLongitude,locationAltitude,locationSpeed,locationCourse,locationVerticalAccuracy,locationHorizontalAccuracy,locationFloor,locationHeadingTimestamp_since1970,locationHeadingX,locationHeadingY,locationHeadingZ,locationTrueHeading,locationMagneticHeading,locationHeadingAccuracy,accelerometerTimestamp_sinceReboot,accelerometerAccelerationX,accelerometerAccelerationY,accelerometerAccelerationZ,gyroTimestamp_sinceReboot,gyroRotationX,gyroRotationY,gyroRotationZ,motionTimestamp_sinceReboot,motionYaw,motionRoll,motionPitch,motionRotationRateX,motionRotationRateY,motionRotationRateZ,motionUserAccelerationX,motionUserAccelerationY,motionUserAccelerationZ,motionAttitudeReferenceFrame,motionQuaternionX,motionQuaternionY,motionQuaternionZ,motionQuaternionW,motionGravityX,motionGravityY,motionGravityZ,motionMagneticFieldX,motionMagneticFieldY,motionMagneticFieldZ,motionMagneticFieldCalibrationAccuracy,IP_en0,IP_pdp_ip0,deviceOrientation,state
2015-03-01 09:58:24.918,1,1425232704.066936,37.77935004330965,-122.4390314520546,60.9241,0,207.7734375,12,10,-9999,1425232704.836805,33.64360046386719,-21.31748962402344,-22.36163330078125,282.1173095703125,268.3395080566406,10,177511.5068983333,0.3056640625,-0.571044921875,-0.7493896484375,177511.485449625,0.045272140634693,-0.1756354738907258,-0.02989744534555655,177511.485449625,0.3559727233488731,0.3649448981208615,0.6336503406352939,0.03519651293754578,-0.1626394093036652,0.005445719696581364,-0.04740994796156883,0.05084589496254921,0.00397454621270299,XTrueNorthZVertical,0.271010425657247,0.2239498593433394,0.2210847035932734,0.9096820244645126,0.2876138091087341,-0.5920904278755188,-0.7527996301651001,35.693115234375,-21.20058441162109,-21.20162773132324,2,192.168.1.8,10.83.46.32,1,0
2015-03-01 09:58:25.004,2,1425232704.066936,37.77935004330965,-122.4390314520546,60.9241,0,207.7734375,12,10,-9999,1425232704.940413,33.18335342407227,-21.26654052734375,-22.81101226806641,282.6034240722656,268.8256225585938,10,177511.5559334167,0.2881622314453125,-0.592376708984375,-0.7589874267578125,177511.537226625,0.04475974844096176,-0.2972348766315258,-0.08064824097476056,177511.537226625,0.3524570495400468,0.3576618147576401,0.6340811496707935,0.03468132764101028,-0.2842390537261963,-0.04530785232782364,0.04993601888418198,-0.01313803810626268,-0.0116457836702466,XTrueNorthZVertical,0.2724015239658574,0.2201811468473835,0.2185197715278062,0.9108055796255797,0.2820341885089874,-0.5924375057220459,-0.7546353340148926,35.51002883911133,-21.2308464050293,-21.47699546813965,2,192.168.1.8,10.83.46.32,1,0
2015-03-01 09:58:25.008,3,1425232704.066936,37.77935004330965,-122.4390314520546,60.9241,0,207.7734375,12,10,-9999,1425232704.991475,33.25153732299805,-21.53839111328125,-22.87757873535156,282.2254028320312,268.4476013183594,10,177511.6049535417,0.278564453125,-0.5727081298828125,-0.7362823486328125,177511.589002875,0.04870122685427903,-0.1375338944910711,-0.0663382774894378,177511.537226625,0.3524570495400468,0.3576618147576401,0.6340811496707935,0.03468132764101028,-0.2842390537261963,-0.04530785232782364,0.04993601888418198,-0.01313803810626268,-0.0116457836702466,XTrueNorthZVertical,0.2724015239658574,0.2201811468473835,0.2185197715278062,0.9108055796255797,0.2820341885089874,-0.5924375057220459,-0.7546353340148926,35.51002883911133,-21.2308464050293,-21.47699546813965,2,192.168.1.8,10.83.46.32,1,0
2015-03-01 09:58:25.010,4,1425232704.066936,37.77935004330965,-122.4390314520546,60.9241,0,207.7734375,12,10,-9999,1425232704.991475,33.25153732299805,-21.53839111328125,-22.87757873535156,282.2254028320312,268.4476013183594,10,177511.6539933333,0.277587890625,-0.5707855224609375,-0.7339324951171875,177511.6407800417,0.06510017389865995,-0.01428519608718503,-0.130639769377183,177511.6407800417,0.3457010888611546,0.3478538799090037,0.6366919102662135,0.05502137914299965,-0.001288573490455747,-0.09530120342969894,-0.00324764964170754,0.01244648825377226,0.02516511455178261,XTrueNorthZVertical,0.2754122517913232,0.2149274991194717,0.2142420953878014,0.9121702737761901,0.2740911543369293,-0.5945387482643127,-0.7559085488319397,35.21105194091797,-21.15637969970703,-22.03546905517578,2,192.168.1.8,10.83.46.32,1,0
2015-03-01 09:58:25.044,5,1425232704.066936,37.77935004330965,-122.4390314520546,60.9241,0,207.7734375,12,10,-9999,1425232704.991475,33.25153732299805,-21.53839111328125,-22.87757873535156,282.2254028320312,268.4476013183594,10,177511.7030108334,0.295928955078125,-0.5654296875,-0.727508544921875,177511.6925572084,0.08925664288233269,0.05737034883470497,-0.07622446408802994,177511.6407800417,0.3457010888611546,0.3478538799090037,0.6366919102662135,0.05502137914299965,-0.001288573490455747,-0.09530120342969894,-0.00324764964170754,0.01244648825377226,0.02516511455178261,XTrueNorthZVertical,0.2754122517913232,0.2149274991194717,0.2142420953878014,0.9121702737761901,0.2740911543369293,-0.5945387482643127,-0.7559085488319397,35.21105194091797,-21.15637969970703,-22.03546905517578,2,192.168.1.8,10.83.46.32,1,0
2015-03-01 09:58:25.105,6,1425232705.088213,37.77935004330965,-122.4390314520546,60.90518,0,207.7734375,12,30,-9999,1425232705.09541,33.0469856262207,-21.94615173339844,-22.97743225097656,282.03515625,268.2573547363281,10,177511.752048,0.288238525390625,-0.595947265625,-0.7557220458984375,177511.7443335,0.1218041998286271,-0.04237115925926969,-0.07009546515532158,177511.6925572084,0.3401180640842741,0.3521424219434516,0.6389266168036934,0.07917916774749756,0.07036682218313217,-0.04088525846600533,-0.02684090659022331,0.01486746687442064,0.02740293182432652,XTrueNorthZVertical,0.2765965132999129,0.2162308799325297,0.2124110828644644,0.9119320859482264,0.2768714129924774,-0.5963341593742371,-0.753477156162262,35.29983901977539,-21.07263374328613,-21.97356986999512,2,192.168.1.8,10.83.46.32,1,0
2015-03-01 09:58:25.142,7,1425232705.088213,37.77935004330965,-122.4390314520546,60.90518,0,207.7734375,12,30,-9999,1425232705.09541,33.0469856262207,-21.94615173339844,-22.97743225097656,282.03515625,268.2573547363281,10,177511.801059375,0.2797393798828125,-0.602752685546875,-0.7285308837890625,177511.7961106667,0.1885651209830605,-0.10916510361122,-0.01960059930687419,177511.7443335,0.3356872749159214,0.3570122294990619,0.6410766466218334,0.1117213815450668,-0.02937396056950092,-0.03476141020655632,0.004625053144991398,0.0131282489746809,-0.003325060708448291,XTrueNorthZVertical,0.2775619157577405,0.2179471074650361,0.2111873482869106,0.9115143264390653,0.2800886929035187,-0.5980586409568787,-0.7509168982505798,35.42120361328125,-21.07949638366699,-21.77074241638184,2,192.168.1.8,10.83.46.32,1,0
2015-03-01 09:58:25.201,8,1425232705.088213,37.77935004330965,-122.4390314520546,60.90518,0,207.7734375,12,30,-9999,1425232705.14652,33.18335342407227,-21.74227905273438,-22.7777099609375,282.707763671875,268.9299621582031,10,177511.8501000417,0.3267669677734375,-0.5938262939453125,-0.7532806396484375,177511.847887875,0.36251108547824,-0.00620196954657653,0.2771743494043949,177511.847887875,0.3327851878041371,0.353904875934857,0.6591990221448385,0.3524300158023834,0.0067650624550879,0.3125754296779633,0.04129414260387421,0.04157629609107971,-0.05394653603434563,XTrueNorthZVertical,0.28662376156457,0.2170247673749095,0.2104513029617385,0.9090969919902673,0.2739524245262146,-0.6124839186668396,-0.7414941191673279,35.34640884399414,-21.27150726318359,-21.70545387268066,2,192.168.1.8,10.83.46.32,1,0
2015-03-01 09:58:25.240,9,1425232705.088213,37.77935004330965,-122.4390314520546,60.90518,0,207.7734375,12,30,-9999,1425232705.20265,33.45608901977539,-21.57234191894531,-22.74443817138672,283.1513061523438,269.3735046386719,10,177511.8991235,0.030426025390625,-0.563201904296875,-0.7693634033203125,177511.847887875,0.36251108547824,-0.00620196954657653,0.2771743494043949,177511.847887875,0.3327851878041371,0.353904875934857,0.6591990221448385,0.3524300158023834,0.0067650624550879,0.3125754296779633,0.04129414260387421,0.04157629609107971,-0.05394653603434563,XTrueNorthZVertical,0.28662376156457,0.2170247673749095,0.2104513029617385,0.9090969919902673,0.2739524245262146,-0.6124839186668396,-0.7414941191673279,35.34640884399414,-21.27150726318359,-21.70545387268066,2,192.168.1.8,10.83.46.32,1,0
2015-03-01 09:58:25.299,10,1425232705.088213,37.77935004330965,-122.4390314520546,60.90518,0,207.7734375,12,30,-9999,1425232705.276653,32.56969451904297,-22.48988342285156,-23.57661437988281,283.18603515625,269.4082336425781,10,177511.94817775,-0.103790283203125,-0.57366943359375,-0.6629638671875,177511.9514413333,0.434539472952741,-0.8703404853138527,0.9483844210586247,177511.899664125,0.3581275711782879,0.3094504412139182,0.6765049690056224,0.1651298999786377,-1.08479642868042,0.3991785645484924,-0.2070400714874268,0.06286964565515518,-0.02663580887019634,XTrueNorthZVertical,0.2967397666219862,0.2014490358783314,0.2163305235003862,0.9080555729483033,0.2374660968780518,-0.626071572303772,-0.7427275776863098,34.56143569946289,-22.36482810974121,-21.86993026733398,2,192.168.1.8,10.83.46.32,1,0
2015-03-01 09:58:25.339,11,1425232705.088213,37.77935004330965,-122.4390314520546,60.90518,0,207.7734375,12,30,-9999,1425232705.328386,30.86509704589844,-24.29090881347656,-24.14248657226562,281.1981201171875,267.4203186035156,10,177511.9971917083,-0.2400665283203125,-0.506195068359375,-0.5851287841796875,177511.9514413333,0.434539472952741,-0.8703404853138527,0.9483844210586247,177511.9514413333,0.3867629149309458,0.2348534925424136,0.6986268310771554,0.4244568943977356,-0.8573710918426514,0.9837817549705505,-0.281975120306015,0.06949739158153534,0.08174185454845428,XTrueNorthZVertical,0.3124048216774961,0.1733504173822073,0.2186787421460467,0.9080377139916007,0.1781848520040512,-0.6431668400764465,-0.7447057366371155,32.99675750732422,-23.1999397277832,-23.36555290222168,2,192.168.1.8,10.83.46.32,1,0
2015-03-01 09:58:25.409,12,1425232705.088213,37.77935004330965,-122.4390314520546,60.90518,0,207.7734375,12,30,-9999,1425232705.383925,29.31390380859375,-26.72062683105469,-23.39353179931641,277.7971496582031,264.0193481445312,10,177512.04622525,-0.04364013671875,-0.669097900390625,-0.5198974609375,177512.0032185417,0.7768869668696641,1.042640349939254,1.568572853600789,177512.0032185417,0.4706241807423405,0.1851411409190389,0.7424324716413164,0.7668044567108154,1.055609583854675,1.603969931602478,-0.375705361366272,0.1698871552944183,0.1391052603721619,XTrueNorthZVertical,0.3311582338688354,0.1679797683561511,0.2489437595546916,0.8945077127975288,0.1356388479471207,-0.6760821938514709,-0.7242340445518494,31.11812591552734,-25.23025512695312,-23.83418655395508,2,192.168.1.8,10.83.46.32,1,0
2015-03-01 09:58:25.436,13,1425232705.088213,37.77935004330965,-122.4390314520546,60.90518,0,207.7734375,12,30,-9999,1425232705.383925,29.31390380859375,-26.72062683105469,-23.39353179931641,277.7971496582031,264.0193481445312,10,177512.0952399583,0.2579345703125,-0.7917633056640625,-0.497222900390625,177512.0549948333,0.9756717022197946,2.915015701735814,1.995553742747668,177512.0549948333,0.584460063355786,0.2126868195488107,0.8038979869134,0.9655893445014954,2.927984714508057,2.030950307846069,-0.1901144534349442,0.05096848681569099,0.158372163772583,XTrueNorthZVertical,0.3443690048180376,0.2056092795192526,0.3033941549150579,0.8643418430061046,0.1464743167161942,-0.7200663685798645,-0.678269624710083,30.14300727844238,-29.34725189208984,-20.07760238647461,2,192.168.1.8,10.83.46.32,1,0
2015-03-01 09:58:25.501,14,1425232705.088213,37.77935004330965,-122.4390314520546,60.90518,0,207.7734375,12,30,-9999,1425232705.45725,27.67748260498047,-31.74990844726562,-17.73483276367188,268.0207824707031,254.2429809570312,10,177512.144278125,0.4481964111328125,-0.8722686767578125,-0.5143585205078125,177512.1067719167,0.8389585939766859,4.005134887589,2.259403498270069,177512.1067719167,0.7260780539746259,0.291509073226317,0.8741301181840399,0.8288765549659729,4.018104076385498,2.2947998046875,0.1317338347434998,-0.03516891971230507,0.1105954945087433,XTrueNorthZVertical,0.3447693400076143,0.2717304828867556,0.3757937231049532,0.8161346375735844,0.1844130158424377,-0.7669855952262878,-0.6145932674407959,29.73488998413086,-32.88948822021484,-14.39062118530273,2,192.168.1.8,10.83.46.32,1,0
2015-03-01 09:58:25.535,15,1425232705.088213,37.77935004330965,-122.4390314520546,60.90518,0,207.7734375,12,30,-9999,1425232705.509793,26.36494445800781,-35.57286071777344,-11.69332122802734,256.7607421875,242.9829406738281,10,177512.193302,0.3788909912109375,-0.9435882568359375,-0.5183258056640625,177512.1585491667,1.173529923826687,2.950557983327902,2.563094143700056,177512.1585491667,0.8905879694431414,0.3395275256081369,0.9584907319953352,1.163447976112366,2.963526964187622,2.598490238189697,0.2551156282424927,-0.07130813598632812,0.03048479557037354,XTrueNorthZVertical,0.3455895716718121,0.3310525259322692,0.4470124093209182,0.7557459897679042,0.1914175897836685,-0.8183250427246094,-0.541944146156311,28.09614562988281,-36.34061050415039,-7.933416366577148,2,192.168.1.8,10.83.46.32,1,0
2015-03-01 09:58:25.598,16,1425232705.088213,37.77935004330965,-122.4390314520546,60.90518,0,207.7734375,12,30,-9999,1425232705.562176,23.36484909057617,-38.83509826660156,-6.234336853027344,247.0475311279297,233.2697296142578,10,177512.2423388333,0.361297607421875,-0.9633941650390625,-0.43011474609375,177512.2103254167,1.487850843063834,1.794266967553408,2.873058397709942,177512.2103254167,1.102885300386317,0.2720780226698618,1.070940572785913,1.477769017219543,1.807235717773438,2.908453941345215,0.2397418022155762,-0.08386562764644623,-0.0455191507935524,XTrueNorthZVertical,0.3694882268955759,0.3642040375095562,0.5053623028219387,0.6895236284895623,0.1288037300109863,-0.8776516914367676,-0.4616677463054657,22.66219902038574,-40.73003768920898,-0.6790752410888672,2,192.168.1.8,10.83.46.32,1,0
2015-03-01 09:58:25.632,17,1425232705.088213,37.77935004330965,-122.4390314520546,60.90518,0,207.7734375,12,30,-9999,1425232705.613148,18.59196090698242,-41.31575012207031,-2.2066650390625,237.4672241210938,223.6894226074219,10,177512.291349125,0.2459564208984375,-0.84344482421875,-0.3551483154296875,177512.262102625,0.9778754680218351,0.1732703205266264,2.193201840944552,177512.262102625,1.356494089545753,0.09370326094334641,1.152042526681591,0.9677937626838684,0.1862389743328094,2.228597164154053,0.3436525166034698,-0.04430462047457695,0.0166395977139473,XTrueNorthZVertical,0.3990279951852577,0.3719642910248196,0.5454716820186802,0.636301729911331,0.03804609924554825,-0.9135963916778564,-0.4048384428024292,17.39600372314453,-43.12471771240234,3.257308959960938,2,192.168.1.8,10.83.46.32,1,0
2015-03-01 09:58:25.707,18,1425232705.088213,37.77935004330965,-122.4390314520546,60.90518,0,207.7734375,12,30,-9999,1425232705.666893,13.35882949829102,-42.38618469238281,0.6060562133789062,228.995849609375,215.2180480957031,10,177512.3403729583,0.0300750732421875,-0.926666259765625,-0.25439453125,177512.3138797917,0.8493760812127489,-1.311130131028901,2.104915121331226,177512.3138797917,1.642274963735722,-0.2084111355237523,1.192240374421346,0.8392944931983948,-1.298161625862122,2.140310049057007,0.2418580204248428,0.1598664075136185,0.05312530323863029,XTrueNorthZVertical,0.4434822807732345,0.350046574533626,0.562601748577197,0.6035479739895822,-0.07646801322698593,-0.9291992783546448,-0.3615817129611969,13.00665760040283,-44.46369934082031,5.174824714660645,2,192.168.1.8,10.83.46.32,1,0
2015-03-01 09:58:25.731,19,1425232705.088213,37.77935004330965,-122.4390314520546,60.90518,0,207.7734375,12,30,-9999,1425232705.717032,8.960952758789062,-43.03184509277344,2.470108032226562,224.7290191650391,210.9512176513672,10,177512.3893969167,-0.0977935791015625,-1.07421875,-0.166839599609375,177512.365656125,0.5396371306310831,-1.940006327679122,1.414331085378888,177512.365656125,1.902027744334717,-0.5307268382723834,1.190746177805631,0.52955561876297,-1.927037835121155,1.449725747108459,0.197839617729187,-0.1882515549659729,0.1080988571047783,XTrueNorthZVertical,0.4911023798848577,0.3144044191050558,0.5649240149354612,0.5838057837838236,-0.187768816947937,-0.9286460280418396,-0.3199366331100464,8.031545639038086,-45.46229553222656,6.45339298248291,2,192.168.1.8,10.83.46.32,1,0
2015-03-01 09:58:25.800,20,1425232705.088213,37.77935004330965,-122.4390314520546,60.90518,0,207.7734375,12,30,-9999,1425232705.76893,5.159690856933594,-43.21876525878906,3.585197448730469,222.5746612548828,208.7968597412109,10,177512.4384197917,-0.279815673828125,-0.9788360595703125,-0.1551971435546875,177512.4174333334,0.5993955360152621,-1.886092495623231,1.264854777611575,177512.4174333334,2.092765077498471,-0.8082825616293634,1.167801501390034,0.5893141031265259,-1.873124122619629,1.300249099731445,0.05290016531944275,-0.139664426445961,0.1184867322444916,XTrueNorthZVertical,0.5377840042264027,0.2744860766076451,0.5554774505820981,0.5717434586885762,-0.2835825383663177,-0.9198906421661377,-0.2708915174007416,5.622061729431152,-45.7523307800293,6.93463134765625,2,192.168.1.8,10.83.46.32,1,0
2015-03-01 09:58:25.829,21,1425232705.088213,37.77935004330965,-122.4390314520546,60.90518,0,207.7734375,12,30,-9999,1425232705.820869,2.551651000976562,-43.40567016601562,4.46728515625,221.4746246337891,207.6968231201172,10,177512.4874309167,-0.2057952880859375,-0.7801971435546875,-0.1333770751953125,177512.4692105,0.5025765809015403,-1.143421023490578,1.016316600460475,177512.4692105,2.226680752805033,-1.004523427631169,1.142760306203005,0.4924952685832977,-1.130452871322632,1.051710486412048,0.137524202466011,0.1092456132173538,0.07362595200538635,XTrueNorthZVertical,0.572655246778604,0.2464172019388279,0.5464777050492143,0.5592018159138288,-0.3502927422523499,-0.9097827076911926,-0.2226890623569489,3.679450035095215,-45.81908416748047,7.748895645141602,2,192.168.1.8,10.83.46.32,1,0
2015-03-01 09:58:25.910,22,1425232705.088213,37.77935004330965,-122.4390314520546,60.90518,0,207.7734375,12,30,-9999,1425232705.872588,0.7788619995117188,-42.929931640625,5.332733154296875,221.0846252441406,207.3068237304688,10,177512.5364612083,-0.269378662109375,-0.6935577392578125,-0.08984375,177512.5209867917,0.3386867126825001,-1.044263812939766,1.120526892863603,177512.5209867917,2.329542312707245,-1.146394399728689,1.101995467697568,0.3286055028438568,-1.031295776367188,1.155920505523682,0.1962951868772507,0.1632746607065201,0.0685546025633812,XTrueNorthZVertical,0.5982205368870831,0.2216044916335458,0.5454905178467988,0.5435657785265773,-0.411734014749527,-0.8921107053756714,-0.1860472708940506,1.247102737426758,-45.75081253051758,8.847596168518066,2,192.168.1.8,10.83.46.32,1,0
2015-03-01 09:58:25.926,23,1425232705.088213,37.77935004330965,-122.4390314520546,60.90518,0,207.7734375,12,30,-9999,1425232705.872588,0.7788619995117188,-42.929931640625,5.332733154296875,221.0846252441406,207.3068237304688,10,177512.5854782917,-0.35418701171875,-0.6678314208984375,0.0218505859375,177512.5727640417,0.06284527540368987,-1.973475072046475,0.6331777344429173,177512.5209867917,2.329542312707245,-1.146394399728689,1.101995467697568,0.3286055028438568,-1.031295776367188,1.155920505523682,0.1962951868772507,0.1632746607065201,0.0685546025633812,XTrueNorthZVertical,0.5982205368870831,0.2216044916335458,0.5454905178467988,0.5435657785265773,-0.411734014749527,-0.8921107053756714,-0.1860472708940506,1.247102737426758,-45.75081253051758,8.847596168518066,2,192.168.1.8,10.83.46.32,1,0
2015-03-01 09:58:25.995,24,1425232705.088213,37.77935004330965,-122.4390314520546,60.90518,0,207.7734375,12,30,-9999,1425232705.976747,-1.846221923828125,-42.55613708496094,6.597618103027344,220.6558074951172,206.8780059814453,10,177512.634516375,-0.445068359375,-0.7403106689453125,0.1006011962890625,177512.6245411667,-0.1651173191654578,-2.077567652729421,0.3609925510246768,177512.6245411667,2.388532608367292,-1.378593658829291,1.037777439278446,-0.1751983463764191,-2.064599752426147,0.3963854312896729,0.1191249787807465,0.1433967500925064,0.1358984559774399,XTrueNorthZVertical,0.6543051697735868,0.1528146701788888,0.5072007365858462,0.5397034892457664,-0.498778909444809,-0.8612769842147827,-0.09706484526395798,-0.9538784027099609,-45.61315536499023,9.565700531005859,2,192.168.1.8,10.83.46.32,1,0
2015-03-01 09:58:26.024,25,1425232705.088213,37.77935004330965,-122.4390314520546,60.90518,0,207.7734375,12,30,-9999,1425232705.976747,-1.846221923828125,-42.55613708496094,6.597618103027344,220.6558074951172,206.8780059814453,10,177512.68353075,-0.5230560302734375,-0.813690185546875,0.151641845703125,177512.6763174583,-0.3336317666174207,-1.660193051950567,0.1085626965726441,177512.6245411667,2.388532608367292,-1.378593658829291,1.037777439278446,-0.1751983463764191,-2.064599752426147,0.3963854312896729,0.1191249787807465,0.1433967500925064,0.1358984559774399,XTrueNorthZVertical,0.6543051697735868,0.1528146701788888,0.5072007365858462,0.5397034892457664,-0.498778909444809,-0.8612769842147827,-0.09706484526395798,-0.9538784027099609,-45.61315536499023,9.565700531005859,2,192.168.1.8,10.83.46.32,1,0
2015-03-01 09:58:26.113,26,1425232706.067658,37.77935004330965,-122.4390314520546,60.90518,0,207.7734375,16,30,-9999,1425232706.085448,-0.9086837768554688,-42.60710144042969,6.747413635253906,227.9894714355469,214.211669921875,10,177512.732568875,-0.5753631591796875,-0.697662353515625,0.15264892578125,177512.7280947083,-0.2277503406302684,-0.4941034675773443,0.1841309577680785,177512.6763174583,2.368121107431027,-1.455682912981267,1.022734373276026,-0.3437126576900482,-1.647225499153137,0.143955186009407,-0.007591272238641977,0.02010085433721542,0.2324988394975662,XTrueNorthZVertical,0.6751151332897107,0.1195689745969356,0.4802257897596619,0.5470886857524717,-0.5175857543945312,-0.8535358905792236,-0.05984563380479813,-0.7990379333496094,-45.70229339599609,9.145175933837891,2,192.168.1.8,10.83.46.32,1,0
2015-03-01 09:58:26.123,27,1425232706.067658,37.77935004330965,-122.4390314520546,60.90518,0,207.7734375,16,30,-9999,1425232706.085448,-0.9086837768554688,-42.60710144042969,6.747413635253906,227.9894714355469,214.211669921875,10,177512.78159575,-0.354583740234375,-0.6150665283203125,0.1082763671875,177512.7798719167,-0.2750685879304692,0.4357054048779777,0.4212870507362887,177512.7280947083,2.341030815526964,-1.482084689266562,1.014707445463966,-0.2378311604261398,-0.4811359643936157,0.2195231169462204,-0.03724132478237152,0.1943731606006622,0.1574234217405319,XTrueNorthZVertical,0.6830639188242051,0.1002015122834324,0.4660493923013794,0.5533365393535407,-0.5257927179336548,-0.8493261337280273,-0.04676667973399162,-0.5052738189697266,-45.82927703857422,8.508511543273926,2,192.168.1.8,10.83.46.32,1,0
2015-03-01 09:58:26.196,28,1425232706.067658,37.77935004330965,-122.4390314520546,60.90518,0,207.7734375,16,30,-9999,1425232706.157987,-1.062103271484375,-43.16778564453125,5.965187072753906,229.0245208740234,215.2467193603516,10,177512.83065525,-0.552764892578125,-0.7120361328125,0.0707550048828125,177512.8316481667,-0.3962112585443207,-0.2265814792278326,0.5299642632358063,177512.7798719167,2.319274134998746,-1.458060881971066,0.9965252321732948,-0.2851499319076538,0.4486407935619354,0.4567459523677826,0.1370036602020264,0.1567729264497757,0.2073510885238647,XTrueNorthZVertical,0.6788393677155479,0.0928530504866418,0.4733025618562109,0.5536606640414622,-0.5397746562957764,-0.839588463306427,-0.06111084669828415,-0.8549957275390625,-45.91501617431641,8.003273963928223,2,192.168.1.8,10.83.46.32,1,0
2015-03-01 09:58:26.221,29,1425232706.067658,37.77935004330965,-122.4390314520546,60.90518,0,207.7734375,16,30,-9999,1425232706.209853,-2.221237182617188,-43.50758361816406,4.999885559082031,227.2491149902344,213.4713134765625,10,177512.8796789167,-0.494659423828125,-0.6287689208984375,0.0458526611328125,177512.8316481667,-0.3962112585443207,-0.2265814792278326,0.5299642632358063,177512.8316481667,2.292460331812935,-1.428614750507126,0.9628887482955553,-0.4062924981117249,-0.2136462181806564,0.5654227733612061,0.01262293756008148,0.108808770775795,0.1516888439655304,XTrueNorthZVertical,0.6731958937744722,0.07962641648972722,0.485250927214795,0.5522666766617198,-0.5653878450393677,-0.8208448886871338,-0.08093384653329849,-2.462150573730469,-46.0112419128418,7.062277317047119,2,192.168.1.8,10.83.46.32,1,0
2015-03-01 09:58:26.303,30,1425232706.067658,37.77935004330965,-122.4390314520546,60.90518,0,207.7734375,16,30,-9999,1425232706.261429,-3.636062622070312,-43.25273132324219,4.384086608886719,227.3063812255859,213.5285797119141,10,177512.9287269167,-0.71368408203125,-0.781494140625,-0.0137176513671875,177512.9352026667,-0.4749121961300153,-0.2269428701877563,0.3625347876119416,177512.883425375,2.289831067873058,-1.450251517100616,0.9404837465650682,-0.008765274658799171,-0.5522788763046265,0.5365620255470276,0.09046081453561783,0.1790743917226791,0.1167295053601265,XTrueNorthZVertical,0.6785228713841142,0.064562295889163,0.4834382630109827,0.5492958136803033,-0.5851202607154846,-0.8078433275222778,-0.070876844227314,-3.361423492431641,-46.02608489990234,6.578203678131104,2,192.168.1.8,10.83.46.32,1,0
2015-03-01 09:58:26.319,31,1425232706.067658,37.77935004330965,-122.4390314520546,60.90518,0,207.7734375,16,30,-9999,1425232706.313237,-4.334945678710938,-43.26972961425781,3.901435852050781,227.1438598632812,213.3660583496094,10,177512.9777413333,-0.6950836181640625,-0.8238525390625,-0.1141510009765625,177512.9352026667,-0.4749121961300153,-0.2269428701877563,0.3625347876119416,177512.9352026667,2.26149696969286,-1.448347092087567,0.9111199146443615,-0.4849916100502014,-0.2140079885721207,0.3979937136173248,-0.1054116860032082,0.008696447126567364,0.06113934144377708,XTrueNorthZVertical,0.6786542649853691,0.04472014515508018,0.4844052114255624,0.5502545869775549,-0.6082723736763,-0.790190577507019,-0.07485699653625488,-3.959583282470703,-45.97467041015625,6.604834079742432,2,192.168.1.8,10.83.46.32,1,0
2015-03-01 09:58:26.393,32,1425232706.067658,37.77935004330965,-122.4390314520546,60.90518,0,207.7734375,16,30,-9999,1425232706.364988,-5.357696533203125,-42.86195373535156,3.468704223632812,225.7334289550781,211.9556274414062,10,177513.026802125,-0.6342620849609375,-0.70806884765625,-0.1181182861328125,177512.9869789167,-0.5470897206255608,0.3201274093618469,0.2889164929666633,177512.9869789167,2.232692620139818,-1.420375382380175,0.8925376813719808,-0.5571725368499756,0.3330581188201904,0.3243803977966309,-0.0747305229306221,-0.04518604651093483,-0.02012668363749981,XTrueNorthZVertical,0.6720869360149211,0.0358746738009588,0.4910348324998924,0.5530795364151153,-0.620353102684021,-0.7786664962768555,-0.09402431547641754,-5.379467010498047,-46.01175689697266,5.191514015197754,2,192.168.1.8,10.83.46.32,1,0
2015-03-01 09:58:26.418,33,1425232706.067658,37.77935004330965,-122.4390314520546,60.90518,0,207.7734375,16,30,-9999,1425232706.364988,-5.357696533203125,-42.86195373535156,3.468704223632812,225.7334289550781,211.9556274414062,10,177513.075842875,-0.617034912109375,-0.874755859375,-0.0337677001953125,177513.038756125,-0.9289870209429235,-0.2939882169466101,0.2488372501415158,177513.038756125,2.175985266254247,-1.370187539498228,0.8679566068697478,-0.9390727281570435,-0.2810588777065277,0.2843017876148224,0.0006115519790910184,0.04155890271067619,0.02186933346092701,XTrueNorthZVertical,0.6596368334173408,0.02185827232774252,0.4987481291615684,0.5618289683697618,-0.6334240436553955,-0.7630097270011902,-0.1288029253482819,-6.178440093994141,-46.05102157592773,3.755342960357666,2,192.168.1.8,10.83.46.32,1,0
2015-03-01 09:58:26.498,34,1425232706.067658,37.77935004330965,-122.4390314520546,60.90518,0,207.7734375,16,30,-9999,1425232706.468608,-6.397506713867188,-43.25273132324219,-0.1761703491210938,227.9302368164062,214.1524353027344,10,177513.1249010834,-0.7852325439453125,-0.8507537841796875,0.0554351806640625,177513.0905333333,-1.394509443701538,-1.087202758143441,0.2391169784788356,177513.0905333333,2.088509164870881,-1.345628349910545,0.8440527525161754,-1.404593586921692,-1.074273586273193,0.2745815813541412,0.03365315496921539,-0.1275206059217453,0.1430241614580154,XTrueNorthZVertical,0.652494214111254,-0.008749865601780591,0.4885333878443101,0.57923215680438,-0.6476668119430542,-0.747342050075531,-0.1483494788408279,-6.56230354309082,-46.08131408691406,2.533918857574463,2,192.168.1.8,10.83.46.32,1,0
2015-03-01 09:58:26.515,35,1425232706.067658,37.77935004330965,-122.4390314520546,60.90518,0,207.7734375,16,30,-9999,1425232706.468608,-6.397506713867188,-43.25273132324219,-0.1761703491210938,227.9302368164062,214.1524353027344,10,177513.1739320417,-0.8790283203125,-0.8250274658203125,-0.0376129150390625,177513.1423096667,-1.402714643020072,-0.7461263910148128,0.2855659699992346,177513.1423096667,1.98987160785365,-1.323162643470983,0.810782466817122,-1.412798643112183,-0.7331973314285278,0.3210302591323853,-0.1340098977088928,-0.1202968284487724,0.1801100820302963,XTrueNorthZVertical,0.6429696952630922,-0.04645203284643627,0.4761917449411948,0.5980582110289809,-0.6679157614707947,-0.724826455116272,-0.1688643544912338,-7.471075057983398,-45.98270416259766,-1.657120704650879,2,192.168.1.8,10.83.46.32,1,0
2015-03-01 09:58:26.597,36,1425232706.067658,37.77935004330965,-122.4390314520546,60.90518,0,207.7734375,16,30,-9999,1425232706.572618,-7.573684692382812,-43.06585693359375,-5.352226257324219,232.5711669921875,218.7933654785156,10,177513.222984,-0.803802490234375,-0.7835235595703125,-0.0853729248046875,177513.1940868333,-1.238150728729132,0.04856860143199308,0.2101641563719301,177513.1940868333,1.906920136069916,-1.275553786301828,0.7806782540271531,-1.248234629631042,0.06149757280945778,0.2456280589103699,-0.2223568856716156,-0.1055342182517052,0.1435303837060928,XTrueNorthZVertical,0.6259527817998867,-0.06945933407751419,0.4747050051348464,0.6148281841929681,-0.6796969771385193,-0.7037614583969116,-0.2067170292139053,-8.157781600952148,-45.69771575927734,-4.259304046630859,2,192.168.1.8,10.83.46.32,1,0
2015-03-01 09:58:26.614,37,1425232706.067658,37.77935004330965,-122.4390314520546,60.90518,0,207.7734375,16,30,-9999,1425232706.572618,-7.573684692382812,-43.06585693359375,-5.352226257324219,232.5711669921875,218.7933654785156,10,177513.272015375,-0.959747314453125,-0.8606414794921875,-0.0511932373046875,177513.2458640834,-1.105834765761853,0.3123507126627065,0.318249348161123,177513.2458640834,1.835352548455402,-1.212113858125321,0.7485312171187247,-1.115918517112732,0.32527956366539,0.3537128865718842,-0.1308182328939438,-0.1154114007949829,0.236589252948761,XTrueNorthZVertical,0.6036703166794446,-0.0835476697234897,0.4810138221240315,0.6302599945111147,-0.6860610246658325,-0.6805633306503296,-0.2572038769721985,-8.487678527832031,-45.44496536254883,-5.973843574523926,2,192.168.1.8,10.83.46.32,1,0
2015-03-01 09:58:26.692,38,1425232706.067658,37.77935004330965,-122.4390314520546,60.90518,0,207.7734375,16,30,-9999,1425232706.675757,-8.272560119628906,-41.89350891113281,-10.59485626220703,234.8881530761719,221.1103515625,10,177513.32105775,-0.89208984375,-0.8472442626953125,0.0037689208984375,177513.2976404167,-0.7332034018252033,0.6377213535787014,0.3852060116556772,177513.2976404167,1.785072222132372,-1.158602945390439,0.7135055350181945,-0.7432871460914612,0.6506500840187073,0.4206692278385162,-0.2249624878168106,-0.1347421258687973,0.2118636816740036,XTrueNorthZVertical,0.5828041511985066,-0.09428949983883438,0.4906372364156654,0.640877473406528,-0.6927468776702881,-0.654488205909729,-0.3028976321220398,-9.38182258605957,-44.5718994140625,-9.914595603942871,2,192.168.1.8,10.83.46.32,1,0
2015-03-01 09:58:26.711,39,1425232706.067658,37.77935004330965,-122.4390314520546,60.90518,0,207.7734375,16,30,-9999,1425232706.675757,-8.272560119628906,-41.89350891113281,-10.59485626220703,234.8881530761719,221.1103515625,10,177513.37007425,-0.825225830078125,-0.8540191650390625,-0.132720947265625,177513.3494175833,-0.6346603162217643,1.602162239165523,0.4964582346131923,177513.3494175833,1.758743183712627,-1.080042529676557,0.6714051893959391,-0.6447439193725586,1.615090847015381,0.5319210886955261,-0.2710200548171997,-0.2997576892375946,0.3457877635955811,XTrueNorthZVertical,0.5541297475467339,-0.09188054509856852,0.5158334583181691,0.646849328443113,-0.6905430555343628,-0.622086763381958,-0.3689963817596436,-9.982133865356445,-43.97678375244141,-11.80558300018311,2,192.168.1.8,10.83.46.32,1,0
2015-03-01 09:58:26.791,40,1425232706.067658,37.77935004330965,-122.4390314520546,60.90518,0,207.7734375,16,30,-9999,1425232706.779401,-9.772613525390625,-41.38377380371094,-14.52266693115234,231.0577087402344,217.2799072265625,10,177513.4191219167,-0.986419677734375,-0.8534393310546875,-0.2376251220703125,177513.4011948333,0.1017098504556522,1.908767181776383,0.7124672306295193,177513.4011948333,1.766204287611014,-0.9935060183294454,0.6377136645588174,0.0916263535618782,1.921695709228516,0.7479297518730164,-0.2285402864217758,-0.2992627918720245,0.2357333153486252,XTrueNorthZVertical,0.5246259784802245,-0.07430701405108017,0.5502454916774896,0.6453494955190425,-0.673254132270813,-0.5953600406646729,-0.438492089509964,-10.15170097351074,-43.39699554443359,-13.66075229644775,2,192.168.1.8,10.83.46.32,1,0
2015-03-01 09:58:26.809,41,1425232706.067658,37.77935004330965,-122.4390314520546,60.90518,0,207.7734375,16,30,-9999,1425232706.779401,-9.772613525390625,-41.38377380371094,-14.52266693115234,231.0577087402344,217.2799072265625,10,177513.4681450833,-0.85498046875,-0.736419677734375,-0.362060546875,177513.452971125,0.5367587861249254,2.053190141375271,0.6138530386249752,177513.4011948333,1.766204287611014,-0.9935060183294454,0.6377136645588174,0.0916263535618782,1.921695709228516,0.7479297518730164,-0.2285402864217758,-0.2992627918720245,0.2357333153486252,XTrueNorthZVertical,0.5246259784802245,-0.07430701405108017,0.5502454916774896,0.6453494955190425,-0.673254132270813,-0.5953600406646729,-0.438492089509964,-10.15170097351074,-43.39699554443359,-13.66075229644775,2,192.168.1.8,10.83.46.32,1,0
2015-03-01 09:58:26.898,42,1425232706.067658,37.77935004330965,-122.4390314520546,60.90518,0,207.7734375,16,30,-9999,1425232706.88384,-10.67605590820312,-40.38131713867188,-14.87216186523438,219.4185485839844,205.6407470703125,10,177513.5172020417,-0.77044677734375,-0.827117919921875,-0.4996337890625,177513.5047484167,0.5941288686435213,1.952764733513364,1.040739119237047,177513.5047484167,1.867874273544897,-0.8543844374003762,0.6034938805715726,0.5840455293655396,1.96569299697876,1.076200842857361,-0.2082744836807251,-0.2078527212142944,0.1052906736731529,XTrueNorthZVertical,0.4788955160692434,-0.0177933295234071,0.6254348758014826,0.6157708342849915,-0.6209491491317749,-0.5675226449966431,-0.5406849384307861,-10.44827079772949,-43.09734344482422,-14.36748695373535,2,192.168.1.8,10.83.46.32,1,0
2015-03-01 09:58:26.908,43,1425232706.067658,37.77935004330965,-122.4390314520546,60.90518,0,207.7734375,16,30,-9999,1425232706.88384,-10.67605590820312,-40.38131713867188,-14.87216186523438,219.4185485839844,205.6407470703125,10,177513.5662179583,-0.718963623046875,-0.4917755126953125,-0.676666259765625,177513.5565256667,1.017494516610617,1.589823547519077,0.8460889414792641,177513.5047484167,1.867874273544897,-0.8543844374003762,0.6034938805715726,0.5840455293655396,1.96569299697876,1.076200842857361,-0.2082744836807251,-0.2078527212142944,0.1052906736731529,XTrueNorthZVertical,0.4788955160692434,-0.0177933295234071,0.6254348758014826,0.6157708342849915,-0.6209491491317749,-0.5675226449966431,-0.5406849384307861,-10.44827079772949,-43.09734344482422,-14.36748695373535,2,192.168.1.8,10.83.46.32,1,0
2015-03-01 09:58:26.967,44,1425232706.067658,37.77935004330965,-122.4390314520546,60.90518,0,207.7734375,16,30,-9999,1425232706.935679,-11.20447540283203,-40.05848693847656,-14.32293701171875,214.8891906738281,201.1113891601562,10,177513.6152503334,-0.67352294921875,-0.5968780517578125,-0.565673828125,177513.6083019167,1.212417135747915,2.031776195682162,0.6829042783168767,177513.5565256667,1.94433854006544,-0.8124972377954904,0.5939722651466347,1.007411360740662,1.602751493453979,0.8815503716468811,-0.1880593150854111,0.1037399843335152,-0.1005221381783485,XTrueNorthZVertical,0.4636428910289522,0.009144941908013763,0.660486547354065,0.5905160306983436,-0.6016592979431152,-0.5596573352813721,-0.5699032545089722,-10.97769260406494,-43.004638671875,-14.25003242492676,2,192.168.1.8,10.83.46.32,1,0
2015-03-01 09:58:27.005,45,1425232706.067658,37.77935004330965,-122.4390314520546,60.90518,0,207.7734375,16,30,-9999,1425232706.986767,-12.12496185302734,-40.50022888183594,-13.49077606201172,208.6575775146484,194.8797760009766,10,177513.6642767917,-0.3721923828125,-0.534027099609375,-0.5308074951171875,177513.6600791667,1.350178730512188,1.148746546722409,0.1924240414025853,177513.6083019167,2.032356004519528,-0.7627867688933451,0.6084696173566436,1.202334046363831,2.04470419883728,0.7183653116226196,-0.1003962382674217,-0.119259774684906,0.05032089725136757,XTrueNorthZVertical,0.4483090500046762,0.04934781494729099,0.6940656530766713,0.5611209140414322,-0.5669316649436951,-0.5716124176979065,-0.5931676030158997,-12.13888168334961,-43.24160385131836,-12.4813346862793,2,192.168.1.8,10.83.46.32,1,0
2015-03-01 09:58:27.097,46,1425232707.061448,37.77935004330965,-122.4390314520546,60.90689,0,207.7734375,16,30,-9999,1425232707.090739,-13.0625,-40.65315246582031,-10.21206665039062,200.6781005859375,186.9002990722656,10,177513.7133253333,-0.0592193603515625,-0.4805755615234375,-0.7339019775390625,177513.7118564167,0.9109294571716413,0.3174456061441371,0.5921698473456591,177513.7118564167,2.167297827371272,-0.7217910128197965,0.665786633413091,0.9008464813232422,0.3303731381893158,0.6276304721832275,0.4815633296966553,0.1497214138507843,-0.08960263431072235,XTrueNorthZVertical,0.4380182696675004,0.1139434955288483,0.7273441264118305,0.5158753911071673,-0.5196187496185303,-0.6176779270172119,-0.590313732624054,-12.26934242248535,-43.8856201171875,-9.822836875915527,2,192.168.1.8,10.83.46.32,1,0
2015-03-01 09:58:27.104,47,1425232707.061448,37.77935004330965,-122.4390314520546,60.90689,0,207.7734375,16,30,-9999,1425232707.090739,-13.0625,-40.65315246582031,-10.21206665039062,200.6781005859375,186.9002990722656,10,177513.7623512083,-0.2490234375,-0.37799072265625,-0.511566162109375,177513.7118564167,0.9109294571716413,0.3174456061441371,0.5921698473456591,177513.7118564167,2.167297827371272,-0.7217910128197965,0.665786633413091,0.9008464813232422,0.3303731381893158,0.6276304721832275,0.4815633296966553,0.1497214138507843,-0.08960263431072235,XTrueNorthZVertical,0.4380182696675004,0.1139434955288483,0.7273441264118305,0.5158753911071673,-0.5196187496185303,-0.6176779270172119,-0.590313732624054,-12.26934242248535,-43.8856201171875,-9.822836875915527,2,192.168.1.8,10.83.46.32,1,0
2015-03-01 09:58:27.191,48,1425232707.061448,37.77935004330965,-122.4390314520546,60.90689,0,207.7734375,16,30,-9999,1425232707.143005,-14.17050170898438,-40.4322509765625,-7.832069396972656,199.1070098876953,185.3292083740234,10,177513.81138325,-0.395263671875,-0.576507568359375,-0.503204345703125,177513.81541,1.522017335636787,-1.422722972289837,0.3340940913826584,177513.76363275,2.255980674021512,-0.8090006398484973,0.6885761387423164,1.403725504875183,-1.160023808479309,0.6545669436454773,0.3097037076950073,0.2574476599693298,0.02138978242874146,XTrueNorthZVertical,0.4676847405058315,0.1216265228744987,0.724972992925209,0.4908076548630046,-0.5587271451950073,-0.6354383826255798,-0.5329559445381165,-13.95947742462158,-44.00961303710938,-6.423334121704102,2,192.168.1.8,10.83.46.32,1,0
2015-03-01 09:58:27.202,49,1425232707.061448,37.77935004330965,-122.4390314520546,60.90689,0,207.7734375,16,30,-9999,1425232707.194029,-15.32962799072266,-40.80604553222656,-4.436843872070312,199.3734893798828,185.5956878662109,10,177513.8604049167,-0.3105621337890625,-0.6078033447265625,-0.2284393310546875,177513.81541,1.522017335636787,-1.422722972289837,0.3340940913826584,177513.81541,2.343584003963943,-0.9350059344023629,0.7123934051168274,1.511932134628296,-1.409825325012207,0.3696176707744598,0.2136592715978622,0.07713939994573593,-0.05380640178918839,XTrueNorthZVertical,0.5101308423274381,0.1227499532601488,0.7098874866221837,0.4698497112160173,-0.6089229583740234,-0.6536469459533691,-0.4493979513645172,-15.41162109375,-43.89249420166016,-2.983791351318359,2,192.168.1.8,10.83.46.32,1,0
2015-03-01 09:58:27.268,50,1425232707.061448,37.77935004330965,-122.4390314520546,60.90689,0,207.7734375,16,30,-9999,1425232707.245417,-15.56827545166016,-40.73806762695312,-0.6088943481445312,198.3522644042969,184.574462890625,10,177513.9094449167,-0.689208984375,-0.6564483642578125,-0.173797607421875,177513.86718725,1.444674077574815,-1.272062889417983,-0.117265108066696,177513.86718725,2.427418601273821,-1.059576457267405,0.7438348238542105,1.43458890914917,-1.259165406227112,-0.0817418172955513,0.331232100725174,0.06931149959564209,0.1315824389457703,XTrueNorthZVertical,0.5507149133995154,0.1292369963907653,0.6890139753982524,0.453068037650815,-0.6417942643165588,-0.6771148443222046,-0.3600217700004578,-16.14800643920898,-43.72044372558594,0.8585414886474609,2,192.168.1.8,10.83.46.32,1,0
2015-03-01 09:58:27.302,51,1425232707.061448,37.77935004330965,-122.4390314520546,60.90689,0,207.7734375,16,30,-9999,1425232707.245417,-15.56827545166016,-40.73806762695312,-0.6088943481445312,198.3522644042969,184.574462890625,10,177513.9584732083,-0.69000244140625,-1.062179565429688,-0.246124267578125,177513.918963625,1.764857945951772,-0.887359682576113,-0.877379486391041,177513.918963625,2.521249688851791,-1.184372482335384,0.8003468469873762,1.754772901535034,-0.874462366104126,-0.8418565392494202,-0.04410599172115326,0.06114933267235756,0.08868230134248734,XTrueNorthZVertical,0.5882060740988949,0.1509094384745696,0.6613321757836937,0.4403177615736925,-0.6451029777526855,-0.7175977230072021,-0.2624799013137817,-15.43856143951416,-43.55717086791992,6.11522102355957,2,192.168.1.8,10.83.46.32,1,0
2015-03-01 09:58:27.366,52,1425232707.061448,37.77935004330965,-122.4390314520546,60.90689,0,207.7734375,16,30,-9999,1425232707.350737,-12.94318389892578,-40.36427307128906,6.281417846679688,200.3981628417969,186.620361328125,10,177514.0075069584,-0.809814453125,-0.4654998779296875,0.6327667236328125,177513.970740875,-0.6192438093035136,-0.6588322315397596,-1.009752973637866,177513.970740875,2.565211478993727,-1.239037731050049,0.872694671215022,-0.629328727722168,-0.64593505859375,-0.9742304682731628,-0.4724696278572083,-1.820056796073914,-0.9519482254981995,XTrueNorthZVertical,0.6023321145104304,0.1803324772349384,0.6376958038491747,0.4449947250793706,-0.6077153086662292,-0.7660637497901917,-0.2093524485826492,-13.33946800231934,-43.58916091918945,9.747611045837402,2,192.168.1.8,10.83.46.32,1,0
2015-03-01 09:58:27.398,53,1425232707.061448,37.77935004330965,-122.4390314520546,60.90689,0,207.7734375,16,30,-9999,1425232707.350737,-12.94318389892578,-40.36427307128906,6.281417846679688,200.3981628417969,186.620361328125,10,177514.056515,-0.3930206298828125,-0.6716461181640625,-0.4554595947265625,177514.0225180833,-0.5252288965015364,2.211061798162951,0.7891391057806826,177514.0225180833,2.530732914329821,-1.271123499415082,0.8125540593360081,-0.5353137254714966,2.223958730697632,0.8246613144874573,-0.007474396843463182,0.2515585124492645,0.8632310032844543,XTrueNorthZVertical,0.6157007879678492,0.1393316774190557,0.6344738659037247,0.4460293252244178,-0.6570000648498535,-0.7260458469390869,-0.2029984444379807,-12.26983451843262,-43.80534362792969,10.17425155639648,2,192.168.1.8,10.83.46.32,1,0
2015-03-01 09:58:27.466,54,1425232707.061448,37.77935004330965,-122.4390314520546,60.90689,0,207.7734375,16,30,-9999,1425232707.453034,-13.40342712402344,-40.65312194824219,3.668418884277344,196.6420745849609,182.8642730712891,10,177514.1055233333,-0.13543701171875,-0.6444091796875,-0.430572509765625,177514.0742944583,-0.4694425958832105,2.919445603893052,-1.316862851591405,177514.0742944583,2.460940303558193,-1.029773099246764,0.8405260328768559,-0.479537159204483,2.932348966598511,-1.281350493431091,0.3922664821147919,-0.09660438448190689,-0.1734172701835632,XTrueNorthZVertical,0.5423309288164027,0.1846670376397399,0.6819739217777404,0.4546282448167899,-0.5718014240264893,-0.7449941039085388,-0.3435505032539368,-14.01522827148438,-44.02010345458984,6.227053642272949,2,192.168.1.8,10.83.46.32,1,0
2015-03-01 09:58:27.496,55,1425232707.061448,37.77935004330965,-122.4390314520546,60.90689,0,207.7734375,16,30,-9999,1425232707.453034,-13.40342712402344,-40.65312194824219,3.668418884277344,196.6420745849609,182.8642730712891,10,177514.1545325833,-0.6648406982421875,-0.710906982421875,-0.398193359375,177514.1260717083,-0.7172135163242586,0.02457698211979625,0.2966828033375523,177514.1260717083,2.42576770811361,-0.9558018236734486,0.8092611695697386,-0.7273079752922058,0.03748038783669472,0.3321947157382965,0.1122023835778236,0.300987035036087,0.0696721151471138,XTrueNorthZVertical,0.5184478314795441,0.1793127790216106,0.7011026608052084,0.4555368859238164,-0.5636031627655029,-0.7237775325775146,-0.3981175422668457,-13.40597057342529,-44.50242614746094,3.575815200805664,2,192.168.1.8,10.83.46.32,1,0
2015-03-01 09:58:27.555,56,1425232707.061448,37.77935004330965,-122.4390314520546,60.90689,0,207.7734375,16,30,-9999,1425232707.504202,-13.36933135986328,-40.82302856445312,0.7059249877929688,196.1332550048828,182.3554534912109,10,177514.2035705417,-0.5550994873046875,-0.596588134765625,-0.4961090087890625,177514.1778489584,-0.7266128770755842,0.9114311967210122,-0.1550351239106358,177514.1778489584,2.373808450429417,-0.9061961840830419,0.8026056269222659,-0.7367072105407715,0.9243344664573669,-0.1195235699415207,-0.0395989716053009,-0.1286856085062027,-0.0008313253638334572,XTrueNorthZVertical,0.5051806385366353,0.1747130573944546,0.703379422974021,0.4685352489108361,-0.5469489097595215,-0.719169020652771,-0.4285357296466827,-13.92274856567383,-44.41532897949219,2.531394004821777,2,192.168.1.8,10.83.46.32,1,0
2015-03-01 09:58:27.593,57,1425232707.061448,37.77935004330965,-122.4390314520546,60.90689,0,207.7734375,16,30,-9999,1425232707.556216,-12.97727966308594,-40.94197082519531,-1.607490539550781,197.9357299804688,184.1579284667969,10,177514.25257575,-0.26947021484375,-0.6747589111328125,-0.5800933837890625,177514.2296252917,-0.8260025815895594,1.28602557669716,-0.2658396694889086,177514.2296252917,2.326983659770279,-0.8019068904902767,0.7709549702034408,-0.8360968828201294,1.298928737640381,-0.2303284406661987,0.03001406043767929,0.1614201068878174,-0.07816127687692642,XTrueNorthZVertical,0.4692041821998907,0.1745954073049435,0.725201699304604,0.4727011704993697,-0.515472412109375,-0.6968204975128174,-0.4987277686595917,-13.44130420684814,-44.62533569335938,-0.9395351409912109,2,192.168.1.8,10.83.46.32,1,0
2015-03-01 09:58:27.653,58,1425232707.061448,37.77935004330965,-122.4390314520546,60.90689,0,207.7734375,16,30,-9999,1425232707.608058,-12.89204406738281,-41.2647705078125,-4.087326049804688,196.3616943359375,182.5838928222656,10,177514.3016107084,-0.3692626953125,-0.624755859375,-0.5883636474609375,177514.2814025834,-0.892502512957165,0.5293370887990926,-0.1169577792769009,177514.2814025834,2.273314798556345,-0.7166842669010723,0.7440490278548003,-0.9025978446006775,0.5422406792640686,-0.08144748210906982,0.2223075926303864,0.04230846837162971,-0.1458740085363388,XTrueNorthZVertical,0.4396079247864798,0.1714007801094699,0.7378608348718737,0.4826262068273728,-0.4832939207553864,-0.6772724390029907,-0.5547332763671875,-12.89090061187744,-44.66506195068359,-3.43937873840332,2,192.168.1.8,10.83.46.32,1,0
2015-03-01 09:58:27.703,59,1425232707.061448,37.77935004330965,-122.4390314520546,60.90689,0,207.7734375,16,30,-9999,1425232707.659532,-12.61930847167969,-41.50263977050781,-6.350814819335938,196.23388671875,182.4560852050781,10,177514.3506260834,-0.45831298828125,-0.625457763671875,-0.582672119140625,177514.3331799167,-1.080232732938486,0.09019327663771357,-0.2168465601791569,177514.3331799167,2.228787562588162,-0.6770837822994589,0.7111376373154794,-1.090328454971313,0.1030969247221947,-0.181336835026741,0.02558467350900173,0.01275773532688618,0.01079460792243481,XTrueNorthZVertical,0.424187852686616,0.1575405797496874,0.7427770985180069,0.4934853953198899,-0.4746660888195038,-0.6526960730552673,-0.5904912352561951,-12.67048645019531,-44.58834075927734,-4.930633544921875,2,192.168.1.8,10.83.46.32,1,0
2015-03-01 09:58:27.751,60,1425232707.061448,37.77935004330965,-122.4390314520546,60.90689,0,207.7734375,16,30,-9999,1425232707.71174,-12.4488525390625,-41.63858032226562,-8.015144348144531,196.7867889404297,183.0089874267578,10,177514.3996607084,-0.538543701171875,-0.661346435546875,-0.5741424560546875,177514.3849562917,-1.053924962426247,0.5968144002867573,-0.3153081530532395,177514.3849562917,2.172008319073571,-0.6253640330440655,0.6769488234095502,-1.064018845558167,0.609717845916748,-0.2797994911670685,-0.05735041946172714,-0.06999354064464569,0.1081659719347954,XTrueNorthZVertical,0.4039636361099629,0.1443209641611644,0.7465045278819307,0.5086411819424306,-0.4563061892986298,-0.6264175772666931,-0.631969690322876,-11.98942184448242,-44.23728179931641,-8.502296447753906,2,192.168.1.8,10.83.46.32,1,0
2015-03-01 09:58:27.801,61,1425232707.061448,37.77935004330965,-122.4390314520546,60.90689,0,207.7734375,16,30,-9999,1425232707.764044,-11.80110168457031,-41.50265502929688,-10.34519958496094,197.8687438964844,184.0909423828125,10,177514.448673375,-0.2572174072265625,-0.6279754638671875,-0.635650634765625,177514.4367335417,-0.959252781467238,0.9665282712492256,-0.4532484459266567,177514.3849562917,2.172008319073571,-0.6253640330440655,0.6769488234095502,-1.064018845558167,0.609717845916748,-0.2797994911670685,-0.05735041946172714,-0.06999354064464569,0.1081659719347954,XTrueNorthZVertical,0.4039636361099629,0.1443209641611644,0.7465045278819307,0.5086411819424306,-0.4563061892986298,-0.6264175772666931,-0.631969690322876,-11.98942184448242,-44.23728179931641,-8.502296447753906,2,192.168.1.8,10.83.46.32,1,0
2015-03-01 09:58:27.849,62,1425232707.061448,37.77935004330965,-122.4390314520546,60.90689,0,207.7734375,16,30,-9999,1425232707.81501,-10.43741607666016,-41.36676025390625,-13.44084930419922,198.8377990722656,185.0599975585938,10,177514.497711375,-0.3968353271484375,-0.6239471435546875,-0.6145172119140625,177514.4885107917,-0.8556534182181746,0.3111794544152897,-0.291328251649839,177514.4885107917,2.074901812481543,-0.4881625337435855,0.6100234714195194,-0.8657463788986206,0.3240828216075897,-0.2558211088180542,-0.0363798625767231,-0.06683803349733353,0.1245023310184479,XTrueNorthZVertical,0.3466494981983925,0.1337351194638674,0.760122279174493,0.5330695883606272,-0.3844117522239685,-0.5728867053985596,-0.7238981127738953,-10.16700267791748,-43.68318176269531,-12.70369720458984,2,192.168.1.8,10.83.46.32,1,0
2015-03-01 09:58:27.898,63,1425232707.061448,37.77935004330965,-122.4390314520546,60.90689,0,207.7734375,16,30,-9999,1425232707.867066,-9.3123779296875,-40.95896911621094,-15.87076568603516,200.1142883300781,186.3364868164062,10,177514.5467199167,-0.4315185546875,-0.6214447021484375,-0.5703582763671875,177514.5402871667,-0.5589881917438169,0.8299805453098108,0.003290868159010915,177514.4885107917,2.074901812481543,-0.4881625337435855,0.6100234714195194,-0.8657463788986206,0.3240828216075897,-0.2558211088180542,-0.0363798625767231,-0.06683803349733353,0.1245023310184479,XTrueNorthZVertical,0.3466494981983925,0.1337351194638674,0.760122279174493,0.5330695883606272,-0.3844117522239685,-0.5728867053985596,-0.7238981127738953,-10.16700267791748,-43.68318176269531,-12.70369720458984,2,192.168.1.8,10.83.46.32,1,0
2015-03-01 09:58:27.947,64,1425232707.061448,37.77935004330965,-122.4390314520546,60.90689,0,207.7734375,16,30,-9999,1425232707.920055,-8.664627075195312,-40.55119323730469,-17.73481750488281,200.1095886230469,186.331787109375,10,177514.5957661667,-0.2591094970703125,-0.5083465576171875,-0.6564178466796875,177514.5920644167,-0.8027284178750299,1.087225927644925,-0.3526033272748181,177514.5402871667,2.048799078169476,-0.4415373181274471,0.5845341123697964,-0.5690804123878479,0.8428841829299927,0.03879649564623833,-0.01948978751897812,-0.08896668255329132,0.1410272866487503,XTrueNorthZVertical,0.3252415897278096,0.1312396956519108,0.7655283421122885,0.5394074806034295,-0.3563799560070038,-0.5518109202384949,-0.7539880871772766,-8.83128547668457,-43.03861999511719,-15.57747745513916,2,192.168.1.8,10.83.46.32,1,0
2015-03-01 09:58:28.000,65,1425232707.061448,37.77935004330965,-122.4390314520546,60.90689,0,207.7734375,16,30,-9999,1425232707.97173,-7.300949096679688,-39.93951416015625,-19.19942474365234,200.9658813476562,187.1880798339844,10,177514.6447882917,-0.240997314453125,-0.511444091796875,-0.7372894287109375,177514.6438417083,-0.9882703183886324,1.100028275637154,-0.3721653107458862,177514.5920644167,2.024257306282073,-0.3901838607735852,0.5556607016934626,-0.8128204941749573,1.100129365921021,-0.3170980215072632,-0.04565533995628357,-0.01712724193930626,0.1226893961429596,XTrueNorthZVertical,0.3007002799521362,0.1293438057553203,0.7717933445051711,0.5451463812945723,-0.3231343328952789,-0.5275047421455383,-0.7856990694999695,-8.247653007507324,-42.59338760375977,-17.05144882202148,2,192.168.1.8,10.83.46.32,1,0
2015-03-01 09:58:28.045,66,1425232707.061448,37.77935004330965,-122.4390314520546,60.90689,0,207.7734375,16,30,-9999,1425232708.02274,-5.579292297363281,-39.44677734375,-21.34641265869141,201.3291320800781,187.5513305664062,10,177514.6938177917,-0.2012176513671875,-0.453033447265625,-0.792022705078125,177514.6956180417,-0.9150898474265631,1.180908744258969,-0.3926862985254918,177514.6438417083,1.993134621544217,-0.3071400432393569,0.5147317525156111,-0.9983623027801514,1.112931609153748,-0.3366603553295135,0.05727196484804153,-0.002205458469688892,0.1135347783565521,XTrueNorthZVertical,0.2608354425352563,0.1308414231586838,0.7812528465855746,0.5518055868843583,-0.2631587982177734,-0.4923013746738434,-0.8296908140182495,-7.314566612243652,-42.2352294921875,-18.32088279724121,2,192.168.1.8,10.83.46.32,1,0
2015-03-01 09:58:28.111,67,1425232708.058779,37.77935004330965,-122.4390314520546,60.90689,0,207.7734375,16,30,-9999,1425232708.074384,-3.550819396972656,-38.648193359375,-23.49339294433594,201.5096588134766,187.7318572998047,10,177514.7428299167,-0.140106201171875,-0.40093994140625,-0.7348785400390625,177514.6956180417,-0.9150898474265631,1.180908744258969,-0.3926862985254918,177514.6956180417,1.958722535456164,-0.2368128176509733,0.4731630816269857,-0.9251817464828491,1.193811893463135,-0.3571817576885223,0.007612134329974651,0.002670671092346311,0.07326561957597733,XTrueNorthZVertical,0.2250976163237162,0.1291777894785019,0.7859299247339033,0.5612114907503204,-0.208829790353775,-0.4557041227817535,-0.8652883172035217,-4.621174335479736,-40.88119506835938,-21.91677284240723,2,192.168.1.8,10.83.46.32,1,0
2015-03-01 09:58:28.143,68,1425232708.058779,37.77935004330965,-122.4390314520546,60.90689,0,207.7734375,16,30,-9999,1425232708.126927,-1.590522766113281,-37.61178588867188,-25.40735626220703,201.2207641601562,187.4429626464844,10,177514.7918735833,-0.2038421630859375,-0.371734619140625,-0.82269287109375,177514.799172625,-0.6034030608236133,1.613733674101917,-0.5008058450927467,177514.7473954167,1.927284204162932,-0.1648932054206956,0.4338745393779356,-0.9251291751861572,1.380067467689514,-0.41203573346138,0.008831541053950787,0.01944954693317413,0.1601579040288925,XTrueNorthZVertical,0.1884335056399602,0.1302865807439397,0.7891878966725061,0.5698251544882175,-0.1489377468824387,-0.4203894734382629,-0.8950364589691162,-2.766541957855225,-40.02763748168945,-23.72986602783203,2,192.168.1.8,10.83.46.32,1,0
2015-03-01 09:58:28.203,69,1425232708.058779,37.77935004330965,-122.4390314520546,60.90689,0,207.7734375,16,30,-9999,1425232708.178356,0.8811416625976562,-36.473388671875,-27.12161254882812,201.9395904541016,188.1617889404297,10,177514.8408908334,-0.1175079345703125,0.0432891845703125,-0.7348480224609375,177514.799172625,-0.6034030608236133,1.613733674101917,-0.5008058450927467,177514.799172625,1.896644899195784,-0.07333083102429165,0.3994618751037054,-0.6134983897209167,1.62660825252533,-0.4652403593063354,-0.136345162987709,0.01718802005052567,0.09610163420438766,XTrueNorthZVertical,0.1447916816236339,0.1401360669445345,0.7915115980633325,0.5769806443172544,-0.06749699264764786,-0.3889226317405701,-0.9187945127487183,-1.301415920257568,-39.39241027832031,-24.89008903503418,2,192.168.1.8,10.83.46.32,1,0
2015-03-01 09:58:28.241,70,1425232708.058779,37.77935004330965,-122.4390314520546,60.90689,0,207.7734375,16,30,-9999,1425232708.230554,4.068752288818359,-36.2864990234375,-27.80397796630859,200.9623870849609,187.1845855712891,10,177514.889935125,0.2548828125,-0.494781494140625,-0.94476318359375,177514.8509490833,-0.2011927656077802,2.12400572528935,-0.4177756728390193,177514.8509490833,1.876007963278411,0.02819563228602369,0.3795870742475395,-0.2112880200147629,2.136880397796631,-0.3822105526924133,-0.1184550300240517,0.3265001177787781,0.160794124007225,XTrueNorthZVertical,0.1003962403354275,0.1603007279863593,0.7933934440493476,0.5785768199510563,0.02618513256311417,-0.3705369830131531,-0.9284485578536987,3.230829477310181,-38.21857452392578,-26.49291229248047,2,192.168.1.8,10.83.46.32,5,0
2015-03-01 09:58:28.307,71,1425232708.058779,37.77935004330965,-122.4390314520546,60.90689,0,207.7734375,16,30,-9999,1425232708.284532,7.341590881347656,-36.49040222167969,-27.30467224121094,200.3523254394531,186.5745239257812,10,177514.9389605834,0.20916748046875,-0.0202789306640625,-0.875518798828125,177514.902726375,0.07192159471478891,2.48442569667966,-0.05550879923273958,177514.902726375,1.861857728154419,0.1578828450886957,0.3755218196826966,0.061826441437006,2.497300148010254,-0.01994405873119831,0.2754814028739929,0.01685874350368977,0.05389253422617912,XTrueNorthZVertical,0.04895806756051364,0.1955259257768521,0.7944112022390394,0.5729603684711344,0.1462715417146683,-0.3667580485343933,-0.9187454581260681,6.602402210235596,-37.94471740722656,-26.25983810424805,2,192.168.1.8,10.83.46.32,5,0
2015-03-01 09:58:28.339,72,1425232708.058779,37.77935004330965,-122.4390314520546,60.90689,0,207.7734375,16,30,-9999,1425232708.284532,7.341590881347656,-36.49040222167969,-27.30467224121094,200.3523254394531,186.5745239257812,10,177514.9879959583,0.859893798828125,-0.4193115234375,-0.749603271484375,177514.9545036667,0.3776876415822745,1.644488657318479,-0.5265839128641687,177514.9545036667,1.861200953351803,0.2689633162947614,0.3870250788971712,0.3675925731658936,1.657362937927246,-0.4910194873809814,-0.09257413446903229,0.2529845237731934,-0.02762225084006786,XTrueNorthZVertical,0.008318256273848652,0.2314297783570942,0.7953058237377355,0.5602318565938568,0.2460775524377823,-0.3774352073669434,-0.8927421569824219,8.628890037536621,-37.96705627441406,-25.63234329223633,2,192.168.1.8,10.83.46.32,5,0
2015-03-01 09:58:28.395,73,1425232708.058779,37.77935004330965,-122.4390314520546,60.90689,0,207.7734375,16,30,-9999,1425232708.359627,12.77927398681641,-36.57534790039062,-24.52525329589844,200.7401580810547,186.9623565673828,10,177515.0370106667,0.7383575439453125,-0.345062255859375,-0.9338226318359375,177515.0062800834,0.5404725642650409,1.926864426647908,-0.6184057125084657,177515.0062800834,1.811041493275044,0.3773061432298777,0.4083898381798874,0.5303776264190674,1.939738512039185,-0.5828416347503662,0.3994142413139343,0.06261366605758667,0.06193152815103531,XTrueNorthZVertical,-0.02152836159177073,0.2700615718996857,0.7802069995421698,0.5638087769867181,0.3381193280220032,-0.3971320986747742,-0.8532065749168396,13.24375629425049,-38.47008895874023,-22.75142478942871,2,192.168.1.8,10.83.46.32,5,0
2015-03-01 09:58:28.437,74,1425232708.058779,37.77935004330965,-122.4390314520546,60.90689,0,207.7734375,16,30,-9999,1425232708.410758,16.73395538330078,-36.06561279296875,-22.82763671875,203.0251922607422,189.2473907470703,10,177515.0860650417,0.9837799072265625,-0.6077117919921875,-0.7164306640625,177515.0580572917,-0.01327292855684591,2.478310279868511,-0.8637433026615083,177515.0580572917,1.759349637298029,0.4994259729534783,0.3894826650489932,-0.02336777746677399,2.491184234619141,-0.828179657459259,0.4491892755031586,-0.0778096541762352,-0.1281355619430542,XTrueNorthZVertical,-0.0672993410212105,0.2990238907025882,0.7630011760952564,0.5691087232472037,0.4430531561374664,-0.3797098696231842,-0.8121110200881958,16.64389038085938,-38.1669921875,-20.95790672302246,2,192.168.1.8,10.83.46.32,5,0
2015-03-01 09:58:28.503,75,1425232708.058779,37.77935004330965,-122.4390314520546,60.90689,0,207.7734375,16,30,-9999,1425232708.463066,20.07497787475586,-35.35197448730469,-21.42959594726562,201.8723754882812,188.0945739746094,10,177515.1350905,0.9525909423828125,-0.149444580078125,-0.8254852294921875,177515.109834625,-0.4164978881479993,1.557077585071571,-0.7015405469930333,177515.109834625,1.723703298517704,0.6155601657440227,0.3573247832586885,-0.4265926480293274,1.569951415061951,-0.6659772396087646,0.6741591691970825,-0.1472552865743637,0.02478273399174213,XTrueNorthZVertical,-0.116028494269367,0.3226414395659934,0.746915646428213,0.5696989812389531,0.54094398021698,-0.3497692346572876,-0.7648797631263733,19.14127349853516,-37.65574645996094,-19.71366500854492,2,192.168.1.8,10.83.46.32,5,0
2015-03-01 09:58:28.535,76,1425232708.058779,37.77935004330965,-122.4390314520546,60.90689,0,207.7734375,16,30,-9999,1425232708.514954,22.87053298950195,-34.33250427246094,-20.06484222412109,203.4470367431641,189.6692352294922,10,177515.1841335417,0.7000274658203125,-0.4806976318359375,-0.3549346923828125,177515.1616111667,-0.138405280799745,0.0617709562199519,-0.7804958164628304,177515.1616111667,1.716976932202868,0.6576029452440354,0.3363924542774821,-0.1484999358654022,0.07464469224214554,-0.7449328303337097,0.07528874278068542,0.03932767361402512,0.1052691489458084,XTrueNorthZVertical,-0.1373953232298712,0.3279828182411221,0.741532722882404,0.568927973560263,0.576963484287262,-0.3300839066505432,-0.7470995783805847,23.01247406005859,-36.31552505493164,-18.01613235473633,2,192.168.1.8,10.83.46.32,5,0
2015-03-01 09:58:28.605,77,1425232708.058779,37.77935004330965,-122.4390314520546,60.90689,0,207.7734375,16,30,-9999,1425232708.567294,24.86491775512695,-33.19413757324219,-19.48233795166016,205.774658203125,191.9968566894531,10,177515.2331525834,0.730621337890625,-0.1311187744140625,-0.5469512939453125,177515.2133882917,-0.4487967058484802,1.414686084752196,-0.7223520856475665,177515.2133882917,1.694089714873107,0.693201279526916,0.2955338159867379,-0.4588912427425385,1.427559733390808,-0.6867894530296326,0.1371282637119293,-0.0391785129904747,0.2492998689413071,XTrueNorthZVertical,-0.1600764237711247,0.3262623217647297,0.730205692290524,0.5785569159620001,0.6113000512123108,-0.2912505567073822,-0.7358568906784058,24.50761032104492,-35.23746490478516,-18.1843376159668,2,192.168.1.8,10.83.46.32,5,0
2015-03-01 09:58:28.633,78,1425232708.058779,37.77935004330965,-122.4390314520546,60.90689,0,207.7734375,16,30,-9999,1425232708.618994,27.54114532470703,-31.74990844726562,-18.50039672851562,205.9188842773438,192.1410827636719,10,177515.2822267917,1.259323120117188,-0.1690216064453125,-0.6819000244140625,177515.2651656667,0.4019469085840243,2.598564519942712,-1.502370131010837,177515.2651656667,1.651188915604849,0.809095432062105,0.2481055141382331,0.391852468252182,2.611437797546387,-1.466807842254639,0.5165744423866272,0.1286245733499527,0.0899341031908989,XTrueNorthZVertical,-0.2099217787140684,0.348457521842826,0.7034602678693272,0.5827983149713988,0.7015041708946228,-0.2455679327249527,-0.669020414352417,25.96840286254883,-34.43959808349609,-17.67847633361816,2,192.168.1.8,10.83.46.32,5,0
2015-03-01 09:58:28.705,79,1425232708.058779,37.77935004330965,-122.4390314520546,60.90689,0,207.7734375,16,30,-9999,1425232708.670599,31.12080764770508,-30.18673706054688,-15.90404510498047,208.3621978759766,194.5843963623047,10,177515.331190875,1.558212280273438,-0.19482421875,-0.7348785400390625,177515.3169420417,1.108494997374734,0.513350399091456,-1.755576563236736,177515.2651656667,1.651188915604849,0.809095432062105,0.2481055141382331,0.391852468252182,2.611437797546387,-1.466807842254639,0.5165744423866272,0.1286245733499527,0.0899341031908989,XTrueNorthZVertical,-0.2099217787140684,0.348457521842826,0.7034602678693272,0.5827983149713988,0.7015041708946228,-0.2455679327249527,-0.669020414352417,25.96840286254883,-34.43959808349609,-17.67847633361816,2,192.168.1.8,10.83.46.32,5,0
2015-03-01 09:58:28.731,80,1425232708.058779,37.77935004330965,-122.4390314520546,60.90689,0,207.7734375,16,30,-9999,1425232708.722393,33.37088012695312,-28.69154357910156,-13.47412872314453,213.1428527832031,199.3650512695312,10,177515.3802266667,0.9914703369140625,-0.1677703857421875,-0.6835479736328125,177515.368719375,1.415996093692406,-1.912515847326779,-1.232514680914198,177515.368719375,1.461765008622505,0.8972237858552391,0.2237387483843589,1.405901789665222,-1.899642705917358,-1.196953058242798,0.5891864895820618,0.0187059473246336,-0.07184991240501404,XTrueNorthZVertical,-0.212809165714168,0.3880658471482772,0.6337670501965336,0.6343945975983116,0.7621166110038757,-0.2218767255544662,-0.6082342863082886,33.90802764892578,-30.38718032836914,-9.991860389709473,2,192.168.1.8,10.83.46.32,5,0
2015-03-01 09:58:28.798,81,1425232708.058779,37.77935004330965,-122.4390314520546,60.90689,0,207.7734375,16,30,-9999,1425232708.77339,34.3765983581543,-27.04344177246094,-13.42420196533203,222.0025329589844,208.2247314453125,10,177515.429248875,0.5432891845703125,-0.319732666015625,-0.5839385986328125,177515.420496625,0.5252568596929822,-2.295473352074102,-1.596774131648075,177515.368719375,1.461765008622505,0.8972237858552391,0.2237387483843589,1.405901789665222,-1.899642705917358,-1.196953058242798,0.5891864895820618,0.0187059473246336,-0.07184991240501404,XTrueNorthZVertical,-0.212809165714168,0.3880658471482772,0.6337670501965336,0.6343945975983116,0.7621166110038757,-0.2218767255544662,-0.6082342863082886,33.90802764892578,-30.38718032836914,-9.991860389709473,2,192.168.1.8,10.83.46.32,5,0
2015-03-01 09:58:28.829,82,1425232708.058779,37.77935004330965,-122.4390314520546,60.90689,0,207.7734375,16,30,-9999,1425232708.826435,34.83684539794922,-25.05549621582031,-15.2716064453125,227.5845489501953,213.8067474365234,10,177515.4782816667,0.298004150390625,-0.26580810546875,-0.5774383544921875,177515.472273125,0.06778197711636974,-0.6694952622283278,-0.3122641599272789,177515.420496625,1.369435249134056,0.7959103838573738,0.1910998376207803,0.5151627063751221,-2.282600164413452,-1.56121289730072,-0.0770585909485817,-0.103991225361824,0.1293880194425583,XTrueNorthZVertical,-0.1758543633105644,0.3544376488532616,0.6090107798666333,0.6874264237704664,0.701494038105011,-0.1899388283491135,-0.686898410320282,34.43206024169922,-29.64213562011719,-10.42829704284668,2,192.168.1.8,10.83.46.32,5,0
2015-03-01 09:58:28.906,83,1425232708.058779,37.77935004330965,-122.4390314520546,60.90689,0,207.7734375,16,30,-9999,1425232708.878314,35.43345642089844,-24.32489013671875,-16.35341644287109,230.0760345458984,216.2982330322266,10,177515.527303125,0.4548492431640625,-0.07513427734375,-0.41845703125,177515.5240504583,-0.5485299581430757,1.791688494985993,0.6517594083167271,177515.472273125,1.326647172749051,0.7343151208434235,0.170362084952853,0.05768793448805809,-0.6566223502159119,-0.2767033278942108,-0.3027735352516174,-0.1352551132440567,0.1478190720081329,XTrueNorthZVertical,-0.1576573636811794,0.3307145725407112,0.5966812117991011,0.713963290921796,0.6603785157203674,-0.1695391982793808,-0.7315440773963928,35.52182006835938,-26.40763473510742,-14.62222290039062,2,192.168.1.8,10.83.46.32,5,0
2015-03-01 09:58:28.928,84,1425232708.058779,37.77935004330965,-122.4390314520546,60.90689,0,207.7734375,16,30,-9999,1425232708.878314,35.43345642089844,-24.32489013671875,-16.35341644287109,230.0760345458984,216.2982330322266,10,177515.57633325,0.541290283203125,-0.36907958984375,-0.3828582763671875,177515.57582775,-0.4335857949663837,2.210288416182391,0.00736284146574207,177515.5240504583,1.341808991147804,0.7631382185642249,0.1697313262793715,-0.5586239099502563,1.804561257362366,0.6873198747634888,-0.2500775754451752,0.03805816546082497,0.2755029797554016,XTrueNorthZVertical,-0.1690544796676052,0.3395256559571853,0.5996297093158128,0.7046893965915781,0.6812604069709778,-0.1689175367355347,-0.7122858166694641,35.5323600769043,-26.19247055053711,-14.97926044464111,2,192.168.1.8,10.83.46.32,5,0
2015-03-01 09:58:28.967,85,1425232708.058779,37.77935004330965,-122.4390314520546,60.90689,0,207.7734375,16,30,-9999,1425232708.929185,35.70619201660156,-24.4608154296875,-15.05525207519531,225.6293792724609,211.8515777587891,10,177515.6253515,0.7665863037109375,0.246826171875,-0.3574371337890625,177515.57582775,-0.4335857949663837,2.210288416182391,0.00736284146574207,177515.57582775,1.385066112813642,0.8696904434391219,0.1674580645401422,-0.4436796307563782,2.223160982131958,0.04292299598455429,-0.2406229972839355,-0.08732128888368607,0.2763290405273438,XTrueNorthZVertical,-0.209658811675965,0.3715148855952854,0.6041544814540701,0.6730655667305518,0.7534403800964355,-0.1666765064001083,-0.6360397338867188,35.76179504394531,-26.63072204589844,-13.59672927856445,2,192.168.1.8,10.83.46.32,5,0
2015-03-01 09:58:29.026,86,1425232708.058779,37.77935004330965,-122.4390314520546,60.90689,0,207.7734375,16,30,-9999,1425232708.982672,36.88236236572266,-24.74966430664062,-12.34239959716797,224.261474609375,210.4836730957031,10,177515.6743915833,0.5137481689453125,-0.2537384033203125,-0.37689208984375,177515.6793815417,0.1003391214425884,-0.1203296075330502,-1.828287518898625,177515.6276042083,1.394791746305611,0.9613665677589666,0.1538798202520633,-0.4387702643871307,1.426429152488708,0.07770588248968124,-0.04369931295514107,0.4000994265079498,0.2081992775201797,XTrueNorthZVertical,-0.2438351933052692,0.3971475723820256,0.5950044049953273,0.654819047069199,0.8102856278419495,-0.1532732546329498,-0.5656363964080811,37.21893692016602,-26.6989688873291,-8.653781890869141,2,192.168.1.8,10.83.46.32,5,0
2015-03-01 09:58:29.070,87,1425232708.058779,37.77935004330965,-122.4390314520546,60.90689,0,207.7734375,16,30,-9999,1425232709.033264,38.38241577148438,-23.52632141113281,-10.24533843994141,224.925537109375,211.1477355957031,10,177515.7234062083,0.642852783203125,-0.490203857421875,-0.4535980224609375,177515.6793815417,0.1003391214425884,-0.1203296075330502,-1.828287518898625,177515.6793815417,1.376289891829433,0.9822873857311755,0.1093317113432132,0.09024548530578613,-0.1074571684002876,-1.792728066444397,-0.3130548596382141,-0.1446243822574615,0.1749148368835449,XTrueNorthZVertical,-0.2618748029674696,0.3943578598460655,0.5791005583758965,0.6637364170728586,0.8268030285835266,-0.1091140285134315,-0.5518069267272949,37.94852066040039,-26.03116226196289,-7.433755874633789,2,192.168.1.8,10.83.46.32,5,0
2015-03-01 09:58:29.124,88,1425232709.093995,37.77935004330965,-122.4390314520546,60.9014,0,-1,16,30,-9999,1425232709.08595,39.66086578369141,-21.130615234375,-9.096954345703125,229.3056488037109,215.5278472900391,10,177515.7724563333,0.8183135986328125,-0.330291748046875,-0.8392791748046875,177515.7311588333,0.2322462891825401,1.041432340068794,-1.410158178266843,177515.7311588333,1.323740939754119,1.007379844713481,0.04329370509633586,0.2221527397632599,1.054304718971252,-1.374599099159241,-0.2017904072999954,-0.4469236731529236,0.07997926324605942,XTrueNorthZVertical,-0.2816163445442861,0.3923054830806972,0.5463807261066741,0.6842928953898973,0.8446431756019592,-0.04328018054366112,-0.5335772633552551,39.19783020019531,-24.10318946838379,-7.452398300170898,2,192.168.1.8,10.83.46.32,5,0
2015-03-01 09:58:29.172,89,1425232709.093995,37.77935004330965,-122.4390314520546,60.9014,0,-1,16,30,-9999,1425232709.136724,41.04159545898438,-18.42906188964844,-7.1829833984375,233.2268218994141,219.4490203857422,10,177515.8214662083,2.117706298828125,-0.1422882080078125,-0.570556640625,177515.7829352917,0.0726736714066273,3.242513675730564,-1.273393671014696,177515.7829352917,1.285432197208886,1.104179077846151,-0.008493818910872133,0.06257475167512894,3.255359411239624,-1.237776160240173,0.2569614350795746,-0.3391974568367004,-0.468040943145752,XTrueNorthZVertical,-0.3172426262977706,0.4176497982849879,0.5085358927294865,0.6828740952544888,0.8930630087852478,0.008493716828525066,-0.4498515129089355,42.04689788818359,-19.7133960723877,-4.051242828369141,2,192.168.1.8,10.83.46.32,5,0
2015-03-01 09:58:29.232,90,1425232709.093995,37.77935004330965,-122.4390314520546,60.9014,0,-1,16,30,-9999,1425232709.188225,41.68934631347656,-17.13777160644531,-2.889022827148438,231.9772796630859,218.1994781494141,10,177515.8804308333,0.59478759765625,0.0982513427734375,-0.27703857421875,177515.886490125,0.1605404105160476,-4.51027263051087,-1.652742592484962,177515.8347125833,1.314418708728317,1.277675246740902,0.01051675242776234,-0.8955338001251221,1.570700883865356,1.729943156242371,1.160412549972534,-0.1317716538906097,-0.2816310226917267,XTrueNorthZVertical,-0.3609156894552054,0.4746336065551967,0.4929074506153898,0.6336442786555625,0.9572938084602356,-0.01051655877381563,-0.2889256179332733,42.6013069152832,-18.6909122467041,2.958164215087891,2,192.168.1.8,10.83.46.32,5,0
2015-03-01 09:58:29.297,91,1425232709.093995,37.77935004330965,-122.4390314520546,60.9014,0,-1,16,30,-9999,1425232709.292587,41.67230224609375,-16.61105346679688,-4.037406921386719,236.4781036376953,222.7003021240234,10,177515.929357625,0.770111083984375,0.018280029296875,0.026397705078125,177515.886490125,0.1605404105160476,-4.51027263051087,-1.652742592484962,177515.886490125,1.321987406526203,1.172867384543055,-0.002312562756329163,0.1504416763782501,-4.497426986694336,-1.617125749588013,-0.3270754814147949,0.0959387794137001,0.1104703322052956,XTrueNorthZVertical,-0.3404895183148874,0.4362481339649085,0.5108251648597718,0.6578845845491658,0.9218630790710449,0.002312560798600316,-0.387508898973465,41.4747200012207,-20.7359676361084,4.779085159301758,2,192.168.1.8,10.83.46.32,5,0
2015-03-01 09:58:29.331,92,1425232709.093995,37.77935004330965,-122.4390314520546,60.9014,0,-1,16,30,-9999,1425232709.292587,41.67230224609375,-16.61105346679688,-4.037406921386719,236.4781036376953,222.7003021240234,10,177515.9785317917,0.4391326904296875,0.505889892578125,-0.1361236572265625,177515.938266375,-0.5147221933689557,-0.9084801479170954,0.7296496796666015,177515.938266375,1.310857368061122,1.007692857452166,-0.03422683901146829,-0.5248208045959473,-0.8956347703933716,0.7652661204338074,-0.07499618828296661,-0.01594012789428234,0.5598981380462646,XTrueNorthZVertical,-0.3061023301263218,0.373565455967537,0.527129819719941,0.6992026808248343,0.8451072573661804,0.03422015532851219,-0.5335004329681396,42.55928802490234,-18.07253456115723,-5.921388626098633,2,192.168.1.8,10.83.46.32,5,0
2015-03-01 09:58:29.398,93,1425232709.093995,37.77935004330965,-122.4390314520546,60.9014,0,-1,16,30,-9999,1425232709.344352,41.84275817871094,-16.47512817382812,-5.968017578125,236.3828582763672,222.6050567626953,10,177516.0274211667,1.11688232421875,0.0225372314453125,-0.023223876953125,177515.9900439167,-0.4466613832864547,3.739849421922937,-0.003093261606127035,177515.9900439167,1.359383527594344,1.113455012479288,-0.01499897707139306,-0.45675989985466,3.752694606781006,0.03252282366156578,-0.3759495317935944,0.3804025948047638,0.3564620614051819,XTrueNorthZVertical,-0.3370769454534281,0.4069666507988829,0.5305376578925555,0.6627873668461238,0.8971287608146667,0.01499841455370188,-0.4415145516395569,41.91127777099609,-19.54966735839844,-5.850412368774414,2,192.168.1.8,10.83.46.32,5,0
2015-03-01 09:58:29.427,94,1425232709.093995,37.77935004330965,-122.4390314520546,60.9014,0,-1,16,30,-9999,1425232709.396029,41.91094207763672,-16.50912475585938,-2.306503295898438,230.8549346923828,217.0771331787109,10,177516.0764432917,1.037353515625,0.2242431640625,-0.126251220703125,177516.0418210833,-0.7731912982249611,3.80782660874721,-1.079424197231537,177516.0418210833,1.373656601878419,1.327782125151267,-0.06871418293077278,-0.7832896709442139,3.820671558380127,-1.043808460235596,0.2004051506519318,-0.02518783137202263,0.2102915942668915,XTrueNorthZVertical,-0.4114055937295318,0.459036697394041,0.4827462221927965,0.622082675344537,0.9683265686035156,0.06866012513637543,-0.240061491727829,42.21928787231445,-19.69395446777344,-1.628575325012207,2,192.168.1.8,10.83.46.32,5,0
2015-03-01 09:58:29.494,95,1425232709.093995,37.77935004330965,-122.4390314520546,60.9014,0,-1,16,30,-9999,1425232709.447339,41.85980987548828,-15.13284301757812,3.5352783203125,231.6428680419922,217.8650665283203,10,177516.1254645833,1.07806396484375,0.1489715576171875,0.006561279296875,177516.0935975417,-0.5581176043834699,1.665028020909606,-0.2391920796215758,177516.0935975417,1.402957632132362,1.454373998317635,-0.09959410354936894,-0.5682159662246704,1.677873015403748,-0.2035766690969467,0.06199948489665985,0.1104856207966805,0.00219582999125123,XTrueNorthZVertical,-0.4568822306400048,0.4831839003010652,0.4562308917752148,0.5913081610436866,0.9883087277412415,0.09942954033613205,-0.1155838891863823,42.39632034301758,-17.21613502502441,8.89544677734375,2,192.168.1.8,10.83.46.32,5,0
2015-03-01 09:58:29.526,96,1425232709.093995,37.77935004330965,-122.4390314520546,60.9014,0,-1,16,30,-9999,1425232709.498836,41.10977935791016,-14.41925048828125,6.664215087890625,230.7012634277344,216.9234619140625,10,177516.1745058333,0.9523162841796875,0.1286163330078125,0.077850341796875,177516.1453748333,-0.9924706560599054,0.235165380053376,0.1536380296027803,177516.1453748333,1.44234404525746,1.49726319125975,-0.1004727028909947,-1.00256884098053,0.2480102181434631,0.1892530471086502,0.02238026820123196,0.02214803546667099,0.1324530690908432,XTrueNorthZVertical,-0.4764635096466874,0.4862451355535173,0.4574449358507687,0.5720946992428779,0.9922681450843811,0.1003037467598915,-0.0730963870882988,41.8818473815918,-17.32890701293945,10.89000034332275,2,192.168.1.8,10.83.46.32,4,0
2015-03-01 09:58:29.569,97,1425232709.093995,37.77935004330965,-122.4390314520546,60.9014,0,-1,16,30,-9999,1425232709.552016,40.42794036865234,-15.47271728515625,7.995681762695312,228.3705902099609,214.5927886962891,10,177516.2235179583,0.9708099365234375,0.02740478515625,0.1521453857421875,177516.1971522083,-1.082909209834015,0.647926054243667,1.014305913837465,177516.1971522083,1.499327714684003,1.518520787363197,-0.07252496130175363,-1.093007326126099,0.6607707738876343,1.049920558929443,-0.1153019890189171,0.1580073535442352,0.1303767114877701,XTrueNorthZVertical,-0.4879995898953516,0.4855916104889913,0.4756536175234881,0.5475498573948371,0.9960087537765503,0.07246139645576477,-0.05211437493562698,41.68269348144531,-17.88367462158203,10.75636863708496,2,192.168.1.8,10.83.46.32,4,0
2015-03-01 09:58:29.624,98,1425232709.093995,37.77935004330965,-122.4390314520546,60.9014,0,-1,16,30,-9999,1425232709.602783,39.35404205322266,-18.14024353027344,8.877784729003906,223.5411834716797,209.7633819580078,10,177516.2725470834,1.3621826171875,0.0918731689453125,0.048980712890625,177516.2489287083,-1.5918789752484,1.727890873176491,0.9671610383242284,177516.2489287083,1.56869320594448,1.592024029651007,-0.01857527941790872,-1.601976990699768,1.740735411643982,1.002775430679321,0.1170817166566849,-0.09933897852897644,0.07844796031713486,XTrueNorthZVertical,-0.5093243103852381,0.5011985340082917,0.489425549586212,0.4998514078027448,0.9996022582054138,0.01857421174645424,0.02122244797646999,39.68457794189453,-21.6421947479248,11.38955497741699,2,192.168.1.8,10.83.46.32,4,0
2015-03-01 09:58:29.697,99,1425232709.093995,37.77935004330965,-122.4390314520546,60.9014,0,-1,16,30,-9999,1425232709.654606,37.71762084960938,-21.02870178222656,10.54209899902344,217.3354339599609,203.5576324462891,10,177516.32156725,1.041000366210938,-0.137786865234375,0.3306732177734375,177516.300706,-1.56214611325821,1.87273487854372,0.8313443501040404,177516.300706,1.648534965658988,1.672383607936597,0.03615023964895484,-1.572243928909302,1.885579347610474,0.8669583797454834,0.543921947479248,0.1158695369958878,0.1145349591970444,XTrueNorthZVertical,-0.5364196788508068,0.5127641965363202,0.5010576223114698,0.445273048956757,0.994194507598877,-0.03614236786961555,0.1013463884592056,37.7077751159668,-24.34661865234375,12.58324909210205,2,192.168.1.8,10.83.46.32,4,0
2015-03-01 09:58:29.722,100,1425232709.093995,37.77935004330965,-122.4390314520546,60.9014,0,-1,16,30,-9999,1425232709.706428,35.53572845458984,-23.20352172851562,12.93872833251953,208.6320190429688,194.8542175292969,10,177516.3706085,1.030929565429688,-0.083770751953125,0.504547119140625,177516.352483375,-0.8468564645054248,2.879166357670039,-0.308466758528935,177516.352483375,1.704099297520329,1.802937036420146,0.06378685756559228,-0.8569542765617371,2.892010688781738,-0.2728531658649445,-0.06290233880281448,-0.01969144865870476,0.1578882187604904,XTrueNorthZVertical,-0.5769153696403346,0.5310041344153957,0.4832057275754776,0.3895067553411323,0.9711970090866089,-0.06374361366033554,0.2295934706926346,36.3365478515625,-25.94245529174805,13.4021167755127,2,192.168.1.8,10.83.46.32,4,0
2015-03-01 09:58:29.769,101,1425232709.093995,37.77935004330965,-122.4390314520546,60.9014,0,-1,16,30,-9999,1425232709.75799,33.77999114990234,-23.69627380371094,14.91927337646484,204.5899658203125,190.8121643066406,10,177516.419618875,1.308639526367188,0.1294097900390625,0.47137451171875,177516.404259875,-0.586083725306501,1.334407490536738,-1.095604765066532,177516.352483375,1.704099297520329,1.802937036420146,0.06378685756559228,-0.8569542765617371,2.892010688781738,-0.2728531658649445,-0.06290233880281448,-0.01969144865870476,0.1578882187604904,XTrueNorthZVertical,-0.5769153696403346,0.5310041344153957,0.4832057275754776,0.3895067553411323,0.9711970090866089,-0.06374361366033554,0.2295934706926346,36.3365478515625,-25.94245529174805,13.4021167755127,2,192.168.1.8,10.83.46.32,4,0
2015-03-01 09:58:29.820,102,1425232709.093995,37.77935004330965,-122.4390314520546,60.9014,0,-1,16,30,-9999,1425232709.809783,33.0470085144043,-22.31999206542969,16.46710205078125,204.8240203857422,191.0462188720703,10,177516.468650125,1.21746826171875,0.189239501953125,0.474945068359375,177516.4560372084,0.3496038089390619,-0.2111098448750172,-2.831921879932033,177516.4560372084,1.787866473250604,1.927199241532472,-0.04332414183141935,0.3395061790943146,-0.1982657611370087,-2.796308994293213,0.6241767406463623,0.3552184700965881,0.1572050005197525,XTrueNorthZVertical,-0.6477895768352547,0.5046362086851094,0.4335347145285235,0.3711585031193592,0.9362785816192627,0.04331059008836746,0.3485780656337738,34.20652770996094,-25.09051322937012,19.32231140136719,2,192.168.1.8,10.83.46.32,4,0
2015-03-01 09:58:29.869,103,1425232709.093995,37.77935004330965,-122.4390314520546,60.9014,0,-1,16,30,-9999,1425232709.861894,34.90503311157227,-18.29316711425781,16.65017700195312,216.5276794433594,202.7498779296875,10,177516.5176631667,0.902801513671875,-0.0820770263671875,0.5057220458984375,177516.5078145833,0.3488133827275264,-0.530725927307569,-3.319252129908979,177516.4560372084,1.787866473250604,1.927199241532472,-0.04332414183141935,0.3395061790943146,-0.1982657611370087,-2.796308994293213,0.6241767406463623,0.3552184700965881,0.1572050005197525,XTrueNorthZVertical,-0.6477895768352547,0.5046362086851094,0.4335347145285235,0.3711585031193592,0.9362785816192627,0.04331059008836746,0.3485780656337738,34.20652770996094,-25.09051322937012,19.32231140136719,2,192.168.1.8,10.83.46.32,4,0
2015-03-01 09:58:29.918,104,1425232709.093995,37.77935004330965,-122.4390314520546,60.9014,0,-1,16,30,-9999,1425232709.914266,37.08692169189453,-12.27841186523438,17.01632690429688,225.571533203125,211.7937316894531,10,177516.5667056667,0.68792724609375,0.24761962890625,0.45416259765625,177516.5595910417,0.05620202006448721,0.9252886891371305,-3.277198153135538,177516.5078145833,1.819436269231995,1.902104423621581,-0.2099427456704238,0.3387158811092377,-0.5178819298744202,-3.283639430999756,0.1272999346256256,-0.3294824063777924,0.1748734265565872,XTrueNorthZVertical,-0.6763648496116318,0.4489984564455879,0.4035739057988743,0.4219704977710729,0.9248546361923218,0.2084039002656937,0.3181380331516266,36.18434143066406,-22.16242218017578,19.30006980895996,2,192.168.1.8,10.83.46.32,4,0
2015-03-01 09:58:29.969,105,1425232709.093995,37.77935004330965,-122.4390314520546,60.9014,0,-1,16,30,-9999,1425232709.965751,37.92217636108398,-5.465087890625,18.26457214355469,234.6316528320312,220.8538513183594,10,177516.6157317917,0.630828857421875,0.418609619140625,0.38665771484375,177516.611368375,-0.2179677509980803,0.9903260124340646,-3.099759452870719,177516.5595910417,1.871153371010795,1.932665957790182,-0.3594635943897492,0.04611039534211159,0.9381454586982727,-3.24159574508667,-0.1459846347570419,-0.1902121007442474,0.1358278840780258,XTrueNorthZVertical,-0.7119254060086599,0.3985728709414008,0.3628194766008993,0.4501821101949693,0.8754615783691406,0.3517721593379974,0.331396222114563,40.81010055541992,-12.19198417663574,18.94369697570801,2,192.168.1.8,10.83.46.32,4,0
2015-03-01 09:58:30.016,106,1425232709.093995,37.77935004330965,-122.4390314520546,60.9014,0,-1,16,30,-9999,1425232709.965751,37.92217636108398,-5.465087890625,18.26457214355469,234.6316528320312,220.8538513183594,10,177516.6647666667,0.6137237548828125,0.3710174560546875,0.41729736328125,177516.6631457917,-0.5190801901767614,0.2727963788884136,-2.611392434281406,177516.6631457917,2.042899124229739,2.103023478454042,-0.6159762406906176,-0.5291715860366821,0.2856529355049133,-2.575790882110596,-0.06663793325424194,-0.1993071287870407,-0.007358862552791834,XTrueNorthZVertical,-0.7841430307215084,0.3036676729252364,0.2659126369385273,0.4713768592316242,0.7033109068870544,0.5777556300163269,0.4141886830329895,40.98063659667969,-2.652896881103516,22.05723571777344,2,192.168.1.8,10.83.46.32,4,0
2015-03-01 09:58:30.055,107,1425232709.093995,37.77935004330965,-122.4390314520546,60.9014,0,-1,16,30,-9999,1425232710.018744,37.10396575927734,0.583648681640625,19.62931823730469,245.8620147705078,232.0842132568359,10,177516.713797375,0.4228668212890625,0.5659942626953125,0.6623992919921875,177516.6631457917,-0.5190801901767614,0.2727963788884136,-2.611392434281406,177516.6631457917,2.042899124229739,2.103023478454042,-0.6159762406906176,-0.5291715860366821,0.2856529355049133,-2.575790882110596,-0.06663793325424194,-0.1993071287870407,-0.007358862552791834,XTrueNorthZVertical,-0.7841430307215084,0.3036676729252364,0.2659126369385273,0.4713768592316242,0.7033109068870544,0.5777556300163269,0.4141886830329895,40.98063659667969,-2.652896881103516,22.05723571777344,2,192.168.1.8,10.83.46.32,4,0
2015-03-01 09:58:30.115,108,1425232710.073884,37.77935004330965,-122.4390314520546,60.90244,0,-1,16,30,-9999,1425232710.068944,35.97892379760742,5.37506103515625,20.42819213867188,251.7704772949219,237.99267578125,10,177516.762856875,0.3740234375,0.660858154296875,0.760101318359375,177516.7666996667,-0.987988023313084,-0.09879262379757942,-1.911279874264873,177516.71492225,2.159399164850878,2.16057054241497,-0.6996343320576889,-0.8830435276031494,-0.6598162651062012,-2.284628391265869,-0.2129634916782379,-0.07794370502233505,0.2368834018707275,XTrueNorthZVertical,-0.8068722928617401,0.2484251338959466,0.2476741863478349,0.4752889388460145,0.6358303427696228,0.6439379453659058,0.42551589012146,40.4015998840332,4.410686492919922,22.83043670654297,2,192.168.1.8,10.83.46.32,4,0
2015-03-01 09:58:30.153,109,1425232710.073884,37.77935004330965,-122.4390314520546,60.90244,0,-1,16,30,-9999,1425232710.121716,35.50163650512695,8.909149169921875,20.52806091308594,255.1855926513672,241.4077911376953,10,177516.8118829167,0.3336639404296875,0.730621337890625,0.6465301513671875,177516.7666996667,-0.987988023313084,-0.09879262379757942,-1.911279874264873,177516.7666996667,2.304863263764286,2.229391053568453,-0.7518116904843305,-0.9980798959732056,-0.08593560010194778,-1.875679731369019,-0.2036573737859726,-0.02210508100688457,0.3130597472190857,XTrueNorthZVertical,-0.828758961250333,0.1915185738045143,0.2404616564853122,0.4676082055600687,0.5776808261871338,0.6829632520675659,0.4470415711402893,40.47415924072266,7.4329833984375,21.89898300170898,2,192.168.1.8,10.83.46.32,4,0
2015-03-01 09:58:30.212,110,1425232710.073884,37.77935004330965,-122.4390314520546,60.90244,0,-1,16,30,-9999,1425232710.172974,34.64933395385742,11.69564819335938,21.09393310546875,258.3576965332031,244.5798950195312,10,177516.8609371667,0.449951171875,0.840545654296875,0.687744140625,177516.818477,-0.1482400683892987,0.431648078957242,-1.105403866297479,177516.818477,2.387758416923143,2.31403757902923,-0.7910818654630221,-0.1583408117294312,0.44448122382164,-1.069748520851135,-0.1839965879917145,0.01950701512396336,0.170773833990097,XTrueNorthZVertical,-0.8426226137631104,0.1669289862737893,0.2151350247308684,0.4645845322030128,0.5176604986190796,0.7111143469810486,0.4757563173770905,40.10886001586914,9.061014175415039,21.95790481567383,2,192.168.1.8,10.83.46.32,4,0
2015-03-01 09:58:30.252,111,1425232710.073884,37.77935004330965,-122.4390314520546,60.90244,0,-1,16,30,-9999,1425232710.226099,33.93340301513672,13.5986328125,21.49336242675781,261.0060424804688,247.2282409667969,10,177516.90996025,0.27996826171875,0.610931396484375,0.6077117919921875,177516.8702535,0.0384528503474361,-0.555266424120431,-0.9413789758111712,177516.8702535,2.440320734225711,2.343479070562976,-0.8244361759795954,0.02835138328373432,-0.5424328446388245,-0.9057244062423706,-0.03621963039040565,0.1063805744051933,0.2137824892997742,XTrueNorthZVertical,-0.8463471661831711,0.1437960468194905,0.2075354155527804,0.4689864013121832,0.4861707985401154,0.7341650724411011,0.4739616513252258,38.66846466064453,12.08745956420898,23.05678558349609,2,192.168.1.8,10.83.46.32,4,0
2015-03-01 09:58:30.310,112,1425232710.073884,37.77935004330965,-122.4390314520546,60.90244,0,-1,16,30,-9999,1425232710.277435,33.52429962158203,15.43365478515625,20.96079254150391,261.9110107421875,248.1332092285156,10,177516.9590015417,0.19378662109375,0.6390228271484375,0.5809326171875,177516.922030875,0.3251695722536939,-0.6210337198721559,-0.6882519057857559,177516.922030875,2.468965116098522,2.328261457438645,-0.8590830456439776,0.3150677978992462,-0.6081997752189636,-0.6525981426239014,-0.2191053777933121,-0.1179770231246948,0.1656856536865234,XTrueNorthZVertical,-0.8425928807638329,0.1200619275495504,0.2132441649842128,0.4797388029448867,0.4745527505874634,0.7572439908981323,0.4487552642822266,38.8316650390625,13.67652702331543,21.86381912231445,2,192.168.1.8,10.83.46.32,4,0
2015-03-01 09:58:30.349,113,1425232710.073884,37.77935004330965,-122.4390314520546,60.90244,0,-1,16,30,-9999,1425232710.329723,33.49020767211914,16.283203125,20.16191101074219,263.326416015625,249.5485992431641,10,177517.00802475,0.3333282470703125,0.671356201171875,0.452850341796875,177516.9738082917,0.4406445034356387,0.02034894757318645,-0.2275985404481339,177516.9738082917,2.470443751432495,2.316650432899799,-0.888046016697578,0.4305428266525269,0.03318275138735771,-0.1919451355934143,-0.2590009570121765,-0.1320110559463501,0.1709423512220383,XTrueNorthZVertical,-0.8378602346842255,0.1098377780336922,0.2122098195765054,0.4908084190786031,0.463422954082489,0.7758404016494751,0.4281482100486755,38.96430969238281,14.63915729522705,20.98689651489258,2,192.168.1.8,10.83.46.32,4,0
2015-03-01 09:58:30.408,114,1425232710.073884,37.77935004330965,-122.4390314520546,60.90244,0,-1,16,30,-9999,1425232710.38254,32.92769241333008,17.31964111328125,19.87897491455078,264.6907653808594,250.9129638671875,10,177517.057086375,0.52508544921875,0.6860809326171875,0.4486236572265625,177517.0255847917,0.06760381163944344,0.9447446787968135,-0.4765590949481203,177517.0255847917,2.5090868670704,2.3991176919139,-0.9006211355480477,0.0574452131986618,0.9576271772384644,-0.440946638584137,-0.03887689858675003,-0.1334290504455566,-0.05140736699104309,XTrueNorthZVertical,-0.8464807448152859,0.1108665949714793,0.1842646585643329,0.4870580093707252,0.4199498891830444,0.7837128639221191,0.4576421082019806,37.76497650146484,16.14815139770508,22.0457649230957,2,192.168.1.8,10.83.46.32,4,0
2015-03-01 09:58:30.448,115,1425232710.073884,37.77935004330965,-122.4390314520546,60.90244,0,-1,16,30,-9999,1425232710.432586,32.31402969360352,18.74685668945312,20.24512481689453,268.0419311523438,254.2641143798828,10,177517.106214375,0.3735198974609375,0.651275634765625,0.479583740234375,177517.0773622083,-0.3764138516328896,0.05059446807321636,-0.4752072743787961,177517.0773622083,2.548652219900509,2.458462261808748,-0.909042179429835,-0.3865717947483063,0.06347726285457611,-0.4395952224731445,0.05672233179211617,-0.106923945248127,-0.09844930469989777,XTrueNorthZVertical,-0.8525982085834597,0.1066781620994742,0.166972414798527,0.4835455503458975,0.3878882527351379,0.7889155149459839,0.4766078591346741,36.57223892211914,16.88803291320801,23.45714950561523,2,192.168.1.8,10.83.46.32,4,0
2015-03-01 09:58:30.507,116,1425232710.073884,37.77935004330965,-122.4390314520546,60.90244,0,-1,16,30,-9999,1425232710.484946,31.58105850219727,19.57943725585938,20.86091613769531,268.3534545898438,254.5756530761719,10,177517.1551555,0.2195281982421875,0.64862060546875,0.545806884765625,177517.1291395417,-0.8341393376680785,-0.4349317565813097,-0.716556514483336,177517.1291395417,2.615656228316313,2.49259287108402,-0.9036308998580587,-0.8442971706390381,-0.4220491051673889,-0.6809448003768921,-0.02990288287401199,-0.1259870678186417,0.05173248797655106,XTrueNorthZVertical,-0.8595750783723944,0.08724068394707271,0.1694108561805057,0.4741515913980902,0.3739733099937439,0.785578727722168,0.492960512638092,36.24459457397461,17.12530136108398,23.79129219055176,2,192.168.1.8,10.83.46.32,4,0
2015-03-01 09:58:30.545,117,1425232710.073884,37.77935004330965,-122.4390314520546,60.90244,0,-1,16,30,-9999,1425232710.536212,31.1549072265625,19.52847290039062,21.21041107177734,267.44482421875,253.6670074462891,10,177517.20418025,0.2306976318359375,0.5178680419921875,0.723297119140625,177517.1809160417,-1.687550640564516,-0.06979399531992461,-0.8159835032525723,177517.1809160417,2.722340401834257,2.568102466718914,-0.8723975122378762,-1.697708368301392,-0.05691144615411758,-0.7803720831871033,-0.1307420879602432,-0.1365392208099365,0.01094967313110828,XTrueNorthZVertical,-0.8751920380924302,0.06402845944159787,0.1664073345068054,0.4497197727197561,0.3488664627075195,0.7658727169036865,0.5401214957237244,35.94320678710938,17.37741088867188,24.06415939331055,2,192.168.1.8,10.83.46.32,4,0
2015-03-01 09:58:30.605,118,1425232710.073884,37.77935004330965,-122.4390314520546,60.90244,0,-1,16,30,-9999,1425232710.587792,30.50714874267578,18.74688720703125,22.40873718261719,266.2484130859375,252.4705963134766,10,177517.253232875,0.1949615478515625,0.7289276123046875,0.8310394287109375,177517.2326934584,-1.786438072896902,-0.1251259606562829,-0.3972946324757649,177517.2326934584,2.833735384670014,2.644961044124438,-0.8067531695050441,-1.796595811843872,-0.112243540585041,-0.3616836369037628,-0.1530061215162277,-0.1344134509563446,0.181040421128273,XTrueNorthZVertical,-0.8957803845584049,0.04135955721908279,0.1650369002866923,0.4106455080996419,0.3296418786048889,0.7220446467399597,0.6082662343978882,35.49210357666016,16.56750106811523,25.27450942993164,2,192.168.1.8,10.83.46.32,4,0
2015-03-01 09:58:30.644,119,1425232710.073884,37.77935004330965,-122.4390314520546,60.90244,0,-1,16,30,-9999,1425232710.639161,30.18327331542969,16.75900268554688,23.5571174621582,261.2462463378906,247.4684448242188,10,177517.3022867917,0.167022705078125,0.52911376953125,0.847381591796875,177517.284470875,-1.825288000562869,-0.1672920565116165,-0.07934888467891091,177517.284470875,2.900891136654906,2.685916757112032,-0.7350499460057572,-1.835448026657104,-0.1544073522090912,-0.04374017938971519,-0.1116290241479874,-0.08686871081590652,0.1403809189796448,XTrueNorthZVertical,-0.9122702006493146,0.0285769704955166,0.1672396269882847,0.3727966832483787,0.3264422416687012,0.6706241965293884,0.6661071181297302,35.38539886474609,15.58738613128662,26.03611755371094,2,192.168.1.8,10.83.46.32,4,0
2015-03-01 09:58:30.702,120,1425232710.073884,37.77935004330965,-122.4390314520546,60.90244,0,-1,16,30,-9999,1425232710.691403,30.28555297851562,14.07443237304688,24.38927841186523,156.7051391601562,142.9273376464844,10,177517.3512885,0.31793212890625,0.5312652587890625,0.8469696044921875,177517.336247375,-1.52247033933821,-0.2424456635253256,0.3011995245463267,177517.336247375,2.937052589942994,2.695702458158152,-0.6522016364053579,-1.532630324363708,-0.2295610904693604,0.3368078768253326,-0.1243913695216179,0.01041772216558456,0.2117121517658234,XTrueNorthZVertical,-0.9262575831148765,0.02385733403656784,0.1764601296293184,0.3321739937106372,0.3427446484565735,0.6069376468658447,0.7170445919036865,35.75393676757812,12.08456134796143,27.36040306091309,2,192.168.1.8,10.83.46.32,4,0
2015-03-01 09:58:30.742,121,1425232710.073884,37.77935004330965,-122.4390314520546,60.90244,0,-1,16,30,-9999,1425232710.691403,30.28555297851562,14.07443237304688,24.38927841186523,156.7051391601562,142.9273376464844,10,177517.400300625,0.3341217041015625,0.439239501953125,0.87384033203125,177517.3880247083,-1.021342251753564,-0.2177480402081488,0.6189346163009555,177517.336247375,2.937052589942994,2.695702458158152,-0.6522016364053579,-1.532630324363708,-0.2295610904693604,0.3368078768253326,-0.1243913695216179,0.01041772216558456,0.2117121517658234,XTrueNorthZVertical,-0.9262575831148765,0.02385733403656784,0.1764601296293184,0.3321739937106372,0.3427446484565735,0.6069376468658447,0.7170445919036865,35.75393676757812,12.08456134796143,27.36040306091309,2,192.168.1.8,10.83.46.32,4,0
2015-03-01 09:58:30.804,122,1425232710.073884,37.77935004330965,-122.4390314520546,60.90244,0,-1,16,30,-9999,1425232710.743134,30.95034790039062,11.4068603515625,25.33794021606445,139.1139831542969,125.3361740112305,10,177517.4493346667,0.381378173828125,0.4744415283203125,0.9435272216796875,177517.4398021667,-0.9012944066638436,-0.9634898707615541,0.662008850088006,177517.4398021667,2.934699319975473,2.654717577640481,-0.526132249897389,-0.9114549160003662,-0.9506047964096069,0.697615921497345,0.01018944196403027,-0.008173891343176365,0.2025109976530075,XTrueNorthZVertical,-0.9385895172395035,0.03442422547981851,0.2054427198004133,0.2750599967658984,0.4045902192592621,0.5021924376487732,0.7642706036567688,36.46633529663086,8.032376289367676,27.90446853637695,2,192.168.1.8,10.83.46.32,4,0
2015-03-01 09:58:30.840,123,1425232710.073884,37.77935004330965,-122.4390314520546,60.90244,0,-1,16,30,-9999,1425232710.795113,31.92196655273438,8.46746826171875,25.08829116821289,139.3203430175781,125.5425338745117,10,177517.4983534167,0.3490447998046875,0.4556427001953125,1.030548095703125,177517.4915787083,-0.3076369175332663,-0.655591164493133,0.4831450923238862,177517.4398021667,2.934699319975473,2.654717577640481,-0.526132249897389,-0.9114549160003662,-0.9506047964096069,0.697615921497345,0.01018944196403027,-0.008173891343176365,0.2025109976530075,XTrueNorthZVertical,-0.9385895172395035,0.03442422547981851,0.2054427198004133,0.2750599967658984,0.4045902192592621,0.5021924376487732,0.7642706036567688,36.46633529663086,8.032376289367676,27.90446853637695,2,192.168.1.8,10.83.46.32,4,0
2015-03-01 09:58:30.904,124,1425232710.073884,37.77935004330965,-122.4390314520546,60.90244,0,-1,16,30,-9999,1425232710.847296,33.37088775634766,6.139678955078125,24.13962554931641,140.4760131835938,126.6982116699219,10,177517.5473932083,0.240997314453125,0.39306640625,0.925750732421875,177517.543356125,-0.004286357774482534,0.7127694994132433,0.1434772710958009,177517.4915787083,2.917420228504402,2.604161207513537,-0.4829330705686693,-0.3177976608276367,-0.6427058577537537,0.5187515616416931,-0.1404120773077011,-0.02327772974967957,0.2446620315313339,XTrueNorthZVertical,-0.9373688634406364,0.04162082086980332,0.2303865383130924,0.257932910265169,0.4533850848674774,0.4643788039684296,0.7607853412628174,38.48132705688477,4.435047149658203,25.93241310119629,2,192.168.1.8,10.83.46.32,4,0
2015-03-01 09:58:30.939,125,1425232710.073884,37.77935004330965,-122.4390314520546,60.90244,0,-1,16,30,-9999,1425232710.901801,34.29137420654297,4.202728271484375,23.44061279296875,142.1220703125,128.3442687988281,10,177517.5964099584,0.496826171875,0.334197998046875,0.728790283203125,177517.5951334584,-0.2766566308884835,1.043616664794877,-0.0980189755009114,177517.543356125,2.903846605782403,2.599998492853882,-0.471634435383057,-0.01444701943546534,0.725654661655426,0.1790834367275238,-0.2107647955417633,-0.02247338369488716,0.2212497442960739,XTrueNorthZVertical,-0.9376904324433341,0.04905195995164953,0.2315625323871973,0.2543803723465711,0.4592236578464508,0.4543429017066956,0.7633388638496399,39.03112411499023,3.422406196594238,25.25531387329102,2,192.168.1.8,10.83.46.32,4,0
2015-03-01 09:58:30.999,126,1425232710.073884,37.77935004330965,-122.4390314520546,60.90244,0,-1,16,30,-9999,1425232710.97725,33.47316360473633,3.3192138671875,24.6389274597168,141.2800598144531,127.5022583007812,10,177517.6454516667,0.440399169921875,0.323333740234375,0.908203125,177517.6469100833,-0.4087816452056037,-0.2200934861801815,0.1188246552010464,177517.5951334584,2.910873324879143,2.659773468368072,-0.4653961059965765,-0.286817193031311,1.056501746177673,-0.06241317093372345,0.04641805589199066,-0.1120153367519379,-0.04741401225328445,XTrueNorthZVertical,-0.9449997155903768,0.05411406808315635,0.2048357310660293,0.2491777489260649,0.414107471704483,0.4487768113613129,0.7919055819511414,38.56010818481445,3.186145782470703,25.99882507324219,2,192.168.1.8,10.83.46.32,4,0
2015-03-01 09:58:31.036,127,1425232710.073884,37.77935004330965,-122.4390314520546,60.90244,0,-1,16,30,-9999,1425232711.029011,32.6208610534668,3.115325927734375,25.67079925537109,140.0299682617188,126.2521591186523,10,177517.6944690417,0.2342529296875,0.3324127197265625,0.9572601318359375,177517.6469100833,-0.4087816452056037,-0.2200934861801815,0.1188246552010464,177517.6469100833,2.91406201294291,2.66758386063902,-0.4310076600508605,-0.4189510345458984,-0.2071719914674759,0.1544166803359985,0.02568754926323891,-0.09445277601480484,0.09982896596193314,XTrueNorthZVertical,-0.9491224330856535,0.05791101127596143,0.2042816529628937,0.2325552625956451,0.4147116243839264,0.4177865087985992,0.8083741664886475,36.90296936035156,2.760654449462891,28.34646034240723,2,192.168.1.8,10.83.46.32,4,0
2015-03-01 09:58:31.106,128,1425232710.073884,37.77935004330965,-122.4390314520546,60.90244,0,-1,16,30,-9999,1425232711.084858,31.80265045166016,2.673553466796875,26.13681411743164,138.441650390625,124.6638412475586,10,177517.7435091667,0.3444976806640625,0.297271728515625,0.904541015625,177517.750464875,-0.462535953912199,0.7058322310896959,-0.1711131600436622,177517.6986874167,2.926669651854795,2.694772150253955,-0.4030424038540159,-0.4840639233589172,0.5752502083778381,-0.01691767014563084,-0.1632241010665894,-0.05980605632066727,0.1276960819959641,XTrueNorthZVertical,-0.9546588883813758,0.05838178980083477,0.1948860723253478,0.2173416995868558,0.3974770307540894,0.3922187685966492,0.8295640349388123,36.74540328979492,1.077289581298828,28.66334342956543,2,192.168.1.8,10.83.46.32,4,0
2015-03-01 09:58:31.137,129,1425232711.094767,37.77935004330965,-122.4390314520546,60.90213,0,-1,16,30,-9999,1425232711.084858,31.80265045166016,2.673553466796875,26.13681411743164,138.441650390625,124.6638412475586,10,177517.792522875,0.3754730224609375,0.2994232177734375,0.9965362548828125,177517.750464875,-0.462535953912199,0.7058322310896959,-0.1711131600436622,177517.750464875,2.943562615675966,2.744162605352852,-0.3808494961643801,-0.4727432727813721,0.7187814116477966,-0.1355496197938919,-0.01481987442821264,-0.07443750649690628,0.04854847863316536,XTrueNorthZVertical,-0.9615795566497285,0.05797434462754405,0.1745496330644188,0.2038042671462275,0.3593175411224365,0.3717092275619507,0.8559925556182861,36.29554748535156,0.660313606262207,29.2432804107666,2,192.168.1.8,10.83.46.32,4,0
2015-03-01 09:58:31.207,130,1425232711.094767,37.77935004330965,-122.4390314520546,60.90213,0,-1,16,30,-9999,1425232711.156814,30.31964874267578,1.501220703125,26.81918334960938,136.0634002685547,122.2855987548828,10,177517.8415622083,0.2242889404296875,0.2884521484375,1.005828857421875,177517.8022414167,-0.4393020039301297,0.1330965354827811,-0.05639323503075489,177517.8022414167,2.95896191369836,2.766633364714466,-0.356119347134678,-0.4495218694210052,0.1460306644439697,-0.02077808603644371,0.03221708163619041,-0.04921648278832436,0.1243976205587387,XTrueNorthZVertical,-0.9659250970772039,0.05529941790618875,0.1668038614915859,0.1900188809532948,0.3432559370994568,0.3486396968364716,0.8721386194229126,34.79650115966797,-0.1416187286376953,31.01863288879395,2,192.168.1.8,10.83.46.32,6,0
2015-03-01 09:58:31.232,131,1425232711.094767,37.77935004330965,-122.4390314520546,60.90213,0,-1,16,30,-9999,1425232711.209254,29.9616813659668,0.66864013671875,27.16869735717773,135.9542846679688,122.1764755249023,10,177517.890577375,0.271331787109375,0.2671356201171875,0.9613189697265625,177517.8540188333,-0.2538834077749979,0.3334677158942718,-0.1082660204272093,177517.8540188333,2.971938148599727,2.794075372319668,-0.3353450815077926,-0.2641262114048004,0.3464199602603912,-0.07266863435506821,-0.09757975488901138,-0.05825154110789299,0.1117248982191086,XTrueNorthZVertical,-0.9700816433749135,0.05353065863579821,0.1559213549316628,0.1782263363280928,0.3215940296649933,0.3290950357913971,0.8878478407859802,34.16387939453125,-1.028207778930664,31.69770622253418,2,192.168.1.8,10.83.46.32,6,0
2015-03-01 09:58:31.303,132,1425232711.094767,37.77935004330965,-122.4390314520546,60.90213,0,-1,16,30,-9999,1425232711.260798,29.34803009033203,0.260894775390625,27.53486251831055,134.3726654052734,120.594856262207,10,177517.9396206667,0.239776611328125,0.2201385498046875,0.9333953857421875,177517.9057962917,-0.1848398912502576,0.2956348494486061,-0.0511673140236924,177517.9057962917,2.98041464872183,2.82254571333719,-0.3194912423162877,-0.1951022893190384,0.3086075186729431,-0.01558351889252663,-0.02511444501578808,-0.03384066745638847,0.0458122044801712,XTrueNorthZVertical,-0.9736030850767364,0.05328228503072829,0.1436736845661832,0.1691624228537695,0.2977890074253082,0.3140835762023926,0.901483952999115,33.85132217407227,-1.216671943664551,32.02467727661133,2,192.168.1.8,10.83.46.32,6,0
2015-03-01 09:58:31.330,133,1425232711.094767,37.77935004330965,-122.4390314520546,60.90213,0,-1,16,30,-9999,1425232711.311934,28.80255508422852,0.328887939453125,28.3337287902832,133.3266296386719,119.548828125,10,177517.9886404584,0.205841064453125,0.2502899169921875,0.9521331787109375,177517.9575728333,-0.1326123727966047,0.1950983877692428,-0.004687696150757475,177517.9575728333,2.984531148113961,2.84477372030394,-0.3022051295066928,-0.1429038196802139,0.2081023454666138,0.03087770007550716,-0.04889387264847755,-0.09399759024381638,0.03490953147411346,XTrueNorthZVertical,-0.9764712746771869,0.05451434561775929,0.1340507958243364,0.1598825884912257,0.2792252898216248,0.2976261377334595,0.9129359126091003,32.73242950439453,-1.877275466918945,33.13663101196289,2,192.168.1.8,10.83.46.32,6,0
2015-03-01 09:58:31.405,134,1425232711.094767,37.77935004330965,-122.4390314520546,60.90213,0,-1,16,30,-9999,1425232711.36482,28.10366439819336,0.27789306640625,28.91624450683594,132.2502593994141,118.4724578857422,10,177518.0376909584,0.1954803466796875,0.2433013916015625,0.978851318359375,177518.0093502083,-0.3612793734740783,0.2416784068152738,0.08751067447167675,177518.0093502083,2.988598041838273,2.86300241981879,-0.2827922108433015,-0.3715820610523224,0.2546921968460083,0.1230667307972908,-0.05864844098687172,-0.04087885841727257,0.03394348546862602,XTrueNorthZVertical,-0.9790590853978455,0.05541762398948284,0.126391866603465,0.1496573166250181,0.2640775144100189,0.2790380418300629,0.9232556223869324,29.02322006225586,1.162624359130859,28.68166923522949,2,192.168.1.8,10.83.46.32,6,0
2015-03-01 09:58:31.429,135,1425232711.094767,37.77935004330965,-122.4390314520546,60.90213,0,-1,16,30,-9999,1425232711.416342,28.05252838134766,-0.282806396484375,29.76506042480469,131.3161926269531,117.5383834838867,10,177518.0867223333,0.2732696533203125,0.21319580078125,1.018508911132812,177518.0611277084,-0.4534564388077919,-0.1372987373668171,0.1963231755545703,177518.0611277084,2.984921318281575,2.870049168707514,-0.2563353877729082,-0.4637682139873505,-0.1242769509553909,0.2318716496229172,-0.04335983842611313,0.006258753594011068,0.06547929346561432,XTrueNorthZVertical,-0.9810107691967686,0.05965181561770292,0.123922748415494,0.1367578376190552,0.2594548165798187,0.2535373866558075,0.9318809509277344,28.64234161376953,0.6645526885986328,29.07768630981445,2,192.168.1.8,10.83.46.32,6,0
2015-03-01 09:58:31.503,136,1425232711.094767,37.77935004330965,-122.4390314520546,60.90213,0,-1,16,30,-9999,1425232711.467541,28.08662033081055,-1.47222900390625,29.49877548217773,132.0135345458984,118.235725402832,10,177518.1357735833,0.22650146484375,0.2245635986328125,1.008163452148438,177518.1129042917,-0.2919018965486421,0.136756251452768,0.01664235996801417,177518.1129042917,2.98372487184146,2.873629343343607,-0.2320200294850986,-0.302224189043045,0.1497894525527954,0.052186019718647,0.007814429700374603,-0.0420624203979969,0.05397452786564827,XTrueNorthZVertical,-0.9825307031532606,0.06220613582848299,0.1232248412033813,0.124817765756573,0.2576732337474823,0.2299438863992691,0.9384723901748657,28.43632507324219,-0.7722921371459961,29.27654647827148,2,192.168.1.8,10.83.46.32,6,0
2015-03-01 09:58:31.526,137,1425232711.094767,37.77935004330965,-122.4390314520546,60.90213,0,-1,16,30,-9999,1425232711.519777,28.51277160644531,-2.13482666015625,29.24912261962891,131.5785064697266,117.8007049560547,10,177518.1847829584,0.214935302734375,0.1797637939453125,1.014617919921875,177518.1646816667,-0.1801255634885993,-0.07693020177690094,-0.09681496037208658,177518.1646816667,2.990611564679844,2.878034718902574,-0.2185554387023338,-0.1904536187648773,-0.06389173865318298,-0.06127640604972839,-0.04068170487880707,-0.0205916240811348,0.07153575122356415,XTrueNorthZVertical,-0.983690818459707,0.06002951171187537,0.1220882357549103,0.1176576228026592,0.2543200254440308,0.2168196588754654,0.9425023198127747,28.33354568481445,-1.3102126121521,29.35695266723633,2,192.168.1.8,10.83.46.32,6,0
2015-03-01 09:58:31.609,138,1425232711.094767,37.77935004330965,-122.4390314520546,60.90213,0,-1,16,30,-9999,1425232711.572156,28.80255508422852,-2.491607666015625,29.19918823242188,130.9168090820312,117.1390075683594,10,177518.2338074167,0.2153778076171875,0.1623992919921875,0.998748779296875,177518.216459125,-0.07138283722626589,0.0195539939877978,-0.04929404651293066,177518.216459125,2.995065715754025,2.882401981267723,-0.2105698573570437,-0.08171931654214859,0.0326007641851902,-0.01376115996390581,-0.0165521427989006,-0.04721300303936005,0.06763089448213577,XTrueNorthZVertical,-0.9844721455623591,0.05863748788132463,0.1205446202338609,0.1133369148649277,0.2506372332572937,0.20901720225811,0.9452475309371948,28.29604530334473,-1.466265201568604,29.38572883605957,2,192.168.1.8,10.83.46.32,6,0
2015-03-01 09:58:31.625,139,1425232711.094767,37.77935004330965,-122.4390314520546,60.90213,0,-1,16,30,-9999,1425232711.572156,28.80255508422852,-2.491607666015625,29.19918823242188,130.9168090820312,117.1390075683594,10,177518.2828304167,0.208984375,0.1668548583984375,0.9799652099609375,177518.2682357084,0.00997833197230889,-0.02546727687220974,-0.004268248279069995,177518.216459125,2.995065715754025,2.882401981267723,-0.2105698573570437,-0.08171931654214859,0.0326007641851902,-0.01376115996390581,-0.0165521427989006,-0.04721300303936005,0.06763089448213577,XTrueNorthZVertical,-0.9844721455623591,0.05863748788132463,0.1205446202338609,0.1133369148649277,0.2506372332572937,0.20901720225811,0.9452475309371948,28.29604530334473,-1.466265201568604,29.38572883605957,2,192.168.1.8,10.83.46.32,6,0
2015-03-01 09:58:31.708,140,1425232711.094767,37.77935004330965,-122.4390314520546,60.90213,0,-1,16,30,-9999,1425232711.675702,28.08662033081055,-3.71502685546875,29.46548080444336,132.3455657958984,118.5677642822266,10,177518.331880625,0.23333740234375,0.154449462890625,0.983428955078125,177518.3200131667,-0.06275526055884519,0.02300012443836033,0.0362277792566749,177518.3200131667,2.993823969866545,2.889741906503403,-0.198670801417931,-0.07311277836561203,0.03606805205345154,0.0717490017414093,-0.01806819625198841,-0.03798840194940567,0.02584699913859367,XTrueNorthZVertical,-0.985417364791718,0.06045030607987851,0.1173701113289769,0.1073436385634102,0.2442950010299683,0.1973664462566376,0.9494032263755798,28.04049110412598,-1.936056613922119,29.60269737243652,2,192.168.1.8,10.83.46.32,6,0
2015-03-01 09:58:31.722,141,1425232711.094767,37.77935004330965,-122.4390314520546,60.90213,0,-1,16,30,-9999,1425232711.675702,28.08662033081055,-3.71502685546875,29.46548080444336,132.3455657958984,118.5677642822266,10,177518.3808959167,0.2077178955078125,0.1801605224609375,0.995819091796875,177518.3717905833,-0.08579826189075579,-0.0272808895745537,0.009404420757396814,177518.3200131667,2.993823969866545,2.889741906503403,-0.198670801417931,-0.07311277836561203,0.03606805205345154,0.0717490017414093,-0.01806819625198841,-0.03798840194940567,0.02584699913859367,XTrueNorthZVertical,-0.985417364791718,0.06045030607987851,0.1173701113289769,0.1073436385634102,0.2442950010299683,0.1973664462566376,0.9494032263755798,28.04049110412598,-1.936056613922119,29.60269737243652,2,192.168.1.8,10.83.46.32,6,0
2015-03-01 09:58:31.795,142,1425232711.094767,37.77935004330965,-122.4390314520546,60.90213,0,-1,16,30,-9999,1425232711.7789,28.66618728637695,-3.884918212890625,29.29905319213867,131.6562347412109,117.8784255981445,10,177518.429925375,0.2216033935546875,0.1658477783203125,0.99432373046875,177518.4235671667,-0.05767208498621094,-0.009090966697094487,-0.007006776827998475,177518.3717905833,2.99306554800985,2.89774752235256,-0.1857733210756575,-0.09617725014686584,-0.01419135183095932,0.04491553455591202,-0.02326180227100849,-0.004164611455053091,0.03739982098340988,XTrueNorthZVertical,-0.9864107526508153,0.06207745035199116,0.1139319013058764,0.1007956407246321,0.2372815757989883,0.1847065985202789,0.9537195563316345,27.90675735473633,-2.210967540740967,29.70961952209473,2,192.168.1.8,10.83.46.32,6,0
2015-03-01 09:58:31.820,143,1425232711.094767,37.77935004330965,-122.4390314520546,60.90213,0,-1,16,30,-9999,1425232711.7789,28.66618728637695,-3.884918212890625,29.29905319213867,131.6562347412109,117.8784255981445,10,177518.47893975,0.238037109375,0.162933349609375,0.9870452880859375,177518.4753447917,-0.05380863719283299,-0.04240258456013262,-0.04898485351037247,177518.4235671667,2.992954562767752,2.902589473046786,-0.1784969004615699,-0.06806142628192902,0.004009583964943886,0.02849613316357136,-0.01162896677851677,-0.01025319378823042,0.04029164835810661,XTrueNorthZVertical,-0.9869757547190475,0.06283118523706584,0.1118443456524507,0.09706681315290193,0.2329729646444321,0.1775505542755127,0.9561377763748169,27.60298919677734,-2.734009742736816,29.94891166687012,2,192.168.1.8,10.83.46.32,6,0
2015-03-01 09:58:31.906,144,1425232711.094767,37.77935004330965,-122.4390314520546,60.90213,0,-1,16,30,-9999,1425232711.884509,28.54687118530273,-3.46014404296875,29.0161247253418,130.630615234375,116.8528060913086,10,177518.527988625,0.2190399169921875,0.1939544677734375,1.041534423828125,177518.5271220834,0.104694721405413,-0.05981992440535985,-0.1075437711395798,177518.4753447917,2.993789366275113,2.904259120161257,-0.1731552554518624,-0.06420470774173737,-0.02929539419710636,-0.01348510850220919,0.002534954575821757,-0.002369398484006524,0.02988632395863533,XTrueNorthZVertical,-0.9873039119033197,0.06283149315856169,0.1112835819483693,0.09433544142166654,0.231595903635025,0.1722912788391113,0.9574336409568787,27.49821472167969,-2.937366008758545,30.02594184875488,2,192.168.1.8,10.83.46.32,6,0
2015-03-01 09:58:31.918,145,1425232711.094767,37.77935004330965,-122.4390314520546,60.90213,0,-1,16,30,-9999,1425232711.884509,28.54687118530273,-3.46014404296875,29.0161247253418,130.630615234375,116.8528060913086,10,177518.5770105,0.21246337890625,0.175994873046875,1.01812744140625,177518.5271220834,0.104694721405413,-0.05981992440535985,-0.1075437711395798,177518.5271220834,2.997699368301238,2.906317699033426,-0.1721562637303234,0.09429214149713516,-0.04670530930161476,-0.07204870134592056,-0.02081742510199547,0.009738397784531116,0.07889679819345474,XTrueNorthZVertical,-0.9875775303720485,0.06105936524640596,0.1104919568207123,0.09356241237533719,0.2296644747257233,0.1713071316480637,0.958075225353241,27.51445007324219,-3.013917922973633,30.00347518920898,2,192.168.1.8,10.83.46.32,6,0
2015-03-01 09:58:31.993,146,1425232711.094767,37.77935004330965,-122.4390314520546,60.90213,0,-1,16,30,-9999,1425232711.985437,28.10366439819336,-2.57666015625,29.58198928833008,128.4123992919922,114.6345901489258,10,177518.6260498333,0.2531585693359375,0.2716217041015625,1.066864013671875,177518.6306760834,0.6309460054494308,0.2318135255054022,-0.2161533393474093,177518.5788987083,3.001138162773628,2.911003906945673,-0.1868330507055233,0.3650197684764862,0.05148905888199806,-0.224247470498085,-0.01210998464375734,-0.009753121994435787,0.06153736636042595,XTrueNorthZVertical,-0.9873448748938215,0.0586952800272267,0.1077531935150963,0.1004700628164398,0.2245733588933945,0.1857479959726334,0.9565900564193726,27.40896415710449,-2.589818000793457,30.13932228088379,2,192.168.1.8,10.83.46.32,6,0
2015-03-01 09:58:32.016,147,1425232711.094767,37.77935004330965,-122.4390314520546,60.90213,0,-1,16,30,-9999,1425232711.985437,28.10366439819336,-2.57666015625,29.58198928833008,128.4123992919922,114.6345901489258,10,177518.6750764167,0.2108154296875,0.20703125,0.9816741943359375,177518.6306760834,0.6309460054494308,0.2318135255054022,-0.2161533393474093,177518.6306760834,3.007861710106639,2.917308849682459,-0.2147496800942407,0.6205434799194336,0.2449294924736023,-0.1806614696979523,0.03585916385054588,0.05851883813738823,0.1143052354454994,XTrueNorthZVertical,-0.986589205400785,0.0540474647238738,0.1038983201261262,0.113691567541969,0.2172994017601013,0.213102862238884,0.9525587558746338,27.34589767456055,-1.713025093078613,30.25895881652832,2,192.168.1.8,10.83.46.32,6,0
