loggingTime,loggingSample,locationTimestamp_since1970,locationLatitude,locationLongitude,locationAltitude,locationSpeed,locationCourse,locationVerticalAccuracy,locationHorizontalAccuracy,locationFloor,locationHeadingTimestamp_since1970,locationHeadingX,locationHeadingY,locationHeadingZ,locationTrueHeading,locationMagneticHeading,locationHeadingAccuracy,accelerometerTimestamp_sinceReboot,accelerometerAccelerationX,accelerometerAccelerationY,accelerometerAccelerationZ,gyroTimestamp_sinceReboot,gyroRotationX,gyroRotationY,gyroRotationZ,motionTimestamp_sinceReboot,motionYaw,motionRoll,motionPitch,motionRotationRateX,motionRotationRateY,motionRotationRateZ,motionUserAccelerationX,motionUserAccelerationY,motionUserAccelerationZ,motionAttitudeReferenceFrame,motionQuaternionX,motionQuaternionY,motionQuaternionZ,motionQuaternionW,motionGravityX,motionGravityY,motionGravityZ,motionMagneticFieldX,motionMagneticFieldY,motionMagneticFieldZ,motionMagneticFieldCalibrationAccuracy,IP_en0,IP_pdp_ip0,deviceOrientation,state
2015-02-21 11:25:32.334,1,1424543129.130933,39.63860292679779,-106.37014190616,2514.66,-1,-1,10,65,-9999,1424543132.331144,-29.7734375,-18.919189453125,-25.84811401367188,108.7958679199219,99.6693115234375,10,14544.83932641667,-0.41558837890625,-0.4406585693359375,-0.7979736328125,14544.81196341667,-0.05826943201871572,0.07954595859957676,-0.09609084687169403,14544.80160795833,3.126936519858552,-0.4899922858712535,0.4578070708489501,-0.04721758142113686,0.002824195427820086,-0.04455592855811119,-0.03131938353180885,0.002986700041219592,0.00496264360845089,XTrueNorthZVertical,0.2378325767692419,0.2183968922023706,0.9444043243431398,0.06195981013399453,-0.4221565723419189,-0.4419820606708527,-0.7914769053459167,-28.74189186096191,-19.10211372375488,-24.95818519592285,2,0.0.0.0,10.97.20.126,5,0
2015-02-21 11:25:32.358,2,1424543129.130933,39.63860292679779,-106.37014190616,2514.66,-1,-1,10,65,-9999,1424543132.331144,-29.7734375,-18.919189453125,-25.84811401367188,108.7958679199219,99.6693115234375,10,14544.88840775,-0.366302490234375,-0.43017578125,-0.7747650146484375,14544.863741875,-0.06159145916248056,0.2254427115457147,-0.04716990922748347,14544.853386375,3.122546307666574,-0.4791500895000019,0.4552524388286809,-0.06574644148349762,0.2289180904626846,-0.008650449104607105,-0.003563287435099483,-0.003548248903825879,0.01571099460124969,XTrueNorthZVertical,0.2332460459654782,0.2170089771309461,0.9458276530784977,0.06255812948199645,-0.4140697717666626,-0.4396890699863434,-0.7970067858695984,-28.62321662902832,-19.08053207397461,-25.1106128692627,2,0.0.0.0,10.97.20.126,5,0
2015-02-21 11:25:32.416,3,1424543129.130933,39.63860292679779,-106.37014190616,2514.66,-1,-1,10,65,-9999,1424543132.382561,-29.85867309570312,-18.93617248535156,-26.39749908447266,108.6380310058594,99.511474609375,10,14544.93765166667,-0.3741912841796875,-0.4231109619140625,-0.781524658203125,14544.91552033333,-0.01998808924548071,0.05055718381795525,-0.04527613537632812,14544.90516433334,3.119520568536752,-0.4687764246607889,0.4537671092035103,-0.05003422498703003,0.07007355988025665,-0.01078697852790356,0.03163894265890121,0.005950958002358675,0.02541275508701801,XTrueNorthZVertical,0.2286967043949408,0.2162806713143148,0.947095305536007,0.06269811681856662,-0.4060743749141693,-0.4383545219898224,-0.8018409609794617,-28.26045799255371,-19.04582977294922,-25.54409980773926,2,0.0.0.0,10.97.20.126,5,0
2015-02-21 11:25:32.456,4,1424543129.130933,39.63860292679779,-106.37014190616,2514.66,-1,-1,10,65,-9999,1424543132.435772,-29.7734375,-18.88522338867188,-26.41414642333984,108.5672149658203,99.44065856933594,10,14544.98663670833,-0.3890380859375,-0.4368743896484375,-0.7920074462890625,14544.96729829167,0.030920898152474,-0.03750369973493187,-0.0211268569275986,14544.95694291667,3.118872916703482,-0.4649968611858565,0.4536836551044792,0.00313851167447865,0.01243340130895376,0.004027783870697021,0.0348169133067131,0.02174508757889271,0.01134950295090675,XTrueNorthZVertical,0.2269782703608161,0.2162856953058581,0.9475148189864094,0.06258684843830881,-0.4030572772026062,-0.4382795095443726,-0.8034027218818665,-28.15069770812988,-19.04062652587891,-25.66886901855469,2,0.0.0.0,10.97.20.126,5,0
2015-02-21 11:25:32.514,5,1424543129.130933,39.63860292679779,-106.37014190616,2514.66,-1,-1,10,65,-9999,1424543132.487343,-29.65409851074219,-18.76631164550781,-26.69715881347656,108.0620193481445,98.93546295166016,10,14545.03577279167,-0.4013214111328125,-0.4314117431640625,-0.7828369140625,14545.01907675,0.04003609961548821,-0.1213043244920192,-0.01413446116948655,14545.00872125,3.119659074632139,-0.4677719804903715,0.4541708033477908,0.03332596644759178,-0.09828132390975952,0.007960526272654533,0.02213229425251484,0.006008587311953306,0.006115703843533993,XTrueNorthZVertical,0.2281976139284785,0.2165193557158749,0.947169690670504,0.06256898336306552,-0.4051889479160309,-0.4387173354625702,-0.8020904064178467,-28.17359161376953,-19.03830146789551,-25.64546585083008,2,0.0.0.0,10.97.20.126,5,0
2015-02-21 11:25:32.554,6,1424543129.130933,39.63860292679779,-106.37014190616,2514.66,-1,-1,10,65,-9999,1424543132.53871,-29.62000274658203,-18.63040161132812,-26.33090972900391,107.8441848754883,98.71762847900391,10,14545.08486770833,-0.3818511962890625,-0.4339141845703125,-0.7882232666015625,14545.07085541667,0.02742017289956485,-0.06878385831845756,-0.03378645948539926,14545.06049941667,3.120733949930443,-0.4716386550901398,0.4547881493170665,0.01210933923721313,-0.04348869621753693,0.002943672938272357,0.01660840213298798,-0.009214321151375771,0.008177286945283413,XTrueNorthZVertical,0.2298988540600068,0.2168141465613375,0.9466921078729745,0.06254821060600406,-0.4081641733646393,-0.43927201628685,-0.8002762794494629,-28.30477142333984,-19.04453277587891,-25.49595642089844,2,0.0.0.0,10.97.20.126,5,0
2015-02-21 11:25:32.614,7,1424543129.130933,39.63860292679779,-106.37014190616,2514.66,-1,-1,10,65,-9999,1424543132.590583,-29.79048919677734,-18.73233032226562,-26.33090972900391,107.842041015625,98.71548461914062,10,14545.13401941667,-0.295501708984375,-0.3793182373046875,-0.8102264404296875,14545.12263320833,0.06330227384674746,-0.3105038104467366,-0.01673929903169305,14545.11227770833,3.121689002507849,-0.4750088320281395,0.4564228740186281,0.05853646621108055,-0.199692577123642,0.04838721454143524,0.0443648137152195,0.02512108348309994,-0.002967252396047115,XTrueNorthZVertical,0.2313545498201107,0.2175932466938491,0.9461520343024372,0.06264712493272877,-0.4105299711227417,-0.4407399892807007,-0.798256516456604,-28.32834625244141,-19.11114311218262,-25.41981887817383,2,0.0.0.0,10.97.20.126,5,0
2015-02-21 11:25:32.652,8,1424543129.130933,39.63860292679779,-106.37014190616,2514.66,-1,-1,10,65,-9999,1424543132.644289,-29.97801971435547,-18.61341857910156,-25.74824523925781,108.0727844238281,98.94622802734375,10,14545.18322070833,-0.3686981201171875,-0.4477996826171875,-0.75701904296875,14545.17441179167,-0.1084601648706761,-1.909866534674368,0.2991662010540512,14545.16405629167,3.125629564172896,-0.516820108738417,0.4561778108610316,-0.03349147737026215,-1.590672492980957,0.2352887243032455,0.2260769009590149,0.02393979020416737,0.01598184555768967,XTrueNorthZVertical,0.2506620931448106,0.2166149534144236,0.9412666009781403,0.06529736523628578,-0.4435909390449524,-0.4405199885368347,-0.7804929614067078,-28.72795486450195,-19.11555099487305,-24.96394157409668,2,0.0.0.0,10.97.20.126,5,0
2015-02-21 11:25:32.712,9,1424543129.130933,39.63860292679779,-106.37014190616,2514.66,-1,-1,10,65,-9999,1424543132.644289,-29.97801971435547,-18.61341857910156,-25.74824523925781,108.0727844238281,98.94622802734375,10,14545.23226966667,-0.3182373046875,-0.467376708984375,-0.721588134765625,14545.22619016667,0.03102076669335197,-2.680261780070855,-0.2663294248133742,14545.21583416667,3.133560395393933,-0.6337793898858256,0.4445752280636706,-0.007222214713692665,-2.696628093719482,-0.04019490256905556,0.1035836935043335,0.03821347653865814,-0.006465920712798834,XTrueNorthZVertical,0.3047844648236374,0.2082621973207543,0.9265466374261909,0.07242029307958117,-0.534629225730896,-0.4300744235515594,-0.7274665832519531,-31.6533203125,-18.5474967956543,-21.63228607177734,2,0.0.0.0,10.97.20.126,5,0
2015-02-21 11:25:32.751,10,1424543129.130933,39.63860292679779,-106.37014190616,2514.66,-1,-1,10,65,-9999,1424543132.72184,-32.48422241210938,-18.0528564453125,-22.13565063476562,109.2937469482422,100.1671905517578,10,14545.28136425,-0.2863922119140625,-0.44476318359375,-0.623321533203125,14545.22619016667,0.03102076669335197,-2.680261780070855,-0.2663294248133742,14545.21583416667,3.133560395393933,-0.6337793898858256,0.4445752280636706,-0.007222214713692665,-2.696628093719482,-0.04019490256905556,0.1035836935043335,0.03821347653865814,-0.006465920712798834,XTrueNorthZVertical,0.3047844648236374,0.2082621973207543,0.9265466374261909,0.07242029307958117,-0.534629225730896,-0.4300744235515594,-0.7274665832519531,-31.6533203125,-18.5474967956543,-21.63228607177734,2,0.0.0.0,10.97.20.126,5,0
2015-02-21 11:25:32.810,11,1424543129.130933,39.63860292679779,-106.37014190616,2514.66,-1,-1,10,65,-9999,1424543132.797931,-35.19501495361328,-19.08901977539062,-15.19343566894531,113.5213623046875,104.3948059082031,10,14545.330617,-0.7670135498046875,-0.483856201171875,-0.42303466796875,14545.32974658333,-0.6237799715882456,-3.142253117540133,-1.212487975832911,14545.31939108333,3.058898695364866,-0.9024844553361608,0.4908512095108084,-0.6294897794723511,-3.473721504211426,-1.158269882202148,0.1470654457807541,-0.1002785041928291,-0.03334958851337433,XTrueNorthZVertical,0.4316924446229146,0.2009771256093692,0.8678138178823945,0.1419474858385468,-0.6922009587287903,-0.4713767766952515,-0.5464996695518494,-35.08779525756836,-20.35523414611816,-12.97725582122803,2,0.0.0.0,10.97.20.126,5,0
2015-02-21 11:25:32.849,12,1424543129.130933,39.63860292679779,-106.37014190616,2514.66,-1,-1,10,65,-9999,1424543132.797931,-35.19501495361328,-19.08901977539062,-15.19343566894531,113.5213623046875,104.3948059082031,10,14545.3797035,-0.5663604736328125,-0.52984619140625,-0.392913818359375,14545.38152520834,-0.4976460044593677,-0.971989349380542,-2.137204617967892,14545.31939108333,3.058898695364866,-0.9024844553361608,0.4908512095108084,-0.6294897794723511,-3.473721504211426,-1.158269882202148,0.1470654457807541,-0.1002785041928291,-0.03334958851337433,XTrueNorthZVertical,0.4316924446229146,0.2009771256093692,0.8678138178823945,0.1419474858385468,-0.6922009587287903,-0.4713767766952515,-0.5464996695518494,-35.08779525756836,-20.35523414611816,-12.97725582122803,2,0.0.0.0,10.97.20.126,5,0
2015-02-21 11:25:32.908,13,1424543129.130933,39.63860292679779,-106.37014190616,2514.66,-1,-1,10,65,-9999,1424543132.900545,-34.34256744384766,-23.70951843261719,-8.367774963378906,127.3215789794922,118.1950225830078,10,14545.42874175,-0.495697021484375,-0.5621337890625,-0.4045257568359375,14545.38152520834,-0.4976460044593677,-0.971989349380542,-2.137204617967892,14545.37116920833,2.98091404608091,-0.9775562437243015,0.5357782062630081,-0.5271193981170654,-1.222586035728455,-1.971227049827576,0.08778069168329239,0.00649728998541832,0.1144396364688873,XTrueNorthZVertical,0.4700943136006073,0.1966101039968529,0.838694938491604,0.1922152087674116,-0.7129485607147217,-0.5105103254318237,-0.4807116091251373,-35.09246444702148,-22.8624153137207,-7.72833251953125,2,0.0.0.0,10.97.20.126,5,0
2015-02-21 11:25:32.947,14,1424543129.130933,39.63860292679779,-106.37014190616,2514.66,-1,-1,10,65,-9999,1424543132.900545,-34.34256744384766,-23.70951843261719,-8.367774963378906,127.3215789794922,118.1950225830078,10,14545.4779375,-0.493377685546875,-0.8183135986328125,-0.3288421630859375,14545.43330316667,-0.7432821349706082,-1.823360937198087,-2.659599378437366,14545.42294754167,2.873156640386129,-0.973724146474659,0.6154489906950771,-0.7170934677124023,-1.546014308929443,-2.576772928237915,0.1562328934669495,0.03356298059225082,0.01065363362431526,XTrueNorthZVertical,0.477689323863225,0.2056236272484235,0.8157506931957166,0.253145656374386,-0.6752453446388245,-0.577325165271759,-0.4590636789798737,-33.04095840454102,-26.01939010620117,-6.72197151184082,2,0.0.0.0,10.97.20.126,5,0
2015-02-21 11:25:33.005,15,1424543129.130933,39.63860292679779,-106.37014190616,2514.66,-1,-1,10,65,-9999,1424543132.95253,-31.25670623779297,-26.71621704101562,-6.8861083984375,136.456787109375,127.3302307128906,10,14545.52699158333,-0.724090576171875,-0.966552734375,-0.2116546630859375,14545.53686016667,-1.670675254001119,-2.849999950043709,-3.145766093334057,14545.47472616667,2.72925654873322,-0.9984753620389236,0.7044445076248976,-1.180891394615173,-2.858042240142822,-2.967272758483887,0.1308286041021347,-0.1015501096844673,0.06832693517208099,XTrueNorthZVertical,0.5018507751239069,0.2044744112845554,0.7727872178380235,0.33035740280755,-0.6405484676361084,-0.6476106643676758,-0.4126720428466797,-30.24994087219238,-29.53840637207031,-5.130490303039551,2,0.0.0.0,10.97.20.126,5,0
2015-02-21 11:25:33.045,16,1424543129.130933,39.63860292679779,-106.37014190616,2514.66,-1,-1,10,65,-9999,1424543133.006341,-26.9774169921875,-30.16458129882812,-5.237960815429688,149.5810546875,140.4544982910156,10,14545.57607833333,-0.6381378173828125,-0.9230804443359375,-0.28167724609375,14545.53686016667,-1.670675254001119,-2.849999950043709,-3.145766093334057,14545.52650416667,2.534472000837987,-1.025313174642789,0.7928273446811243,-1.637519836425781,-3.100886106491089,-2.99579644203186,-0.05475769191980362,-0.2716836035251617,0.1334358155727386,XTrueNorthZVertical,0.5323491232911239,0.1858431709076432,0.7105002375482193,0.4210180782440375,-0.5999816656112671,-0.7123404145240784,-0.3641334474086761,-25.24875640869141,-34.19641876220703,-2.646437644958496,2,0.0.0.0,10.97.20.126,5,0
2015-02-21 11:25:33.104,17,1424543129.130933,39.63860292679779,-106.37014190616,2514.66,-1,-1,10,65,-9999,1424543133.081763,-19.68045806884766,-34.68312072753906,-4.438865661621094,173.1040344238281,163.9774780273438,10,14545.62522595833,-0.6065521240234375,-0.894561767578125,-0.31573486328125,14545.58863791667,-1.597539790461472,-1.114899899796374,-2.705308277490832,14545.57828258333,2.303580026989502,-0.9652603972326221,0.8792975911679908,-1.641528129577637,-1.432092666625977,-2.847097158432007,-0.1138288974761963,-0.152789294719696,0.0812990739941597,XTrueNorthZVertical,0.5370297602077873,0.1735248544899601,0.6518347229766703,0.5065567475155643,-0.5243089199066162,-0.7702911496162415,-0.3629763126373291,-20.49015426635742,-37.24742889404297,-2.584711074829102,2,0.0.0.0,10.97.20.126,5,0
2015-02-21 11:25:33.143,18,1424543129.130933,39.63860292679779,-106.37014190616,2514.66,-1,-1,10,65,-9999,1424543133.134035,-15.14542388916016,-36.85748291015625,-5.5709228515625,184.0049285888672,174.8783721923828,10,14545.67435870833,-0.5439605712890625,-0.999298095703125,-0.3453216552734375,14545.64041641667,-1.40869610282839,0.3727416188057793,-2.312632631609701,14545.63006095833,2.075065843411569,-0.8092406674651582,0.9296711299665846,-1.493134260177612,0.2488327175378799,-2.39317512512207,-0.1736709177494049,-0.09313847869634628,0.09698135405778885,XTrueNorthZVertical,0.5125177999964036,0.1759755525047702,0.6179129037491987,0.5696857344132253,-0.4328812062740326,-0.8014233112335205,-0.4127162098884583,-15.93786907196045,-39.24216461181641,-4.464886665344238,2,0.0.0.0,10.97.20.126,5,0
2015-02-21 11:25:33.204,19,1424543129.130933,39.63860292679779,-106.37014190616,2514.66,-1,-1,10,65,-9999,1424543133.185897,-11.25825500488281,-37.9786376953125,-8.334480285644531,191.3084869384766,182.1819305419922,10,14545.72356479167,-0.293853759765625,-0.82342529296875,-0.3907928466796875,14545.69219508333,-1.297270774400019,0.4757020897093328,-1.824924745390182,14545.68183908333,1.862431479857592,-0.6184736621010758,0.946203268735006,-1.400363802909851,0.3926955163478851,-1.875886201858521,-0.2049170434474945,-0.1880969405174255,0.131125882267952,XTrueNorthZVertical,0.4764169661254974,0.1865558957250367,0.5975723029937205,0.6173582411039814,-0.339043527841568,-0.8112011551856995,-0.4764475524425507,-10.4072322845459,-40.493408203125,-8.116133689880371,2,0.0.0.0,10.97.20.126,5,0
2015-02-21 11:25:33.242,20,1424543129.130933,39.63860292679779,-106.37014190616,2514.66,-1,-1,10,65,-9999,1424543133.23786,-7.149452209472656,-38.36933898925781,-10.08251190185547,195.4127044677734,186.2861480712891,10,14545.772554625,-0.293060302734375,-0.91534423828125,-0.4018096923828125,14545.74397304167,-0.5413969474794075,0.8095096249586987,-1.576610540086758,14545.73361754167,1.691408510645299,-0.4427466891802655,0.9460606459469991,-0.674095630645752,0.9473680853843689,-1.631869912147522,0.008405030705034733,-0.0610593818128109,0.08430422097444534,XTrueNorthZVertical,0.4410623287935009,0.203027671931674,0.5836527877188166,0.6508404512194421,-0.2505772709846497,-0.8111177682876587,-0.5284875631332397,-6.904670715332031,-40.68593978881836,-10.52985572814941,2,0.0.0.0,10.97.20.126,5,0
2015-02-21 11:25:33.300,21,1424543129.130933,39.63860292679779,-106.37014190616,2514.66,-1,-1,10,65,-9999,1424543133.289565,-3.910148620605469,-38.47125244140625,-11.81390380859375,199.0904693603516,189.9639129638672,10,14545.82171325,-0.2741241455078125,-0.8671417236328125,-0.3894500732421875,14545.795751375,-0.388121640417096,0.2892352733491457,-1.166208361357841,14545.78539608333,1.567688621597822,-0.3120444012456149,0.9468351878539847,-0.4700295627117157,0.3605117201805115,-1.17584240436554,-0.1262187361717224,-0.04803336411714554,0.1428469270467758,XTrueNorthZVertical,0.4166105020248269,0.2200360255832159,0.5705504758587161,0.6726753113886158,-0.1793690323829651,-0.8115705251693726,-0.5560396909713745,-3.713572025299072,-40.74678802490234,-11.82398509979248,2,0.0.0.0,10.97.20.126,5,0
2015-02-21 11:25:33.340,22,1424543129.130933,39.63860292679779,-106.37014190616,2514.66,-1,-1,10,65,-9999,1424543133.289565,-3.910148620605469,-38.47125244140625,-11.81390380859375,199.0904693603516,189.9639129638672,10,14545.87091295833,-0.2051239013671875,-0.9435272216796875,-0.5247955322265625,14545.84753,-0.08932162401293063,0.6612383975846461,-0.8617706992420866,14545.837174,1.479958313159084,-0.2209691591034,0.9466852479436064,-0.1457656621932983,0.5888116359710693,-0.8396890759468079,-0.1712660789489746,-0.08490991592407227,0.149894580245018,XTrueNorthZVertical,0.4007659084557109,0.2330300119934418,0.5593580092141145,0.6871698484830676,-0.1280808448791504,-0.8114829063415527,-0.5701674222946167,-0.7872719764709473,-40.62292098999023,-12.76935005187988,2,0.0.0.0,10.97.20.126,1,0
2015-02-21 11:25:33.402,23,1424543129.130933,39.63860292679779,-106.37014190616,2514.66,-1,-1,10,65,-9999,1424543133.393179,0.2498016357421875,-38.70907592773438,-13.04586029052734,203.4017791748047,194.2752227783203,10,14545.91996004167,-0.590240478515625,-0.9403076171875,-0.3468475341796875,14545.89930783334,-0.007942079002834303,1.492164365081435,-0.02420041114165905,14545.88895258333,1.421821694440443,-0.135766798591466,0.9481196095132031,-0.09263177216053009,0.9864541888237,-0.3336286544799805,-0.105144277215004,-0.161068394780159,0.02065490931272507,XTrueNorthZVertical,0.3845063925691201,0.2514605518714081,0.5557638588984092,0.6928557144706048,-0.07893775403499603,-0.8123202919960022,-0.5778448581695557,1.032302856445312,-40.55666351318359,-12.96108150482178,2,0.0.0.0,10.97.20.126,1,0
2015-02-21 11:25:33.438,24,1424543129.130933,39.63860292679779,-106.37014190616,2514.66,-1,-1,10,65,-9999,1424543133.393179,0.2498016357421875,-38.70907592773438,-13.04586029052734,203.4017791748047,194.2752227783203,10,14545.969067125,-0.1735687255859375,-1.192474365234375,-0.4017486572265625,14545.95108654167,0.10371840654979,3.333167679236861,0.2080155180044542,14545.94073091667,1.446740177282769,-0.04341340706878463,0.9614959055605516,0.3916122317314148,2.994745969772339,0.3132554590702057,-0.4465370774269104,-0.1941726058721542,0.5367968678474426,XTrueNorthZVertical,0.3592939938831052,0.2915998127238109,0.5792240591846266,0.6711012944756287,-0.024837426841259,-0.8200485706329346,-0.5717547535896301,1.992205619812012,-40.60673522949219,-12.68945026397705,2,0.0.0.0,10.97.20.126,1,0
2015-02-21 11:25:33.500,25,1424543129.130933,39.63860292679779,-106.37014190616,2514.66,-1,-1,10,65,-9999,1424543133.445383,2.193378448486328,-38.40330505371094,-12.37992858886719,203.1090698242188,193.9825134277344,10,14546.018231625,0.3251800537109375,-0.6387176513671875,-0.3196563720703125,14546.00286483333,-0.02217081607490966,3.760292379082604,-0.5401367396515819,14545.99250883333,1.464867764626164,0.1256286970486492,0.953412470961974,-0.113890528678894,3.86800479888916,-0.1592468917369843,-0.2498429268598557,-0.2160068452358246,0.02237028628587723,XTrueNorthZVertical,0.3032130547447491,0.3476938063059273,0.6143760358768789,0.6400882986239332,0.07253580540418625,-0.815395712852478,-0.5743417143821716,3.687442779541016,-40.6899528503418,-12.02615928649902,2,0.0.0.0,10.97.20.126,1,0
2015-02-21 11:25:33.537,26,1424543129.130933,39.63860292679779,-106.37014190616,2514.66,-1,-1,10,65,-9999,1424543133.497964,4.000572204589844,-38.3353271484375,-11.747314453125,199.1993408203125,190.0727844238281,10,14546.06743404167,0.9280242919921875,-0.6822662353515625,-0.6505584716796875,14546.05464308333,0.3736287177648848,3.331159655774941,-0.2804785333688562,14546.0442875,1.411568095261464,0.3595744888181382,0.9556697261463212,0.3934611678123474,3.817512512207031,-0.4659091234207153,0.5562536120414734,0.3554119467735291,0.3051410615444183,XTrueNorthZVertical,0.2413609953598144,0.4143264459275399,0.6292825064078854,0.6116224948930491,0.2030542492866516,-0.8167003989219666,-0.5401569604873657,6.558825492858887,-40.59674835205078,-11.08080101013184,2,0.0.0.0,10.97.20.126,1,0
2015-02-21 11:25:33.599,27,1424543129.130933,39.63860292679779,-106.37014190616,2514.66,-1,-1,10,65,-9999,1424543133.549121,6.643157958984375,-38.69206237792969,-10.76506805419922,191.8541259765625,182.7275695800781,10,14546.11647908333,0.7523345947265625,-0.5722503662109375,-0.4920806884765625,14546.106421375,-0.1338760427338473,-0.4438341714732266,-0.4521520225058711,14546.09606608333,1.388488535607246,0.4694852138269811,0.9640066664052499,-0.005553501192480326,0.004300694912672043,-0.3432418704032898,0.4510105848312378,0.108927957713604,-0.0500132255256176,XTrueNorthZVertical,0.2146296092431516,0.4468408639329524,0.6342259822777246,0.5933168289926178,0.2579890489578247,-0.8214828968048096,-0.5085347294807434,8.491293907165527,-40.67254257202148,-9.356282234191895,2,0.0.0.0,10.97.20.126,1,0
2015-02-21 11:25:33.635,28,1424543129.130933,39.63860292679779,-106.37014190616,2514.66,-1,-1,10,65,-9999,1424543133.600749,8.535598754882812,-38.47125244140625,-9.882736206054688,188.9942779541016,179.8677215576172,10,14546.16568766667,0.6086883544921875,-0.7324371337890625,-0.481781005859375,14546.15820004167,-0.02038117182237641,-0.6642134148383736,0.1770442861073777,14546.09606608333,1.388488535607246,0.4694852138269811,0.9640066664052499,-0.005553501192480326,0.004300694912672043,-0.3432418704032898,0.4510105848312378,0.108927957713604,-0.0500132255256176,XTrueNorthZVertical,0.2146296092431516,0.4468408639329524,0.6342259822777246,0.5933168289926178,0.2579890489578247,-0.8214828968048096,-0.5085347294807434,8.491293907165527,-40.67254257202148,-9.356282234191895,2,0.0.0.0,10.97.20.126,1,0
2015-02-21 11:25:33.700,29,1424543129.130933,39.63860292679779,-106.37014190616,2514.66,-1,-1,10,65,-9999,1424543133.653483,9.848369598388672,-38.25042724609375,-9.732917785644531,191.9628295898438,182.8362731933594,10,14546.21473758333,0.291168212890625,-0.8015899658203125,-0.564453125,14546.209977875,0.03013047194093849,-1.716128223273829,-0.08027539842214947,14546.19962233333,1.387250260922808,0.392944157079208,0.9578574442100316,0.07146123796701431,-1.499233484268188,-0.03152040392160416,0.2029702514410019,0.04339424148201942,-0.02695031464099884,XTrueNorthZVertical,0.2367675216673784,0.4221684904803579,0.6256536102724622,0.6117781863455684,0.2202780395746231,-0.8179609179496765,-0.5314298272132874,8.363054275512695,-40.56855392456055,-9.907059669494629,2,0.0.0.0,10.97.20.126,1,0
2015-02-21 11:25:33.733,30,1424543129.130933,39.63860292679779,-106.37014190616,2514.66,-1,-1,10,65,-9999,1424543133.704395,9.251655578613281,-38.06358337402344,-10.14911651611328,193.8491363525391,184.7225799560547,10,14546.26382704167,-0.0087127685546875,-0.792236328125,-0.483367919921875,14546.26175654167,-0.4118384215047966,-1.711296450108098,0.2433231751045067,14546.25140104167,1.3991476286105,0.2945372709435215,0.9540436758948596,-0.336887538433075,-1.7707839012146,0.279423326253891,-0.1010101661086082,0.00756396446377039,0.07835362106561661,XTrueNorthZVertical,0.2635545049627677,0.3921710399291906,0.6173674264353726,0.6289661693107729,0.1679047048091888,-0.8157609701156616,-0.5534818172454834,7.589293003082275,-40.57756423950195,-10.47673988342285,2,0.0.0.0,10.97.20.126,1,0
2015-02-21 11:25:33.801,31,1424543129.130933,39.63860292679779,-106.37014190616,2514.66,-1,-1,10,65,-9999,1424543133.756219,8.211669921875,-37.97865295410156,-10.96486663818359,195.6154479980469,186.4888916015625,10,14546.312971375,-0.099334716796875,-0.7560272216796875,-0.461639404296875,14546.313534875,-0.6497782827818172,-0.4068857408255763,-0.2050705944710446,14546.25140104167,1.3991476286105,0.2945372709435215,0.9540436758948596,-0.336887538433075,-1.7707839012146,0.279423326253891,-0.1010101661086082,0.00756396446377039,0.07835362106561661,XTrueNorthZVertical,0.2635545049627677,0.3921710399291906,0.6173674264353726,0.6289661693107729,0.1679047048091888,-0.8157609701156616,-0.5534818172454834,7.589293003082275,-40.57756423950195,-10.47673988342285,2,0.0.0.0,10.97.20.126,1,0
2015-02-21 11:25:33.831,32,1424543129.130933,39.63860292679779,-106.37014190616,2514.66,-1,-1,10,65,-9999,1424543133.809014,7.137580871582031,-37.58795166015625,-12.34665679931641,197.2937469482422,188.1671905517578,10,14546.36217754167,0.2186279296875,-0.824371337890625,-0.660430908203125,14546.313534875,-0.6497782827818172,-0.4068857408255763,-0.2050705944710446,14546.303178875,1.419917746016502,0.2118844253373443,0.9312943935712948,-0.6039737462997437,-0.7111193537712097,-0.07711544632911682,-0.2334483861923218,0.0141240581870079,0.1384725868701935,XTrueNorthZVertical,0.2770222532476395,0.362676128857685,0.6151482959001162,0.6428976231250222,0.1255077123641968,-0.8023930788040161,-0.5834494233131409,6.06827974319458,-40.38137054443359,-12.10037326812744,2,0.0.0.0,10.97.20.126,1,0
2015-02-21 11:25:33.901,33,1424543129.130933,39.63860292679779,-106.37014190616,2514.66,-1,-1,10,65,-9999,1424543133.859909,6.830696105957031,-37.31617736816406,-13.31224060058594,197.1803588867188,188.0538024902344,10,14546.41122558333,0.2202911376953125,-0.780029296875,-0.5498504638671875,14546.41709141667,-0.9890213298160347,-1.559446733177306,-0.1643567203581312,14546.40673583333,1.403872618623072,0.2048855184607895,0.8642713580332786,-0.7985156178474426,-1.23794412612915,-0.145422175526619,0.1439648270606995,-0.07378918677568436,0.06946933269500732,XTrueNorthZVertical,0.2581634201323061,0.3399169830794745,0.6159707239339214,0.6621089361897146,0.132081925868988,-0.7606224417686462,-0.6356161832809448,6.834332466125488,-39.50394439697266,-14.37456321716309,2,0.0.0.0,10.97.20.126,1,0
2015-02-21 11:25:33.930,34,1424543129.130933,39.63860292679779,-106.37014190616,2514.66,-1,-1,10,65,-9999,1424543133.911511,6.660205841064453,-36.70462036132812,-14.81056213378906,197.5076751708984,188.3811187744141,10,14546.46042783333,-0.01043701171875,-0.6974639892578125,-0.60516357421875,14546.41709141667,-0.9890213298160347,-1.559446733177306,-0.1643567203581312,14546.40673583333,1.403872618623072,0.2048855184607895,0.8642713580332786,-0.7985156178474426,-1.23794412612915,-0.145422175526619,0.1439648270606995,-0.07378918677568436,0.06946933269500732,XTrueNorthZVertical,0.2581634201323061,0.3399169830794745,0.6159707239339214,0.6621089361897146,0.132081925868988,-0.7606224417686462,-0.6356161832809448,6.834332466125488,-39.50394439697266,-14.37456321716309,2,0.0.0.0,10.97.20.126,1,0
2015-02-21 11:25:34.000,35,1424543129.130933,39.63860292679779,-106.37014190616,2514.66,-1,-1,10,65,-9999,1424543133.963067,6.626110076904297,-36.02516174316406,-16.30887603759766,200.4267883300781,191.3002319335938,10,14546.509471875,0.085113525390625,-0.6343536376953125,-0.7039642333984375,14546.46887008333,-0.6716164700365759,-0.6398753182683575,-0.09395339378079644,14546.45851408334,1.404680037273382,0.1360546872747147,0.8145031265592994,-0.8101410865783691,-0.9466717839241028,-0.1674332618713379,-0.1447737962007523,0.1348096430301666,0.05191290378570557,XTrueNorthZVertical,0.2613262309179914,0.3029264225309659,0.6123507031840121,0.6818877348090732,0.09307701885700226,-0.7273847460746765,-0.6798883676528931,5.974508285522461,-38.59468078613281,-16.98982238769531,2,0.0.0.0,10.97.20.126,1,0
2015-02-21 11:25:34.027,36,1424543129.130933,39.63860292679779,-106.37014190616,2514.66,-1,-1,10,65,-9999,1424543134.015499,6.165786743164062,-34.98893737792969,-18.05691528320312,200.9880065917969,191.8614501953125,10,14546.55867833333,0.0928497314453125,-0.69354248046875,-0.7088470458984375,14546.52064791667,-0.7614430293921856,-0.2302233520185159,-0.282722512903357,14546.51029241667,1.405790931222376,0.1243923778255551,0.7825450281473341,-0.6903554201126099,-0.05641256645321846,-0.2072478830814362,-0.002868464449420571,0.07073279470205307,-0.0003220385115128011,XTrueNorthZVertical,0.2532659470024844,0.2898883623924032,0.6145055291811018,0.6886248144312366,0.08798199146986008,-0.7050864100456238,-0.7036421895027161,5.715804576873779,-38.04392242431641,-18.27259063720703,2,0.0.0.0,10.97.20.126,1,0
2015-02-21 11:25:34.099,37,1424543129.130933,39.63860292679779,-106.37014190616,2514.66,-1,-1,10,65,-9999,1424543134.066603,6.404476165771484,-34.24151611328125,-19.25555419921875,202.497802734375,193.3712463378906,10,14546.60772033333,0.115936279296875,-0.5153350830078125,-0.7246551513671875,14546.57242658333,-0.9613995556219509,-0.4453843975437617,-0.05063841023120267,14546.56207104167,1.407163290650019,0.1038686901762735,0.7383134478669892,-0.9429558515548706,-0.4957916736602783,0.05627796426415443,0.01616601459681988,-0.02050099335610867,0.02677161060273647,XTrueNorthZVertical,0.2434505241990404,0.2700416896158225,0.6168384158366242,0.6980829319579615,0.07668371498584747,-0.6730414628982544,-0.7356186509132385,5.816691875457764,-37.33432769775391,-19.65228652954102,2,0.0.0.0,10.97.20.126,1,0
2015-02-21 11:25:34.126,38,1424543129.130933,39.63860292679779,-106.37014190616,2514.66,-1,-1,10,65,-9999,1424543134.120167,6.080547332763672,-32.96748352050781,-20.47086334228516,203.3443603515625,194.2178039550781,10,14546.65692320833,0.338592529296875,-0.5687103271484375,-0.8050384521484375,14546.62420495833,-0.9057685172951767,0.3052123756768581,0.04284839772661189,14546.61384895833,1.410463700876968,0.08762634043407144,0.6861266353753049,-1.058193922042847,0.06477275490760803,-0.004148396197706461,0.0482260026037693,0.1182100176811218,0.04608213528990746,XTrueNorthZVertical,0.2291529027291088,0.2492394505468803,0.6210710120105717,0.706851840563702,0.067710280418396,-0.6335451006889343,-0.7707372903823853,5.35112476348877,-36.07337951660156,-21.99942779541016,2,0.0.0.0,10.97.20.126,1,0
2015-02-21 11:25:34.199,39,1424543129.130933,39.63860292679779,-106.37014190616,2514.66,-1,-1,10,65,-9999,1424543134.170605,5.790718078613281,-31.65948486328125,-21.75276184082031,201.2935638427734,192.1670074462891,10,14546.70596579167,0.5111541748046875,-0.6262969970703125,-0.966888427734375,14546.675983125,-0.6710553419948962,0.7255492105362066,0.469725157274868,14546.66562758333,1.424534063105337,0.1050611478171381,0.6461549442297004,-0.7400909066200256,0.6987624764442444,0.3523529767990112,0.2548654079437256,0.03341062739491463,-0.01103583071380854,XTrueNorthZVertical,0.207428021909052,0.2448924352914356,0.6315008421042433,0.7058385653191354,0.08372710645198822,-0.6021209359169006,-0.7940025925636292,5.622319221496582,-35.17584609985352,-23.34411239624023,2,0.0.0.0,10.97.20.126,1,0
2015-02-21 11:25:34.224,40,1424543129.130933,39.63860292679779,-106.37014190616,2514.66,-1,-1,10,65,-9999,1424543134.170605,5.790718078613281,-31.65948486328125,-21.75276184082031,201.2935638427734,192.1670074462891,10,14546.755196375,0.2417144775390625,-0.480926513671875,-0.639068603515625,14546.7277615,-0.1668885876064695,-0.1578780483742954,0.6611481164236924,14546.717406,1.469669439398788,0.1101014698949444,0.6276388157605627,-0.170723482966423,0.2176404446363449,0.7426719069480896,0.4005639553070068,-0.0459434948861599,-0.0571179986000061,XTrueNorthZVertical,0.1935965417422087,0.2454846814586437,0.6493560031612584,0.693249244037999,0.08893798291683197,-0.5872352123260498,-0.8045153021812439,5.60243034362793,-34.61702728271484,-24.16965484619141,2,0.0.0.0,10.97.20.126,1,0
2015-02-21 11:25:34.299,41,1424543129.130933,39.63860292679779,-106.37014190616,2514.66,-1,-1,10,65,-9999,1424543134.274834,4.000572204589844,-30.69125366210938,-23.23442077636719,197.1475830078125,188.0210266113281,10,14546.80421358333,0.1085357666015625,-0.528350830078125,-0.701019287109375,14546.779540125,-0.360193336381544,-0.6838619510448692,0.6160597339042149,14546.769184125,1.512394442123911,0.05658985286088739,0.6165122202556406,-0.4087330102920532,-0.8310917019844055,0.6741636395454407,0.1337083280086517,0.09561853855848312,0.1532933115959167,XTrueNorthZVertical,0.2021210342682642,0.2277061773410507,0.6597996487238759,0.6869945348087707,0.04614702239632607,-0.5781930088996887,-0.8145939707756042,3.868916749954224,-34.46255493164062,-24.72371101379395,2,0.0.0.0,10.97.20.126,1,0
2015-02-21 11:25:34.322,42,1424543129.130933,39.63860292679779,-106.37014190616,2514.66,-1,-1,10,65,-9999,1424543134.274834,4.000572204589844,-30.69125366210938,-23.23442077636719,197.1475830078125,188.0210266113281,10,14546.85331016667,0.1809539794921875,-0.5165252685546875,-0.7581634521484375,14546.83131804167,-0.2813619039024355,-0.1398601657032553,0.422372821512714,14546.8209625,1.547273822611285,0.01704704712150142,0.6013865089078386,-0.3187103569507599,-0.1111978590488434,0.4625605344772339,0.1224038526415825,0.06271924823522568,0.07429482042789459,XTrueNorthZVertical,0.206185108307885,0.2127712971368194,0.6691717500056561,0.6814875847932708,0.01405549515038729,-0.5657862424850464,-0.8244321346282959,2.268590450286865,-34.15570831298828,-25.34046363830566,2,0.0.0.0,10.97.20.126,1,0
2015-02-21 11:25:34.399,43,1424543129.130933,39.63860292679779,-106.37014190616,2514.66,-1,-1,10,65,-9999,1424543134.378476,0.0111083984375,-29.50216674804688,-24.06682586669922,190.4519348144531,181.3253784179688,10,14546.9024745,0.067535400390625,-0.493438720703125,-0.746673583984375,14546.88309666667,-0.3363433972393394,-1.181262145735623,0.4830114016371643,14546.87274116667,1.576815401783414,-0.0225230869351125,0.5866985664273507,-0.3271130919456482,-0.9362873435020447,0.5360024571418762,0.2026234418153763,0.004679763689637184,0.04688668623566628,XTrueNorthZVertical,0.2114835067223728,0.1974686295230775,0.676595132208802,0.6771262635699904,-0.01875503174960613,-0.5536146759986877,-0.832561731338501,1.302422761917114,-33.86005020141602,-25.80113983154297,2,0.0.0.0,10.97.20.126,1,0
2015-02-21 11:25:34.421,44,1424543129.130933,39.63860292679779,-106.37014190616,2514.66,-1,-1,10,65,-9999,1424543134.378476,0.0111083984375,-29.50216674804688,-24.06682586669922,190.4519348144531,181.3253784179688,10,14546.95156975,-0.1921844482421875,-0.5294952392578125,-0.7408599853515625,14546.93487508333,-0.3615616685496267,-1.655506154748137,0.6809567086117018,14546.92451908333,1.607527001523987,-0.1114774047876849,0.5667277913936085,-0.3668074011802673,-1.661211133003235,0.6534544229507446,0.02937096357345581,0.03185414895415306,0.1144570037722588,XTrueNorthZVertical,0.232242613491531,0.1638615665069262,0.6793776773737937,0.6765048484622458,-0.09385460615158081,-0.5368742942810059,-0.8384255170822144,-1.607200980186462,-33.31657028198242,-26.48246765136719,2,0.0.0.0,10.97.20.126,1,0
2015-02-21 11:25:34.503,45,1424543129.130933,39.63860292679779,-106.37014190616,2514.66,-1,-1,10,65,-9999,1424543134.482176,-5.563899993896484,-28.09225463867188,-24.6162109375,187.7340087890625,178.6074523925781,10,14547.000726375,-0.118133544921875,-0.4792327880859375,-0.7234039306640625,14546.98665308334,-0.1323005166329564,-1.001209020228673,0.5588315978717202,14546.97629770833,1.647577807412089,-0.2008505239084292,0.5440341384281515,-0.2174966484308243,-0.9732959270477295,0.6737393736839294,-0.0115508446469903,0.004667719826102257,0.02553043141961098,XTrueNorthZVertical,0.25248635018674,0.1305261014162679,0.6848843394302436,0.6709300294575175,-0.1707001328468323,-0.5175918936729431,-0.8384271860122681,-4.531815052032471,-32.76738739013672,-26.82646179199219,2,0.0.0.0,10.97.20.126,1,0
2015-02-21 11:25:34.519,46,1424543129.130933,39.63860292679779,-106.37014190616,2514.66,-1,-1,10,65,-9999,1424543134.482176,-5.563899993896484,-28.09225463867188,-24.6162109375,187.7340087890625,178.6074523925781,10,14547.049944125,-0.225555419921875,-0.4521026611328125,-0.79815673828125,14547.038431625,0.04963706166133287,-1.213650978280948,0.7167695673705423,14547.028076125,1.684644497894263,-0.2755599728912341,0.5327425440335718,0.002464819932356477,-1.182841300964355,0.7801605463027954,0.07552020996809006,-0.06676353514194489,0.0823976993560791,XTrueNorthZVertical,0.2724523023262631,0.1063503503858835,0.6889842424018106,0.663144134150442,-0.2343794703483582,-0.5078977346420288,-0.8289186954498291,-6.765349864959717,-32.41413879394531,-26.7852897644043,2,0.0.0.0,10.97.20.126,1,0
2015-02-21 11:25:34.603,47,1424543129.130933,39.63860292679779,-106.37014190616,2514.66,-1,-1,10,65,-9999,1424543134.585509,-11.44580078125,-27.15794372558594,-23.56739044189453,181.4126892089844,172.2861328125,10,14547.09897904167,-0.3864593505859375,-0.5866546630859375,-0.6913299560546875,14547.09021029167,0.2632910243257028,-1.156647346728347,1.220132579741983,14547.07985429167,1.732965164318492,-0.3635826837663192,0.5280121600727729,0.365398108959198,-1.257028818130493,1.065166115760803,0.03801222890615463,0.03897347301244736,0.01441895496100187,XTrueNorthZVertical,0.2991834605128638,0.08257295262355345,0.6929821234282696,0.6507279186154846,-0.3071925342082977,-0.5038172006607056,-0.8073419332504272,-10.21510219573975,-32.14622497558594,-26.00326538085938,2,0.0.0.0,10.97.20.126,1,0
2015-02-21 11:25:34.617,48,1424543129.130933,39.63860292679779,-106.37014190616,2514.66,-1,-1,10,65,-9999,1424543134.585509,-11.44580078125,-27.15794372558594,-23.56739044189453,181.4126892089844,172.2861328125,10,14547.14816554167,-0.2537078857421875,-0.330413818359375,-0.7507781982421875,14547.09021029167,0.2632910243257028,-1.156647346728347,1.220132579741983,14547.07985429167,1.732965164318492,-0.3635826837663192,0.5280121600727729,0.365398108959198,-1.257028818130493,1.065166115760803,0.03801222890615463,0.03897347301244736,0.01441895496100187,XTrueNorthZVertical,0.2991834605128638,0.08257295262355345,0.6929821234282696,0.6507279186154846,-0.3071925342082977,-0.5038172006607056,-0.8073419332504272,-10.21510219573975,-32.14622497558594,-26.00326538085938,2,0.0.0.0,10.97.20.126,1,0
2015-02-21 11:25:34.700,49,1424543129.130933,39.63860292679779,-106.37014190616,2514.66,-1,-1,10,65,-9999,1424543134.689032,-17.31063842773438,-25.73104858398438,-21.30326843261719,174.2300415039062,165.1034851074219,10,14547.19722116667,-0.3868865966796875,-0.4150390625,-0.60235595703125,14547.193766875,0.5803049320571381,-1.794718107042067,1.087663218695916,14547.18341141667,1.85672125286091,-0.5334514611521938,0.5027415117412146,0.5869515538215637,-1.52295708656311,1.119110584259033,0.1290291249752045,0.07864665240049362,0.09171812981367111,XTrueNorthZVertical,0.3481530493974457,0.03914560331705413,0.7087753639813226,0.6122864054962878,-0.4455879628658295,-0.4818296432495117,-0.7545141577720642,-15.64226531982422,-31.33513641357422,-24.23483085632324,2,0.0.0.0,10.97.20.126,1,0
2015-02-21 11:25:34.716,50,1424543129.130933,39.63860292679779,-106.37014190616,2514.66,-1,-1,10,65,-9999,1424543134.689032,-17.31063842773438,-25.73104858398438,-21.30326843261719,174.2300415039062,165.1034851074219,10,14547.24641720833,-0.655059814453125,-0.3546295166015625,-0.4980316162109375,14547.24554541667,0.501956863315879,-2.802782902864931,1.433733279184551,14547.18341141667,1.85672125286091,-0.5334514611521938,0.5027415117412146,0.5869515538215637,-1.52295708656311,1.119110584259033,0.1290291249752045,0.07864665240049362,0.09171812981367111,XTrueNorthZVertical,0.3481530493974457,0.03914560331705413,0.7087753639813226,0.6122864054962878,-0.4455879628658295,-0.4818296432495117,-0.7545141577720642,-15.64226531982422,-31.33513641357422,-24.23483085632324,2,0.0.0.0,10.97.20.126,1,0
2015-02-21 11:25:34.806,51,1424543129.130933,39.63860292679779,-106.37014190616,2514.66,-1,-1,10,65,-9999,1424543134.792973,-25.88627624511719,-22.62240600585938,-14.92708587646484,165.0267181396484,155.9001617431641,10,14547.29546504167,-0.8860626220703125,-0.34478759765625,-0.3441925048828125,14547.29732329167,0.9118178877112917,-2.533327725880131,1.56931081553885,14547.28696795833,2.018673813282365,-0.861270611388727,0.462930683185078,0.8293057084083557,-2.752490282058716,1.503222584724426,-0.225111648440361,0.05814450979232788,0.2040443569421768,XTrueNorthZVertical,0.4549259277061488,-0.03987464088576531,0.6976955956928516,0.5519722384975038,-0.6788190007209778,-0.4465722441673279,-0.5829048156738281,-24.75675010681152,-29.8838996887207,-17.54862022399902,2,0.0.0.0,10.97.20.126,1,0
2015-02-21 11:25:34.814,52,1424543129.130933,39.63860292679779,-106.37014190616,2514.66,-1,-1,10,65,-9999,1424543134.792973,-25.88627624511719,-22.62240600585938,-14.92708587646484,165.0267181396484,155.9001617431641,10,14547.34466733333,-1.016159057617188,-0.415863037109375,-0.36962890625,14547.29732329167,0.9118178877112917,-2.533327725880131,1.56931081553885,14547.28696795833,2.018673813282365,-0.861270611388727,0.462930683185078,0.8293057084083557,-2.752490282058716,1.503222584724426,-0.225111648440361,0.05814450979232788,0.2040443569421768,XTrueNorthZVertical,0.4549259277061488,-0.03987464088576531,0.6976955956928516,0.5519722384975038,-0.6788190007209778,-0.4465722441673279,-0.5829048156738281,-24.75675010681152,-29.8838996887207,-17.54862022399902,2,0.0.0.0,10.97.20.126,1,0
2015-02-21 11:25:34.900,53,1424543129.130933,39.63860292679779,-106.37014190616,2514.66,-1,-1,10,65,-9999,1424543134.844818,-29.85868835449219,-20.32916259765625,-10.74843597412109,160.5816040039062,151.4550476074219,10,14547.39371020833,-0.81976318359375,-0.4371490478515625,-0.4103240966796875,14547.400880375,1.222044995720769,-1.223220248709821,1.856161494447939,14547.338746375,2.120070659594344,-1.009263911615216,0.4203008720150349,1.117839574813843,-1.513150930404663,1.755202651023865,-0.3798776566982269,0.002090333262458444,0.1379495412111282,XTrueNorthZVertical,0.5017647540177658,-0.07184848275346911,0.6975296349276582,0.5064804226773437,-0.7727712988853455,-0.4080351591110229,-0.4861398637294769,-27.44706726074219,-29.06079864501953,-14.69784641265869,2,0.0.0.0,10.97.20.126,1,0
2015-02-21 11:25:34.912,54,1424543129.130933,39.63860292679779,-106.37014190616,2514.66,-1,-1,10,65,-9999,1424543134.896421,-32.80815887451172,-17.45831298828125,-7.568679809570312,152.4180145263672,143.2914581298828,10,14547.4429365,-0.7050018310546875,-0.3424530029296875,-0.3595733642578125,14547.400880375,1.222044995720769,-1.223220248709821,1.856161494447939,14547.390524375,2.229617681071996,-1.100836710216802,0.3666695924443193,1.23541271686554,-1.030321717262268,2.0461585521698,0.02810526452958584,-0.094647116959095,0.01045527961105108,XTrueNorthZVertical,0.5301556522534563,-0.08695460991223936,0.7104087765320097,0.4546353851508183,-0.8323197364807129,-0.3585084080696106,-0.4227477610111237,-32.6023063659668,-25.81048011779785,-9.209075927734375,2,0.0.0.0,10.97.20.126,1,0
2015-02-21 11:25:34.999,55,1424543129.130933,39.63860292679779,-106.37014190616,2514.66,-1,-1,10,65,-9999,1424543134.948499,-34.58125305175781,-13.92501831054688,-3.972724914550781,141.7203063964844,132.59375,10,14547.49194483333,-1.077743530273438,-0.3094940185546875,-0.1717376708984375,14547.452658625,1.207805872320442,-2.348181304788405,1.422213509573305,14547.44230308333,2.324753041628172,-1.212191068031532,0.3143864489962229,1.209725618362427,-2.101424217224121,1.505674242973328,0.2058448791503906,0.006483417004346848,-0.07626787573099136,XTrueNorthZVertical,0.5674613392469641,-0.1053777753504943,0.709560629478369,0.4042362539687659,-0.8904914855957031,-0.3092330396175385,-0.3337663114070892,-35.0694694519043,-23.45252990722656,-5.831766128540039,2,0.0.0.0,10.97.20.126,3,0
2015-02-21 11:25:35.010,56,1424543129.130933,39.63860292679779,-106.37014190616,2514.66,-1,-1,10,65,-9999,1424543134.999972,-36.09861755371094,-10.68051147460938,0.2725067138671875,132.6361541748047,123.5095901489258,10,14547.54104625,-1.094314575195312,-0.31512451171875,-0.007476806640625,14547.50443695833,1.072703177588505,-2.797269094144031,0.9188217350620911,14547.494081625,2.399312364175027,-1.365605458901443,0.2703218881380955,1.028730154037476,-2.879401206970215,0.9813099503517151,-0.1342745423316956,-0.0424523688852787,0.02461704052984715,XTrueNorthZVertical,0.6205614137394045,-0.1293297176764595,0.6855562169711237,0.3580364678101063,-0.9434689879417419,-0.2670416533946991,-0.1963547170162201,-36.36103057861328,-22.0120792388916,-2.69111156463623,2,0.0.0.0,10.97.20.126,3,0
2015-02-21 11:25:35.072,57,1424543129.130933,39.63860292679779,-106.37014190616,2514.66,-1,-1,10,65,-9999,1424543135.05206,-36.89992523193359,-7.911651611328125,5.017173767089844,126.3477630615234,117.2212066650391,10,14547.59018866667,-1.244979858398438,-0.40008544921875,0.0985565185546875,14547.55621575,1.013723746823174,-1.579593014191537,1.041088792288174,14547.54585975,2.461721958025985,-1.495380302150269,0.2246887063002319,1.048370122909546,-1.658498883247375,1.164514899253845,-0.122221976518631,-0.09232160449028015,0.06597385555505753,XTrueNorthZVertical,0.6644057862235274,-0.1477823368816265,0.6615272275312893,0.3148128688276335,-0.9720925688743591,-0.2228029072284698,-0.07345066219568253,-37.71414566040039,-18.79316902160645,6.193426609039307,2,0.0.0.0,10.97.20.126,3,0
2015-02-21 11:25:35.108,58,1424543129.130933,39.63860292679779,-106.37014190616,2514.66,-1,-1,10,65,-9999,1424543135.05206,-36.89992523193359,-7.911651611328125,5.017173767089844,126.3477630615234,117.2212066650391,10,14547.63928145833,-1.184844970703125,-0.12896728515625,0.0922088623046875,14547.607993625,0.7324092471881417,-1.840919957213307,0.3105948905560172,14547.59763808333,2.51419568571918,-1.590647289523068,0.1897675818192588,0.8922159671783447,-1.909907817840576,0.3503678143024445,-0.2631251513957977,-0.2114547938108444,0.07906319946050644,XTrueNorthZVertical,0.6966526751770503,-0.1562744733104983,0.642018476000456,0.2794023955524631,-0.9818546772003174,-0.1886306554079056,0.01949332095682621,-37.87682342529297,-16.82599830627441,9.804614067077637,2,0.0.0.0,10.97.20.126,3,0
2015-02-21 11:25:35.170,59,1424543129.130933,39.63860292679779,-106.37014190616,2514.66,-1,-1,10,65,-9999,1424543135.155975,-36.21795654296875,-4.582183837890625,11.21021270751953,118.223030090332,109.0964736938477,10,14547.68842916667,-0.9520263671875,-0.2501983642578125,0.16815185546875,14547.65977229167,0.1912794147660692,-0.9116695496385743,0.3884105933953695,14547.64941683333,2.535027336212983,-1.66420483619358,0.1663862440047618,0.2048027515411377,-0.9525486826896667,0.4937890470027924,-0.2210360318422318,0.07154915481805801,-0.02963720820844173,XTrueNorthZVertical,0.7198753864990137,-0.1666485463687521,0.6220221450873011,0.2590293881652969,-0.9818906188011169,-0.1656195819377899,0.09198462218046188,-37.45107650756836,-16.12676620483398,12.29807949066162,2,0.0.0.0,10.97.20.126,3,0
2015-02-21 11:25:35.208,60,1424543129.130933,39.63860292679779,-106.37014190616,2514.66,-1,-1,10,65,-9999,1424543135.155975,-36.21795654296875,-4.582183837890625,11.21021270751953,118.223030090332,109.0964736938477,10,14547.73752270833,-0.9901885986328125,-0.0302734375,0.1198577880859375,14547.71155075,0.1236196767437341,-0.2543204325098799,0.7804899575084323,14547.70119475,2.539226542896293,-1.703219322567785,0.1419457875277546,0.1269240230321884,-0.4497261643409729,0.6977429389953613,0.08158690482378006,-0.08974683284759521,0.06048424541950226,XTrueNorthZVertical,0.7305254911835553,-0.1780075758043128,0.6117087412437822,0.245882713055357,-0.9812756180763245,-0.1414695978164673,0.1307083815336227,-36.92367553710938,-14.62357330322266,15.38478851318359,2,0.0.0.0,10.97.20.126,3,0
2015-02-21 11:25:35.271,61,1424543129.130933,39.63860292679779,-106.37014190616,2514.66,-1,-1,10,65,-9999,1424543135.25947,-35.60419464111328,-1.8642578125,13.54092407226562,113.7627334594727,104.6361770629883,10,14547.78665745833,-0.7714080810546875,-0.1417083740234375,0.209259033203125,14547.76332895833,0.1719547189481272,-0.5261117344028976,0.7762552650590973,14547.75297345833,2.541219016056623,-1.71457169783466,0.10207717001027,0.1855413466691971,-0.3924946784973145,0.7255500555038452,0.07147514075040817,0.08012569695711136,0.005277157761156559,XTrueNorthZVertical,0.7311913287835312,-0.1913807898918335,0.613004130688045,0.2301274706282679,-0.9845305681228638,-0.1018999889492989,0.1425347328186035,-37.23307037353516,-13.23783588409424,15.88573741912842,2,0.0.0.0,10.97.20.126,3,0
2015-02-21 11:25:35.304,62,1424543129.130933,39.63860292679779,-106.37014190616,2514.66,-1,-1,10,65,-9999,1424543135.25947,-35.60419464111328,-1.8642578125,13.54092407226562,113.7627334594727,104.6361770629883,10,14547.83574533333,-1.000640869140625,0.0228729248046875,0.2112274169921875,14547.81510733333,-0.1429672757470508,-1.887089050503138,0.3341260493157394,14547.80475179167,2.536652793042113,-1.757182072721411,0.05888395623539117,-0.1063359528779984,-1.466603875160217,0.6822432279586792,0.09239703416824341,-0.05990922078490257,-0.0004627694434020668,XTrueNorthZVertical,0.7401705840050267,-0.2112845459533138,0.6022482264243116,0.2116683821215365,-0.9809773564338684,-0.05884993448853493,0.1849873065948486,-37.32540893554688,-12.29322242736816,16.41916465759277,2,0.0.0.0,10.97.20.126,3,0
2015-02-21 11:25:35.372,63,1424543129.130933,39.63860292679779,-106.37014190616,2514.66,-1,-1,10,65,-9999,1424543135.362917,-33.89929962158203,0.581817626953125,17.50312805175781,108.1297607421875,99.00320434570312,10,14547.88488066667,-1.154647827148438,-0.128265380859375,0.3593292236328125,14547.86688604167,-0.04756725286212329,-1.795253402421173,0.6105286146362293,14547.85653004167,2.529243218694272,-1.868440581949637,0.05194561526558146,-0.04688531160354614,-2.181695222854614,0.3454574048519135,0.1480999290943146,-0.0574069656431675,0.05385215580463409,XTrueNorthZVertical,0.7711328422060759,-0.2275759093014599,0.5603144049778209,0.1990256158321373,-0.9547405242919922,-0.051922257989645,0.2928733229637146,-35.43252563476562,-11.01591491699219,20.90655899047852,2,0.0.0.0,10.97.20.126,3,0
2015-02-21 11:25:35.404,64,1424543129.130933,39.63860292679779,-106.37014190616,2514.66,-1,-1,10,65,-9999,1424543135.362917,-33.89929962158203,0.581817626953125,17.50312805175781,108.1297607421875,99.00320434570312,10,14547.93396275,-0.915069580078125,0.0152587890625,0.416778564453125,14547.918664,-0.4648156198053069,-0.89683654131516,0.1078756010114037,14547.90830845833,2.510246461101958,-1.932883525681924,0.02772945333568623,-0.3983223438262939,-0.9594239592552185,0.2552944123744965,-0.3459921181201935,0.004257882479578257,0.004826507065445185,XTrueNorthZVertical,0.7845797506293611,-0.2479515670287823,0.5365597333228433,0.187238807123625,-0.9348000884056091,-0.02772589959204197,0.3540907204151154,-34.09234237670898,-10.22149753570557,23.39084243774414,2,0.0.0.0,10.97.20.126,3,0
2015-02-21 11:25:35.474,65,1424543129.130933,39.63860292679779,-106.37014190616,2514.66,-1,-1,10,65,-9999,1424543135.466377,-31.83637237548828,1.652008056640625,21.54859161376953,108.9765625,99.85000610351562,10,14547.98310141667,-0.868988037109375,-0.144775390625,0.4704742431640625,14547.97044270833,-0.4940432801367085,-0.268676202365952,0.7978625562473461,14547.960087,2.482934474084749,-1.96050637610768,0.01987508139693201,-0.4272886514663696,-0.1988532245159149,0.6899566054344177,0.124085932970047,-0.05516895279288292,0.04708043113350868,XTrueNorthZVertical,0.7877501775246845,-0.2633861660321816,0.5241934079554712,0.1878795875419754,-0.9248366951942444,-0.01987377367913723,0.3798452317714691,-33.50843048095703,-10.25453948974609,24.20594787597656,2,0.0.0.0,10.97.20.126,3,0
2015-02-21 11:25:35.507,66,1424543129.130933,39.63860292679779,-106.37014190616,2514.66,-1,-1,10,65,-9999,1424543135.466377,-31.83637237548828,1.652008056640625,21.54859161376953,108.9765625,99.85000610351562,10,14548.03218729167,-0.8437042236328125,-0.019012451171875,0.465545654296875,14548.02222108333,-1.08638170557937,-1.6256033830804,0.6386904778993813,14547.960087,2.482934474084749,-1.96050637610768,0.01987508139693201,-0.4272886514663696,-0.1988532245159149,0.6899566054344177,0.124085932970047,-0.05516895279288292,0.04708043113350868,XTrueNorthZVertical,0.7877501775246845,-0.2633861660321816,0.5241934079554712,0.1878795875419754,-0.9248366951942444,-0.01987377367913723,0.3798452317714691,-33.50843048095703,-10.25453948974609,24.20594787597656,2,0.0.0.0,10.97.20.126,3,0
2015-02-21 11:25:35.573,67,1424543135.546819,39.63860959885405,-106.370137361642,2514.254,-1,-1,10,65,-9999,1424543135.57032,-28.75050354003906,2.07666015625,24.29549407958984,111.3155899047852,102.1890335083008,10,14548.08131833333,-0.85693359375,-0.027557373046875,0.6128692626953125,14548.07399920833,-1.273039470589715,-1.556639228756144,1.373656892366217,14548.06364383333,2.360439012581215,-2.084723791900552,-0.01710046530191861,-1.233012437820435,-1.732849955558777,1.283017992973328,0.1180992722511292,-0.05875612422823906,0.1124898344278336,XTrueNorthZVertical,0.7968891880709699,-0.3327646124896591,0.4690059990421162,0.1851183148122356,-0.8706932663917542,0.01709963195025921,0.4915293455123901,-31.48501205444336,-9.853583335876465,26.93509674072266,2,0.0.0.0,10.97.20.126,3,0
2015-02-21 11:25:35.605,68,1424543135.546819,39.63860959885405,-106.370137361642,2514.254,-1,-1,10,65,-9999,1424543135.57032,-28.75050354003906,2.07666015625,24.29549407958984,111.3155899047852,102.1890335083008,10,14548.13040254167,-0.892333984375,0.0217437744140625,0.7351837158203125,14548.12577775,-1.363646336144718,-1.425989605682928,1.125879314022444,14548.11542220834,2.268764946009976,-2.159212727138575,-0.04052770620533312,-1.333342671394348,-1.399164199829102,1.231961846351624,-0.0654076486825943,-0.05400538071990013,0.07241015136241913,XTrueNorthZVertical,0.7949227701699426,-0.381303247176484,0.4349313894936316,0.1831403631026523,-0.8311377763748169,0.04051661118865013,0.5545887351036072,-30.46724700927734,-9.686930656433105,28.13909912109375,2,0.0.0.0,10.97.20.126,3,0
2015-02-21 11:25:35.658,69,1424543135.546819,39.63860959885405,-106.370137361642,2514.254,-1,-1,10,65,-9999,1424543135.622139,-25.92037963867188,1.5330810546875,26.35984039306641,117.2140350341797,108.0874786376953,10,14548.17965229167,-0.685272216796875,0.0053558349609375,0.6458740234375,14548.17755641667,-1.231341824770127,-1.179758791300273,1.037470621631192,14548.16720041667,2.180455703510862,-2.231372467853874,-0.04311170937765057,-1.314536452293396,-1.276116251945496,1.009808301925659,0.0009261330123990774,0.02663430944085121,0.002125694183632731,XTrueNorthZVertical,0.7919092541914839,-0.4235335497910084,0.3986325045054788,0.1859872971071499,-0.7889052629470825,0.04309835657477379,0.6130018830299377,-28.31481552124023,-10.02971267700195,30.19229507446289,2,0.0.0.0,10.97.20.126,3,0
2015-02-21 11:25:35.706,70,1424543135.546819,39.63860959885405,-106.370137361642,2514.254,-1,-1,10,65,-9999,1424543135.673702,-23.56761932373047,0.4459228515625,28.75714111328125,124.3854446411133,115.2588882446289,10,14548.22862225,-0.6955413818359375,0.0381622314453125,0.8083038330078125,14548.17755641667,-1.231341824770127,-1.179758791300273,1.037470621631192,14548.16720041667,2.180455703510862,-2.231372467853874,-0.04311170937765057,-1.314536452293396,-1.276116251945496,1.009808301925659,0.0009261330123990774,0.02663430944085121,0.002125694183632731,XTrueNorthZVertical,0.7919092541914839,-0.4235335497910084,0.3986325045054788,0.1859872971071499,-0.7889052629470825,0.04309835657477379,0.6130018830299377,-28.31481552124023,-10.02971267700195,30.19229507446289,2,0.0.0.0,10.97.20.126,3,0
2015-02-21 11:25:35.756,71,1424543135.546819,39.63860959885405,-106.370137361642,2514.254,-1,-1,10,65,-9999,1424543135.725853,-21.38534545898438,-0.879058837890625,30.38863754272461,130.2825317382812,121.1559677124023,10,14548.277756875,-0.5777435302734375,0.01605224609375,0.891815185546875,14548.28111304167,-0.8817753000863259,-1.889397478536019,1.20398929616225,14548.27075754167,2.024151530759687,-2.370974894690891,-0.04955554976582381,-0.9280644059181213,-1.796823978424072,1.162928462028503,0.127532035112381,-0.04121923074126244,0.1370989382266998,XTrueNorthZVertical,0.7805882212122065,-0.4989808874586354,0.3307647907094062,0.179707648943882,-0.6957235932350159,0.04953527078032494,0.7165998220443726,-26.38101768493652,-10.62849235534668,31.70134925842285,2,0.0.0.0,10.97.20.126,3,0
2015-02-21 11:25:35.801,72,1424543135.546819,39.63860959885405,-106.370137361642,2514.254,-1,-1,10,65,-9999,1424543135.777668,-18.96439361572266,-1.898284912109375,31.55399703979492,139.8713989257812,130.7448425292969,10,14548.326843625,-0.5601806640625,0.148956298828125,0.98358154296875,14548.28111304167,-0.8817753000863259,-1.889397478536019,1.20398929616225,14548.27075754167,2.024151530759687,-2.370974894690891,-0.04955554976582381,-0.9280644059181213,-1.796823978424072,1.162928462028503,0.127532035112381,-0.04121923074126244,0.1370989382266998,XTrueNorthZVertical,0.7805882212122065,-0.4989808874586354,0.3307647907094062,0.179707648943882,-0.6957235932350159,0.04953527078032494,0.7165998220443726,-26.38101768493652,-10.62849235534668,31.70134925842285,2,0.0.0.0,10.97.20.126,3,0
2015-02-21 11:25:35.855,73,1424543135.546819,39.63860959885405,-106.370137361642,2514.254,-1,-1,10,65,-9999,1424543135.829077,-16.01493072509766,-2.83258056640625,32.96907424926758,149.3918609619141,140.2653045654297,10,14548.376087625,-0.4643402099609375,0.1358642578125,1.049484252929688,14548.3328915,-0.4080689832978985,-2.009497787899214,1.419009993098048,14548.3225355,1.950251718776611,-2.475394094138113,-0.06528553219025707,-0.5171362161636353,-2.089193820953369,1.425222039222717,0.05381917953491211,0.07952096313238144,0.1691876500844955,XTrueNorthZVertical,0.7758686687405536,-0.5387752528406998,0.2878204350733534,0.1578243199054112,-0.6166853904724121,0.06523916870355606,0.7845019102096558,-22.87916946411133,-10.61715602874756,34.31789779663086,2,0.0.0.0,10.97.20.126,3,0
2015-02-21 11:25:35.900,74,1424543135.546819,39.63860959885405,-106.370137361642,2514.254,-1,-1,10,65,-9999,1424543135.880659,-13.18479156494141,-2.628753662109375,33.86806488037109,152.2042388916016,143.0776824951172,10,14548.42506695833,-0.3844757080078125,0.1798858642578125,1.016571044921875,14548.38466970833,0.01567003985402624,-1.212250954495894,1.426256987056372,14548.37431416667,1.883910903266689,-2.568507954694731,-0.09600006521429903,-0.06931652128696442,-1.414402723312378,1.423284888267517,0.03817351162433624,0.03358763083815575,0.1988993883132935,XTrueNorthZVertical,0.7668658367029597,-0.5745421012406109,0.2553806912353622,0.1288369044577675,-0.53972989320755,0.09585268050432205,0.836363673210144,-20.50336265563965,-9.820084571838379,36.01494979858398,2,0.0.0.0,10.97.20.126,3,0
2015-02-21 11:25:35.953,75,1424543135.546819,39.63860959885405,-106.370137361642,2514.254,-1,-1,10,65,-9999,1424543135.933565,-11.05366516113281,-2.3399658203125,34.9501838684082,154.3628540039062,145.2362976074219,10,14548.47424766667,-0.3380889892578125,0.1855010986328125,0.980255126953125,14548.436448125,0.404623651795663,-0.5776700004746137,1.15878080507761,14548.42609258334,1.826373066605146,-2.619151740952177,-0.1396969104987132,0.3221179246902466,-0.5709778666496277,1.283861637115479,0.1096601933240891,0.0406428799033165,0.1584094017744064,XTrueNorthZVertical,0.7517243133790436,-0.6033169819005846,0.2451141030723244,0.1041073268624432,-0.4941358864307404,0.1392429769039154,0.8581616282463074,-19.43419647216797,-9.01322078704834,36.8099479675293,2,0.0.0.0,10.97.20.126,3,0
2015-02-21 11:25:36.003,76,1424543135.546819,39.63860959885405,-106.370137361642,2514.254,-1,-1,10,65,-9999,1424543135.984135,-9.723846435546875,-0.743194580078125,35.11666488647461,157.5082092285156,148.3816528320312,10,14548.523284375,-0.3067474365234375,0.262054443359375,0.997589111328125,14548.48822683333,0.785592840473133,-1.023483433269987,1.095958965491513,14548.47787083333,1.789925307256746,-2.660499424216682,-0.1920226698689984,0.7405552268028259,-0.9282905459403992,1.119658231735229,0.1161544620990753,-0.005343678873032331,0.1100589036941528,XTrueNorthZVertical,0.7399465460234486,-0.6225570029946627,0.2432512784880808,0.07570195222320666,-0.4542434513568878,0.1908447742462158,0.8701962232589722,-18.21294212341309,-6.137657165527344,38.00679397583008,2,0.0.0.0,10.97.20.126,6,0
2015-02-21 11:25:36.051,77,1424543135.546819,39.63860959885405,-106.370137361642,2514.254,-1,-1,10,65,-9999,1424543136.036503,-8.223541259765625,1.227325439453125,35.38302612304688,157.3256683349609,148.1991119384766,10,14548.572427375,-0.2425689697265625,0.291839599609375,0.8006744384765625,14548.54000491667,0.8796780607278885,-0.7894317871844823,0.6421869420945463,14548.52964920833,1.763618814880155,-2.715089356007968,-0.2511998969235129,0.8872120976448059,-0.8474190235137939,0.746720552444458,0.09395879507064819,0.01348806731402874,0.1157446876168251,XTrueNorthZVertical,0.7316077042166553,-0.6369241542376881,0.2399123379520134,0.03898643333338141,-0.4007062315940857,0.2485663741827011,0.8818444013595581,-16.74237823486328,-3.91643238067627,38.96476364135742,2,0.0.0.0,10.97.20.126,6,0
2015-02-21 11:25:36.100,78,1424543135.546819,39.63860959885405,-106.370137361642,2514.254,-1,-1,10,65,-9999,1424543136.088099,-6.808483123779297,3.316741943359375,35.49956130981445,158.4415283203125,149.3149719238281,10,14548.621516125,-0.2883148193359375,0.27362060546875,1.000518798828125,14548.59178345833,1.059093092837655,-0.8234459469430834,0.4702508652740496,14548.58142791667,1.753765086980539,-2.756034391215717,-0.3026813437402948,0.9481871128082275,-0.8016377687454224,0.4959204792976379,0.116411380469799,-0.006241127382963896,-0.08379223942756653,XTrueNorthZVertical,0.7274110377692916,-0.6427336309091509,0.2402338987291944,0.007376905674559658,-0.3589803576469421,0.298080712556839,0.8844666481018066,-15.83143711090088,-2.519866943359375,39.45775604248047,2,0.0.0.0,10.97.20.126,6,0
2015-02-21 11:25:36.150,79,1424543135.546819,39.63860959885405,-106.370137361642,2514.254,-1,-1,10,65,-9999,1424543136.140007,-5.325222015380859,5.100372314453125,35.51621246337891,160.3664703369141,151.2399139404297,10,14548.67076895833,-0.2960052490234375,0.31536865234375,0.8900909423828125,14548.64356204167,0.6274474107253937,-0.9480557869801089,0.3053684369167368,14548.63320604167,1.7512399765928,-2.802644713412683,-0.358098516156179,0.800700843334198,-0.9991818070411682,0.3446006178855896,0.0490436777472496,-0.07736168056726456,0.1067109704017639,XTrueNorthZVertical,0.7255981311312525,-0.6443190068050668,0.2398919840744507,-0.02850067633598071,-0.3114033043384552,0.350493997335434,0.8832792639732361,-13.37162017822266,0.9462976455688477,40.42527389526367,2,0.0.0.0,10.97.20.126,6,0
2015-02-21 11:25:36.201,80,1424543135.546819,39.63860959885405,-106.370137361642,2514.254,-1,-1,10,65,-9999,1424543136.191834,-4.046546936035156,6.476348876953125,35.69933700561523,158.9642333984375,149.8376770019531,10,14548.71975158333,-0.2235107421875,0.3205718994140625,0.9466705322265625,14548.69533995833,0.6300682275541407,-0.1696135340338386,0.3517652304797702,14548.68498441667,1.739766172862446,-2.836743008607138,-0.3865843126704084,0.5752624869346619,-0.2733398675918579,0.4710096418857574,-0.04823347553610802,-0.0487188994884491,0.004518568050116301,XTrueNorthZVertical,0.7225153704973621,-0.6478581086623167,0.2363257407993666,-0.04900650648021025,-0.2779994308948517,0.3770270049571991,0.8834971785545349,-11.82005405426025,2.264385223388672,40.85409545898438,2,0.0.0.0,10.97.20.126,6,0
2015-02-21 11:25:36.248,81,1424543135.546819,39.63860959885405,-106.370137361642,2514.254,-1,-1,10,65,-9999,1424543136.243701,-3.347541809082031,7.580535888671875,35.44961547851562,156.7359008789062,147.6093444824219,10,14548.76889620833,-0.12164306640625,0.4223785400390625,0.862518310546875,14548.74711870833,0.139142976421697,0.5469038319814733,0.05444300216448986,14548.73676304167,1.732183907101432,-2.841534321076233,-0.4049303848139208,0.1852634996175766,0.4021779298782349,0.1035997420549393,0.08112094551324844,-0.06328155845403671,0.06734147667884827,XTrueNorthZVertical,0.7183894020065137,-0.6503444895030694,0.2403397608644763,-0.05661796898107171,-0.2716726958751678,0.3939547836780548,0.8780625462532043,-11.59258842468262,2.974711418151855,40.87372589111328,2,0.0.0.0,10.97.20.126,6,0
2015-02-21 11:25:36.302,82,1424543135.546819,39.63860959885405,-106.370137361642,2514.254,-1,-1,10,65,-9999,1424543136.295587,-3.245250701904297,8.022216796875,34.88358688354492,155.9290771484375,146.8025207519531,10,14548.817991375,-0.181976318359375,0.354888916015625,0.8884735107421875,14548.79889725,0.2315538672991195,-0.2990676640937183,0.09031205362233109,14548.78854125,1.731956358713903,-2.820462567317455,-0.4140623709823068,0.2207776457071304,0.01574782282114029,0.07537124305963516,0.1827187687158585,0.03120100125670433,-0.01735983416438103,XTrueNorthZVertical,0.7145821835328693,-0.6509370391790277,0.2506469806580062,-0.05319255676767761,-0.2889657318592072,0.4023317098617554,0.868693470954895,-12.41234016418457,3.595561027526855,40.58206558227539,2,0.0.0.0,10.97.20.126,6,0
2015-02-21 11:25:36.346,83,1424543135.546819,39.63860959885405,-106.370137361642,2514.254,-1,-1,10,65,-9999,1424543136.295587,-3.245250701904297,8.022216796875,34.88358688354492,155.9290771484375,146.8025207519531,10,14548.86724033333,-0.1941986083984375,0.4450836181640625,0.9307098388671875,14548.85067533333,0.34432941840016,-0.877276954689073,-0.03840890818944979,14548.84031983333,1.730087355396243,-2.851560467873545,-0.429367137733824,0.346473902463913,-0.8583691716194153,0.03238239511847496,0.06535262614488602,0.01978546380996704,0.0276704914867878,XTrueNorthZVertical,0.7158775703116971,-0.6504974625588389,0.2441915236835455,-0.0688689937233174,-0.2600242495536804,0.4162954688072205,0.8712552785873413,-11.7024040222168,4.120837211608887,40.74274063110352,2,0.0.0.0,10.97.20.126,6,0
2015-02-21 11:25:36.403,84,1424543135.546819,39.63860959885405,-106.370137361642,2514.254,-1,-1,10,65,-9999,1424543136.346855,-2.478050231933594,8.480865478515625,35.13330841064453,157.5734100341797,148.4468536376953,10,14548.91623129167,-0.1371612548828125,0.465301513671875,0.87078857421875,14548.90245370834,0.3912314136219815,-0.5027129347493524,0.08415748834315798,14548.892098375,1.731519820846493,-2.888366268233591,-0.4475256479701623,0.3716408312320709,-0.5442328453063965,0.1565128266811371,0.03339776769280434,-0.001980566419661045,0.0632493793964386,XTrueNorthZVertical,0.7184977618416759,-0.6481868759840261,0.2364259621597816,-0.08784980053257735,-0.2258568704128265,0.4327361881732941,0.8727705478668213,-10.65515995025635,4.55095100402832,40.98359680175781,2,0.0.0.0,10.97.20.126,6,0
2015-02-21 11:25:36.443,85,1424543135.546819,39.63860959885405,-106.370137361642,2514.254,-1,-1,10,65,-9999,1424543136.398584,-1.114131927490234,9.3302001953125,35.00012969970703,143.7872467041016,134.6606903076172,10,14548.96536829167,-0.079986572265625,0.3715972900390625,0.8471832275390625,14548.9542325,0.3978379173381411,-0.9863299392184007,0.009506686143255857,14548.9438765,1.735165231736531,-2.917634320538637,-0.4699672115881143,0.461770236492157,-0.8391464948654175,-0.02090602740645409,0.08492959290742874,-0.008322750218212605,0.03897778689861298,XTrueNorthZVertical,0.7203349471556046,-0.6448069556676034,0.2325131103959636,-0.1062040033578062,-0.1980124711990356,0.4528570473194122,0.8693168759346008,0.5803718566894531,9.684733390808105,34.84555435180664,2,0.0.0.0,10.97.20.126,6,0
2015-02-21 11:25:36.501,86,1424543135.546819,39.63860959885405,-106.370137361642,2514.254,-1,-1,10,65,-9999,1424543136.450575,0.1133956909179688,9.873779296875,34.66717529296875,144.880859375,135.7543029785156,10,14549.01445316667,-0.1976318359375,0.4593505859375,0.9832305908203125,14549.00601041667,0.2112920050935787,-0.5879498022823195,0.2101764069129445,14548.99565483333,1.727907414673481,-2.967004327680995,-0.4833690665271692,0.1858663260936737,-0.6791260242462158,0.2837977111339569,-0.02915051952004433,-0.02984363026916981,0.01730817928910255,XTrueNorthZVertical,0.7219529375207762,-0.6440271572153906,0.2192120562784021,-0.1263294667233288,-0.153802365064621,0.4647648930549622,0.8719740509986877,2.148027896881104,10.16107749938965,34.64797592163086,2,0.0.0.0,10.97.20.126,6,0
2015-02-21 11:25:36.543,87,1424543135.546819,39.63860959885405,-106.370137361642,2514.254,-1,-1,10,65,-9999,1424543136.502662,0.8806037902832031,10.40036010742188,33.91801834106445,146.0118408203125,136.8852844238281,10,14549.063609875,-0.2061004638671875,0.4423980712890625,0.966888427734375,14549.05778908333,-0.2414395212654936,0.5433730130082463,0.2582680361937044,14549.04743354167,1.715116180953626,-2.987840506398703,-0.4853128715081492,-0.2248640358448029,0.2098765820264816,0.3061255216598511,-0.06630389392375946,-0.05872450768947601,0.1019489169120789,XTrueNorthZVertical,0.7198492428599685,-0.6471973889920891,0.213127398396389,-0.1323986491425051,-0.135463073849678,0.4664851129055023,0.8740947842597961,2.920861721038818,10.32844161987305,34.54179382324219,2,0.0.0.0,10.97.20.126,6,0
2015-02-21 11:25:36.602,88,1424543135.546819,39.63860959885405,-106.370137361642,2514.254,-1,-1,10,65,-9999,1424543136.553887,1.306831359863281,9.9757080078125,34.10114288330078,148.8057708740234,139.6792144775391,10,14549.11268841667,-0.004364013671875,0.4134674072265625,0.8779296875,14549.1095675,-0.2718818493700804,0.8927326100753479,0.1736639357357401,14549.04743354167,1.715116180953626,-2.987840506398703,-0.4853128715081492,-0.2248640358448029,0.2098765820264816,0.3061255216598511,-0.06630389392375946,-0.05872450768947601,0.1019489169120789,XTrueNorthZVertical,0.7198492428599685,-0.6471973889920891,0.213127398396389,-0.1323986491425051,-0.135463073849678,0.4664851129055023,0.8740947842597961,2.920861721038818,10.32844161987305,34.54179382324219,2,0.0.0.0,10.97.20.126,6,0
2015-02-21 11:25:36.640,89,1424543135.546819,39.63860959885405,-106.370137361642,2514.254,-1,-1,10,65,-9999,1424543136.605558,1.085197448730469,9.958770751953125,34.41744995117188,143.23193359375,134.1053771972656,10,14549.16190195833,-0.03314208984375,0.4835357666015625,0.897216796875,14549.16134575,0.0239266381815989,0.1018723032821471,-0.01851669274321193,14549.15099025,1.6868114677185,-2.924877314511048,-0.4664161722040162,-0.09145908057689667,0.2694248259067535,0.1429216116666794,0.120064489543438,0.02749995328485966,-0.01540546771138906,XTrueNorthZVertical,0.7058130126555511,-0.6617965198763388,0.2313511985802593,-0.1016369193126151,-0.1920554488897324,0.4496881663799286,0.8722932934761047,0.9593181610107422,9.438511848449707,34.90469360351562,2,0.0.0.0,10.97.20.126,6,0
2015-02-21 11:25:36.700,90,1424543135.546819,39.63860959885405,-106.370137361642,2514.254,-1,-1,10,65,-9999,1424543136.657623,0.3179893493652344,9.602020263671875,34.60058212280273,143.1905059814453,134.0639495849609,10,14549.21092616667,-0.0936737060546875,0.4634552001953125,0.9181060791015625,14549.16134575,0.0239266381815989,0.1018723032821471,-0.01851669274321193,14549.15099025,1.6868114677185,-2.924877314511048,-0.4664161722040162,-0.09145908057689667,0.2694248259067535,0.1429216116666794,0.120064489543438,0.02749995328485966,-0.01540546771138906,XTrueNorthZVertical,0.7058130126555511,-0.6617965198763388,0.2313511985802593,-0.1016369193126151,-0.1920554488897324,0.4496881663799286,0.8722932934761047,0.9593181610107422,9.438511848449707,34.90469360351562,2,0.0.0.0,10.97.20.126,6,0
2015-02-21 11:25:36.739,91,1424543135.546819,39.63860959885405,-106.370137361642,2514.254,-1,-1,10,65,-9999,1424543136.709721,-0.2275733947753906,9.5340576171875,34.53398895263672,148.4044189453125,139.2778625488281,10,14549.26007804167,-0.1452178955078125,0.411590576171875,0.882598876953125,14549.264902875,0.09550282090300453,-0.5417974869073553,0.1113624778266444,14549.202768625,1.687555827722378,-2.92883778234917,-0.4657363918501713,-0.05616220831871033,-0.2852326333522797,0.01125521212816238,0.1177866980433464,-0.0005945545854046941,0.04494351893663406,XTrueNorthZVertical,0.7065975936466865,-0.6613566919080657,0.2297024095754982,-0.1027815779338015,-0.1886637657880783,0.4490808844566345,0.873345673084259,0.7269883155822754,9.361332893371582,34.93108367919922,2,0.0.0.0,10.97.20.126,6,0
2015-02-21 11:25:36.802,92,1424543135.546819,39.63860959885405,-106.370137361642,2514.254,-1,-1,10,65,-9999,1424543136.760778,0.1816062927246094,9.703948974609375,35.03343200683594,151.1285705566406,142.0020141601562,10,14549.30916370833,-0.1397552490234375,0.4380035400390625,0.8430938720703125,14549.264902875,0.09550282090300453,-0.5417974869073553,0.1113624778266444,14549.254546875,1.686614625134315,-2.94749630620932,-0.4684843820193857,0.1012850254774094,-0.5158544778823853,0.1048647314310074,0.04325264319777489,-0.04044745117425919,-0.01143997721374035,XTrueNorthZVertical,0.708076412941674,-0.6605887572268286,0.2240134201790794,-0.1098560778794549,-0.1720978617668152,0.4515344798564911,0.875499427318573,1.393945693969727,9.391632080078125,34.90269088745117,2,0.0.0.0,10.97.20.126,6,0
2015-02-21 11:25:36.838,93,1424543135.546819,39.63860959885405,-106.370137361642,2514.254,-1,-1,10,65,-9999,1424543136.813293,0.7442283630371094,9.551055908203125,34.91688537597656,151.6191253662109,142.4925689697266,10,14549.35831066667,-0.1809539794921875,0.3785858154296875,0.953521728515625,14549.31668083333,-0.1126636983352571,-0.2357004091163729,0.1798475294707951,14549.30632529167,1.677019452687206,-2.972615850969511,-0.4706856348274178,-0.09422553330659866,-0.2683968544006348,0.1968252509832382,-0.006394305266439915,-0.009314119815826416,0.01132870372384787,XTrueNorthZVertical,0.7074133926873245,-0.6624562090054513,0.2163640713909811,-0.1179183387521777,-0.1498862057924271,0.4534974694252014,0.8785638809204102,2.202939987182617,9.470287322998047,34.83969497680664,2,0.0.0.0,10.97.20.126,6,0
2015-02-21 11:25:36.902,94,1424543135.546819,39.63860959885405,-106.370137361642,2514.254,-1,-1,10,65,-9999,1424543136.864843,1.238651275634766,9.432098388671875,35.13331604003906,151.1477813720703,142.0212249755859,10,14549.40741433333,-0.0761871337890625,0.3699188232421875,0.810028076171875,14549.36845954167,-0.362647705642161,0.2667872222047588,0.1101203794942315,14549.35810404167,1.663485853158127,-2.982900331150625,-0.4662422150858651,-0.2342738956212997,0.1376429349184036,0.190495640039444,-0.05088720098137856,-0.05544402822852135,0.03983505070209503,XTrueNorthZVertical,0.7045171980517396,-0.6668399307118698,0.2121187668173283,-0.118261304861865,-0.1411599218845367,0.4495327770709991,0.8820399641990662,2.531585693359375,9.361063957214355,34.84688186645508,2,0.0.0.0,10.97.20.126,6,0
2015-02-21 11:25:36.936,95,1424543135.546819,39.63860959885405,-106.370137361642,2514.254,-1,-1,10,65,-9999,1424543136.916738,1.051113128662109,8.32794189453125,34.98348617553711,148.2083129882812,139.0817565917969,10,14549.45668904167,-0.00738525390625,0.355712890625,0.84014892578125,14549.42023795833,-0.5886784431565653,0.465359969932119,0.01132589148388898,14549.40988195833,1.651082198982742,-2.965679366994611,-0.4431380096222716,-0.590700626373291,0.5722280740737915,0.1043247133493423,0.081916444003582,-0.05885766074061394,-0.07944047451019287,XTrueNorthZVertical,0.7010859772546542,-0.6732107600683038,0.2114357186481846,-0.1027654850185112,-0.1581035703420639,0.4287764728069305,0.8894685506820679,2.097023487091064,8.511795043945312,35.09267044067383,2,0.0.0.0,10.97.20.126,6,0
2015-02-21 11:25:37.001,96,1424543135.546819,39.63860959885405,-106.370137361642,2514.254,-1,-1,10,65,-9999,1424543136.968403,1.375045776367188,7.01995849609375,34.96683883666992,147.3111267089844,138.1845703125,10,14549.505675875,-0.1322784423828125,0.2680816650390625,0.9734954833984375,14549.47201616667,-0.8023161605382857,-0.5238312695614628,0.2311714373665841,14549.461660625,1.642880159085844,-2.963090962085174,-0.4137419613092723,-0.7236831188201904,-0.3698942959308624,0.1356862932443619,0.1551884412765503,-0.04632546752691269,-0.06092558056116104,XTrueNorthZVertical,0.7011949106095708,-0.6773942360948493,0.2032189218096966,-0.090359831039223,-0.1625736951828003,0.4020383656024933,0.9010745286941528,1.561104297637939,7.584297180175781,35.33249282836914,2,0.0.0.0,10.97.20.126,6,0
2015-02-21 11:25:37.034,97,1424543135.546819,39.63860959885405,-106.370137361642,2514.254,-1,-1,10,65,-9999,1424543137.020635,2.432079315185547,5.185333251953125,35.13331604003906,149.6056365966797,140.4790802001953,10,14549.55493083333,-0.0897064208984375,0.285888671875,0.9593505859375,14549.52379458333,-1.223341156223311,-0.5446872830062003,0.4024798071181492,14549.51343908333,1.614915481930434,-3.004358131883132,-0.3710644859201828,-1.11729371547699,-0.6415708661079407,0.4466066062450409,-0.004784889053553343,-0.094526007771492,0.05031544342637062,XTrueNorthZVertical,0.6997169479989429,-0.6870125273143982,0.1759197834109506,-0.08638456347631562,-0.1274935603141785,0.3626076877117157,0.9231800436973572,2.005638122558594,6.791691780090332,35.47103118896484,2,0.0.0.0,10.97.20.126,6,0
2015-02-21 11:25:37.101,98,1424543135.546819,39.63860959885405,-106.370137361642,2514.254,-1,-1,10,65,-9999,1424543137.073051,2.960594177246094,3.06195068359375,35.38303756713867,149.8123474121094,140.685791015625,10,14549.60391725,0.057952880859375,0.2235870361328125,1.095062255859375,14549.57557329167,-1.056170273541293,-0.0004514058047684309,0.06673642007240464,14549.56521729167,1.587200295257903,-3.026526707659635,-0.3130452747828826,-1.076142430305481,0.03954943269491196,0.2617582380771637,0.03339618444442749,-0.01642291061580181,0.04018159583210945,XTrueNorthZVertical,0.6967167754153518,-0.6979542971171565,0.1496287231608411,-0.07111161791161662,-0.1092323660850525,0.3079573214054108,0.945108950138092,3.452934741973877,3.719038009643555,35.81326293945312,2,0.0.0.0,10.97.20.126,6,0
2015-02-21 11:25:37.132,99,1424543135.546819,39.63860959885405,-106.370137361642,2514.254,-1,-1,10,65,-9999,1424543137.124223,3.659595489501953,0.6328125,35.69934463500977,150.3006286621094,141.174072265625,10,14549.653173375,-0.0101470947265625,0.2399139404296875,1.06683349609375,14549.62735125,-1.090392692497138,-0.2206048131094767,0.1384087429091621,14549.61699570833,1.579023387894311,-3.032864724448218,-0.2549491224957647,-1.174667596817017,-0.1316671669483185,0.1047933325171471,0.2046003788709641,-0.03936658799648285,0.1131111308932304,XTrueNorthZVertical,0.6983436692701577,-0.7023511758580948,0.1276582952936762,-0.05217650821948301,-0.1050062626600266,0.2521961629390717,0.961962103843689,3.535160303115845,1.854825973510742,35.95005035400391,2,0.0.0.0,10.97.20.126,6,0
2015-02-21 11:25:37.171,100,1424543135.546819,39.63860959885405,-106.370137361642,2514.254,-1,-1,10,65,-9999,1424543137.124223,3.659595489501953,0.6328125,35.69934463500977,150.3006286621094,141.174072265625,10,14549.702163125,-0.003570556640625,0.2151641845703125,1.139297485351562,14549.67912991667,-0.4125833076616918,-0.6320882352409658,-0.1924717119860977,14549.66877445833,1.569153824398708,-3.056865999428515,-0.2099426419741736,-0.5783218145370483,-0.6623412370681763,-0.07492426782846451,0.02881212718784809,0.0537574514746666,0.1191848367452621,XTrueNorthZVertical,0.6988660839961913,-0.7062956312988764,0.1038411192767658,-0.04415634497464026,-0.08276720345020294,0.2084037959575653,0.9745346307754517,3.72199273109436,0.5963282585144043,35.97408294677734,2,0.0.0.0,10.97.20.126,6,0
2015-02-21 11:25:37.230,101,1424543135.546819,39.63860959885405,-106.370137361642,2514.254,-1,-1,10,65,-9999,1424543137.175779,4.546142578125,-0.59027099609375,35.96571731567383,149.2307434082031,140.1041870117188,10,14549.75131766667,-0.0066986083984375,0.1240997314453125,1.072586059570312,14549.730908375,-0.05122883304487323,-0.27445632719586,-0.1678987246079366,14549.720552375,1.578838781166187,-3.076205586636823,-0.1932631952685676,-0.1636899262666702,-0.1950522065162659,-0.1963309198617935,0.09380237758159637,0.01228334754705429,0.1252217441797256,XTrueNorthZVertical,0.7040337912551173,-0.7028365901258042,0.09100956796999035,-0.04554656842634019,-0.06412403285503387,0.1920623481273651,0.979285717010498,5.081318378448486,-0.9264826774597168,35.80035781860352,2,0.0.0.0,10.97.20.126,6,0
2015-02-21 11:25:37.271,102,1424543135.546819,39.63860959885405,-106.370137361642,2514.254,-1,-1,10,65,-9999,1424543137.227869,5.534984588623047,-1.507537841796875,35.73264694213867,149.1240844726562,139.9975280761719,10,14549.80041183333,0.0354766845703125,0.170562744140625,0.9937744140625,14549.782686625,0.003817108790410572,-0.6186139717057099,0.03640381420472914,14549.77233104167,1.584571631068613,-3.101429569306611,-0.1917233386825323,-0.04746202379465103,-0.7063621878623962,-0.03073086962103844,0.0714142769575119,-0.09069742262363434,0.0412699356675148,XTrueNorthZVertical,0.7071989756027202,-0.7002231937260841,0.08143001580613327,-0.05409550264615866,-0.0394165962934494,0.1905509382486343,0.9808858036994934,5.720430374145508,-0.9809460639953613,35.70235443115234,2,0.0.0.0,10.97.20.126,6,0
2015-02-21 11:25:37.328,103,1424543135.546819,39.63860959885405,-106.370137361642,2514.254,-1,-1,10,65,-9999,1424543137.279563,6.523826599121094,-1.711334228515625,35.19990921020508,148.2062225341797,139.0796661376953,10,14549.849673625,0.1068115234375,0.1475372314453125,1.00714111328125,14549.83446504167,0.06272250367743722,-0.7991640430720679,0.1595073703292059,14549.8241095,1.576128638651805,-3.137060425907045,-0.1912015804474589,0.05225653573870659,-0.7239238023757935,0.1860464811325073,0.05524612963199615,-0.06479457765817642,0.02159025147557259,XTrueNorthZVertical,0.7055977212690059,-0.7021504086653932,0.06891598549636076,-0.06608577229854075,-0.004449620377272367,0.1900387108325958,0.9817667007446289,6.430282592773438,-1.004270076751709,35.58070755004883,2,0.0.0.0,10.97.20.126,6,0
2015-02-21 11:25:37.400,104,1424543135.546819,39.63860959885405,-106.370137361642,2514.254,-1,-1,10,65,-9999,1424543137.383333,9.0811767578125,-2.1190185546875,34.36751174926758,151.9906463623047,142.8640899658203,10,14549.89866641667,0.111663818359375,0.131195068359375,1.0244140625,14549.88624375,0.1180318321445298,-0.7900403194935655,0.3218648556570146,14549.87588775,1.561689164523301,3.104784261061178,-0.1934456282537415,0.07958601415157318,-0.7582238912582397,0.3507744967937469,0.0646858811378479,0.002338689519092441,0.002791612641885877,XTrueNorthZVertical,0.7017334107455572,-0.7056286414341736,0.05569232799733821,-0.08097461478530399,0.0361136794090271,0.1922413855791092,0.9806831479072571,8.391514778137207,-1.09660005569458,35.16708374023438,2,0.0.0.0,10.97.20.126,6,0
2015-02-21 11:25:37.427,105,1424543135.546819,39.63860959885405,-106.370137361642,2514.254,-1,-1,10,65,-9999,1424543137.383333,9.0811767578125,-2.1190185546875,34.36751174926758,151.9906463623047,142.8640899658203,10,14549.94791266667,0.083099365234375,0.2115631103515625,0.9993438720703125,14549.93802179167,-0.003919640492378623,-0.339222008061606,0.2311940742358498,14549.927666125,1.540720968052434,3.063980742915874,-0.1959204517078823,0.00811323244124651,-0.5199538469314575,0.3412195146083832,-0.05148406699299812,-0.001188014401122928,0.1116832420229912,XTrueNorthZVertical,0.6952566134103472,-0.7110389752114649,0.04324895096690621,-0.09576757533680044,0.07605072110891342,0.1946694552898407,0.9779163599014282,9.604973793029785,-1.12567663192749,34.85428237915039,2,0.0.0.0,10.97.20.126,6,0
2015-02-21 11:25:37.501,106,1424543135.546819,39.63860959885405,-106.370137361642,2514.254,-1,-1,10,65,-9999,1424543137.486813,11.16115188598633,-2.322845458984375,33.76818084716797,150.524169921875,141.3976135253906,10,14549.99689175,0.1659088134765625,0.217132568359375,1.013412475585938,14549.98980041667,0.03930026820629932,-0.17618195454641,0.2429026619683832,14549.979444875,1.524283770099336,3.050704958506565,-0.1933251744422275,0.01614415645599365,-0.02692561596632004,0.347114771604538,0.04912705346941948,0.01120018400251865,0.05826306343078613,XTrueNorthZVertical,0.6897110834212817,-0.7162114473903097,0.03852031947370994,-0.09927765119494697,0.08907179534435272,0.1921231746673584,0.9773204326629639,10.03438663482666,-1.197358131408691,34.73069381713867,2,0.0.0.0,10.97.20.126,6,0
2015-02-21 11:25:37.525,107,1424543135.546819,39.63860959885405,-106.370137361642,2514.254,-1,-1,10,65,-9999,1424543137.486813,11.16115188598633,-2.322845458984375,33.76818084716797,150.524169921875,141.3976135253906,10,14550.046131875,0.158050537109375,0.1841583251953125,1.023971557617188,14550.04157883333,0.2296052323295086,-0.3584612164085564,0.3266713287923896,14550.03122283334,1.508107634496182,3.023955369615207,-0.1985116610971428,0.1937404274940491,-0.348391592502594,0.3475926220417023,0.1143241375684738,0.004449716303497553,0.03698855638504028,XTrueNorthZVertical,0.6842978145471208,-0.7200898511518069,0.03205996094900343,-0.1103600887294573,0.1150612384080887,0.1972104460000992,0.9735857844352722,10.91744422912598,-1.323011875152588,34.45870971679688,2,0.0.0.0,10.97.20.126,6,0
2015-02-21 11:25:37.572,108,1424543135.546819,39.63860959885405,-106.370137361642,2514.254,-1,-1,10,65,-9999,1424543137.538981,11.57033157348633,-2.696563720703125,33.96795654296875,153.4800720214844,144.353515625,10,14550.09510683333,0.253814697265625,0.129791259765625,0.9788360595703125,14550.04157883333,0.2296052323295086,-0.3584612164085564,0.3266713287923896,14550.03122283334,1.508107634496182,3.023955369615207,-0.1985116610971428,0.1937404274940491,-0.348391592502594,0.3475926220417023,0.1143241375684738,0.004449716303497553,0.03698855638504028,XTrueNorthZVertical,0.6842978145471208,-0.7200898511518069,0.03205996094900343,-0.1103600887294573,0.1150612384080887,0.1972104460000992,0.9735857844352722,10.91744422912598,-1.323011875152588,34.45870971679688,2,0.0.0.0,10.97.20.126,6,0
2015-02-21 11:25:37.624,109,1424543135.546819,39.63860959885405,-106.370137361642,2514.254,-1,-1,10,65,-9999,1424543137.590711,12.03065490722656,-2.33984375,33.25209808349609,153.50634765625,144.3797912597656,10,14550.14443983333,0.212982177734375,0.1765594482421875,0.953948974609375,14550.14513558333,0.1352813928410821,-0.6113163776866748,0.1962241059620193,14550.13477991667,1.479078623724515,2.982284171155383,-0.2156402633892902,0.1481313109397888,-0.531750500202179,0.2409904152154922,0.07317271083593369,-0.02624402567744255,-0.02498661167919636,XTrueNorthZVertical,0.6742354529720601,-0.7263894829723726,0.02593430308487229,-0.1307377830331183,0.1549614518880844,0.2139729112386703,0.9644702672958374,11.79119110107422,-0.9745659828186035,34.18130874633789,2,0.0.0.0,10.97.20.126,6,0
2015-02-21 11:25:37.701,110,1424543135.546819,39.63860959885405,-106.370137361642,2514.254,-1,-1,10,65,-9999,1424543137.694459,13.58211135864258,-2.254913330078125,32.90248107910156,155.9718627929688,146.8453063964844,10,14550.19330879167,0.1915740966796875,0.18121337890625,0.988494873046875,14550.19691416667,-0.04073065202778087,-0.3470317279582634,0.2082165866667552,14550.13477991667,1.479078623724515,2.982284171155383,-0.2156402633892902,0.1481313109397888,-0.531750500202179,0.2409904152154922,0.07317271083593369,-0.02624402567744255,-0.02498661167919636,XTrueNorthZVertical,0.6742354529720601,-0.7263894829723726,0.02593430308487229,-0.1307377830331183,0.1549614518880844,0.2139729112386703,0.9644702672958374,11.79119110107422,-0.9745659828186035,34.18130874633789,2,0.0.0.0,10.97.20.126,6,0
2015-02-21 11:25:37.721,111,1424543135.546819,39.63860959885405,-106.370137361642,2514.254,-1,-1,10,65,-9999,1424543137.694459,13.58211135864258,-2.254913330078125,32.90248107910156,155.9718627929688,146.8453063964844,10,14550.24243541667,0.2435150146484375,0.1973419189453125,1.005416870117188,14550.19691416667,-0.04073065202778087,-0.3470317279582634,0.2082165866667552,14550.18655816667,1.466571707769015,2.952712719446307,-0.2140373794815571,-0.01976861990988255,-0.3817116022109985,0.2594898045063019,0.007031493354588747,-0.01617884449660778,0.02669351361691952,XTrueNorthZVertical,0.6700036035405196,-0.7286949980780328,0.01625227941256769,-0.1408357818130513,0.1834744811058044,0.2124068737030029,0.9598024487495422,12.99532127380371,-0.9811348915100098,33.74170684814453,2,0.0.0.0,10.97.20.126,6,0
2015-02-21 11:25:37.773,112,1424543135.546819,39.63860959885405,-106.370137361642,2514.254,-1,-1,10,65,-9999,1424543137.746467,14.04243087768555,-2.577667236328125,32.88583755493164,155.7112731933594,146.584716796875,10,14550.29153375,0.3001861572265625,0.163665771484375,0.982696533203125,14550.24869208333,-0.06313982102025263,0.09853802559736785,0.1664281270539948,14550.23833675,1.457894686940724,2.939414643988159,-0.2039820238120036,-0.1032292172312737,0.001925391261465847,0.181453749537468,0.04612696543335915,-0.02308125793933868,0.05254963785409927,XTrueNorthZVertical,0.6669044154261047,-0.7313681365825784,0.008683209666312764,-0.1423510953698865,0.1966403722763062,0.2025703936815262,0.9593216776847839,13.47110366821289,-1.337904453277588,33.54225540161133,2,0.0.0.0,10.97.20.126,6,0
2015-02-21 11:25:37.820,113,1424543135.546819,39.63860959885405,-106.370137361642,2514.254,-1,-1,10,65,-9999,1424543137.797726,14.1276741027832,-2.730560302734375,32.66941833496094,155.4584350585938,146.3318786621094,10,14550.340768625,0.2347259521484375,0.2230224609375,0.9879608154296875,14550.35224941667,0.06656837460762063,-0.2352980054756619,0.05474820042541294,14550.29011533334,1.449112287896358,2.931739786549318,-0.1969827050226702,0.02318570576608181,-0.1961504817008972,0.06758961826562881,0.06701374799013138,-0.02649131044745445,0.03084268234670162,XTrueNorthZVertical,0.6636750174259867,-0.7342405922674876,0.004143965618442561,-0.1428605420208173,0.2042875289916992,0.1957112848758698,0.959147572517395,13.53382682800293,-1.555580139160156,33.50760269165039,2,0.0.0.0,10.97.20.126,6,0
2015-02-21 11:25:37.870,114,1424543135.546819,39.63860959885405,-106.370137361642,2514.254,-1,-1,10,65,-9999,1424543137.849721,14.84372711181641,-3.10430908203125,33.03567504882812,156.8029937744141,147.6764373779297,10,14550.38985441667,0.257659912109375,0.173797607421875,0.9648284912109375,14550.35224941667,0.06656837460762063,-0.2352980054756619,0.05474820042541294,14550.34189341667,1.442675722450029,2.917301095122339,-0.1975940061979069,0.06349986046552658,-0.1582244634628296,0.09959051012992859,0.0166380163282156,0.02671173773705959,0.03197960555553436,XTrueNorthZVertical,0.6613303998427533,-0.7352773001135215,5.86088610972439e-05,-0.1483559023187796,0.2180879414081573,0.1963107287883759,0.9559811949729919,14.06380462646484,-1.763752460479736,33.27825546264648,2,0.0.0.0,10.97.20.126,6,0
2015-02-21 11:25:37.918,115,1424543135.546819,39.63860959885405,-106.370137361642,2514.254,-1,-1,10,65,-9999,1424543137.902898,15.08241271972656,-2.7305908203125,32.46963882446289,156.3644866943359,147.2379302978516,10,14550.43900545833,0.3028106689453125,0.1729583740234375,0.9517364501953125,14550.40402741667,0.0368799874076353,-0.2010430959545177,0.05026716557524562,14550.393672,1.437670451286848,2.89848632011836,-0.1994759210620287,0.04317214339971542,-0.2509283125400543,0.07139381766319275,0.02171441540122032,-0.02435806393623352,0.01347977668046951,XTrueNorthZVertical,0.659487549092211,-0.7353574164239487,-0.00506720012491016,-0.1558847304637665,0.2359454929828644,0.1981556713581085,0.9513487219810486,14.55678939819336,-1.730530738830566,33.06733703613281,2,0.0.0.0,10.97.20.126,6,0
2015-02-21 11:25:37.957,116,1424543135.546819,39.63860959885405,-106.370137361642,2514.254,-1,-1,10,65,-9999,1424543137.953531,15.57683181762695,-2.883514404296875,32.61947250366211,156.9005737304688,147.7740173339844,10,14550.48796608333,0.265289306640625,0.166473388671875,0.985931396484375,14550.455806125,-0.05201286766979256,-0.1377128589163244,-0.07716216310784683,14550.44545058333,1.434497807732711,2.883599476015748,-0.1956494522909806,-0.05170812830328941,-0.2098575532436371,-0.02487519755959511,0.05253763496875763,-0.02144526317715645,0.003279304364696145,XTrueNorthZVertical,0.6582045141305336,-0.7355238884627027,-0.01115873722864926,-0.1601467847587924,0.2502730488777161,0.1944036334753036,0.9484571218490601,14.82753372192383,-1.769790649414062,32.94474029541016,2,0.0.0.0,10.97.20.126,6,0
2015-02-21 11:25:38.016,117,1424543135.546819,39.63860959885405,-106.370137361642,2514.254,-1,-1,10,65,-9999,1424543138.005508,15.35519409179688,-2.662628173828125,32.60282135009766,156.5612945556641,147.4347381591797,10,14550.53720604167,0.2858123779296875,0.1789703369140625,0.9665679931640625,14550.50758458333,-0.03628450458789359,0.1061573294760845,-0.02707902196392569,14550.49722858333,1.436243735380412,2.884417107998904,-0.1899064072291632,-0.06100443750619888,0.1082465946674347,0.01848425716161728,0.01551198679953814,-0.02229359745979309,0.03620583564043045,XTrueNorthZVertical,0.6587552424767537,-0.7354619708453789,-0.01318707609377757,-0.1579981138493277,0.2497773170471191,0.1887669861316681,0.9497255682945251,15.17851066589355,-2.045670032501221,32.76845550537109,2,0.0.0.0,10.97.20.126,6,0
2015-02-21 11:25:38.055,118,1424543135.546819,39.63860959885405,-106.370137361642,2514.254,-1,-1,10,65,-9999,1424543138.005508,15.35519409179688,-2.662628173828125,32.60282135009766,156.5612945556641,147.4347381591797,10,14550.58627708333,0.2828369140625,0.167144775390625,0.957305908203125,14550.55936279167,-0.09742003057175258,0.05974375799818358,-0.04781545947571868,14550.54900729167,1.437519340865388,2.885377680518729,-0.1860638832996989,-0.08051068335771561,0.08003110438585281,-0.02724388800561428,0.01219882443547249,-0.004862153902649879,0.03115182369947433,XTrueNorthZVertical,0.6591643322403617,-0.7354129677121738,-0.01441420210048262,-0.1564048074929969,0.2490469068288803,0.1849921643733978,0.9506596922874451,15.15044593811035,-2.145153045654297,32.77508163452148,2,0.0.0.0,10.97.20.126,6,0
2015-02-21 11:25:38.115,119,1424543135.546819,39.63860959885405,-106.370137361642,2514.254,-1,-1,10,65,-9999,1424543138.109019,15.11650848388672,-3.274169921875,33.30203247070312,158.0364990234375,148.9099426269531,10,14550.63531345834,0.2459259033203125,0.155670166015625,0.9635009765625,14550.61114125,-0.1646677775734524,0.01065477488918902,-0.048902029200471,14550.60078570834,1.438716890583205,2.887903716980925,-0.1792038138885368,-0.1454317569732666,0.05366446450352669,-0.01055752299726009,0.03952635824680328,0.01215297542512417,0.01320642791688442,XTrueNorthZVertical,0.6595017540357461,-0.7357332014945328,-0.01624959471891513,-0.1532648893911257,0.2469574064016342,0.1782462000846863,0.952491819858551,15.0847692489624,-2.246392726898193,32.798583984375,2,0.0.0.0,10.97.20.126,6,0
2015-02-21 11:25:38.153,120,1424543135.546819,39.63860959885405,-106.370137361642,2514.254,-1,-1,10,65,-9999,1424543138.109019,15.11650848388672,-3.274169921875,33.30203247070312,158.0364990234375,148.9099426269531,10,14550.68438629167,0.304168701171875,0.193115234375,0.9967803955078125,14550.66292,-0.2052282536075772,0.2200029387031188,-0.007632353368058089,14550.652564,1.440397175415697,2.89338633370594,-0.1692283188454812,-0.1981522589921951,0.2446844428777695,0.04709793999791145,0.01243653893470764,-0.02268504723906517,0.02297752536833286,XTrueNorthZVertical,0.6599837160335967,-0.7363255298218951,-0.01831034792888525,-0.1480237240037449,0.2421563565731049,0.168421745300293,0.9555075764656067,14.94522476196289,-2.706955909729004,32.82767486572266,2,0.0.0.0,10.97.20.126,6,0
2015-02-21 11:25:38.213,121,1424543135.546819,39.63860959885405,-106.370137361642,2514.254,-1,-1,10,65,-9999,1424543138.160978,15.08241271972656,-3.376068115234375,32.96906661987305,156.1742553710938,147.0476989746094,10,14550.73363741667,0.246978759765625,0.160125732421875,0.998077392578125,14550.71469795833,-0.04790201221114625,-0.00375585608533875,-0.04385507261866184,14550.704342375,1.442642039104067,2.898088528704549,-0.1606210544565896,-0.08493199199438095,-0.001051426865160465,-0.03252365812659264,0.01973478309810162,-0.009525413624942303,0.03791879117488861,XTrueNorthZVertical,0.6606925839681482,-0.7365384346535306,-0.02014815341284125,-0.1434941764947094,0.2380014210939407,0.1599313020706177,0.9580070972442627,14.71670341491699,-2.99828577041626,32.90550994873047,2,0.0.0.0,10.97.20.126,6,0
2015-02-21 11:25:38.253,122,1424543135.546819,39.63860959885405,-106.370137361642,2514.254,-1,-1,10,65,-9999,1424543138.212927,15.33815002441406,-3.1212158203125,32.85253524780273,152.9090728759766,143.7825164794922,10,14550.78270804167,0.260498046875,0.1432342529296875,0.9787139892578125,14550.76647666667,0.06097174157681912,-0.1248196971309238,0.0446300524958749,14550.756121125,1.440538332262489,2.897710632220349,-0.1589755795967896,0.03959947824478149,-0.06828735023736954,0.09249446541070938,0.01911118440330029,-0.009319971315562725,0.03726644068956375,XTrueNorthZVertical,0.6598817081091597,-0.7373206375739949,-0.02073900838890189,-0.1431236711647804,0.2384266555309296,0.1583067923784256,0.9581711888313293,14.7241735458374,-3.094383716583252,32.89326858520508,2,0.0.0.0,10.97.20.126,6,0
2015-02-21 11:25:38.311,123,1424543135.546819,39.63860959885405,-106.370137361642,2514.254,-1,-1,10,65,-9999,1424543138.264042,15.32109451293945,-3.37603759765625,32.9024772644043,153.3966369628906,144.2700805664062,10,14550.83185091667,0.283294677734375,0.1475830078125,0.9696197509765625,14550.818255125,0.04919444428816171,-0.01027154600832661,0.009955961419152224,14550.807899125,1.436797491388186,2.892191866460848,-0.1597240307536286,0.05271860584616661,-0.009512756019830704,0.04572973027825356,0.01590090990066528,-0.007464945781975985,0.02603187784552574,XTrueNorthZVertical,0.6584579394005446,-0.7381029650317328,-0.02200714497323148,-0.1454404470156248,0.2436816096305847,0.1590457558631897,0.9567257165908813,14.85592842102051,-3.12797737121582,32.83078765869141,2,0.0.0.0,10.97.20.126,6,0
2015-02-21 11:25:38.350,124,1424543135.546819,39.63860959885405,-106.370137361642,2514.254,-1,-1,10,65,-9999,1424543138.316184,15.0824089050293,-3.37603759765625,33.10225296020508,155.1455078125,146.0189514160156,10,14550.880930375,0.2465362548828125,0.1401519775390625,0.9875946044921875,14550.870033375,0.00837750584106226,0.03201625630882359,-0.03751967870147234,14550.85967783333,1.434934540214326,2.887709078747787,-0.1593222224788639,0.01431173551827669,0.03891482949256897,-0.009237233549356461,0.01651187427341938,-0.006900392472743988,0.01626885868608952,XTrueNorthZVertical,0.6577107901525617,-0.7384167254707624,-0.02349694001913053,-0.1469871861010029,0.2479839771986008,0.1586490422487259,0.9556854963302612,15.00533199310303,-3.161871433258057,32.759521484375,2,0.0.0.0,10.97.20.126,6,0
2015-02-21 11:25:38.409,125,1424543135.546819,39.63860959885405,-106.370137361642,2514.254,-1,-1,10,65,-9999,1424543138.367065,14.67323684692383,-3.342071533203125,32.83588409423828,156.5435485839844,147.4169921875,10,14550.92999316667,0.264739990234375,0.1607513427734375,0.9936676025390625,14550.92181183333,0.02685771327734011,0.01803279637314454,-0.08368211408857883,14550.91145625,1.435504301318368,2.888059687139047,-0.1578792571673242,0.01072345022112131,0.01895694620907307,-0.049090676009655,0.03523767367005348,0.01487968675792217,0.02484197542071342,XTrueNorthZVertical,0.6578940333614861,-0.7383575921877306,-0.0239656560735963,-0.1463872851762726,0.2477060556411743,0.1572241932153702,0.9559929966926575,14.98134899139404,-3.19669771194458,32.76711654663086,2,0.0.0.0,10.97.20.126,6,0
2015-02-21 11:25:38.448,126,1424543135.546819,39.63860959885405,-106.370137361642,2514.254,-1,-1,10,65,-9999,1424543138.419821,14.57093811035156,-3.647796630859375,32.73600387573242,156.5681915283203,147.4416351318359,10,14550.97902575,0.2519073486328125,0.1783294677734375,1.030441284179688,14550.97359054167,0.1076383133582776,0.2465991295614132,-0.2547302930016431,14550.91145625,1.435504301318368,2.888059687139047,-0.1578792571673242,0.01072345022112131,0.01895694620907307,-0.049090676009655,0.03523767367005348,0.01487968675792217,0.02484197542071342,XTrueNorthZVertical,0.6578940333614861,-0.7383575921877306,-0.0239656560735963,-0.1463872851762726,0.2477060556411743,0.1572241932153702,0.9559929966926575,14.98134899139404,-3.19669771194458,32.76711654663086,2,0.0.0.0,10.97.20.126,6,0
2015-02-21 11:25:38.507,127,1424543135.546819,39.63860959885405,-106.370137361642,2514.254,-1,-1,10,65,-9999,1424543138.471193,14.43454742431641,-3.78369140625,32.46963500976562,157.0168762207031,147.8903198242188,10,14551.02816066667,0.217803955078125,0.1953277587890625,1.09796142578125,14551.02536854167,0.1594836681955042,0.6047407666391601,-0.2479629343556428,14551.01501304167,1.448257945847294,2.915713990644451,-0.1700454934488118,0.1361697167158127,0.5753421187400818,-0.207700103521347,0.05343729257583618,0.01554149016737938,0.1066584065556526,XTrueNorthZVertical,0.663053833539891,-0.7352756384404435,-0.01118517007098754,-0.1400154431509664,0.2207326292991638,0.1692271828651428,0.960541307926178,14.45518398284912,-2.814231872558594,33.03742599487305,2,0.0.0.0,10.97.20.126,6,0
2015-02-21 11:25:38.547,128,1424543135.546819,39.63860959885405,-106.370137361642,2514.254,-1,-1,10,65,-9999,1424543138.523343,13.5650520324707,-3.49493408203125,32.71935653686523,157.8418426513672,148.7152862548828,10,14551.077348875,0.2128753662109375,0.2076416015625,1.03717041015625,14551.02536854167,0.1594836681955042,0.6047407666391601,-0.2479629343556428,14551.01501304167,1.448257945847294,2.915713990644451,-0.1700454934488118,0.1361697167158127,0.5753421187400818,-0.207700103521347,0.05343729257583618,0.01554149016737938,0.1066584065556526,XTrueNorthZVertical,0.663053833539891,-0.7352756384404435,-0.01118517007098754,-0.1400154431509664,0.2207326292991638,0.1692271828651428,0.960541307926178,14.45518398284912,-2.814231872558594,33.03742599487305,2,0.0.0.0,10.97.20.126,6,0
2015-02-21 11:25:38.605,129,1424543135.546819,39.63860959885405,-106.370137361642,2514.254,-1,-1,10,65,-9999,1424543138.574996,12.18408584594727,-2.798492431640625,33.43521499633789,157.3252563476562,148.1986999511719,10,14551.12638754167,0.17169189453125,0.2168426513671875,1.131195068359375,14551.12892575,0.3776498246947954,0.8674173997013817,-0.3503960993633605,14551.06679170833,1.461300098723824,2.951338939621904,-0.179909035200298,0.1199466288089752,0.8031281232833862,-0.3528677225112915,0.0164130125194788,0.003082017181441188,0.1249110251665115,XTrueNorthZVertical,0.6680052809500864,-0.7326819021911607,0.003468711118117713,-0.1301315713950463,0.1860558539628983,0.1789400726556778,0.9661076664924622,13.90244579315186,-2.577713012695312,33.2929573059082,2,0.0.0.0,10.97.20.126,6,0
2015-02-21 11:25:38.645,130,1424543135.546819,39.63860959885405,-106.370137361642,2514.254,-1,-1,10,65,-9999,1424543138.627032,10.70082092285156,-2.135955810546875,33.9513053894043,155.5339965820312,146.4074401855469,10,14551.17557670833,0.1374664306640625,0.251129150390625,1.099655151367188,14551.12892575,0.3776498246947954,0.8674173997013817,-0.3503960993633605,14551.11856975,1.474118888729733,3.001033306527899,-0.1960866607068582,0.3772544264793396,0.9057089686393738,-0.3118841648101807,0.02752000465989113,0.01143582444638014,0.1561863720417023,XTrueNorthZVertical,0.6723241820508905,-0.7304532387415984,0.02533044301882939,-0.1173742386735938,0.1374122500419617,0.1948324888944626,0.9711634516716003,11.85267066955566,-1.773190021514893,34.12789916992188,2,0.0.0.0,10.97.20.126,6,0
2015-02-21 11:25:38.704,131,1424543135.546819,39.63860959885405,-106.370137361642,2514.254,-1,-1,10,65,-9999,1424543138.678611,8.995914459228516,-0.91290283203125,34.31755828857422,155.2952728271484,146.1687164306641,10,14551.22460858333,0.107330322265625,0.2442474365234375,0.98480224609375,14551.23248258333,1.008077845312206,0.8081490159577772,-0.3157808641467286,14551.22212691667,1.500027885805825,3.097753260339794,-0.2578710888105705,0.9292420744895935,0.8232545852661133,-0.3108164668083191,0.05282330513000488,-0.002474394626915455,0.03599266707897186,XTrueNorthZVertical,0.6778904227668661,-0.7235106715433348,0.07923937661689813,-0.1035281946305598,0.04237627983093262,0.2550226151943207,0.9660062193870544,9.435001373291016,-0.3306169509887695,34.91725921630859,2,0.0.0.0,10.97.20.126,6,0
2015-02-21 11:25:38.743,132,1424543135.546819,39.63860959885405,-106.370137361642,2514.254,-1,-1,10,65,-9999,1424543138.730809,6.813648223876953,0.2421875,34.88358688354492,158.1952972412109,149.0687408447266,10,14551.27380520834,0.0352783203125,0.3068695068359375,0.9526824951171875,14551.23248258333,1.008077845312206,0.8081490159577772,-0.3157808641467286,14551.22212691667,1.500027885805825,3.097753260339794,-0.2578710888105705,0.9292420744895935,0.8232545852661133,-0.3108164668083191,0.05282330513000488,-0.002474394626915455,0.03599266707897186,XTrueNorthZVertical,0.6778904227668661,-0.7235106715433348,0.07923937661689813,-0.1035281946305598,0.04237627983093262,0.2550226151943207,0.9660062193870544,9.435001373291016,-0.3306169509887695,34.91725921630859,2,0.0.0.0,10.97.20.126,6,0
2015-02-21 11:25:38.802,133,1424543135.546819,39.63860959885405,-106.370137361642,2514.254,-1,-1,10,65,-9999,1424543138.781904,5.040561676025391,2.178741455078125,35.01677322387695,158.8461303710938,149.7195739746094,10,14551.32284054167,-0.03350830078125,0.3498382568359375,0.96746826171875,14551.284261,0.8981446860426069,0.5129538544051432,-0.2861140485515729,14551.273905,1.511091108822751,3.137683081727373,-0.3071997505420272,0.9220508933067322,0.6036821603775024,-0.2135192900896072,0.0315517857670784,0.004478834569454193,-0.0004944656393490732,XTrueNorthZVertical,0.6778295021268098,-0.7191214406617387,0.1100410594446661,-0.1063135356839736,0.003726532915607095,0.3023906648159027,0.9531769752502441,7.296679973602295,2.233352184295654,35.35695648193359,2,0.0.0.0,10.97.20.126,6,0
2015-02-21 11:25:38.841,134,1424543135.546819,39.63860959885405,-106.370137361642,2514.254,-1,-1,10,65,-9999,1424543138.834516,3.625495910644531,3.894439697265625,35.00012969970703,160.2940826416016,151.1675262451172,10,14551.37203870833,-0.075897216796875,0.3557281494140625,0.888671875,14551.33603933334,0.7327786276313357,0.6301840750615592,-0.4086511503121898,14551.32568366667,1.530269760801181,-3.115719012229233,-0.3505952925088516,0.7957271337509155,0.5546519756317139,-0.4200011491775513,-0.009211300872266293,0.006381308659911156,0.02861401252448559,XTrueNorthZVertical,0.6803350480512634,-0.7117382575760806,0.134606069905235,-0.1115982260008729,-0.02429700084030628,0.3434569537639618,0.9388542771339417,6.476356983184814,3.758238315582275,35.38751220703125,2,0.0.0.0,10.97.20.126,6,0
2015-02-21 11:25:38.902,135,1424543135.546819,39.63860959885405,-106.370137361642,2514.254,-1,-1,10,65,-9999,1424543138.886277,2.039939880371094,5.712066650390625,34.75041198730469,159.0223388671875,149.8957824707031,10,14551.421082,-0.0507965087890625,0.3586883544921875,0.9931182861328125,14551.38781791667,0.605743713105684,0.3246965948440959,-0.3309885792355171,14551.37746241667,1.548764414302467,-3.078793258188715,-0.3818451704874793,0.569345235824585,0.4333115518093109,-0.2844252288341522,-0.01765900477766991,-0.01690523140132427,-0.03747767582535744,XTrueNorthZVertical,0.6819712390206361,-0.7056840690802738,0.1571416018861331,-0.1105975757322515,-0.05823821201920509,0.3726333677768707,0.9261495471000671,5.823746681213379,4.657108783721924,35.3940544128418,2,0.0.0.0,10.97.20.126,6,0
2015-02-21 11:25:38.939,136,1424543135.546819,39.63860959885405,-106.370137361642,2514.254,-1,-1,10,65,-9999,1424543138.886277,2.039939880371094,5.712066650390625,34.75041198730469,159.0223388671875,149.8957824707031,10,14551.47016266667,-0.111724853515625,0.3983612060546875,0.8604736328125,14551.43959641667,0.482464122033153,0.8206533562240262,-0.1280027072657865,14551.42924041667,1.565838271416329,-3.050947568876786,-0.4106654781723699,0.5148564577102661,0.7200958132743835,-0.1496749520301819,0.03219817578792572,-0.0405312106013298,0.08002686500549316,XTrueNorthZVertical,0.683277112418477,-0.6997700317670665,0.1756686850988556,-0.1122269413628093,-0.08299468457698822,0.3992195725440979,0.9130914211273193,4.452569961547852,6.384971618652344,35.32350921630859,2,0.0.0.0,10.97.20.126,6,0
2015-02-21 11:25:39.000,137,1424543135.546819,39.63860959885405,-106.370137361642,2514.254,-1,-1,10,65,-9999,1424543138.989986,-0.8413429260253906,7.937347412109375,34.40079879760742,160.3134307861328,151.1868743896484,10,14551.519301625,-0.0527801513671875,0.415313720703125,0.905853271484375,14551.4913745,0.4199117943493718,0.3784751383166109,-0.4139676187963149,14551.481019125,1.580293190461558,-3.011391837222405,-0.4321625801706034,0.4207814037799835,0.4167252779006958,-0.3828203678131104,0.007987630553543568,0.01115713827311993,-0.02557466365396976,XTrueNorthZVertical,0.6826492037243715,-0.6958291557152915,0.1957086387964382,-0.1072849589536988,-0.1178966909646988,0.4188355505466461,0.9003763198852539,3.226483821868896,7.172570705413818,35.30563354492188,2,0.0.0.0,10.97.20.126,6,0
2015-02-21 11:25:39.037,138,1424543135.546819,39.63860959885405,-106.370137361642,2514.254,-1,-1,10,65,-9999,1424543138.989986,-0.8413429260253906,7.937347412109375,34.40079879760742,160.3134307861328,151.1868743896484,10,14551.56849275,-0.157745361328125,0.474395751953125,0.943939208984375,14551.54315329167,0.4911196618920195,0.1984246759707518,-0.2517560746962426,14551.532797625,1.595506857151285,-2.987612395790084,-0.4522300464927647,0.4987852275371552,0.3372026085853577,-0.1436462849378586,0.05059817060828209,-0.0705479308962822,-0.0008171094814315438,XTrueNorthZVertical,0.6834605872638539,-0.6908676095636579,0.2097468627392831,-0.1076564363612266,-0.1379547417163849,0.4369724988937378,0.8888328671455383,2.690739154815674,7.660494804382324,35.24798583984375,2,0.0.0.0,10.97.20.126,6,0
2015-02-21 11:25:39.100,139,1424543135.546819,39.63860959885405,-106.370137361642,2514.254,-1,-1,10,65,-9999,1424543139.093952,-2.290500640869141,9.55108642578125,34.25096893310547,160.7088317871094,151.582275390625,10,14551.61753541667,-0.168731689453125,0.4260406494140625,0.92523193359375,14551.59493191667,0.504480474764838,0.2068589071430328,-0.4122336346105644,14551.58457591667,1.615730241060699,-2.974210606107868,-0.4690280643549126,0.4165585935115814,0.1060668900609016,-0.3529491126537323,-0.002635158132761717,0.07300488650798798,0.0393882729113102,XTrueNorthZVertical,0.6871443462337775,-0.6838154261744586,0.2187843981602227,-0.1111871417597056,-0.1486099660396576,0.4520195126533508,0.8795417547225952,2.023770332336426,8.789728164672852,35.02840042114258,2,0.0.0.0,10.97.20.126,6,0
2015-02-21 11:25:39.136,140,1424543135.546819,39.63860959885405,-106.370137361642,2514.254,-1,-1,10,65,-9999,1424543139.093952,-2.290500640869141,9.55108642578125,34.25096893310547,160.7088317871094,151.582275390625,10,14551.66672575,-0.2133026123046875,0.56298828125,0.837982177734375,14551.64671008333,0.4619087794754854,0.3205026487594391,-0.605846511123761,14551.63635433333,1.647819957039349,-2.94270880788356,-0.492328653041955,0.5156913995742798,0.3402562439441681,-0.5841102600097656,0.001899522030726075,-0.0672837495803833,0.05131282657384872,XTrueNorthZVertical,0.6917351387774076,-0.6733752899759063,0.2353866956082408,-0.1125229006350418,-0.1741102188825607,0.4726792573928833,0.8638635873794556,1.432614803314209,9.654190063476562,34.82941436767578,2,0.0.0.0,10.97.20.126,6,0
2015-02-21 11:25:39.201,141,1424543135.546819,39.63860959885405,-106.370137361642,2514.254,-1,-1,10,65,-9999,1424543139.14582,-3.466880798339844,10.38351440429688,34.20102691650391,161.7390747070312,152.6125183105469,10,14551.71576333333,-0.2361907958984375,0.476104736328125,0.7811126708984375,14551.69848845833,0.6450240076038077,0.3101991448180315,-0.5117277350392707,14551.68813308333,1.682337742677086,-2.906296880183869,-0.5115212320856558,0.619658887386322,0.4222122728824615,-0.4567058086395264,0.01583592034876347,0.09658575803041458,-0.002956949872896075,XTrueNorthZVertical,0.6963960432934685,-0.6625852892784951,0.2521187864435442,-0.111577264016439,-0.2032901495695114,0.489504337310791,0.8479734063148499,0.8984522819519043,10.20087909698486,34.69118881225586,2,0.0.0.0,10.97.20.126,6,0
2015-02-21 11:25:39.234,142,1424543135.546819,39.63860959885405,-106.370137361642,2514.254,-1,-1,10,65,-9999,1424543139.197735,-4.864898681640625,11.64053344726562,33.76818084716797,160.087890625,150.9613342285156,10,14551.764945,-0.329254150390625,0.54498291015625,0.8089447021484375,14551.75026729167,0.5328516624896702,0.1850611999368432,-0.428858950347602,14551.73991129167,1.719487468150458,-2.881319410965673,-0.5357479265212375,0.5409788489341736,0.03295202553272247,-0.4736486375331879,-0.1159166395664215,0.004820250906050205,0.01564689725637436,XTrueNorthZVertical,0.7020588093872003,-0.6500587800400033,0.2660957036864227,-0.1171758086832887,-0.221287339925766,0.5104843378067017,0.8309260010719299,-0.2366604804992676,11.73300933837891,34.21438598632812,2,0.0.0.0,10.97.20.126,6,0
2015-02-21 11:25:39.300,143,1424543135.546819,39.63860959885405,-106.370137361642,2514.254,-1,-1,10,65,-9999,1424543139.249485,-5.938983917236328,12.7786865234375,33.58505249023438,160.1570281982422,151.0304718017578,10,14551.813983,-0.2067718505859375,0.4985198974609375,0.7138671875,14551.80204525,0.5639525903318335,0.7236096303143019,-0.4009213252482348,14551.79168983334,1.74935512411043,-2.839610765950016,-0.5593383494249701,0.6149623394012451,0.7964799404144287,-0.3646199107170105,0.009215060621500015,-0.07843127846717834,-0.04429784044623375,XTrueNorthZVertical,0.7025070290166877,-0.641178291499249,0.2859303973659461,-0.1166968875361658,-0.2520892024040222,0.5306255221366882,0.8092514276504517,-0.9453463554382324,12.60164737701416,33.89171600341797,2,0.0.0.0,10.97.20.126,6,0
2015-02-21 11:25:39.332,144,1424543135.546819,39.63860959885405,-106.370137361642,2514.254,-1,-1,10,65,-9999,1424543139.301244,-7.047172546386719,13.81491088867188,32.86919403076172,158.7677307128906,149.6411743164062,10,14551.86317491667,-0.2988739013671875,0.47027587890625,0.6944580078125,14551.853824,0.3655079406529061,0.2487690732176097,-0.3029529498080349,14551.84346845833,1.776359386320517,-2.798093123878302,-0.57800517233402,0.4276881217956543,0.3022040724754333,-0.2698511183261871,0.04849357157945633,-0.01135058701038361,-0.08910206705331802,XTrueNorthZVertical,0.7020774010985058,-0.6335616156508146,0.3042489851637731,-0.1145409973491456,-0.2820751070976257,0.5463542342185974,0.7886260151863098,-1.851880073547363,13.19010734558105,33.62937927246094,2,0.0.0.0,10.97.20.126,6,0
2015-02-21 11:25:39.401,145,1424543135.546819,39.63860959885405,-106.370137361642,2514.254,-1,-1,10,65,-9999,1424543139.353223,-8.325839996337891,14.23959350585938,32.75265884399414,158.8701019287109,149.7435455322266,10,14551.91222225,-0.4723358154296875,0.548736572265625,0.7478485107421875,14551.90560245834,0.04244439618924686,0.06611137616456304,-0.2231465340538484,14551.89524645833,1.797667081157715,-2.778633073041447,-0.5844494010533038,0.1110327765345573,0.0674993023276329,-0.2755903303623199,-0.08425986766815186,-0.0256477277725935,-0.07603634148836136,XTrueNorthZVertical,0.7047479574338992,-0.6270330034588905,0.3116532693782163,-0.1141588882135961,-0.2961112260818481,0.5517402291297913,0.7796801328659058,-2.920644760131836,14.0558500289917,33.20009994506836,2,0.0.0.0,10.97.20.126,6,0
2015-02-21 11:25:39.431,146,1424543135.546819,39.63860959885405,-106.370137361642,2514.254,-1,-1,10,65,-9999,1424543139.405141,-9.093048095703125,14.8341064453125,32.36975479125977,158.1461944580078,149.0196380615234,10,14551.961414,-0.3678741455078125,0.416656494140625,0.61962890625,14551.90560245834,0.04244439618924686,0.06611137616456304,-0.2231465340538484,14551.89524645833,1.797667081157715,-2.778633073041447,-0.5844494010533038,0.1110327765345573,0.0674993023276329,-0.2755903303623199,-0.08425986766815186,-0.0256477277725935,-0.07603634148836136,XTrueNorthZVertical,0.7047479574338992,-0.6270330034588905,0.3116532693782163,-0.1141588882135961,-0.2961112260818481,0.5517402291297913,0.7796801328659058,-2.920644760131836,14.0558500289917,33.20009994506836,2,0.0.0.0,10.97.20.126,6,0
2015-02-21 11:25:39.503,147,1424543135.546819,39.63860959885405,-106.370137361642,2514.254,-1,-1,10,65,-9999,1424543139.456952,-9.536323547363281,15.34371948242188,32.43635177612305,154.4493255615234,145.3227691650391,10,14552.01044933333,-0.2682647705078125,0.5707855224609375,0.6122589111328125,14552.00915925,-0.195035004535299,-0.01124093664511546,0.2856413374580838,14551.99880370833,1.794035522429483,-2.752009662672384,-0.5782115171897687,-0.2041002362966537,0.2450816184282303,0.3247571885585785,0.06264570355415344,0.01319583877921104,-0.08749521523714066,XTrueNorthZVertical,0.7004408269025205,-0.6298632148252492,0.3195044164765031,-0.1028201802972078,-0.3180625736713409,0.546527087688446,0.7746900320053101,-7.992264270782471,15.56341743469238,32.42127227783203,2,0.0.0.0,10.97.20.126,6,0
2015-02-21 11:25:39.528,148,1424543135.546819,39.63860959885405,-106.370137361642,2514.254,-1,-1,10,65,-9999,1424543139.509907,-9.570419311523438,15.34375,31.83702850341797,151.5928192138672,142.4662628173828,10,14552.05963791667,-0.2932891845703125,0.46856689453125,0.8016510009765625,14552.060938,-0.09399680330656472,-0.8621358186275365,0.3216187795722913,14551.99880370833,1.794035522429483,-2.752009662672384,-0.5782115171897687,-0.2041002362966537,0.2450816184282303,0.3247571885585785,0.06264570355415344,0.01319583877921104,-0.08749521523714066,XTrueNorthZVertical,0.7004408269025205,-0.6298632148252492,0.3195044164765031,-0.1028201802972078,-0.3180625736713409,0.546527087688446,0.7746900320053101,-7.992264270782471,15.56341743469238,32.42127227783203,2,0.0.0.0,10.97.20.126,6,0
2015-02-21 11:25:39.600,149,1424543135.546819,39.63860959885405,-106.370137361642,2514.254,-1,-1,10,65,-9999,1424543139.560466,-9.076011657714844,15.02099609375,32.25322723388672,162.4068756103516,153.2803192138672,10,14552.10867791667,-0.3968505859375,0.559967041015625,0.7271270751953125,14552.060938,-0.09399680330656472,-0.8621358186275365,0.3216187795722913,14552.050582,1.778195463411262,-2.783734741870708,-0.5766912486164052,-0.07329552620649338,-0.8658483624458313,0.2339155822992325,0.004435665905475616,-0.1197772175073624,-0.0487162172794342,XTrueNorthZVertical,0.700670677523915,-0.6337537444737485,0.308815695172842,-0.1097713188625356,-0.293620228767395,0.5452532768249512,0.7851664423942566,-7.741245269775391,15.3531436920166,32.58203887939453,2,0.0.0.0,10.97.20.126,6,0
