loggingTime,loggingSample,locationTimestamp_since1970,locationLatitude,locationLongitude,locationAltitude,locationSpeed,locationCourse,locationVerticalAccuracy,locationHorizontalAccuracy,locationFloor,locationHeadingTimestamp_since1970,locationHeadingX,locationHeadingY,locationHeadingZ,locationTrueHeading,locationMagneticHeading,locationHeadingAccuracy,accelerometerTimestamp_sinceReboot,accelerometerAccelerationX,accelerometerAccelerationY,accelerometerAccelerationZ,gyroTimestamp_sinceReboot,gyroRotationX,gyroRotationY,gyroRotationZ,motionTimestamp_sinceReboot,motionYaw,motionRoll,motionPitch,motionRotationRateX,motionRotationRateY,motionRotationRateZ,motionUserAccelerationX,motionUserAccelerationY,motionUserAccelerationZ,motionAttitudeReferenceFrame,motionQuaternionX,motionQuaternionY,motionQuaternionZ,motionQuaternionW,motionGravityX,motionGravityY,motionGravityZ,motionMagneticFieldX,motionMagneticFieldY,motionMagneticFieldZ,motionMagneticFieldCalibrationAccuracy,IP_en0,IP_pdp_ip0,deviceOrientation,state
2015-03-10 17:29:17.671,1,1426033756.859982,37.78918376999999,-122.3955084200017,12.73706,-1,-1,10,1414,-9999,1426033757.637719,17.03308868408203,-16.08465576171875,-18.43693923950195,326.1236267089844,312.3535766601562,15,368515.8348318751,0.11529541015625,-0.9195556640625,-0.3674774169921875,368515.7956317917,0.007405984675401354,-0.01030936289580574,-0.04256583633495448,368515.7956317917,-1.093731365760521,0.2898971353158264,1.176091553606212,-0.01109533943235874,0.005859057884663343,-0.008305452764034271,0.003222974482923746,0.004561545792967081,0.005727875512093306,XTrueNorthZVertical,0.5313583628640799,-0.1827925786533236,-0.3596858525039808,0.7448968306406405,0.1099209487438202,-0.9231101274490356,-0.3684903383255005,14.99328899383545,-16.68628311157227,-21.06423950195312,1,10.3.35.51,10.71.35.210,1,0
2015-03-10 17:29:17.709,2,1426033756.859982,37.78918376999999,-122.3955084200017,12.73706,-1,-1,10,1414,-9999,1426033757.688617,16.89667129516602,-15.77877807617188,-18.53679275512695,326.6268615722656,312.8568115234375,15,368515.8838679167,0.10791015625,-0.9344329833984375,-0.350677490234375,368515.8474010417,0.01852042116873805,-0.01908048394598171,-0.03013233615370154,368515.8474010417,-1.094681865400324,0.2909404127809447,1.175862080649115,2.512962055334356e-05,-0.00273053185082972,0.004149646032601595,0.0007026405073702335,0.003786635585129261,0.004381587728857994,XTrueNorthZVertical,0.5313833106014515,-0.182599547258257,-0.3598072314501073,0.7448677574830601,0.1103660836815834,-0.9230218529701233,-0.3685783743858337,15.01404762268066,-16.67523574829102,-21.05820465087891,1,10.3.35.51,10.71.35.210,1,0
2015-03-10 17:29:17.737,3,1426033756.859982,37.78918376999999,-122.3955084200017,12.73706,-1,-1,10,1414,-9999,1426033757.688617,16.89667129516602,-15.77877807617188,-18.53679275512695,326.6268615722656,312.8568115234375,15,368515.9329265417,0.1141510009765625,-0.9216766357421875,-0.361846923828125,368515.8991729583,0.02743748344665036,-0.07230695412452338,-0.04103664923703098,368515.8991729583,-1.096159014536396,0.2910846224724672,1.177509754647097,0.008950885385274887,-0.05595548450946808,-0.006756415124982595,0.007601609453558922,-0.005254751536995173,0.01954038627445698,XTrueNorthZVertical,0.5318184869571605,-0.1833481796157184,-0.3599984211042248,0.744280670279013,0.1099826171994209,-0.9236545562744141,-0.367105096578598,15.00743961334229,-16.68451690673828,-21.05556106567383,1,10.3.35.51,10.71.35.210,1,0
2015-03-10 17:29:17.740,4,1426033756.859982,37.78918376999999,-122.3955084200017,12.73706,-1,-1,10,1414,-9999,1426033757.688617,16.89667129516602,-15.77877807617188,-18.53679275512695,326.6268615722656,312.8568115234375,15,368515.9819668334,0.104217529296875,-0.926513671875,-0.35791015625,368515.950944875,0.1006658913083412,-0.1956006599508318,-0.02337669541649754,368515.950944875,-1.100255939926068,0.2884774928548134,1.179688346275056,0.08218672871589661,-0.1792441457509995,0.01089305896311998,0.01250399835407734,0.001483100466430187,0.0141880065202713,XTrueNorthZVertical,0.5316885152415601,-0.1859489929379637,-0.36179057894974,0.742857933359473,0.1084524244070053,-0.9244872331619263,-0.365460604429245,14.93595504760742,-16.71706771850586,-21.08055877685547,1,10.3.35.51,10.71.35.210,1,0
2015-03-10 17:29:17.747,5,1426033756.859982,37.78918376999999,-122.3955084200017,12.73706,-1,-1,10,1414,-9999,1426033757.742343,17.06719207763672,-15.472900390625,-18.70322036743164,327.0642395019531,313.294189453125,15,368516.0310302083,0.1181182861328125,-0.932037353515625,-0.3341827392578125,368516.002714125,0.2215004341840704,-0.2719478957651144,-0.0118808942550615,368516.002714125,-1.100966583363699,0.2792260013200856,1.187227097346538,0.2030314654111862,-0.2555918097496033,0.02239207178354263,-0.004067619331181049,0.001141585526056588,0.01522544957697392,XTrueNorthZVertical,0.5324292872114893,-0.1914415299267635,-0.3630495936497355,0.7403135988726937,0.1031429395079613,-0.9273348450660706,-0.3597383797168732,14.76077842712402,-16.81558990478516,-21.12553787231445,1,10.3.35.51,10.71.35.210,1,0
2015-03-10 17:29:17.800,6,1426033756.859982,37.78918376999999,-122.3955084200017,12.73706,-1,-1,10,1414,-9999,1426033757.793818,17.32296371459961,-15.59185791015625,-18.6200065612793,326.2638244628906,312.4937744140625,15,368516.0800669167,0.133544921875,-0.911590576171875,-0.3523406982421875,368516.0544860833,0.1909494491070084,-0.2960457752048054,-0.003878361495482395,368516.0544860833,-1.109966853689325,0.2720298284950599,1.196835779342536,0.1725017428398132,-0.2796801030635834,0.03037727437913418,0.0009682769887149334,0.01233925763517618,-0.004802202805876732,XTrueNorthZVertical,0.533395998309049,-0.1988786392820024,-0.3664214846336822,0.7359832394901348,0.09815281629562378,-0.9308878183364868,-0.3518719971179962,14.41047954559326,-17.08163642883301,-21.15393257141113,1,10.3.35.51,10.71.35.210,1,0
2015-03-10 17:29:17.802,7,1426033756.859982,37.78918376999999,-122.3955084200017,12.73706,-1,-1,10,1414,-9999,1426033757.793818,17.32296371459961,-15.59185791015625,-18.6200065612793,326.2638244628906,312.4937744140625,15,368516.129125625,0.07275390625,-0.9409332275390625,-0.3402099609375,368516.1062580417,0.172989889663841,-0.1732058720282465,-0.02284885688844383,368516.1062580417,-1.120760701288789,0.2736044368131693,1.205120745828255,0.1544858366250992,-0.1566184163093567,0.01138863805681467,0.03593361750245094,0.004912063013762236,-0.0004317834100220352,XTrueNorthZVertical,0.5353046834502044,-0.2032464900785251,-0.3683416764275091,0.7324371692779673,0.09661947935819626,-0.9338824152946472,-0.3442795276641846,14.19777774810791,-17.2519645690918,-21.15953254699707,1,10.3.35.51,10.71.35.210,1,0
2015-03-10 17:29:17.804,8,1426033756.859982,37.78918376999999,-122.3955084200017,12.73706,-1,-1,10,1414,-9999,1426033757.793818,17.32296371459961,-15.59185791015625,-18.6200065612793,326.2638244628906,312.4937744140625,15,368516.1781597083,0.096588134765625,-0.959228515625,-0.3558197021484375,368516.1580272917,0.07500154051546555,-0.01814278492616481,-0.04371232718423359,368516.1062580417,-1.120760701288789,0.2736044368131693,1.205120745828255,0.1544858366250992,-0.1566184163093567,0.01138863805681467,0.03593361750245094,0.004912063013762236,-0.0004317834100220352,XTrueNorthZVertical,0.5353046834502044,-0.2032464900785251,-0.3683416764275091,0.7324371692779673,0.09661947935819626,-0.9338824152946472,-0.3442795276641846,14.19777774810791,-17.2519645690918,-21.15953254699707,1,10.3.35.51,10.71.35.210,1,0
2015-03-10 17:29:17.807,9,1426033756.859982,37.78918376999999,-122.3955084200017,12.73706,-1,-1,10,1414,-9999,1426033757.793818,17.32296371459961,-15.59185791015625,-18.6200065612793,326.2638244628906,312.4937744140625,15,368516.2272389167,0.060516357421875,-0.9649505615234375,-0.374267578125,368516.2097992083,-0.1801418087712488,0.3338557384650964,-0.01789084988704331,368516.2097992083,-1.116428852649433,0.2739436791117407,1.206719806927812,-0.1986728012561798,0.350473940372467,0.01639935560524464,-0.02698095887899399,-0.01826001517474651,-0.04592427611351013,XTrueNorthZVertical,0.5363263989539927,-0.2023602658352859,-0.3663493569362602,0.7329341734800042,0.09633215516805649,-0.934453010559082,-0.3428086340427399,14.11934947967529,-17.41483116149902,-21.07843971252441,1,10.3.35.51,10.71.35.210,1,0
2015-03-10 17:29:17.809,10,1426033756.859982,37.78918376999999,-122.3955084200017,12.73706,-1,-1,10,1414,-9999,1426033757.793818,17.32296371459961,-15.59185791015625,-18.6200065612793,326.2638244628906,312.4937744140625,15,368516.2762801667,0.137481689453125,-0.95001220703125,-0.33758544921875,368516.2615711667,-0.02510908170559408,0.07823941176878389,-0.1083496436854378,368516.2615711667,-1.112214449036622,0.2826041168554994,1.199646224767915,-0.0436440035700798,0.09485319256782532,-0.07405024766921997,0.01290608383715153,-0.004078545607626438,0.0009190384298563004,XTrueNorthZVertical,0.536023273751709,-0.196287378319378,-0.3638713245221556,0.7360353331775664,0.1011381074786186,-0.9319108128547668,-0.3483006358146667,14.40879917144775,-17.24562835693359,-21.02160263061523,1,10.3.35.51,10.71.35.210,1,0
2015-03-10 17:29:17.811,11,1426033756.859982,37.78918376999999,-122.3955084200017,12.73706,-1,-1,10,1414,-9999,1426033757.793818,17.32296371459961,-15.59185791015625,-18.6200065612793,326.2638244628906,312.4937744140625,15,368516.3253445,0.1041412353515625,-0.9241485595703125,-0.34002685546875,368516.3133404584,-0.04702529958029216,-0.1488371491056944,-0.06588154536248921,368516.2615711667,-1.112214449036622,0.2826041168554994,1.199646224767915,-0.0436440035700798,0.09485319256782532,-0.07405024766921997,0.01290608383715153,-0.004078545607626438,0.0009190384298563004,XTrueNorthZVertical,0.536023273751709,-0.196287378319378,-0.3638713245221556,0.7360353331775664,0.1011381074786186,-0.9319108128547668,-0.3483006358146667,14.40879917144775,-17.24562835693359,-21.02160263061523,1,10.3.35.51,10.71.35.210,1,0
2015-03-10 17:29:17.813,12,1426033756.859982,37.78918376999999,-122.3955084200017,12.73706,-1,-1,10,1414,-9999,1426033757.793818,17.32296371459961,-15.59185791015625,-18.6200065612793,326.2638244628906,312.4937744140625,15,368516.37438475,0.10009765625,-0.929290771484375,-0.3525390625,368516.3651124167,-0.03530765710005252,-0.0547599183342093,-0.0438132609895476,368516.3133404584,-1.121138411971647,0.288151057760858,1.194374657888437,-0.0655503049492836,-0.1322178095579147,-0.0315939299762249,0.01037447154521942,0.009224855341017246,0.00752983195707202,XTrueNorthZVertical,0.5344464575898856,-0.1953131688063962,-0.3667124219077479,0.7360311046860005,0.1044631749391556,-0.9299859404563904,-0.3524394929409027,14.54627704620361,-17.11324310302734,-21.03510856628418,1,10.3.35.51,10.71.35.210,1,0
2015-03-10 17:29:17.821,13,1426033756.859982,37.78918376999999,-122.3955084200017,12.73706,-1,-1,10,1414,-9999,1426033757.793818,17.32296371459961,-15.59185791015625,-18.6200065612793,326.2638244628906,312.4937744140625,15,368516.423453,0.1011505126953125,-0.934539794921875,-0.36761474609375,368516.416884375,-0.05630002439260212,-0.03427541586153781,-0.02472132545087855,368516.416884375,-1.117731665138481,0.2799322456206718,1.187992554364643,-0.07485923916101456,-0.01760600693523884,0.009691658429801464,0.002039044862613082,-0.001242515165358782,-0.01139343995600939,XTrueNorthZVertical,0.5311866680981097,-0.1958293909910009,-0.3689050571487161,0.7371571538385421,0.1032008230686188,-0.9276210069656372,-0.3589831590652466,14.42360591888428,-16.92520523071289,-21.27040481567383,1,10.3.35.51,10.71.35.210,1,0
2015-03-10 17:29:17.864,14,1426033756.859982,37.78918376999999,-122.3955084200017,12.73706,-1,-1,10,1414,-9999,1426033757.793818,17.32296371459961,-15.59185791015625,-18.6200065612793,326.2638244628906,312.4937744140625,15,368516.4724814583,0.114715576171875,-0.915496826171875,-0.362518310546875,368516.416884375,-0.05630002439260212,-0.03427541586153781,-0.02472132545087855,368516.416884375,-1.117731665138481,0.2799322456206718,1.187992554364643,-0.07485923916101456,-0.01760600693523884,0.009691658429801464,0.002039044862613082,-0.001242515165358782,-0.01139343995600939,XTrueNorthZVertical,0.5311866680981097,-0.1958293909910009,-0.3689050571487161,0.7371571538385421,0.1032008230686188,-0.9276210069656372,-0.3589831590652466,14.42360591888428,-16.92520523071289,-21.27040481567383,1,10.3.35.51,10.71.35.210,1,0
2015-03-10 17:29:17.919,15,1426033756.859982,37.78918376999999,-122.3955084200017,12.73706,-1,-1,10,1414,-9999,1426033757.874013,17.18655014038086,-15.82974243164062,-18.48687362670898,325.7654724121094,311.9954223632812,15,368516.5215609167,0.11614990234375,-0.916229248046875,-0.3704986572265625,368516.5204257084,-0.04083185214920389,0.04679493614600031,-0.02557247173526787,368516.4686536667,-1.117584325786735,0.2790962167495753,1.183698049189768,-0.07615227997303009,-0.009996466338634491,-0.01130019966512918,0.01254946645349264,0.01190008968114853,-0.002201545750722289,XTrueNorthZVertical,0.5296401387550227,-0.1950219815584593,-0.369912720928067,0.7379785677175735,0.1039971634745598,-0.9260083436965942,-0.3628954887390137,14.4088134765625,-16.85138893127441,-21.33892822265625,1,10.3.35.51,10.71.35.210,1,0
2015-03-10 17:29:17.994,16,1426033756.859982,37.78918376999999,-122.3955084200017,12.73706,-1,-1,10,1414,-9999,1426033757.947025,16.86255645751953,-15.91470336914062,-18.30381393432617,325.8741149902344,312.1040649414062,15,368516.5705945,0.1134185791015625,-0.9402618408203125,-0.3572845458984375,368516.572197625,-0.007572432243531306,0.03073208003118738,-0.02400333722099318,368516.5204257084,-1.117113926003499,0.2806547173712152,1.179500969701208,-0.05941920727491379,0.0634809136390686,0.008969533257186413,0.007841417565941811,0.01274893432855606,-0.0009521411848254502,XTrueNorthZVertical,0.5285971730342334,-0.1932690050964867,-0.3701463907539657,0.7390695549996354,0.1056381985545158,-0.9244158267974854,-0.366464227437973,14.43807506561279,-16.74759101867676,-21.40077781677246,1,10.3.35.51,10.71.35.210,1,0
2015-03-10 17:29:18.016,17,1426033756.859982,37.78918376999999,-122.3955084200017,12.73706,-1,-1,10,1414,-9999,1426033758.000166,16.94781875610352,-15.82977294921875,-18.38702011108398,325.8648071289062,312.0947570800781,15,368516.6196675417,0.1101531982421875,-0.910400390625,-0.3634185791015625,368516.572197625,-0.007572432243531306,0.03073208003118738,-0.02400333722099318,368516.572197625,-1.111961964645695,0.2788836213983312,1.17790203424434,-0.02615955285727978,0.04741854593157768,0.01053651515394449,0.008022835478186607,-0.01645703054964542,0.01078671868890524,XTrueNorthZVertical,0.5282405498310944,-0.1921621430034739,-0.3690204360925361,0.7401753761392267,0.1053957417607307,-0.9238048195838928,-0.3680712580680847,14.50697994232178,-16.64746475219727,-21.43227577209473,1,10.3.35.51,10.71.35.210,1,0
2015-03-10 17:29:18.117,18,1426033758.003121,37.78806874121031,-122.3964594008449,12.44675,-1,-1,10,165,-9999,1426033758.000166,16.94781875610352,-15.82977294921875,-18.38702011108398,325.8648071289062,312.0947570800781,15,368516.6687228333,0.1025543212890625,-0.915008544921875,-0.36981201171875,368516.6239670001,0.03213822908674922,-0.03518435274158185,-0.01507136124097642,368516.6239670001,-1.11294830296129,0.2807179107959306,1.177090906903879,0.01355013716965914,-0.01849212870001793,0.01945269852876663,0.003874921938404441,0.01309356559067965,0.005178611259907484,XTrueNorthZVertical,0.528217340094104,-0.1915407174262533,-0.3690587367733951,0.7403338985817735,0.1062782779335976,-0.9234939813613892,-0.3685971796512604,16.96169853210449,-15.89739799499512,-18.35689926147461,1,10.3.35.51,10.71.35.210,1,0
2015-03-10 17:29:18.149,19,1426033758.003121,37.78806874121031,-122.3964594008449,12.44675,-1,-1,10,165,-9999,1426033758.064521,17.54462432861328,-15.7108154296875,-18.50351333618164,325.8309326171875,312.0608825683594,15,368516.7178162084,0.1120147705078125,-0.9204254150390625,-0.3705291748046875,368516.7275109167,0.05774851770949622,-0.005191832545109474,-0.009758621182377353,368516.6757389167,-1.111705625886086,0.2788482452903508,1.178303737473967,0.04165998473763466,0.003183141350746155,0.01273774448782206,-0.002726248931139708,0.008949989452958107,-0.00209380965679884,XTrueNorthZVertical,0.52839094936636,-0.192207969502789,-0.3688568846746935,0.7401376474019733,0.1052805706858635,-0.9239585399627686,-0.3677181899547577,16.95294189453125,-15.90460205078125,-18.35874938964844,1,10.3.35.51,10.71.35.210,1,0
2015-03-10 17:29:18.330,20,1426033758.003121,37.78806874121031,-122.3964594008449,12.44675,-1,-1,10,165,-9999,1426033758.127961,17.68103790283203,-16.11865234375,-18.83634567260742,325.7939147949219,312.0238647460938,15,368516.7668657917,0.1112060546875,-0.925201416015625,-0.3658905029296875,368516.7275109167,0.05774851770949622,-0.005191832545109474,-0.009758621182377353,368516.7275109167,-1.111198435468604,0.2791416366749523,1.179543605285528,0.03915213048458099,0.01150208711624146,0.02475684694945812,0.006942044477909803,0.004006648901849985,-0.003943402320146561,XTrueNorthZVertical,0.5289020088960035,-0.1922752681857995,-0.3683507391962174,0.7400072003364347,0.1050727292895317,-0.9244320392608643,-0.36658576130867,16.94225120544434,-15.93951988220215,-18.33831787109375,1,10.3.35.51,10.71.35.210,1,0
2015-03-10 17:29:18.337,21,1426033758.003121,37.78806874121031,-122.3964594008449,12.44675,-1,-1,10,165,-9999,1426033758.188047,17.73220062255859,-16.16964721679688,-19.25239181518555,325.7781677246094,312.0081176757812,15,368516.8159429167,0.113311767578125,-0.9254608154296875,-0.3658905029296875,368516.7792802917,0.05529920845495034,-0.008465922789252889,-0.03168922012696186,368516.7792802917,-1.112622303958887,0.281002723472649,1.181580733575182,0.03670405596494675,0.008229862898588181,0.002821070374920964,0.009483247064054012,-0.0002843353431671858,-0.003645591903477907,XTrueNorthZVertical,0.5297776165328361,-0.1924731778276356,-0.3679882305833843,0.739509602626055,0.1052323281764984,-0.9252070188522339,-0.3645794987678528,16.94394302368164,-15.9820556640625,-18.2996940612793,1,10.3.35.51,10.71.35.210,1,0
2015-03-10 17:29:18.340,22,1426033758.003121,37.78806874121031,-122.3964594008449,12.44675,-1,-1,10,165,-9999,1426033758.188047,17.73220062255859,-16.16964721679688,-19.25239181518555,325.7781677246094,312.0081176757812,15,368516.8649875834,0.1121826171875,-0.928070068359375,-0.3597869873046875,368516.83105225,0.04429555946296095,-0.01577816419428345,-0.02292236013453002,368516.83105225,-1.114090301289699,0.2826802479987142,1.182961342357177,0.02556972019374371,0.001116839936003089,0.01180070545524359,0.0006680161459371448,-0.003164037596434355,-0.002257275395095348,XTrueNorthZVertical,0.5303981343068911,-0.1925878687970022,-0.3678166664874761,0.7391201993967933,0.1054873764514923,-0.9257299900054932,-0.3631754517555237,16.95992088317871,-16.00428009033203,-18.26543807983398,1,10.3.35.51,10.71.35.210,1,0
2015-03-10 17:29:18.343,23,1426033758.003121,37.78806874121031,-122.3964594008449,12.44675,-1,-1,10,165,-9999,1426033758.256095,17.80040740966797,-16.03366088867188,-18.62001419067383,325.7211608886719,311.9511108398438,15,368516.9140802917,0.1079559326171875,-0.92657470703125,-0.36236572265625,368516.88282425,0.04553392936984779,-0.01809910908428751,-0.03020530676756971,368516.88282425,-1.11496921095737,0.2835666596641871,1.184164044743981,0.02680892497301102,-0.001203628256917,0.004516007378697395,0.006425535771995783,2.146012593584601e-05,-0.0003378234396222979,XTrueNorthZVertical,0.5308707534992609,-0.1927950281319339,-0.3676708250435886,0.7387993787252521,0.1054976806044579,-0.9261841773986816,-0.362012654542923,16.95882797241211,-16.03550148010254,-18.23905181884766,1,10.3.35.51,10.71.35.210,1,0
2015-03-10 17:29:18.350,24,1426033758.003121,37.78806874121031,-122.3964594008449,12.44675,-1,-1,10,165,-9999,1426033758.308079,17.44231796264648,-16.28857421875,-18.50352096557617,325.6982421875,311.9281921386719,15,368516.9631339167,0.1023406982421875,-0.93572998046875,-0.3593902587890625,368516.934593625,0.02968279456169616,-0.03728425526110934,-0.03458567412853204,368516.934593625,-1.116078296884238,0.284030484541091,1.184739258462506,0.01095765922218561,-0.0203880313783884,0.0001328148646280169,-0.003984289243817329,-0.005026078782975674,0.002550223376601934,XTrueNorthZVertical,0.5310374630295739,-0.1930624572832855,-0.3678445563008634,0.7385232022306355,0.1055162698030472,-0.926400899887085,-0.3614521920681,16.96666145324707,-16.04435348510742,-18.22397613525391,1,10.3.35.51,10.71.35.210,1,0
2015-03-10 17:29:18.409,25,1426033758.003121,37.78806874121031,-122.3964594008449,12.44675,-1,-1,10,165,-9999,1426033758.359422,17.42526626586914,-16.40753173828125,-18.75315475463867,325.6863708496094,311.9163208007812,15,368517.0123217501,0.11102294921875,-0.9273223876953125,-0.3628387451171875,368516.986365625,0.02460334741458804,-0.01051362735141482,-0.03892183301539906,368516.986365625,-1.115975988864651,0.2835689297093181,1.185738405647016,0.005772016011178493,0.006544177886098623,-0.004076797049492598,-0.0001862320932559669,-0.008999078534543514,0.001923684612847865,XTrueNorthZVertical,0.5312895711351855,-0.1934563828236394,-0.3677333879591951,0.738294123174602,0.1050904095172882,-0.9267767071723938,-0.3606120347976685,16.94611358642578,-16.06227493286133,-18.2273063659668,1,10.3.35.51,10.71.35.210,1,0
2015-03-10 17:29:18.449,26,1426033758.003121,37.78806874121031,-122.3964594008449,12.44675,-1,-1,10,165,-9999,1426033758.412342,17.74925231933594,-16.11862182617188,-18.40368270874023,325.6441040039062,311.8740539550781,15,368517.0612745833,0.108001708984375,-0.928497314453125,-0.352264404296875,368517.038137875,0.0111178986027538,-0.01409211690815429,-0.03513774742250547,368517.038137875,-1.11708710220182,0.2849875987853993,1.185342137966933,-0.007713584695011377,0.002967355772852898,-0.0002977275871671736,0.00669110706076026,-2.323865555808879e-05,-0.0003605391539167613,XTrueNorthZVertical,0.5313134015868709,-0.1931283778090661,-0.3678444731727915,0.738307510405777,0.1057051345705986,-0.9266277551651001,-0.3608149886131287,16.95025062561035,-16.06965255737305,-18.21695518493652,1,10.3.35.51,10.71.35.210,1,0
2015-03-10 17:29:18.507,27,1426033758.003121,37.78806874121031,-122.3964594008449,12.44675,-1,-1,10,165,-9999,1426033758.463623,17.83451080322266,-16.23760986328125,-18.02091979980469,325.5560913085938,311.7860412597656,15,368517.1103469583,0.101409912109375,-0.92620849609375,-0.3539276123046875,368517.0899070834,0.01735049450186624,-0.02873071447199284,-0.03233290616243401,368517.0899070834,-1.1167884085982,0.2843461849608597,1.18571621496936,-0.001476254197768867,-0.01167063321918249,0.002506300806999207,-0.00198287726379931,-0.004002531059086323,0.003082336625084281,XTrueNorthZVertical,0.5313466711707727,-0.1933797327328942,-0.3678311461995215,0.7382244098346771,0.1053764298558235,-0.9267683625221252,-0.3605499863624573,16.95816421508789,-16.06504440307617,-18.21365356445312,1,10.3.35.51,10.71.35.210,1,0
2015-03-10 17:29:18.546,28,1426033758.003121,37.78806874121031,-122.3964594008449,12.44675,-1,-1,10,165,-9999,1426033758.520486,17.54463195800781,-16.49249267578125,-17.97099304199219,325.4767150878906,311.7066650390625,15,368517.1593835833,0.1059112548828125,-0.9291534423828125,-0.352264404296875,368517.141679125,0.02585982681688742,-0.0142942508348913,-0.03026602684042352,368517.141679125,-1.115831316575368,0.2833678104976494,1.186519990099579,0.006968424189835787,0.002967920619994402,0.004709833301603794,-0.00805934239178896,-0.0002524193550925702,0.009061736986041069,XTrueNorthZVertical,0.5315224211588825,-0.1936882036643645,-0.3675801115423944,0.7381420558073293,0.1048153266310692,-0.9270699620246887,-0.3599375784397125,16.94417762756348,-16.07743072509766,-18.21574401855469,1,10.3.35.51,10.71.35.210,1,0
2015-03-10 17:29:18.608,29,1426033758.003121,37.78806874121031,-122.3964594008449,12.44675,-1,-1,10,165,-9999,1426033758.594123,17.47641754150391,-16.5604248046875,-18.30382919311523,325.4252014160156,311.6551513671875,15,368517.2084616667,0.1048583984375,-0.9239044189453125,-0.3545989990234375,368517.1934511667,0.02826759075842806,-0.009048089803544213,-0.05731362350348627,368517.1934511667,-1.116746187334821,0.2845610012347802,1.18722379041751,0.009379853494465351,0.008214507251977921,-0.02233852632343769,0.001460081432014704,0.002223721938207746,-0.0008451794856227934,XTrueNorthZVertical,0.5318833095386727,-0.1936676814134463,-0.3674623182862828,0.7379461065932369,0.1050615236163139,-0.9273335933685303,-0.3591859340667725,16.9405460357666,-16.10321807861328,-18.19633102416992,1,10.3.35.51,10.71.35.210,1,0
2015-03-10 17:29:18.646,30,1426033758.003121,37.78806874121031,-122.3964594008449,12.44675,-1,-1,10,165,-9999,1426033758.594123,17.47641754150391,-16.5604248046875,-18.30382919311523,325.4252014160156,311.6551513671875,15,368517.2575004583,0.10400390625,-0.927215576171875,-0.3496856689453125,368517.2452205417,0.04181109648202602,-0.01198742069866467,-0.0315763020967425,368517.1934511667,-1.116746187334821,0.2845610012347802,1.18722379041751,0.009379853494465351,0.008214507251977921,-0.02233852632343769,0.001460081432014704,0.002223721938207746,-0.0008451794856227934,XTrueNorthZVertical,0.5318833095386727,-0.1936676814134463,-0.3674623182862828,0.7379461065932369,0.1050615236163139,-0.9273335933685303,-0.3591859340667725,16.9405460357666,-16.10321807861328,-18.19633102416992,1,10.3.35.51,10.71.35.210,1,0
2015-03-10 17:29:18.866,31,1426033758.003121,37.78806874121031,-122.3964594008449,12.44675,-1,-1,10,165,-9999,1426033758.722834,17.76629257202148,-16.30557250976562,-17.85451126098633,325.3396606445312,311.5696105957031,15,368517.306569,0.107025146484375,-0.9272613525390625,-0.3506317138671875,368517.2969925417,0.05166958620528135,-0.01907941868154568,-0.04853957297611122,368517.2969925417,-1.120098702560061,0.2881858582863607,1.190327723307099,0.0327761173248291,-0.001598616479896009,-0.01342916209250689,-0.002455865498632193,0.0001002160643110983,0.007057589013129473,XTrueNorthZVertical,0.5332370650877922,-0.1940040094814039,-0.3671214396206666,0.7370499051481275,0.1055442467331886,-0.9284906983375549,-0.3560413420200348,16.95969009399414,-16.14823913574219,-18.13850784301758,1,10.3.35.51,10.71.35.210,1,0
2015-03-10 17:29:18.945,32,1426033758.003121,37.78806874121031,-122.3964594008449,12.44675,-1,-1,10,165,-9999,1426033758.828132,17.69808578491211,-16.47549438476562,-18.45360946655273,325.2950134277344,311.5249633789062,15,368517.3556055417,0.10601806640625,-0.933441162109375,-0.349029541015625,368517.348764625,0.06641977021879422,-0.02155402796644731,-0.05339664617219773,368517.2969925417,-1.120098702560061,0.2881858582863607,1.190327723307099,0.0327761173248291,-0.001598616479896009,-0.01342916209250689,-0.002455865498632193,0.0001002160643110983,0.007057589013129473,XTrueNorthZVertical,0.5332370650877922,-0.1940040094814039,-0.3671214396206666,0.7370499051481275,0.1055442467331886,-0.9284906983375549,-0.3560413420200348,16.95969009399414,-16.14823913574219,-18.13850784301758,1,10.3.35.51,10.71.35.210,1,0
2015-03-10 17:29:19.012,33,1426033758.003121,37.78806874121031,-122.3964594008449,12.44675,-1,-1,10,165,-9999,1426033758.878603,17.37409973144531,-16.25457763671875,-18.57010269165039,325.3223876953125,311.5523376464844,15,368517.40468025,0.10308837890625,-0.92840576171875,-0.3442840576171875,368517.4005340417,0.0835801150188288,-0.01883973418343855,-0.08162988215256377,368517.348764625,-1.123368004394284,0.2909409619005369,1.192595641136164,0.04753124341368675,-0.004073037300258875,-0.01828599721193314,-0.004159596282988787,-0.00140982202719897,0.00471677677705884,XTrueNorthZVertical,0.534163001421562,-0.1944334292341617,-0.3671408275398511,0.736256191585662,0.1059204638004303,-0.9293305277824402,-0.3537310659885406,16.96281814575195,-16.17987060546875,-18.10737228393555,1,10.3.35.51,10.71.35.210,1,0
2015-03-10 17:29:19.015,34,1426033758.003121,37.78806874121031,-122.3964594008449,12.44675,-1,-1,10,165,-9999,1426033758.930364,17.37409973144531,-16.18661499023438,-18.40368270874023,325.3527526855469,311.5827026367188,15,368517.453723125,0.0975494384765625,-0.9319000244140625,-0.3332672119140625,368517.452306125,0.08850935988045645,-0.02448749990716959,-0.1108530151101123,368517.4005340417,-1.12942589126383,0.2962753995095403,1.195832482378196,0.06469910591840744,-0.00135941943153739,-0.0465158112347126,-0.004220185335725546,-0.001211313647218049,0.006196430884301662,XTrueNorthZVertical,0.5356012378033357,-0.1949108821579315,-0.3672962304947878,0.73500651597832,0.1069270968437195,-0.9305208921432495,-0.3502821326255798,16.96930694580078,-16.21924591064453,-18.06601333618164,1,10.3.35.51,10.71.35.210,1,0
2015-03-10 17:29:19.019,35,1426033758.003121,37.78806874121031,-122.3964594008449,12.44675,-1,-1,10,165,-9999,1426033758.930364,17.37409973144531,-16.18661499023438,-18.40368270874023,325.3527526855469,311.5827026367188,15,368517.50280525,0.099090576171875,-0.928131103515625,-0.318206787109375,368517.5040782084,0.1067839712805802,-0.003541737933696379,-0.1432178792056272,368517.452306125,-1.140360881001422,0.3062577587100889,1.198924679381061,0.06963516026735306,-0.006810713093727827,-0.07562664151191711,-0.009727325290441513,0.002831147285178304,0.01226943545043468,XTrueNorthZVertical,0.5373649951679479,-0.1949686505413663,-0.3680080140013661,0.7333459117574166,0.1095503270626068,-0.9316489100456238,-0.3464521765708923,16.99527931213379,-16.25547218322754,-18.00894927978516,1,10.3.35.51,10.71.35.210,1,0
2015-03-10 17:29:19.024,36,1426033758.003121,37.78806874121031,-122.3964594008449,12.44675,-1,-1,10,165,-9999,1426033758.981784,17.66397857666016,-16.3055419921875,-18.12077331542969,325.3800964355469,311.6100463867188,15,368517.55185325,0.123626708984375,-0.9385986328125,-0.317535400390625,368517.5040782084,0.1067839712805802,-0.003541737933696379,-0.1432178792056272,368517.5040782084,-1.15478663068408,0.3196439708529118,1.202949808484338,0.08792345970869064,0.01413234882056713,-0.1079809442162514,-0.01390819530934095,0.004972811788320541,0.02318508364260197,XTrueNorthZVertical,0.5397059847136979,-0.1949910621443192,-0.3688582426963359,0.7311905154809766,0.1129987686872482,-0.9331039190292358,-0.3413918614387512,17.04609298706055,-16.29524230957031,-17.92478561401367,1,10.3.35.51,10.71.35.210,1,0
2015-03-10 17:29:19.028,37,1426033758.003121,37.78806874121031,-122.3964594008449,12.44675,-1,-1,10,165,-9999,1426033758.981784,17.66397857666016,-16.3055419921875,-18.12077331542969,325.3800964355469,311.6100463867188,15,368517.6009381667,0.1273651123046875,-0.947967529296875,-0.309600830078125,368517.6076197083,0.1759334816167056,-0.06781446768166871,-0.1784160803848775,368517.5558475833,-1.17447374816896,0.3387696321414556,1.207216281348412,0.1113728955388069,-0.001883399789221585,-0.1039493605494499,0.00544375367462635,-0.003968961536884308,0.01787512004375458,XTrueNorthZVertical,0.5426610751828352,-0.1944574441523656,-0.3699712287541469,0.7285784701565114,0.1181829571723938,-0.9346296787261963,-0.3354105055332184,17.13006019592285,-16.3075065612793,-17.83335304260254,1,10.3.35.51,10.71.35.210,1,0
2015-03-10 17:29:19.113,38,1426033758.003121,37.78806874121031,-122.3964594008449,12.44675,-1,-1,10,165,-9999,1426033759.033089,17.90271377563477,-16.47549438476562,-18.05420684814453,326.2515258789062,312.4814758300781,15,368517.6499891667,0.14453125,-0.9523468017578125,-0.3072509765625,368517.6076197083,0.1759334816167056,-0.06781446768166871,-0.1784160803848775,368517.6076197083,-1.199892818174839,0.3616778661712386,1.212982998866939,0.1570962220430374,-0.04997514188289642,-0.1431063562631607,0.003439385909587145,-0.0113026350736618,0.01796800456941128,XTrueNorthZVertical,0.546212618811919,-0.1945953693610483,-0.3717264448552348,0.7249854514784886,0.1239257231354713,-0.936664879322052,-0.3275688290596008,17.2181568145752,-16.33750534057617,-17.72069931030273,1,10.3.35.51,10.71.35.210,1,0
2015-03-10 17:29:19.174,39,1426033758.003121,37.78806874121031,-122.3964594008449,12.44675,-1,-1,10,165,-9999,1426033759.085088,18.32900619506836,-16.32257080078125,-18.03756332397461,326.7001342773438,312.9300842285156,15,368517.6990714167,0.142578125,-0.9391937255859375,-0.3047943115234375,368517.6593917917,0.1799063853308858,-0.1192544894009852,-0.2236061956579961,368517.6593917917,-1.234740389750132,0.39105849424888,1.218673275456877,0.1610842943191528,-0.1014116406440735,-0.1883023381233215,0.0130699397996068,-0.01370419468730688,0.01160327158868313,XTrueNorthZVertical,0.5500112799281457,-0.1950909217850566,-0.3749944182756139,0.7202821307219217,0.1314613074064255,-0.9386426210403442,-0.3188542425632477,17.32257080078125,-16.38158226013184,-17.57767105102539,1,10.3.35.51,10.71.35.210,1,0
2015-03-10 17:29:19.217,40,1426033758.003121,37.78806874121031,-122.3964594008449,12.44675,-1,-1,10,165,-9999,1426033759.137183,18.24374771118164,-15.93173217773438,-17.95435333251953,327.9636840820312,314.1936340332031,15,368517.7481102917,0.1458587646484375,-0.91949462890625,-0.307708740234375,368517.7111612917,0.1297516051536416,-0.1536771780708044,-0.2422187622004509,368517.7111612917,-1.272348195803094,0.4209165195875015,1.221266592877791,0.1109365895390511,-0.1358303725719452,-0.2069250196218491,0.005184503272175789,0.00218645017594099,0.004718684125691652,XTrueNorthZVertical,0.552728042104467,-0.19547208145089,-0.3796633733779246,0.7156382725555077,0.1399265825748444,-0.9395338892936707,-0.3125647604465485,17.41115760803223,-16.35168838500977,-17.51787948608398,1,10.3.35.51,10.71.35.210,1,0
2015-03-10 17:29:19.223,41,1426033758.003121,37.78806874121031,-122.3964594008449,12.44675,-1,-1,10,165,-9999,1426033759.188706,18.22669982910156,-15.33697509765625,-18.07084655761719,328.4213562011719,314.6513061523438,15,368517.797170625,0.1663360595703125,-0.924346923828125,-0.3507232666015625,368517.7629334167,0.1304493533592423,-0.0696757509675251,-0.2675813768418205,368517.7629334167,-1.30758081073792,0.4491909335655718,1.220954025813411,0.1116326078772545,-0.05182906240224838,-0.2322889268398285,0.00413478584960103,0.02574574574828148,-0.003385260468348861,XTrueNorthZVertical,0.5546017064121614,-0.1950453354777814,-0.3844834054179663,0.7117210216774542,0.1488345712423325,-0.9394267797470093,-0.3087485432624817,17.46835899353027,-16.28169250488281,-17.52612686157227,1,10.3.35.51,10.71.35.210,1,0
2015-03-10 17:29:19.273,42,1426033758.003121,37.78806874121031,-122.3964594008449,12.44675,-1,-1,10,165,-9999,1426033759.240492,18.78941345214844,-15.2860107421875,-17.98764419555664,328.4647521972656,314.6947021484375,15,368517.8462035834,0.1830902099609375,-0.9007568359375,-0.401519775390625,368517.8147054584,0.1868993137212159,-0.06595238544748531,-0.3044733484743611,368517.8147054584,-1.349324350706972,0.4856288975343772,1.219481598773725,0.168051078915596,-0.04794872179627419,-0.2691184878349304,0.009048803709447384,0.01214801240712404,-0.0546337366104126,XTrueNorthZVertical,0.557198481034025,-0.1932811019675066,-0.3895288865792068,0.707417523293198,0.16062892973423,-0.9389210939407349,-0.3043445348739624,17.64015960693359,-16.11464691162109,-17.50843048095703,1,10.3.35.51,10.71.35.210,1,0
2015-03-10 17:29:19.339,43,1426033758.003121,37.78806874121031,-122.3964594008449,12.44675,-1,-1,10,165,-9999,1426033759.293241,18.94287872314453,-15.33700561523438,-18.07084655761719,328.5409545898438,314.7709045410156,15,368517.8952724167,0.170989990234375,-0.8418731689453125,-0.4622344970703125,368517.866475,0.1597545116783652,-0.04308568537973795,-0.2793144656563826,368517.866475,-1.391137996970477,0.5232961682392538,1.218918318675204,0.1408940553665161,-0.02508307620882988,-0.2439626604318619,0.01252829469740391,0.06703824549913406,-0.1342778652906418,XTrueNorthZVertical,0.5604062448125097,-0.1915097841342383,-0.3938914509019899,0.7029355629420386,0.1722403764724731,-0.938727080821991,-0.2985377013683319,17.79800415039062,-15.98940753936768,-17.46344947814941,1,10.3.35.51,10.71.35.210,1,0
2015-03-10 17:29:19.349,44,1426033758.003121,37.78806874121031,-122.3964594008449,12.44675,-1,-1,10,165,-9999,1426033759.293241,18.94287872314453,-15.33700561523438,-18.07084655761719,328.5409545898438,314.7709045410156,15,368517.9443075417,0.166961669921875,-0.800079345703125,-0.4770050048828125,368517.9182470834,0.1374737070504353,-0.01497442217729754,-0.2824303641317753,368517.9182470834,-1.422532126045628,0.5505488788399653,1.212382421101645,0.1185577809810638,0.003021633252501488,-0.247084453701973,-0.01559430733323097,0.1151348054409027,-0.1671390533447266,XTrueNorthZVertical,0.5611717307649708,-0.1887016919017565,-0.3989695446958527,0.7002151811087518,0.1835172772407532,-0.9364544153213501,-0.2989559173583984,17.95096969604492,-15.85103034973145,-17.43300628662109,1,10.3.35.51,10.71.35.210,1,0
2015-03-10 17:29:19.395,45,1426033758.003121,37.78806874121031,-122.3964594008449,12.44675,-1,-1,10,165,-9999,1426033759.346141,18.78941345214844,-15.01412963867188,-18.15405654907227,328.6713256835938,314.9012756347656,15,368517.9933759584,0.128143310546875,-0.887237548828125,-0.48028564453125,368517.97001925,0.203438343038935,0.04791319748772458,-0.2327618771695795,368517.97001925,-1.453949291105428,0.5817380567345618,1.209263846237152,0.1844711601734161,0.06604183465242386,-0.1973589807748795,-0.04783956706523895,0.1108929812908173,-0.1816923320293427,XTrueNorthZVertical,0.5637141471124648,-0.1856427045270072,-0.4020055680375791,0.6972479524919842,0.194354459643364,-0.9353558421134949,-0.2955262959003448,18.1827392578125,-15.65958118438721,-17.3657054901123,1,10.3.35.51,10.71.35.210,1,0
2015-03-10 17:29:19.435,46,1426033758.003121,37.78806874121031,-122.3964594008449,12.44675,-1,-1,10,165,-9999,1426033759.346141,18.78941345214844,-15.01412963867188,-18.15405654907227,328.6713256835938,314.9012756347656,15,368518.0424100833,0.0999908447265625,-0.8524169921875,-0.4772796630859375,368518.0217887917,0.3161611635503919,0.09592972562574424,-0.1876940009904955,368517.97001925,-1.453949291105428,0.5817380567345618,1.209263846237152,0.1844711601734161,0.06604183465242386,-0.1973589807748795,-0.04783956706523895,0.1108929812908173,-0.1816923320293427,XTrueNorthZVertical,0.5637141471124648,-0.1856427045270072,-0.4020055680375791,0.6972479524919842,0.194354459643364,-0.9353558421134949,-0.2955262959003448,18.1827392578125,-15.65958118438721,-17.3657054901123,1,10.3.35.51,10.71.35.210,1,0
2015-03-10 17:29:19.524,47,1426033758.003121,37.78806874121031,-122.3964594008449,12.44675,-1,-1,10,165,-9999,1426033759.474626,20.32408142089844,-14.84420776367188,-17.32197570800781,328.95556640625,315.1855163574219,15,368518.0914784167,0.07666015625,-0.876068115234375,-0.4445648193359375,368518.0735609167,0.2974380758226988,0.1446187019390089,-0.1913361400972879,368518.0735609167,-1.518588507858736,0.6505763633000239,1.217534606667404,0.2784076333045959,0.1627292633056641,-0.1559154242277145,-0.1338301599025726,0.05482643097639084,-0.1869572997093201,XTrueNorthZVertical,0.5735090479646079,-0.1828692022949641,-0.4025674650469242,0.6896272183047466,0.2095290124416351,-0.9382492899894714,-0.2752924561500549,18.5361213684082,-15.63131904602051,-17.01400375366211,1,10.3.35.51,10.71.35.210,1,0
2015-03-10 17:29:19.529,48,1426033758.003121,37.78806874121031,-122.3964594008449,12.44675,-1,-1,10,165,-9999,1426033759.525538,20.61396026611328,-15.2010498046875,-16.70624160766602,328.720458984375,314.9504089355469,15,368518.1405282917,0.155120849609375,-0.8637847900390625,-0.4128265380859375,368518.125333125,0.3040539006026737,0.6732423298820692,-0.1349698029935428,368518.125333125,-1.558924399627778,0.7097749443272231,1.222824917059417,0.2850236594676971,0.6913527250289917,-0.09954944252967834,-0.09275605529546738,0.0941954106092453,-0.1773596107959747,XTrueNorthZVertical,0.5828539608327663,-0.1759509707294348,-0.3978155277372152,0.6863420135168784,0.222211629152298,-0.940066397190094,-0.2586450278759003,18.84059906005859,-15.69620895385742,-16.61514282226562,1,10.3.35.51,10.71.35.210,1,0
2015-03-10 17:29:19.611,49,1426033758.003121,37.78806874121031,-122.3964594008449,12.44675,-1,-1,10,165,-9999,1426033759.577963,20.85268783569336,-15.64288330078125,-16.10713577270508,327.9606018066406,314.1905517578125,15,368518.1895897083,0.210693359375,-1.070266723632812,-0.3303375244140625,368518.1771026667,0.3995878804904321,0.9338132014703652,0.04420820777920634,368518.1771026667,-1.595156759390097,0.7869217427441348,1.235188543200473,0.3805577754974365,0.9519234299659729,0.07962825149297714,-0.05058764293789864,-0.02661488018929958,-0.1406279653310776,XTrueNorthZVertical,0.5972383377917859,-0.1644490999411861,-0.3838195445673818,0.6847959228811477,0.2332353442907333,-0.9442102909088135,-0.2325257211923599,19.42540550231934,-15.83812141418457,-15.786376953125,1,10.3.35.51,10.71.35.210,1,0
2015-03-10 17:29:19.626,50,1426033758.003121,37.78806874121031,-122.3964594008449,12.44675,-1,-1,10,165,-9999,1426033759.577963,20.85268783569336,-15.64288330078125,-16.10713577270508,327.9606018066406,314.1905517578125,15,368518.23862675,0.2577056884765625,-1.056854248046875,-0.1634521484375,368518.2288748334,0.2939786295666859,0.9395632325799552,0.1225379007089439,368518.1771026667,-1.595156759390097,0.7869217427441348,1.235188543200473,0.3805577754974365,0.9519234299659729,0.07962825149297714,-0.05058764293789864,-0.02661488018929958,-0.1406279653310776,XTrueNorthZVertical,0.5972383377917859,-0.1644490999411861,-0.3838195445673818,0.6847959228811477,0.2332353442907333,-0.9442102909088135,-0.2325257211923599,19.42540550231934,-15.83812141418457,-15.786376953125,1,10.3.35.51,10.71.35.210,1,0
2015-03-10 17:29:19.712,51,1426033758.003121,37.78806874121031,-122.3964594008449,12.44675,-1,-1,10,165,-9999,1426033759.681897,21.90989685058594,-15.84677124023438,-13.24477005004883,323.5355834960938,309.7655334472656,15,368518.2876909584,0.251800537109375,-1.048065185546875,-0.067962646484375,368518.280647,0.006168147400732523,0.8034325576672469,0.07389313286977457,368518.280647,-1.624572639286451,0.9085456731146343,1.26175379837384,-0.01286153960973024,0.8215423226356506,0.109312430024147,0.01013146433979273,-0.07801443338394165,0.1135467365384102,XTrueNorthZVertical,0.621780406863264,-0.1409972423724531,-0.3486590468954437,0.6869831218367705,0.2398532778024673,-0.9526252150535583,-0.1870178133249283,20.67445755004883,-16.56634140014648,-13.24859809875488,1,10.3.35.51,10.71.35.210,1,0
2015-03-10 17:29:19.726,52,1426033758.003121,37.78806874121031,-122.3964594008449,12.44675,-1,-1,10,165,-9999,1426033759.681897,21.90989685058594,-15.84677124023438,-13.24477005004883,323.5355834960938,309.7655334472656,15,368518.336736875,0.217071533203125,-1.121078491210938,-0.019439697265625,368518.280647,0.006168147400732523,0.8034325576672469,0.07389313286977457,368518.280647,-1.624572639286451,0.9085456731146343,1.26175379837384,-0.01286153960973024,0.8215423226356506,0.109312430024147,0.01013146433979273,-0.07801443338394165,0.1135467365384102,XTrueNorthZVertical,0.621780406863264,-0.1409972423724531,-0.3486590468954437,0.6869831218367705,0.2398532778024673,-0.9526252150535583,-0.1870178133249283,20.67445755004883,-16.56634140014648,-13.24859809875488,1,10.3.35.51,10.71.35.210,1,0
2015-03-10 17:29:19.819,53,1426033758.003121,37.78806874121031,-122.3964594008449,12.44675,-1,-1,10,165,-9999,1426033759.740926,22.59197235107422,-16.11865234375,-12.07985305786133,320.4533996582031,306.683349609375,15,368518.3858137084,0.29119873046875,-1.053848266601562,-0.0561676025390625,368518.3841887917,-0.273311700559344,1.1128902784378,0.04334161516049456,368518.3324165834,-1.584419355599186,0.9088160208747136,1.25869165517734,-0.3615013957023621,0.7945050001144409,0.09227240830659866,-0.01544275414198637,-0.154313400387764,0.1555572748184204,XTrueNorthZVertical,0.6240322295712412,-0.1273232288592587,-0.3356713749097174,0.6940441897327112,0.2422036230564117,-0.9516894221305847,-0.1887451410293579,21.06211280822754,-16.63274955749512,-12.53559875488281,1,10.3.35.51,10.71.35.210,1,0
2015-03-10 17:29:19.827,54,1426033758.003121,37.78806874121031,-122.3964594008449,12.44675,-1,-1,10,165,-9999,1426033759.740926,22.59197235107422,-16.11865234375,-12.07985305786133,320.4533996582031,306.683349609375,15,368518.4348552084,0.2759857177734375,-0.9371795654296875,0.009033203125,368518.435961,-0.3131888094577545,0.8097650221072373,0.07675283524830166,368518.3841887917,-1.531280389899864,0.9092890000677404,1.251268067339024,-0.292341023683548,1.130999684333801,0.07876023650169373,0.01970201171934605,-0.1330747902393341,0.1426418870687485,XTrueNorthZVertical,0.6259865087412434,-0.1079731630918122,-0.3192744205637173,0.7032400505417178,0.247860848903656,-0.9493837356567383,-0.1929653733968735,21.61468315124512,-16.49577522277832,-11.75147438049316,1,10.3.35.51,10.71.35.210,1,0
2015-03-10 17:29:19.942,55,1426033758.003121,37.78806874121031,-122.3964594008449,12.44675,-1,-1,10,165,-9999,1426033759.888229,23.78560638427734,-16.73043823242188,-9.483749389648438,312.58837890625,298.8183288574219,15,368518.4839202917,0.273284912109375,-0.922119140625,0.0049285888671875,368518.4877305834,-0.4082322350727203,0.6922288042415712,0.1288189661398958,368518.435961,-1.488202448376905,0.9173167929816579,1.24689058914036,-0.3322159945964813,0.8278749585151672,0.1121703237295151,0.02328650280833244,0.01082000136375427,0.2025273591279984,XTrueNorthZVertical,0.6285946455464646,-0.09012043403409045,-0.3028862194856242,0.710638483613043,0.252699226140976,-0.9479995369911194,-0.1934941560029984,22.09747886657715,-16.44255256652832,-10.89706802368164,1,10.3.35.51,10.71.35.210,1,0
2015-03-10 17:29:19.946,56,1426033758.003121,37.78806874121031,-122.3964594008449,12.44675,-1,-1,10,165,-9999,1426033759.888229,23.78560638427734,-16.73043823242188,-9.483749389648438,312.58837890625,298.8183288574219,15,368518.5329597084,0.233673095703125,-0.91583251953125,-0.0331878662109375,368518.4877305834,-0.4082322350727203,0.6922288042415712,0.1288189661398958,368518.4877305834,-1.424418247644967,0.895365604615019,1.239424104727612,-0.4272579252719879,0.7103390097618103,0.1642355918884277,0.01937652751803398,0.02347765304148197,0.2083426862955093,XTrueNorthZVertical,0.6265808648195409,-0.07542792017917621,-0.2892576104364811,0.7197479565030622,0.2539083957672119,-0.9455968141555786,-0.2034140974283218,22.40679168701172,-16.39218521118164,-10.32638168334961,1,10.3.35.51,10.71.35.210,1,0
2015-03-10 17:29:20.025,57,1426033758.003121,37.78806874121031,-122.3964594008449,12.44675,-1,-1,10,165,-9999,1426033759.991598,24.04138946533203,-16.84933471679688,-8.501888275146484,307.2421875,293.4721374511719,15,368518.5820321667,0.220428466796875,-0.909393310546875,-0.0291595458984375,368518.5912750417,-0.04772491199865598,0.3964695851700583,0.2469504005091946,368518.5395027917,-1.370044263260035,0.8719086318407505,1.237246869033117,-0.2056992650032043,0.4351325929164886,0.2062561810016632,-0.01696992479264736,0.02905368991196156,0.1774497032165527,XTrueNorthZVertical,0.6247412215963088,-0.06617870409729466,-0.2775890566070301,0.7268171284447629,0.2506430149078369,-0.9448862075805664,-0.2106375694274902,22.64033126831055,-16.3939208984375,-9.800863265991211,1,10.3.35.51,10.71.35.210,1,0
2015-03-10 17:29:20.029,58,1426033758.003121,37.78806874121031,-122.3964594008449,12.44675,-1,-1,10,165,-9999,1426033759.991598,24.04138946533203,-16.84933471679688,-8.501888275146484,307.2421875,293.4721374511719,15,368518.6310701667,0.238861083984375,-0.9661712646484375,-0.04364013671875,368518.5912750417,-0.04772491199865598,0.3964695851700583,0.2469504005091946,368518.5912750417,-1.339720150918527,0.8646316521788402,1.245058553792372,-0.06671857088804245,0.4145880937576294,0.2823601961135864,-0.02305158786475658,0.03802157938480377,0.1785001456737518,XTrueNorthZVertical,0.6263697733589567,-0.06189558026917599,-0.2664881972664621,0.7299410402692675,0.2434800565242767,-0.9474148750305176,-0.2076596915721893,22.66568756103516,-16.58319091796875,-9.416295051574707,1,10.3.35.51,10.71.35.210,1,0
2015-03-10 17:29:20.106,59,1426033758.003121,37.78806874121031,-122.3964594008449,12.44675,-1,-1,10,165,-9999,1426033760.095315,23.66625213623047,-17.59701538085938,-7.603237152099609,304.2178344726562,290.4477844238281,15,368518.6801469583,0.2654571533203125,-0.9630126953125,-0.1124420166015625,368518.6430446667,-0.0505321501037085,0.4733704921749684,0.4468438098211251,368518.6430446667,-1.309526134643585,0.8605069642228551,1.263310225337473,-0.06949806958436966,0.4916780591011047,0.4823090136051178,0.01231925375759602,-0.008572475984692574,0.1365770697593689,XTrueNorthZVertical,0.6306715854839241,-0.05980748337656505,-0.2513227899425045,0.7317877484880363,0.2294715195894241,-0.9530974626541138,-0.1973528265953064,22.6142635345459,-16.90564727783203,-8.955246925354004,1,10.3.35.51,10.71.35.210,1,0
2015-03-10 17:29:20.116,60,1426033758.003121,37.78806874121031,-122.3964594008449,12.44675,-1,-1,10,165,-9999,1426033760.095315,23.66625213623047,-17.59701538085938,-7.603237152099609,304.2178344726562,290.4477844238281,15,368518.7291877083,0.2615203857421875,-0.972137451171875,-0.172943115234375,368518.6948169167,0.09804107973795906,0.4740514624657017,0.3988547122423333,368518.6948169167,-1.266750365544845,0.8464337423476034,1.28247448598687,0.07909046113491058,0.4923663139343262,0.4343059360980988,0.05458099767565727,-0.01191969029605389,0.0632244199514389,XTrueNorthZVertical,0.6344118305012645,-0.05753467605433071,-0.2344307279973826,0.7343389282397428,0.2129513472318649,-0.9587224125862122,-0.1884227842092514,22.41960906982422,-17.55917549133301,-8.150994300842285,1,10.3.35.51,10.71.35.210,1,0
2015-03-10 17:29:20.176,61,1426033758.003121,37.78806874121031,-122.3964594008449,12.44675,-1,-1,10,165,-9999,1426033760.147935,23.46162414550781,-18.51467895507812,-7.037418365478516,302.0994873046875,288.3294372558594,15,368518.7782586667,0.1934661865234375,-0.931549072265625,-0.157012939453125,368518.7465891667,0.1778807850057716,0.2554687875719221,0.2280872305081634,368518.7465891667,-1.24586343326522,0.8452654190958373,1.299385817731826,0.1589318960905075,0.2737858593463898,0.2635312676429749,0.04819272086024284,-0.003006435930728912,0.0005035275244154036,XTrueNorthZVertical,0.6386314508061129,-0.05662503729445297,-0.2221633084764318,0.7345658424850734,0.2005713135004044,-0.9633936882019043,-0.1778869479894638,22.27383422851562,-17.98350715637207,-7.60736083984375,1,10.3.35.51,10.71.35.210,1,0
2015-03-10 17:29:20.223,62,1426033758.003121,37.78806874121031,-122.3964594008449,12.44675,-1,-1,10,165,-9999,1426033760.199459,23.41046905517578,-18.87155151367188,-6.188697814941406,300.0918884277344,286.3218383789062,15,368518.8273099583,0.1763153076171875,-0.890106201171875,-0.1127777099609375,368518.798358875,0.2239191170860804,0.3371767003444252,0.01310355151151688,368518.798358875,-1.255822223733182,0.8691034671845782,1.311420204406856,0.2049704343080521,0.355493575334549,0.04854721203446388,-0.02559690177440643,0.05587512627243996,0.02675011940300465,XTrueNorthZVertical,0.6435928481699894,-0.05485056369312098,-0.2146180123396999,0.7326109524247254,0.1958849877119064,-0.9665501713752747,-0.165559321641922,22.16773986816406,-18.28354644775391,-7.190652847290039,1,10.3.35.51,10.71.35.210,1,0
2015-03-10 17:29:20.305,63,1426033758.003121,37.78806874121031,-122.3964594008449,12.44675,-1,-1,10,165,-9999,1426033760.250909,23.34226226806641,-19.38131713867188,-5.323337554931641,298.5389099121094,284.7688598632812,15,368518.876384,0.222869873046875,-0.853668212890625,-0.05859375,368518.850131125,0.1821205374611777,0.5300068738132475,-0.1299121937673733,368518.850131125,-1.287121559574979,0.9228936428852363,1.316129923720577,0.1631720513105392,0.5483235716819763,-0.09446889162063599,-0.007099542301148176,0.08968037366867065,0.05865545570850372,XTrueNorthZVertical,0.6494538975211456,-0.04679756997223078,-0.2072556035423886,0.7301128506100183,0.2008709013462067,-0.9677473902702332,-0.1520392447710037,22.28680419921875,-18.41215324401855,-6.457018852233887,1,10.3.35.51,10.71.35.210,1,0
2015-03-10 17:29:20.324,64,1426033758.003121,37.78806874121031,-122.3964594008449,12.44675,-1,-1,10,165,-9999,1426033760.304106,23.88792419433594,-19.34732055664062,-4.724239349365234,298.1482238769531,284.378173828125,15,368518.925427125,0.271697998046875,-0.8448944091796875,-0.0062408447265625,368518.9019034167,0.1930267147572702,0.545752014810014,-0.2135072224883066,368518.9019034167,-1.33198798259735,0.9950904115745374,1.315108918123158,0.1740783900022507,0.5640684962272644,-0.178064227104187,0.03201235458254814,0.1319794207811356,0.09572973102331161,XTrueNorthZVertical,0.65570049427664,-0.03480172393359647,-0.2003608998771652,0.7271184559639176,0.2121435254812241,-0.9674896597862244,-0.1376914083957672,22.53258895874023,-18.34803199768066,-5.747543334960938,1,10.3.35.51,10.71.35.210,1,0
2015-03-10 17:29:20.423,65,1426033758.003121,37.78806874121031,-122.3964594008449,12.44675,-1,-1,10,165,-9999,1426033760.406057,24.38243103027344,-18.61660766601562,-2.677318572998047,295.7498474121094,281.9797973632812,15,368518.9744979167,0.3231964111328125,-0.8104095458984375,0.0142974853515625,368518.953673125,0.1584801890967623,0.3736204619655055,-0.1907515762380155,368518.953673125,-1.376351444798804,1.061823594181103,1.312014347951458,0.139532059431076,0.3919367790222168,-0.1553089320659637,0.06226957589387894,0.1305665224790573,0.1387348175048828,XTrueNorthZVertical,0.6611109246329216,-0.02416572479391475,-0.1954719215186152,0.7239745357126367,0.2234665006399155,-0.966702401638031,-0.1246967241168022,22.80788803100586,-18.21266746520996,-5.04987907409668,1,10.3.35.51,10.71.35.210,1,0
2015-03-10 17:29:20.427,66,1426033758.003121,37.78806874121031,-122.3964594008449,12.44675,-1,-1,10,165,-9999,1426033760.406057,24.38243103027344,-18.61660766601562,-2.677318572998047,295.7498474121094,281.9797973632812,15,368519.0235351667,0.3667144775390625,-0.7242889404296875,0.011016845703125,368519.005445375,0.235770183936933,-0.004117513361371511,-0.09939955821000848,368519.005445375,-1.415197588248855,1.109780623224375,1.31090353242204,0.2168222665786743,0.01419862639158964,-0.06395731866359711,0.1321252137422562,0.2131521552801132,0.1255640387535095,XTrueNorthZVertical,0.6651815586469443,-0.0193478582378306,-0.1939624053344968,0.7207896899379218,0.2301489561796188,-0.9664175510406494,-0.114318311214447,23.06172943115234,-18.05621719360352,-4.419500350952148,1,10.3.35.51,10.71.35.210,1,0
2015-03-10 17:29:20.492,67,1426033758.003121,37.78806874121031,-122.3964594008449,12.44675,-1,-1,10,165,-9999,1426033760.459003,24.16075897216797,-18.599609375,-2.361122131347656,295.6829528808594,281.9129028320312,15,368519.07260125,0.336456298828125,-0.7602386474609375,0.0504150390625,368519.0572176667,0.2464627757136011,-0.5364559847089834,-0.004024835355436753,368519.0572176667,-1.456747228814584,1.135826366774348,1.315990274465976,0.2275150418281555,-0.5181400179862976,0.03141705319285393,0.1140186786651611,0.2352750599384308,0.1283992230892181,XTrueNorthZVertical,0.6680113514205479,-0.02558057190496066,-0.1985408961481849,0.7167203210857789,0.2285869121551514,-0.9677122235298157,-0.1062129363417625,23.07136726379395,-18.06509017944336,-4.332061767578125,1,10.3.35.51,10.71.35.210,1,0
2015-03-10 17:29:20.510,68,1426033758.003121,37.78806874121031,-122.3964594008449,12.44675,-1,-1,10,165,-9999,1426033760.459003,24.16075897216797,-18.599609375,-2.361122131347656,295.6829528808594,281.9129028320312,15,368519.12164625,0.3726959228515625,-0.8385772705078125,0.07672119140625,368519.108987625,0.1872929289303296,-0.8976240380494964,0.03210920063086736,368519.0572176667,-1.456747228814584,1.135826366774348,1.315990274465976,0.2275150418281555,-0.5181400179862976,0.03141705319285393,0.1140186786651611,0.2352750599384308,0.1283992230892181,XTrueNorthZVertical,0.6680113514205479,-0.02558057190496066,-0.1985408961481849,0.7167203210857789,0.2285869121551514,-0.9677122235298157,-0.1062129363417625,23.07136726379395,-18.06509017944336,-4.332061767578125,1,10.3.35.51,10.71.35.210,1,0
2015-03-10 17:29:20.618,69,1426033758.003121,37.78806874121031,-122.3964594008449,12.44675,-1,-1,10,165,-9999,1426033760.5627,24.00729751586914,-18.650634765625,-3.808944702148438,299.1095275878906,285.3394775390625,15,368519.1707259167,0.3498077392578125,-0.8383026123046875,0.0153350830078125,368519.1607599584,0.09417017509352889,-1.324723437864883,0.1188976258149146,368519.1607599584,-1.495554189647989,1.082504666036133,1.329840904101226,0.07522280514240265,-1.306407928466797,0.1543388366699219,0.1660115122795105,0.108409009873867,0.1635816693305969,XTrueNorthZVertical,0.6634334306175311,-0.06231468852430708,-0.2255814915179949,0.7106940205207911,0.210743248462677,-0.9711104035377502,-0.1119459271430969,22.54032135009766,-18.30509757995605,-5.853164672851562,1,10.3.35.51,10.71.35.210,1,0
2015-03-10 17:29:20.622,70,1426033758.003121,37.78806874121031,-122.3964594008449,12.44675,-1,-1,10,165,-9999,1426033760.614715,24.04139709472656,-18.480712890625,-5.007144927978516,301.2784118652344,287.5083618164062,15,368519.219759875,0.2639312744140625,-0.813568115234375,0.005706787109375,368519.2125320833,0.1254197073245187,-1.83123910033476,-0.055522913986517,368519.1607599584,-1.495554189647989,1.082504666036133,1.329840904101226,0.07522280514240265,-1.306407928466797,0.1543388366699219,0.1660115122795105,0.108409009873867,0.1635816693305969,XTrueNorthZVertical,0.6634334306175311,-0.06231468852430708,-0.2255814915179949,0.7106940205207911,0.210743248462677,-0.9711104035377502,-0.1119459271430969,22.54032135009766,-18.30509757995605,-5.853164672851562,1,10.3.35.51,10.71.35.210,1,0
2015-03-10 17:29:20.702,71,1426033758.003121,37.78806874121031,-122.3964594008449,12.44675,-1,-1,10,165,-9999,1426033760.66853,23.73446273803711,-18.10690307617188,-7.403537750244141,306.2452697753906,292.4752197265625,15,368519.2688387083,0.1707305908203125,-0.8459014892578125,0.0191650390625,368519.2643018333,-0.1314847903910651,-1.802462046859799,-0.1279571672111462,368519.2125320833,-1.505933958382266,1.012676519386411,1.33677033981503,0.1064725443720818,-1.812923669815063,-0.02008209004998207,0.0725504532456398,0.1800160557031631,0.1286848336458206,XTrueNorthZVertical,0.6557209742454975,-0.09287034229623742,-0.2500292404054401,0.7063218245140893,0.1967061311006546,-0.972740650177002,-0.1228102073073387,22.00703430175781,-18.47414398193359,-7.197124481201172,1,10.3.35.51,10.71.35.210,1,0
2015-03-10 17:29:20.707,72,1426033758.003121,37.78806874121031,-122.3964594008449,12.44675,-1,-1,10,165,-9999,1426033760.66853,23.73446273803711,-18.10690307617188,-7.403537750244141,306.2452697753906,292.4752197265625,15,368519.3178770834,0.10498046875,-0.850738525390625,-0.0498504638671875,368519.3160742084,-0.3366174365155085,-1.408683852287375,-0.2451724741654577,368519.2643018333,-1.512687061536194,0.9247075112379078,1.33187130482518,-0.1504317820072174,-1.784146785736084,-0.09251666069030762,0.004751636181026697,0.112614668905735,0.1792276799678802,XTrueNorthZVertical,0.6428823858812495,-0.1243381578474211,-0.2825421770770078,0.701007999944112,0.1889586895704269,-0.9715929627418518,-0.1424845159053802,21.36965942382812,-18.46509742736816,-8.931965827941895,1,10.3.35.51,10.71.35.210,1,0
2015-03-10 17:29:20.772,73,1426033758.003121,37.78806874121031,-122.3964594008449,12.44675,-1,-1,10,165,-9999,1426033760.719354,23.05239105224609,-17.93698120117188,-9.400531768798828,310.2854614257812,296.5154113769531,15,368519.3669532083,0.0854034423828125,-0.971160888671875,-0.024688720703125,368519.3678465,-0.4398034771633917,-0.7834330168290788,-0.02958505654969026,368519.3160742084,-1.487547926861545,0.8224274746692897,1.317454242635009,-0.3555642366409302,-1.390368819236755,-0.209732323884964,-0.07821608334779739,0.1466079950332642,0.1303097456693649,XTrueNorthZVertical,0.6269258466201334,-0.1472765948902225,-0.310714180321531,0.6990924995811399,0.1836695820093155,-0.9680801630020142,-0.1705471724271774,20.45165252685547,-18.20811080932617,-11.29587936401367,1,10.3.35.51,10.71.35.210,1,0
2015-03-10 17:29:20.812,74,1426033758.003121,37.78806874121031,-122.3964594008449,12.44675,-1,-1,10,165,-9999,1426033760.770282,22.79660797119141,-17.27426147460938,-11.21447372436523,313.4411926269531,299.671142578125,15,368519.4160012084,0.21600341796875,-1.021224975585938,-0.22698974609375,368519.3678465,-0.4398034771633917,-0.7834330168290788,-0.02958505654969026,368519.3678465,-1.445854048049332,0.7282940578838374,1.298233322415361,-0.4587500691413879,-0.7651181817054749,0.005854705814272165,-0.09377593547105789,-0.00807679072022438,0.1762187927961349,XTrueNorthZVertical,0.6112647038512721,-0.1609400559429691,-0.3310315679674029,0.7006225079270929,0.1791793704032898,-0.9630841016769409,-0.2009075134992599,19.9016170501709,-17.8359432220459,-12.77524471282959,1,10.3.35.51,10.71.35.210,1,0
2015-03-10 17:29:20.890,75,1426033758.003121,37.78806874121031,-122.3964594008449,12.44675,-1,-1,10,165,-9999,1426033760.874682,21.99517440795898,-16.23764038085938,-13.66079330444336,317.6145324707031,303.844482421875,15,368519.4650770834,0.1717529296875,-1.204483032226562,-0.2173614501953125,368519.4713887083,-0.1274165455098601,-1.050875909294215,0.00840946377414321,368519.419616375,-1.409320679851447,0.6652498175130659,1.28591843337457,-0.2215730249881744,-0.5899673104286194,-0.0112247671931982,0.04252964630723,-0.0615289993584156,-0.005877689924091101,XTrueNorthZVertical,0.6010130999577568,-0.1680095999742179,-0.340868218787958,0.7031108894067224,0.1734737753868103,-0.9596959948539734,-0.2211120575666428,19.48037338256836,-17.57614517211914,-13.74759674072266,1,10.3.35.51,10.71.35.210,1,0
2015-03-10 17:29:20.903,76,1426033758.003121,37.78806874121031,-122.3964594008449,12.44675,-1,-1,10,165,-9999,1426033760.874682,21.99517440795898,-16.23764038085938,-13.66079330444336,317.6145324707031,303.844482421875,15,368519.5141289167,0.118316650390625,-1.096603393554688,-0.34173583984375,368519.4713887083,-0.1274165455098601,-1.050875909294215,0.00840946377414321,368519.4713887083,-1.389843306897053,0.5991139087175255,1.278900779268117,-0.1463627815246582,-1.032561421394348,0.04384855180978775,0.009477293118834496,-0.2467829138040543,0.02028778381645679,XTrueNorthZVertical,0.589581430661048,-0.1832187757412176,-0.3556674395847023,0.7016589817291157,0.162275642156601,-0.9577001333236694,-0.2376492321491241,21.98208236694336,-16.58613967895508,-13.59634017944336,1,10.3.35.51,10.71.35.210,1,0
2015-03-10 17:29:20.961,77,1426033758.003121,37.78806874121031,-122.3964594008449,12.44675,-1,-1,10,165,-9999,1426033760.92584,21.44951629638672,-16.03375244140625,-14.52616119384766,318.7428894042969,304.9728393554688,15,368519.5632142917,0.118621826171875,-1.1014404296875,-0.288177490234375,368519.5231610833,0.01287052491613494,-0.6947606714899095,0.01873880037812455,368519.5231610833,-1.374799520355855,0.5458411732694859,1.277940463730139,-0.006075518205761909,-0.6764463782310486,0.05417753383517265,-0.03155191242694855,-0.139180064201355,-0.09499703347682953,XTrueNorthZVertical,0.5811637038840229,-0.1971784589821745,-0.366249355965079,0.6994503922671713,0.1498685628175735,-0.9574233293533325,-0.2467388063669205,21.36028289794922,-16.56658172607422,-14.57597541809082,1,10.3.35.51,10.71.35.210,1,0
2015-03-10 17:29:21.000,78,1426033758.003121,37.78806874121031,-122.3964594008449,12.44675,-1,-1,10,165,-9999,1426033760.977413,21.04026794433594,-15.79583740234375,-15.79092788696289,320.9584655761719,307.1884155273438,15,368519.6122583334,-0.0381317138671875,-1.19989013671875,-0.3366851806640625,368519.5749309583,-0.382879207811275,-0.6331708102240831,0.1732415583868535,368519.5749309583,-1.34120706970877,0.4790443888656569,1.271758057810124,-0.4018250405788422,-0.6148566603660583,0.2086798995733261,-0.05414123088121414,-0.2125163376331329,-0.03528259322047234,XTrueNorthZVertical,0.5706122269503188,-0.2090018606664858,-0.3753389782664989,0.6998861317906804,0.1357910186052322,-0.9556202292442322,-0.2614398300647736,20.84414863586426,-16.59184646606445,-15.27758312225342,1,10.3.35.51,10.71.35.210,1,0
2015-03-10 17:29:21.062,79,1426033758.003121,37.78806874121031,-122.3964594008449,12.44675,-1,-1,10,165,-9999,1426033761.032288,20.44345474243164,-15.43896484375,-16.87263488769531,321.7404479980469,307.9703979492188,15,368519.6613408334,0.004241943359375,-1.085159301757812,-0.3308258056640625,368519.6267034584,-0.3173009964969458,-0.3125376665712301,0.1686992708316144,368519.6267034584,-1.274692991295221,0.3948597813878232,1.259024879864731,-0.3362466394901276,-0.2942237257957458,0.2041372507810593,-0.1446249783039093,-0.1906338632106781,-0.0758979469537735,XTrueNorthZVertical,0.5583220047695899,-0.2161153803842965,-0.378844449436694,0.7057248768951969,0.1179983839392662,-0.9517917037010193,-0.2831413745880127,20.10763549804688,-16.4993839263916,-16.32867813110352,1,10.3.35.51,10.71.35.210,1,0
2015-03-10 17:29:21.101,80,1426033758.003121,37.78806874121031,-122.3964594008449,12.44675,-1,-1,10,165,-9999,1426033761.089787,19.96600723266602,-15.33700561523438,-17.67143630981445,321.9465637207031,308.176513671875,15,368519.7103899583,-0.08575439453125,-1.132293701171875,-0.3475494384765625,368519.6784756667,-0.5096685788844214,-0.3986238161758234,0.04400394332359727,368519.6784756667,-1.232082047874403,0.3367666321624204,1.242733192785779,-0.5285260081291199,-0.3802392184734344,0.07953667640686035,-0.121622160077095,-0.1398033648729324,-0.01289037894457579,XTrueNorthZVertical,0.5471466788576385,-0.2203974360004515,-0.3835353553220385,0.7106026671944012,0.1064701825380325,-0.9466682076454163,-0.30411097407341,19.7348747253418,-16.4025764465332,-16.87194633483887,1,10.3.35.51,10.71.35.210,1,0
2015-03-10 17:29:21.161,81,1426033758.003121,37.78806874121031,-122.3964594008449,12.44675,-1,-1,10,165,-9999,1426033761.158451,19.81253814697266,-14.77621459960938,-18.81970596313477,322.5361328125,308.7660827636719,15,368519.7594663334,-0.143798828125,-0.992340087890625,-0.3442840576171875,368519.73024575,-0.5003539066557603,-0.114104734801099,0.05515273459499598,368519.73024575,-1.196595106480724,0.2935127152785894,1.218091512388355,-0.5192111730575562,-0.0957203209400177,0.09068507701158524,-0.2041430175304413,-0.1558422595262527,-0.02933631092309952,XTrueNorthZVertical,0.5351830078366142,-0.2196519938074577,-0.3878729386388626,0.7175561097205794,0.09994075447320938,-0.9384418129920959,-0.3306643068790436,19.42398834228516,-16.06651306152344,-17.54275703430176,1,10.3.35.51,10.71.35.210,1,0
2015-03-10 17:29:21.196,82,1426033758.003121,37.78806874121031,-122.3964594008449,12.44675,-1,-1,10,165,-9999,1426033761.158451,19.81253814697266,-14.77621459960938,-18.81970596313477,322.5361328125,308.7660827636719,15,368519.8086367084,-0.1518707275390625,-1.034042358398438,-0.386444091796875,368519.782018,-0.6024949228918963,0.09534596071479887,-0.1884769703509789,368519.782018,-1.17730922816524,0.2740668562529911,1.19126171040784,-0.621351957321167,0.1137301847338676,-0.1529449820518494,-0.2566289901733398,-0.07563366740942001,-0.0004251741047482938,XTrueNorthZVertical,0.5250162453447343,-0.2145400623641832,-0.3915778688152735,0.7245669836566488,0.1002721935510635,-0.9288371801376343,-0.3566610217094421,19.27831649780273,-15.5583553314209,-18.15093421936035,1,10.3.35.51,10.71.35.210,1,0
2015-03-10 17:29:21.260,83,1426033758.003121,37.78806874121031,-122.3964594008449,12.44675,-1,-1,10,165,-9999,1426033761.211568,19.98305511474609,-14.02853393554688,-18.98612594604492,321.4515686035156,307.6815185546875,15,368519.8576054584,-0.1417236328125,-0.83270263671875,-0.4004669189453125,368519.833790375,-0.713628901497012,0.578521413075112,-0.3399213541638608,368519.833790375,-1.177558881398124,0.2944243109445285,1.154760064206495,-0.7324868440628052,0.5969021916389465,-0.3043774962425232,-0.2772343158721924,-0.06413803994655609,-0.02353056892752647,XTrueNorthZVertical,0.5172673595972731,-0.1976375548449142,-0.3937073887043177,0.7337359232558621,0.1172764152288437,-0.9146980047225952,-0.3867477476596832,19.56525802612305,-14.89027309417725,-18.40252494812012,1,10.3.35.51,10.71.35.210,1,0
2015-03-10 17:29:21.305,84,1426033758.003121,37.78806874121031,-122.3964594008449,12.44675,-1,-1,10,165,-9999,1426033761.262559,20.52871322631836,-13.11090087890625,-18.78641891479492,320.6501770019531,306.880126953125,15,368519.906653125,-0.0187835693359375,-0.95880126953125,-0.4573516845703125,368519.8855602917,-0.8600002297494019,0.991784625763101,-0.5739389117874126,368519.833790375,-1.177558881398124,0.2944243109445285,1.154760064206495,-0.7324868440628052,0.5969021916389465,-0.3043774962425232,-0.2772343158721924,-0.06413803994655609,-0.02353056892752647,XTrueNorthZVertical,0.5172673595972731,-0.1976375548449142,-0.3937073887043177,0.7337359232558621,0.1172764152288437,-0.9146980047225952,-0.3867477476596832,19.56525802612305,-14.89027309417725,-18.40252494812012,1,10.3.35.51,10.71.35.210,1,0
2015-03-10 17:29:21.362,85,1426033758.003121,37.78806874121031,-122.3964594008449,12.44675,-1,-1,10,165,-9999,1426033761.316928,21.62003326416016,-11.955322265625,-18.81969833374023,320.5868835449219,306.8168334960938,15,368519.9557304167,-0.03814697265625,-0.8394317626953125,-0.5792083740234375,368519.937332875,-0.6876420418961278,1.342485390755167,-0.3886111294254525,368519.937332875,-1.205574574746312,0.4243375725059108,1.061474678474036,-0.7064996361732483,1.360865831375122,-0.3530680239200592,-0.2764918208122253,-0.0148639902472496,-0.1811462491750717,XTrueNorthZVertical,0.5105747862251502,-0.1309288749373816,-0.3901811097671759,0.7549369220974322,0.2007471919059753,-0.8730754852294922,-0.4443420469760895,21.89059638977051,-12.4046688079834,-17.60961151123047,1,10.3.35.51,10.71.35.210,1,0
2015-03-10 17:29:21.395,86,1426033758.003121,37.78806874121031,-122.3964594008449,12.44675,-1,-1,10,165,-9999,1426033761.368491,23.39342498779297,-10.29000854492188,-18.6200065612793,320.2619323730469,306.4918823242188,15,368520.0047736667,0.1757965087890625,-0.869476318359375,-0.3651123046875,368519.9891051667,-0.5053441379063507,2.259104957911871,-0.3655958249688787,368519.9891051667,-1.21544706513279,0.5201057443885718,1.028168585023027,-0.5242015719413757,2.277485132217407,-0.3300530612468719,-0.1665424853563309,-0.07185269147157669,-0.02973988279700279,XTrueNorthZVertical,0.5179629241792234,-0.08753417515379593,-0.376675051339576,0.7629994236174077,0.2566303610801697,-0.8563547134399414,-0.4481043517589569,23.22819137573242,-11.52933502197266,-16.45290374755859,1,10.3.35.51,10.71.35.210,1,0
2015-03-10 17:29:21.461,87,1426033758.003121,37.78806874121031,-122.3964594008449,12.44675,-1,-1,10,165,-9999,1426033761.418735,25.28617095947266,-8.8455810546875,-16.63965225219727,318.0050048828125,304.2349548339844,15,368520.0538583334,0.5839080810546875,-0.8128204345703125,-0.0858306884765625,368520.04087525,-0.4723646162312455,3.516125248228651,-0.09647886944251857,368520.04087525,-1.203559440493712,0.6611671084173267,1.003400855776112,-0.4912218153476715,3.534505128860474,-0.06093642860651016,0.05137088522315025,0.08880226314067841,0.2147597074508667,XTrueNorthZVertical,0.5360800050475107,-0.02291143206945555,-0.340790259558608,0.7719814316711769,0.3300072848796844,-0.8433036208152771,-0.4241865873336792,25.04544067382812,-10.85477733612061,-14.07381248474121,1,10.3.35.51,10.71.35.210,1,0
2015-03-10 17:29:21.494,88,1426033758.003121,37.78806874121031,-122.3964594008449,12.44675,-1,-1,10,165,-9999,1426033761.469493,27.75868225097656,-8.420745849609375,-13.09498596191406,313.7626953125,299.9926452636719,15,368520.102900875,0.8387603759765625,-0.8529510498046875,-0.204376220703125,368520.0926475833,-0.7016976734973479,2.917879132539867,0.4743723733770562,368520.04087525,-1.203559440493712,0.6611671084173267,1.003400855776112,-0.4912218153476715,3.534505128860474,-0.06093642860651016,0.05137088522315025,0.08880226314067841,0.2147597074508667,XTrueNorthZVertical,0.5360800050475107,-0.02291143206945555,-0.340790259558608,0.7719814316711769,0.3300072848796844,-0.8433036208152771,-0.4241865873336792,25.04544067382812,-10.85477733612061,-14.07381248474121,1,10.3.35.51,10.71.35.210,1,0
2015-03-10 17:29:21.563,89,1426033758.003121,37.78806874121031,-122.3964594008449,12.44675,-1,-1,10,165,-9999,1426033761.52162,29.89015197753906,-8.131866455078125,-9.084346771240234,307.8446960449219,294.0746459960938,15,368520.1519774583,0.67315673828125,-0.610321044921875,-0.2919769287109375,368520.1444202084,-0.0761727987628824,0.6335588327949075,0.2899447394635429,368520.1444202084,-1.099068590939793,0.8275944889723243,0.9921851375658535,-0.09501419216394424,0.651947021484375,0.3254677057266235,0.3352270126342773,0.2768591642379761,0.09450545907020569,XTrueNorthZVertical,0.5563432417482562,0.07392895168328445,-0.2573481936309534,0.7866312046221232,0.4026575088500977,-0.8372229337692261,-0.3700334131717682,28.03422546386719,-10.95730590820312,-6.098517894744873,1,10.3.35.51,10.71.35.210,1,0
2015-03-10 17:29:21.608,90,1426033758.003121,37.78806874121031,-122.3964594008449,12.44675,-1,-1,10,165,-9999,1426033761.574964,30.40171051025391,-8.403778076171875,-6.654666900634766,303.4144592285156,289.6444091796875,15,368520.2010221667,0.5767974853515625,-0.7330169677734375,-0.3323211669921875,368520.1444202084,-0.0761727987628824,0.6335588327949075,0.2899447394635429,368520.1444202084,-1.099068590939793,0.8275944889723243,0.9921851375658535,-0.09501419216394424,0.651947021484375,0.3254677057266235,0.3352270126342773,0.2768591642379761,0.09450545907020569,XTrueNorthZVertical,0.5563432417482562,0.07392895168328445,-0.2573481936309534,0.7866312046221232,0.4026575088500977,-0.8372229337692261,-0.3700334131717682,28.03422546386719,-10.95730590820312,-6.098517894744873,1,10.3.35.51,10.71.35.210,1,0
2015-03-10 17:29:21.648,91,1426033758.003121,37.78806874121031,-122.3964594008449,12.44675,-1,-1,10,165,-9999,1426033761.626061,30.38466644287109,-8.99853515625,-5.539676666259766,301.6191711425781,287.84912109375,15,368520.2501055417,0.533538818359375,-0.7492828369140625,-0.3830718994140625,368520.2479625417,0.5123144294274151,-0.2306819483582276,-0.02078357546308738,368520.1961900417,-1.080231181517938,0.8243628304797443,1.00759011665969,0.234352707862854,0.01639784872531891,0.336027592420578,0.1715019047260284,0.07439897954463959,0.05270165205001831,XTrueNorthZVertical,0.5597689947386334,0.07343698815014907,-0.2467630436253255,0.7876380634452703,0.3919441401958466,-0.8455476760864258,-0.3625313639640808,28.0122184753418,-11.38789939880371,-5.366920471191406,1,10.3.35.51,10.71.35.210,1,0
2015-03-10 17:29:21.706,92,1426033758.003121,37.78806874121031,-122.3964594008449,12.44675,-1,-1,10,165,-9999,1426033761.677075,30.84506225585938,-9.355377197265625,-5.789295196533203,302.4996032714844,288.7295532226562,15,368520.2991452084,0.3273773193359375,-0.9252166748046875,-0.360321044921875,368520.2997349583,0.5810852382565312,-0.6352006716069414,-0.07307873820842835,368520.2479625417,-1.103721523457285,0.8406160637806787,1.028586859424997,0.4934734106063843,-0.2122940719127655,0.0147387096658349,0.164846196770668,0.1703370958566666,-0.0223984494805336,XTrueNorthZVertical,0.5686871799403569,0.06706648064098208,-0.2457984357755983,0.7820998305219744,0.3844701945781708,-0.8565706014633179,-0.3441939651966095,27.82956314086914,-11.94334316253662,-5.103374481201172,1,10.3.35.51,10.71.35.210,1,0
2015-03-10 17:29:21.746,93,1426033758.003121,37.78806874121031,-122.3964594008449,12.44675,-1,-1,10,165,-9999,1426033761.72846,30.98148345947266,-9.729217529296875,-6.188697814941406,303.4355163574219,289.6654663085938,15,368520.3482359584,0.2276763916015625,-0.9271087646484375,-0.3905792236328125,368520.3515049584,0.2037978697860957,-0.002989132007504937,-0.1544151400088654,368520.2997349583,-1.138495341841362,0.8448129530672688,1.044669734627769,0.5622443556785583,-0.6168130040168762,-0.03755684196949005,-0.04818214848637581,-0.06045794486999512,-0.02693317085504532,XTrueNorthZVertical,0.5747964946312755,0.0539912239257143,-0.2537920881628039,0.7760692951475918,0.3755594789981842,-0.8647587299346924,-0.3333878815174103,27.73862648010254,-12.07612609863281,-5.28281307220459,1,10.3.35.51,10.71.35.210,1,0
2015-03-10 17:29:21.821,94,1426033758.003121,37.78806874121031,-122.3964594008449,12.44675,-1,-1,10,165,-9999,1426033761.788815,30.84506988525391,-9.76318359375,-6.388401031494141,304.6819763183594,290.9119262695312,15,368520.397294125,0.4141082763671875,-0.79571533203125,-0.4530029296875,368520.3515049584,0.2037978697860957,-0.002989132007504937,-0.1544151400088654,368520.3515049584,-1.175642179363281,0.8639365587156135,1.05378145431347,0.1849572211503983,0.01539834495633841,-0.1188936084508896,-0.1481822580099106,-0.05781020224094391,-0.06956468522548676,XTrueNorthZVertical,0.5806879681990392,0.04789795119826133,-0.2601218845047065,0.7699635786502605,0.3758586645126343,-0.8692985773086548,-0.3210145533084869,30.89504623413086,-9.72768497467041,-6.117716312408447,1,10.3.35.51,10.71.35.210,1,0
2015-03-10 17:29:21.843,95,1426033758.003121,37.78806874121031,-122.3964594008449,12.44675,-1,-1,10,165,-9999,1426033761.788815,30.84506988525391,-9.76318359375,-6.388401031494141,304.6819763183594,290.9119262695312,15,368520.44637025,0.30535888671875,-0.951446533203125,-0.3896942138671875,368520.4550499584,0.1786312638009559,-0.1066872985330103,-0.1737696632310163,368520.4032774583,-1.207547320954057,0.9003697212339565,1.05557342588911,0.2306425869464874,0.1593873202800751,-0.2865210175514221,0.02802727371454239,0.07446758449077606,-0.1468604654073715,XTrueNorthZVertical,0.5867055599800581,0.05201303046151021,-0.2612280053512251,0.7647425692069404,0.3860810101032257,-0.8701829314231873,-0.3061424493789673,30.99200820922852,-9.579860687255859,-5.854889392852783,1,10.3.35.51,10.71.35.210,1,0
2015-03-10 17:29:21.902,96,1426033758.003121,37.78806874121031,-122.3964594008449,12.44675,-1,-1,10,165,-9999,1426033761.858408,31.2713623046875,-9.304412841796875,-6.871006011962891,305.8097534179688,292.0397033691406,15,368520.495415,0.23297119140625,-0.65301513671875,-0.6097869873046875,368520.4550499584,0.1786312638009559,-0.1066872985330103,-0.1737696632310163,368520.4550499584,-1.227701321780514,0.9127923546938952,1.051955966716946,0.1597909778356552,-0.08830017596483231,-0.1382488012313843,-0.08698339015245438,-0.08305173367261887,-0.08644833415746689,XTrueNorthZVertical,0.5879426062112348,0.05196684813354543,-0.2663019794717639,0.7620408332972329,0.3923422694206238,-0.8683947920799255,-0.30324587225914,31.09650802612305,-9.299201965332031,-5.752404689788818,1,10.3.35.51,10.71.35.210,1,0
2015-03-10 17:29:21.941,97,1426033758.003121,37.78806874121031,-122.3964594008449,12.44675,-1,-1,10,165,-9999,1426033761.910455,31.91934204101562,-9.16845703125,-7.303684234619141,306.1046752929688,292.3346252441406,15,368520.5444855834,0.19561767578125,-0.5867919921875,-0.28094482421875,368520.5068199583,0.05465791926445926,0.04972760913839556,-0.5016466050488847,368520.5068199583,-1.270931438295444,0.9501001867107525,1.042987865089113,0.03581783920526505,0.06811453402042389,-0.4661261141300201,-0.2100682556629181,0.2843688130378723,-0.2703138291835785,XTrueNorthZVertical,0.5919291572307479,0.05621903340377917,-0.274288688563227,0.7557943144902732,0.4096989929676056,-0.8639128804206848,-0.2929185926914215,31.1690788269043,-9.035578727722168,-5.779696464538574,1,10.3.35.51,10.71.35.210,1,0
2015-03-10 17:29:21.994,98,1426033758.003121,37.78806874121031,-122.3964594008449,12.44675,-1,-1,10,165,-9999,1426033761.960887,31.987548828125,-9.032501220703125,-6.904281616210938,306.938720703125,293.1686706542969,15,368520.5935269584,0.4988250732421875,-0.7411041259765625,-0.1418914794921875,368520.5585925,-0.2407606815036324,1.165931658920581,-0.4253217397877588,368520.5585925,-1.278341707247351,0.9891895304794519,1.024031716392178,-0.2596005797386169,1.184318423271179,-0.3898016214370728,-0.1828231066465378,0.2325833439826965,-0.028166513890028,XTrueNorthZVertical,0.5929403477907039,0.07487657851428825,-0.2710598831577514,0.7545474266609452,0.434440553188324,-0.854211151599884,-0.2856304943561554,31.47348785400391,-8.26844310760498,-5.254565238952637,1,10.3.35.51,10.71.35.210,1,0
2015-03-10 17:29:22.040,99,1426033758.003121,37.78806874121031,-122.3964594008449,12.44675,-1,-1,10,165,-9999,1426033762.013972,32.66961669921875,-8.522735595703125,-5.539669036865234,305.9868469238281,292.216796875,15,368520.64260525,0.977020263671875,-0.9587554931640625,-0.1461334228515625,368520.610365125,-0.5912856778637527,0.8927632364278838,0.03601392742114154,368520.610365125,-1.247980758646684,1.018105954421952,1.001747568670698,-0.6101253628730774,0.9111498594284058,0.07153372466564178,0.1293749064207077,0.07451535761356354,0.211234912276268,XTrueNorthZVertical,0.5900606872021646,0.1019358632905345,-0.2576035006261411,0.7583389341483107,0.4586072564125061,-0.8424139022827148,-0.2828749418258667,31.82769775390625,-7.710440635681152,-3.755648136138916,1,10.3.35.51,10.71.35.210,1,0
2015-03-10 17:29:22.087,100,1426033758.003121,37.78806874121031,-122.3964594008449,12.44675,-1,-1,10,165,-9999,1426033762.066692,33.18118286132812,-8.590728759765625,-4.441318511962891,303.8161010742188,290.0460510253906,15,368520.6916620834,1.4942626953125,-0.4233856201171875,0.19329833984375,368520.6621351667,-0.004130562850712899,-0.07279857366175201,0.5547359224312873,368520.6621351667,-1.204068838516098,0.9992757913401044,1.005493612837586,-0.02289376221597195,-0.0543646365404129,0.5903335213661194,0.4611245691776276,-0.1261393129825592,0.1011065021157265,XTrueNorthZVertical,0.5863300111891945,0.1064972333540591,-0.2453187163095462,0.7646530076324565,0.4505423009395599,-0.8444265127182007,-0.2897509038448334,31.91147804260254,-7.772313117980957,-2.794061422348022,1,10.3.35.51,10.71.35.210,1,0
2015-03-10 17:29:22.137,101,1426033758.003121,37.78806874121031,-122.3964594008449,12.44675,-1,-1,10,165,-9999,1426033762.11869,33.2493896484375,-9.474395751953125,-4.441318511962891,302.9455871582031,289.175537109375,15,368520.7407417501,2.316177368164062,-1.391311645507812,0.173828125,368520.713907875,1.770751521444117,-0.9216864974466893,0.3943917868875785,368520.713907875,-1.28311977961096,1.041517747592952,1.059886491811421,1.751988530158997,-0.9032527208328247,0.4299890100955963,1.09752631187439,0.1298836022615433,0.5222774147987366,XTrueNorthZVertical,0.6082019461742587,0.081529093316991,-0.246421824959974,0.7501464664866888,0.4220660030841827,-0.8722999691963196,-0.2468868046998978,31.62761688232422,-8.821475982666016,-2.904051542282104,1,10.3.35.51,10.71.35.210,1,0
2015-03-10 17:29:22.197,102,1426033758.003121,37.78806874121031,-122.3964594008449,12.44675,-1,-1,10,165,-9999,1426033762.170008,32.63551330566406,-9.98419189453125,-6.072193145751953,306.4399108886719,292.6698608398438,15,368520.7897777917,-0.4885101318359375,-0.9687347412109375,-0.1451568603515625,368520.7656804583,0.1790754790707811,-2.979032501703029,-0.1489641818896912,368520.7656804583,-1.434092834688813,1.056262656577097,1.087514393327369,0.1603126525878906,-2.960598945617676,-0.1133672744035721,1.427815318107605,-1.471565842628479,-0.5735597610473633,XTrueNorthZVertical,0.6202191885547675,0.03138466493016352,-0.2892486300804174,0.7284767864102498,0.404521107673645,-0.8854746222496033,-0.2286863178014755,31.26961135864258,-9.39569091796875,-4.526645183563232,1,10.3.35.51,10.71.35.210,1,0
2015-03-10 17:29:22.236,103,1426033758.003121,37.78806874121031,-122.3964594008449,12.44675,-1,-1,10,165,-9999,1426033762.221879,32.19216918945312,-10.22207641601562,-8.335456848144531,309.8410339355469,296.0709838867188,15,368520.839018,0.2124481201171875,-0.8069305419921875,0.2068939208984375,368520.8174505417,0.3798346820530964,-0.4217254070517158,0.3377844337051812,368520.8174505417,-1.42691672837725,0.9336910246930041,1.111459456751508,0.3610728681087494,-0.4032926559448242,0.3733838498592377,-1.233162522315979,-0.16297946870327,0.3214624226093292,XTrueNorthZVertical,0.6064330594336512,-0.0192285641063542,-0.3169449241740565,0.7289822763105882,0.3563771843910217,-0.8963466882705688,-0.2637384235858917,30.42047119140625,-9.344711303710938,-8.592401504516602,1,10.3.35.51,10.71.35.210,1,0
2015-03-10 17:29:22.294,104,1426033758.003121,37.78806874121031,-122.3964594008449,12.44675,-1,-1,10,165,-9999,1426033762.272855,32.29447174072266,-10.52792358398438,-9.234104156494141,310.9771423339844,297.2070922851562,15,368520.8879274167,0.84576416015625,-0.854095458984375,-0.1707611083984375,368520.8692229167,0.6681892480297529,1.135690399478296,-0.5411713777350777,368520.8692229167,-1.509354396017755,1.047248525481861,1.110903187460009,0.649427592754364,1.154122829437256,-0.5055723786354065,0.96153324842453,0.1242798641324043,0.2118358165025711,XTrueNorthZVertical,0.6237271090052614,-0.003344588628661406,-0.3119895766268034,0.7166699719406323,0.3843987882137299,-0.8960999250411987,-0.2219066172838211,30.3038158416748,-9.643819808959961,-8.673725128173828,1,10.3.35.51,10.71.35.210,1,0
2015-03-10 17:29:22.335,105,1426033758.003121,37.78806874121031,-122.3964594008449,12.44675,-1,-1,10,165,-9999,1426033762.325696,32.48204040527344,-10.88479614257812,-8.451950073242188,311.8175048828125,298.0474548339844,15,368520.937019625,0.342864990234375,-1.017257690429688,-0.0057525634765625,368520.9209955417,0.2507853524789087,-0.5966879001349785,0.4390663141736577,368520.9209955417,-1.542337548172514,1.080336046544566,1.132656285537549,0.2320239245891571,-0.5782555937767029,0.4746649861335754,-0.09934072196483612,-0.09248928725719452,0.1431059539318085,XTrueNorthZVertical,0.632448199614664,-0.009497773432092108,-0.3065504618191141,0.7112987549889326,0.3742430806159973,-0.9055423140525818,-0.1998381316661835,30.62417984008789,-9.641483306884766,-7.467223644256592,1,10.3.35.51,10.71.35.210,1,0
2015-03-10 17:29:22.399,106,1426033758.003121,37.78806874121031,-122.3964594008449,12.44675,-1,-1,10,165,-9999,1426033762.376955,31.69765472412109,-11.22463989257812,-8.052547454833984,310.6788024902344,296.9087524414062,15,368520.9860769167,0.18634033203125,-0.89337158203125,0.0468292236328125,368520.9727657083,-0.05918635838203,0.4694721569713104,0.3124042422006171,368520.9209955417,-1.542337548172514,1.080336046544566,1.132656285537549,0.2320239245891571,-0.5782555937767029,0.4746649861335754,-0.09934072196483612,-0.09248928725719452,0.1431059539318085,XTrueNorthZVertical,0.632448199614664,-0.009497773432092108,-0.3065504618191141,0.7112987549889326,0.3742430806159973,-0.9055423140525818,-0.1998381316661835,30.62417984008789,-9.641483306884766,-7.467223644256592,1,10.3.35.51,10.71.35.210,1,0
2015-03-10 17:29:22.432,107,1426033758.003121,37.78806874121031,-122.3964594008449,12.44675,-1,-1,10,165,-9999,1426033762.376955,31.69765472412109,-11.22463989257812,-8.052547454833984,310.6788024902344,296.9087524414062,15,368521.035190125,0.42425537109375,-1.0550537109375,-0.125762939453125,368521.0245384584,0.07863276066178859,0.2343019832279723,0.397602493897778,368521.0245384584,-1.507751876965648,1.069561021116558,1.169417169142519,0.05987168848514557,0.25273397564888,0.433200478553772,0.07016638666391373,-0.04871523380279541,0.1521611213684082,XTrueNorthZVertical,0.6371057535695565,-0.01521767722030869,-0.2859878478546268,0.7155946264012745,0.3426296412944794,-0.9205230474472046,-0.1877293586730957,30.22933959960938,-11.01486206054688,-7.170627117156982,1,10.3.35.51,10.71.35.210,1,0
2015-03-10 17:29:22.494,108,1426033758.003121,37.78806874121031,-122.3964594008449,12.44675,-1,-1,10,165,-9999,1426033762.480464,31.2713623046875,-12.36322021484375,-7.536655426025391,308.4408569335938,294.6708068847656,15,368521.0842244167,0.081878662109375,-1.016983032226562,-0.0802764892578125,368521.076310875,-0.2042764398339829,0.3214057266850849,0.5634913308310318,368521.0245384584,-1.507751876965648,1.069561021116558,1.169417169142519,0.05987168848514557,0.25273397564888,0.433200478553772,0.07016638666391373,-0.04871523380279541,0.1521611213684082,XTrueNorthZVertical,0.6371057535695565,-0.01521767722030869,-0.2859878478546268,0.7155946264012745,0.3426296412944794,-0.9205230474472046,-0.1877293586730957,30.22933959960938,-11.01486206054688,-7.170627117156982,1,10.3.35.51,10.71.35.210,1,0
2015-03-10 17:29:22.532,109,1426033758.003121,37.78806874121031,-122.3964594008449,12.44675,-1,-1,10,165,-9999,1426033762.480464,31.2713623046875,-12.36322021484375,-7.536655426025391,308.4408569335938,294.6708068847656,15,368521.13342725,0.3956298828125,-0.8839874267578125,-0.1233673095703125,368521.1280812083,-0.1020600561389976,0.05688831667740062,0.3730489475955745,368521.076310875,-1.455358087067318,1.034864209149762,1.188552548288478,-0.2230373024940491,0.339837521314621,0.5990889668464661,-0.255443811416626,-0.1074330285191536,0.108836904168129,XTrueNorthZVertical,0.6359666795526878,-0.01762583273858545,-0.2721483832835306,0.721921746023401,0.3207056522369385,-0.9278300404548645,-0.190471425652504,30.0699348449707,-11.64685249328613,-6.834315299987793,1,10.3.35.51,10.71.35.210,1,0
2015-03-10 17:29:22.593,110,1426033758.003121,37.78806874121031,-122.3964594008449,12.44675,-1,-1,10,165,-9999,1426033762.535203,31.54419708251953,-13.3828125,-6.904270172119141,305.5951232910156,291.8250732421875,15,368521.1823724583,0.4176483154296875,-0.4887847900390625,-0.3054351806640625,368521.1798537084,-0.2507888145883258,-0.4178068318237732,-0.5810365024085828,368521.1280812083,-1.4059398779299,0.9996281874386282,1.210201635385151,-0.1208207309246063,0.07531992346048355,0.4086461663246155,0.09440934658050537,0.01030264236032963,0.08420882374048233,XTrueNorthZVertical,0.6357210139571976,-0.02204426079941067,-0.2586641246680582,0.7269564986813599,0.2968260049819946,-0.9356871843338013,-0.1907456815242767,29.840087890625,-12.39098072052002,-6.52617883682251,1,10.3.35.51,10.71.35.210,1,0
2015-03-10 17:29:22.629,111,1426033758.003121,37.78806874121031,-122.3964594008449,12.44675,-1,-1,10,165,-9999,1426033762.610342,31.22021484375,-13.56979370117188,-7.320308685302734,305.4980163574219,291.7279663085938,15,368521.2314629583,0.1621246337890625,-0.736724853515625,-0.0876922607421875,368521.2316262917,-0.02878690717099351,0.2445921713639295,-0.4403627409923083,368521.1798537084,-1.387347031952088,0.975286698802788,1.199708390291136,-0.2695493102073669,-0.3993753790855408,-0.545439600944519,0.1555877476930618,0.3934201896190643,-0.1364184021949768,XTrueNorthZVertical,0.6307399541471568,-0.02149566550883833,-0.2628522149157724,0.7298039442939194,0.3002075552940369,-0.9319334030151367,-0.2034100890159607,29.67004776000977,-12.76459312438965,-6.581151008605957,1,10.3.35.51,10.71.35.210,1,0
2015-03-10 17:29:22.690,112,1426033758.003121,37.78806874121031,-122.3964594008449,12.44675,-1,-1,10,165,-9999,1426033762.662107,31.39072418212891,-12.99197387695312,-7.852840423583984,307.6274719238281,293.857421875,15,368521.2804977917,0.656402587890625,-1.247772216796875,-0.336212158203125,368521.2316262917,-0.02878690717099351,0.2445921713639295,-0.4403627409923083,368521.2316262917,-1.405060438170784,0.9904020569455509,1.171335792741933,-0.04754720628261566,0.2630234062671661,-0.4047662317752838,-0.1631096005439758,0.1845460832118988,0.1255742609500885,XTrueNorthZVertical,0.6270743850803702,-0.01201881475033328,-0.2733055713107052,0.7293403634414566,0.3252342343330383,-0.9212709665298462,-0.213266521692276,29.90719604492188,-11.92439651489258,-7.065869331359863,1,10.3.35.51,10.71.35.210,1,0
2015-03-10 17:29:22.727,113,1426033758.003121,37.78806874121031,-122.3964594008449,12.44675,-1,-1,10,165,-9999,1426033762.714555,31.13494873046875,-12.29525756835938,-7.636501312255859,309.2678833007812,295.4978332519531,15,368521.3296784583,0.31427001953125,-1.027145385742188,-0.2028656005859375,368521.335169375,-0.1124362643781644,-0.09312009067571064,-0.02802817257642994,368521.2833965417,-1.434469002776528,1.024582740270718,1.14981718506812,-0.08713597804307938,0.1137019172310829,-0.3654530048370361,0.3072084486484528,-0.3350829780101776,-0.1239344030618668,XTrueNorthZVertical,0.6275817508317854,-0.001506451358446496,-0.2799499402162466,0.7264757015802039,0.3491941392421722,-0.9126892685890198,-0.2122777551412582,30.20791816711426,-11.29144859313965,-6.822240829467773,1,10.3.35.51,10.71.35.210,1,0
2015-03-10 17:29:22.792,114,1426033758.003121,37.78806874121031,-122.3964594008449,12.44675,-1,-1,10,165,-9999,1426033762.765729,31.32252502441406,-11.70050048828125,-7.253742218017578,308.6967163085938,294.9266662597656,15,368521.3786132084,0.41632080078125,-0.822052001953125,-0.071868896484375,368521.335169375,-0.1124362643781644,-0.09312009067571064,-0.02802817257642994,368521.335169375,-1.424993039496283,1.00689928348743,1.142046114144901,-0.1311962157487869,-0.07468920201063156,0.007567681837826967,-0.0370999239385128,-0.1176593452692032,0.01933783292770386,XTrueNorthZVertical,0.6236127464572382,-0.002329288027155077,-0.2844409953526642,0.7281449542655959,0.3513699471950531,-0.9094860553741455,-0.2222034335136414,30.37405395507812,-10.73058700561523,-6.987819194793701,1,10.3.35.51,10.71.35.210,1,0
2015-03-10 17:29:22.825,115,1426033758.003121,37.78806874121031,-122.3964594008449,12.44675,-1,-1,10,165,-9999,1426033762.817841,31.62945556640625,-11.5645751953125,-6.687931060791016,308.3998107910156,294.6297607421875,15,368521.4277939583,0.61932373046875,-0.87237548828125,-0.21197509765625,368521.3869418334,0.0824943442424035,0.7506982396581519,-0.1622147398933804,368521.3869418334,-1.430316641603849,1.035137430760874,1.138228610320567,0.06373458355665207,0.7691289186477661,-0.1266192495822906,0.05583411455154419,0.08584034442901611,0.1420958042144775,XTrueNorthZVertical,0.6268653554419824,0.007581351950945974,-0.2787324721471913,0.7275236048446967,0.3604866862297058,-0.9078923463821411,-0.2139647006988525,30.43739700317383,-10.6517505645752,-6.831046104431152,1,10.3.35.51,10.71.35.210,1,0
2015-03-10 17:29:22.890,116,1426033758.003121,37.78806874121031,-122.3964594008449,12.44675,-1,-1,10,165,-9999,1426033762.869573,31.74881744384766,-11.58157348632812,-6.138751983642578,307.6895751953125,293.9195251464844,15,368521.4767369167,0.3085479736328125,-0.8860626220703125,-0.1950225830078125,368521.43871225,0.1476389929312678,-0.2372232046276802,0.05587471756651646,368521.43871225,-1.442487207389301,1.060616496842868,1.139041485039015,0.1288794428110123,-0.2187927067279816,0.09146982431411743,0.2052122205495834,0.04797279834747314,0.005086395423859358,XTrueNorthZVertical,0.6306047699038575,0.012734335680451,-0.2748904644780149,0.7256794959172098,0.3651765584945679,-0.9082328081130981,-0.2043509185314178,30.67730331420898,-10.51495265960693,-5.907362461090088,1,10.3.35.51,10.71.35.210,1,0
2015-03-10 17:29:22.923,117,1426033758.003121,37.78806874121031,-122.3964594008449,12.44675,-1,-1,10,165,-9999,1426033762.869573,31.74881744384766,-11.58157348632812,-6.138751983642578,307.6895751953125,293.9195251464844,15,368521.5258553334,0.464996337890625,-0.90850830078125,-0.206878662109375,368521.4904847917,0.1344273170794937,0.1080668159776714,-0.01030909657969673,368521.4904847917,-1.449588347873509,1.059082263167324,1.146685953553446,0.1156679466366768,0.1264971345663071,0.02528565376996994,-0.04051532596349716,0.01090774778276682,-0.01310964953154325,XTrueNorthZVertical,0.6318178827431964,0.007318034654007414,-0.2755503987021689,0.7244478066611127,0.3587984144687653,-0.9114052057266235,-0.2015052139759064,30.56737899780273,-10.72174263000488,-6.102275848388672,1,10.3.35.51,10.71.35.210,1,0
2015-03-10 17:29:22.964,118,1426033758.003121,37.78806874121031,-122.3964594008449,12.44675,-1,-1,10,165,-9999,1426033762.921882,31.765869140625,-11.59854125976562,-5.988979339599609,307.9825744628906,294.2125244140625,15,368521.574845,0.44598388671875,-0.8301849365234375,-0.1097259521484375,368521.542257625,-0.01210539873495518,0.1647474060900458,-0.06774469286110864,368521.542257625,-1.452231906939915,1.076711944012965,1.145801661021255,-0.03086459264159203,0.1831775605678558,-0.0321502648293972,0.1068595349788666,0.01263394951820374,0.0167131070047617,XTrueNorthZVertical,0.6340829208850461,0.01316894011333229,-0.2712066980228364,0.7240251327074523,0.3630043566226959,-0.9110409617424011,-0.1955308616161346,30.62821769714355,-10.74610233306885,-5.743850708007812,1,10.3.35.51,10.71.35.210,1,0
2015-03-10 17:29:23.022,119,1426033758.003121,37.78806874121031,-122.3964594008449,12.44675,-1,-1,10,165,-9999,1426033762.972268,32.36267852783203,-11.58154296875,-5.905769348144531,308.0726623535156,294.3026123046875,15,368521.6240160834,0.443634033203125,-0.9165802001953125,-0.118133544921875,368521.5940277083,0.06738995980391008,0.01556484499096811,-0.1032638049517135,368521.5940277083,-1.457525885950878,1.084586786218762,1.144895912858208,0.04863095283508301,0.03399481624364853,-0.06766972690820694,0.1039607673883438,0.06619994342327118,0.09525814652442932,XTrueNorthZVertical,0.6350271768474313,0.01464993364830717,-0.2709098640545051,0.7232798538972068,0.3652622699737549,-0.9106671214103699,-0.1930517256259918,30.68389511108398,-10.70600032806396,-5.517083644866943,1,10.3.35.51,10.71.35.210,1,0
2015-03-10 17:29:23.062,120,1426033758.003121,37.78806874121031,-122.3964594008449,12.44675,-1,-1,10,165,-9999,1426033763.02466,32.60140991210938,-11.68350219726562,-5.306674957275391,307.7632446289062,293.9931945800781,15,368521.67295175,0.4375457763671875,-0.9166717529296875,-0.1345977783203125,368521.6458005417,0.09019727137934867,-0.0933200940735756,-0.04918112848271131,368521.6458005417,-1.462502774232041,1.089420322079166,1.143262551852791,0.07139948010444641,-0.07480645179748535,-0.01355526968836784,0.03158459812402725,0.03686791285872459,0.08441320061683655,XTrueNorthZVertical,0.635434728300607,0.01537869581173358,-0.2716906284453978,0.7226136184614309,0.3675090372562408,-0.9099910855293274,-0.191972404718399,30.73140716552734,-10.60398578643799,-5.449230670928955,1,10.3.35.51,10.71.35.210,1,0
2015-03-10 17:29:23.119,121,1426033758.003121,37.78806874121031,-122.3964594008449,12.44675,-1,-1,10,165,-9999,1426033763.076281,32.00459289550781,-11.90438842773438,-5.323310852050781,308.7537536621094,294.9837036132812,15,368521.72213025,0.4072265625,-0.879913330078125,-0.1353302001953125,368521.697573125,0.07241667636143465,0.004627242394012676,-0.02593439532740964,368521.697573125,-1.473133945198356,1.096502596700727,1.144203981441838,0.05361907556653023,0.02314070239663124,0.009691109880805016,0.09183330833911896,-0.0522044263780117,0.03763679787516594,XTrueNorthZVertical,0.6366402420303551,0.0142291506267233,-0.2729768736408896,0.7210897290514774,0.3680971264839172,-0.910381019115448,-0.1889734715223312,30.72544860839844,-10.5882625579834,-5.513037204742432,1,10.3.35.51,10.71.35.210,1,0
2015-03-10 17:29:23.191,122,1426033758.003121,37.78806874121031,-122.3964594008449,12.44675,-1,-1,10,165,-9999,1426033763.180156,32.19216918945312,-11.24166870117188,-5.439807891845703,309.7389221191406,295.9688720703125,15,368521.771057625,0.44622802734375,-0.8890228271484375,-0.105682373046875,368521.7493435417,0.002053829832669109,0.06019995749291415,-0.05412182493702631,368521.7493435417,-1.487521523339115,1.11390118653846,1.1420937296201,-0.01672199554741383,0.0787300318479538,-0.0185316875576973,0.03493714705109596,0.05525778606534004,0.07457751780748367,XTrueNorthZVertical,0.6387716808112185,0.0166363173442136,-0.2732808704702615,0.7190351701830477,0.3730523586273193,-0.9095058441162109,-0.1833879500627518,30.79189682006836,-10.48046970367432,-5.345739841461182,1,10.3.35.51,10.71.35.210,1,0
2015-03-10 17:29:23.217,123,1426033758.003121,37.78806874121031,-122.3964594008449,12.44675,-1,-1,10,165,-9999,1426033763.180156,32.19216918945312,-11.24166870117188,-5.439807891845703,309.7389221191406,295.9688720703125,15,368521.820221625,0.438690185546875,-0.894744873046875,-0.1670989990234375,368521.801116125,0.04753849072235043,0.05577484902563849,-0.02840394460624011,368521.801116125,-1.519872441524206,1.155689082240509,1.133084946394468,0.02879266627132893,0.07433898746967316,0.007095926441252232,0.07953722029924393,0.01207786612212658,0.0161251500248909,XTrueNorthZVertical,0.6433779856961507,0.02437941258712518,-0.2743664224474219,0.7142783178727942,0.3878700137138367,-0.9057241082191467,-0.1709408164024353,30.91684722900391,-10.29670238494873,-4.968351364135742,1,10.3.35.51,10.71.35.210,1,0
2015-03-10 17:29:23.292,124,1426033758.003121,37.78806874121031,-122.3964594008449,12.44675,-1,-1,10,165,-9999,1426033763.283532,32.49909210205078,-11.44561767578125,-5.007129669189453,309.9001770019531,296.130126953125,15,368521.8691510833,0.4545135498046875,-0.8836669921875,-0.1263275146484375,368521.852889,0.004831773165730762,0.01117249340510042,-0.01986238804202898,368521.852889,-1.530009005170957,1.167590368969945,1.131544690705244,-0.01390069536864758,0.02974794805049896,0.01561191864311695,0.05659428983926773,0.001520973281003535,0.04320262372493744,XTrueNorthZVertical,0.644902531231063,0.02589980751588714,-0.2746460878325947,0.7127408287778764,0.3911596238613129,-0.9050701856613159,-0.1668598502874374,31.00571441650391,-10.09413242340088,-4.828283309936523,1,10.3.35.51,10.71.35.210,1,0
2015-03-10 17:29:23.315,125,1426033758.003121,37.78806874121031,-122.3964594008449,12.44675,-1,-1,10,165,-9999,1426033763.283532,32.49909210205078,-11.44561767578125,-5.007129669189453,309.9001770019531,296.130126953125,15,368521.9182210417,0.42120361328125,-0.8875732421875,-0.1205291748046875,368521.904659375,0.0255836570118462,0.03162210846749187,-0.02163871648911183,368521.904659375,-1.536220709119456,1.178159477713745,1.127651393525674,0.006860554683953524,0.05021000280976295,0.01380013488233089,0.04667144268751144,0.02994877845048904,0.04507538676261902,XTrueNorthZVertical,0.6458528166181311,0.0290245952393249,-0.2747051157941774,0.7117365024223807,0.3961538672447205,-0.9034076333045959,-0.164063423871994,31.05185317993164,-10.0146541595459,-4.695433616638184,1,10.3.35.51,10.71.35.210,1,0
2015-03-10 17:29:23.365,126,1426033758.003121,37.78806874121031,-122.3964594008449,12.44675,-1,-1,10,165,-9999,1426033763.335535,32.51614379882812,-11.66653442382812,-5.023777008056641,310.0440673828125,296.2740173339844,15,368521.9672633334,0.47442626953125,-0.884490966796875,-0.1455841064453125,368521.9564320417,-0.02017158104458718,0.08289115524482529,-0.02040487395607812,368521.904659375,-1.536220709119456,1.178159477713745,1.127651393525674,0.006860554683953524,0.05021000280976295,0.01380013488233089,0.04667144268751144,0.02994877845048904,0.04507538676261902,XTrueNorthZVertical,0.6458528166181311,0.0290245952393249,-0.2747051157941774,0.7117365024223807,0.3961538672447205,-0.9034076333045959,-0.164063423871994,31.05185317993164,-10.0146541595459,-4.695433616638184,1,10.3.35.51,10.71.35.210,1,0
2015-03-10 17:29:23.414,127,1426033758.003121,37.78806874121031,-122.3964594008449,12.44675,-1,-1,10,165,-9999,1426033763.387122,32.66960906982422,-11.44561767578125,-5.106983184814453,310.6030578613281,296.8330078125,15,368522.01641825,0.4124603271484375,-0.9028778076171875,-0.14251708984375,368522.0082046667,-0.03102795722829519,0.05557404667944652,0.02800953044879938,368522.0082046667,-1.557312704114316,1.209732970471455,1.116586859575883,-0.0497259758412838,0.07419842481613159,0.06334079802036285,0.0033562071621418,-0.02190881036221981,0.01141242496669292,XTrueNorthZVertical,0.6489300358820568,0.03729602486432552,-0.2755574602439242,0.7082139073399119,0.4104621410369873,-0.8986081480979919,-0.1549976319074631,31.30602264404297,-9.433877944946289,-4.18244743347168,1,10.3.35.51,10.71.35.210,1,0
2015-03-10 17:29:23.463,128,1426033758.003121,37.78806874121031,-122.3964594008449,12.44675,-1,-1,10,165,-9999,1426033763.439317,32.65255737304688,-11.70053100585938,-5.090343475341797,310.5980224609375,296.8279724121094,15,368522.06533775,0.4362640380859375,-0.9116668701171875,-0.1268157958984375,368522.0082046667,-0.03102795722829519,0.05557404667944652,0.02800953044879938,368522.0082046667,-1.557312704114316,1.209732970471455,1.116586859575883,-0.0497259758412838,0.07419842481613159,0.06334079802036285,0.0033562071621418,-0.02190881036221981,0.01141242496669292,XTrueNorthZVertical,0.6489300358820568,0.03729602486432552,-0.2755574602439242,0.7082139073399119,0.4104621410369873,-0.8986081480979919,-0.1549976319074631,31.30602264404297,-9.433877944946289,-4.18244743347168,1,10.3.35.51,10.71.35.210,1,0
2015-03-10 17:29:23.512,129,1426033758.003121,37.78806874121031,-122.3964594008449,12.44675,-1,-1,10,165,-9999,1426033763.490578,32.46499633789062,-11.71749877929688,-4.607734680175781,310.5134582519531,296.743408203125,15,368522.1145214583,0.4173736572265625,-0.8939056396484375,-0.140594482421875,368522.1117479583,-0.01031655343074895,0.08216118279003458,0.02118464752325332,368522.0599752084,-1.554442221504207,1.211168941541259,1.115496918019923,-0.08032512664794922,0.05440811067819595,0.02840550430119038,0.02995800599455833,-4.869154145126231e-05,0.01418868824839592,XTrueNorthZVertical,0.6489170336576157,0.03911977406310151,-0.2744287475995705,0.7085656120526161,0.4116008281707764,-0.898129403591156,-0.1547526568174362,31.3114013671875,-9.466483116149902,-4.066942691802979,1,10.3.35.51,10.71.35.210,1,0
2015-03-10 17:29:23.566,130,1426033758.003121,37.78806874121031,-122.3964594008449,12.44675,-1,-1,10,165,-9999,1426033763.542863,32.39678192138672,-11.71749877929688,-4.208332061767578,310.3760070800781,296.60595703125,15,368522.1634660834,0.45562744140625,-0.9008331298828125,-0.1292724609375,368522.1635207083,-0.03591139571917349,0.052868008695817,0.04888099022785938,368522.1117479583,-1.549208650347016,1.212162282205187,1.117864878574269,-0.02899915352463722,0.1007966473698616,0.05649691447615623,-0.01353679597377777,-0.008622981607913971,0.00959961861371994,XTrueNorthZVertical,0.649287680192102,0.04033736309966524,-0.2714819613550156,0.7092925965594683,0.4097617864608765,-0.8991681337356567,-0.1535968035459518,31.33086776733398,-9.470377922058105,-3.904706001281738,1,10.3.35.51,10.71.35.210,1,0
2015-03-10 17:29:23.611,131,1426033758.003121,37.78806874121031,-122.3964594008449,12.44675,-1,-1,10,165,-9999,1426033763.594048,32.3626708984375,-11.75149536132812,-4.441310882568359,310.2753295898438,296.5052795410156,15,368522.2125326667,0.425567626953125,-0.854034423828125,-0.1484832763671875,368522.2152910834,-0.02954377755279403,0.006959372560595065,-0.04171202688947508,368522.1635207083,-1.547745011113739,1.21574080945181,1.117111274407964,-0.05459033325314522,0.07150878012180328,0.08417531102895737,0.04468340799212456,-0.001995008438825607,0.02309255115687847,XTrueNorthZVertical,0.649633929147486,0.04234680673743398,-0.2700457929802016,0.7094066627397504,0.4109440445899963,-0.8988381028175354,-0.1523650139570236,31.32109069824219,-9.551059722900391,-3.784778118133545,1,10.3.35.51,10.71.35.210,1,0
2015-03-10 17:29:23.649,132,1426033758.003121,37.78806874121031,-122.3964594008449,12.44675,-1,-1,10,165,-9999,1426033763.594048,32.3626708984375,-11.75149536132812,-4.441310882568359,310.2753295898438,296.5052795410156,15,368522.2615707917,0.39324951171875,-0.9398651123046875,-0.15765380859375,368522.2152910834,-0.02954377755279403,0.006959372560595065,-0.04171202688947508,368522.2152910834,-1.54461773096577,1.214568401040988,1.11807674917743,-0.04821915179491043,0.02560297958552837,-0.006424394436180592,0.01561602577567101,0.04522642865777016,0.004060714039951563,XTrueNorthZVertical,0.6495480154934266,0.04260727942037131,-0.269002978592558,0.7098657832320078,0.4099515974521637,-0.8992608785629272,-0.1525439918041229,31.33924293518066,-9.536521911621094,-3.669424772262573,1,10.3.35.51,10.71.35.210,1,0
2015-03-10 17:29:23.708,133,1426033758.003121,37.78806874121031,-122.3964594008449,12.44675,-1,-1,10,165,-9999,1426033763.69803,32.63550567626953,-11.24166870117188,-4.474597930908203,309.5075378417969,295.7374877929688,15,368522.3107506667,0.4307708740234375,-0.877227783203125,-0.1502838134765625,368522.3188365417,-0.03829599015923044,0.03035231325974208,-0.0606351180150331,368522.2670637083,-1.54267330665755,1.213813071719239,1.117594604595457,0.01223077159374952,-0.0143524594604969,0.03606283664703369,-0.01699294336140156,-0.04081526026129723,-0.004648718982934952,XTrueNorthZVertical,0.6493353576095552,0.04313987110600113,-0.2687147629338424,0.7101372814088499,0.4102424681186676,-0.8990498781204224,-0.1530050933361053,31.36058044433594,-9.478555679321289,-3.637186288833618,1,10.3.35.51,10.71.35.210,1,0
2015-03-10 17:29:23.749,134,1426033758.003121,37.78806874121031,-122.3964594008449,12.44675,-1,-1,10,165,-9999,1426033763.69803,32.63550567626953,-11.24166870117188,-4.474597930908203,309.5075378417969,295.7374877929688,15,368522.3597757917,0.343902587890625,-0.860382080078125,-0.12823486328125,368522.3188365417,-0.03829599015923044,0.03035231325974208,-0.0606351180150331,368522.3188365417,-1.539507636262593,1.211534225419932,1.115311473454583,-0.05697258561849594,0.04899682849645615,-0.02535782940685749,0.01895762979984283,0.02082006447017193,0.004377033095806837,XTrueNorthZVertical,0.6486289741852291,0.04415914994087293,-0.2690718537828548,0.7105848283013709,0.4118132591247559,-0.8980478644371033,-0.1546608507633209,31.33710289001465,-9.544926643371582,-3.665865182876587,1,10.3.35.51,10.71.35.210,1,0
2015-03-10 17:29:23.805,135,1426033758.003121,37.78806874121031,-122.3964594008449,12.44675,-1,-1,10,165,-9999,1426033763.801743,32.68666839599609,-11.39462280273438,-4.391387939453125,309.4630432128906,295.6929931640625,15,368522.4087391667,0.4383392333984375,-0.9087677001953125,-0.1803741455078125,368522.3706069167,-0.02607740707794689,0.0264270801290743,-0.2048966900518624,368522.3706069167,-1.541089961363114,1.215376830037415,1.112288926856679,-0.04474527761340141,0.04507521539926529,-0.1696176379919052,-0.04392990469932556,0.04583828151226044,0.01039015501737595,XTrueNorthZVertical,0.6487425072575301,0.04607158676944691,-0.2693695514734044,0.7102468939003457,0.4149473607540131,-0.8967141509056091,-0.1540211290121078,31.3671760559082,-9.477189064025879,-3.583460569381714,1,10.3.35.51,10.71.35.210,1,0
2015-03-10 17:29:23.846,136,1426033758.003121,37.78806874121031,-122.3964594008449,12.44675,-1,-1,10,165,-9999,1426033763.801743,32.68666839599609,-11.39462280273438,-4.391387939453125,309.4630432128906,295.6929931640625,15,368522.4578972083,0.34649658203125,-0.9284820556640625,-0.1672821044921875,368522.422379875,-0.04210857157578787,0.03950053792027328,-0.1795106395929001,368522.422379875,-1.541738371771738,1.221733008535761,1.10143329635963,-0.06077716872096062,0.05814947187900543,-0.144239142537117,-0.02799166738986969,-0.03020152263343334,-0.01572450064122677,XTrueNorthZVertical,0.6480378887593553,0.05192723216910292,-0.2710647451112702,0.709841108020414,0.4250406324863434,-0.8918566107749939,-0.1547009199857712,31.48715972900391,-9.120681762695312,-3.45398211479187,1,10.3.35.51,10.71.35.210,1,0
2015-03-10 17:29:23.904,137,1426033758.003121,37.78806874121031,-122.3964594008449,12.44675,-1,-1,10,165,-9999,1426033763.852582,32.533203125,-11.44561767578125,-4.241611480712891,309.6363220214844,295.8662719726562,15,368522.5068786667,0.40423583984375,-0.9000396728515625,-0.1660308837890625,368522.4741525417,-0.08610745489331399,0.1942184793450807,-0.2860868843084541,368522.4741525417,-1.543123169457815,1.227411835924314,1.091779916631999,-0.1047758832573891,0.2128672450780869,-0.2508157193660736,-0.09470468759536743,-0.03326663747429848,-0.02687646448612213,XTrueNorthZVertical,0.6474384941032107,0.05687989548735454,-0.2728494822342186,0.7093245176035766,0.4339991211891174,-0.8874486684799194,-0.1551761478185654,31.55933952331543,-8.889703750610352,-3.396957635879517,1,10.3.35.51,10.71.35.210,1,0
2015-03-10 17:29:23.944,138,1426033758.003121,37.78806874121031,-122.3964594008449,12.44675,-1,-1,10,165,-9999,1426033763.906321,32.55026245117188,-10.88485717773438,-4.291538238525391,310.075439453125,296.3053894042969,15,368522.5560365,0.4263916015625,-0.92034912109375,-0.08056640625,368522.525923125,-0.1053434674469563,0.3170914057191566,-0.3845647224651861,368522.525923125,-1.542166459701908,1.243236437129905,1.073382089412761,-0.1240117102861404,0.3357400000095367,-0.3492939174175262,-0.02748342603445053,-0.0404616966843605,0.01324268709868193,XTrueNorthZVertical,0.6468743771770578,0.06924718405136925,-0.2733569718185888,0.7085438384441953,0.4517845809459686,-0.8788192868232727,-0.1535167396068573,31.7048168182373,-8.473903656005859,-3.091219902038574,1,10.3.35.51,10.71.35.210,1,0
2015-03-10 17:29:24.003,139,1426033758.003121,37.78806874121031,-122.3964594008449,12.44675,-1,-1,10,165,-9999,1426033763.982771,33.11296844482422,-9.916229248046875,-3.775646209716797,310.5032653808594,296.7332153320312,15,368522.605017625,0.4878082275390625,-0.8575897216796875,-0.151702880859375,368522.5776958333,-0.03020770361255078,0.2876166040385956,-0.3227950978257793,368522.5776958333,-1.542340273826573,1.256494448025093,1.058610372348626,-0.04887573793530464,0.3062649965286255,-0.2875246703624725,-0.03388596326112747,0.0229509249329567,0.01904918253421783,XTrueNorthZVertical,0.6465252845891815,0.07905498572026487,-0.273921649761154,0.7076173632678096,0.4660758972167969,-0.8716753125190735,-0.1515107303857803,31.91123008728027,-7.849349021911621,-2.572792530059814,1,10.3.35.51,10.71.35.210,1,0
2015-03-10 17:29:24.042,140,1426033758.003121,37.78806874121031,-122.3964594008449,12.44675,-1,-1,10,165,-9999,1426033764.03516,33.38580322265625,-9.304443359375,-3.109981536865234,310.2356872558594,296.4656372070312,15,368522.6541717917,0.4781341552734375,-0.8838653564453125,-0.12603759765625,368522.6294688333,-0.0689295332300849,0.1944512396243536,-0.3105879663371831,368522.6294688333,-1.545544693416598,1.274291999268573,1.043202985479875,-0.08759737759828568,0.2130994349718094,-0.275317907333374,0.01773527823388577,-0.04119118675589561,0.01105168182402849,XTrueNorthZVertical,0.6468426191102128,0.08969450236286468,-0.2742968558636248,0.705911322049846,0.4814865291118622,-0.8640212416648865,-0.1470990478992462,32.04685211181641,-7.414495468139648,-2.140707969665527,1,10.3.35.51,10.71.35.210,1,0
2015-03-10 17:29:24.101,141,1426033758.003121,37.78806874121031,-122.3964594008449,12.44675,-1,-1,10,165,-9999,1426033764.086637,33.82915496826172,-8.65869140625,-2.810436248779297,310.4904174804688,296.7203674316406,15,368522.703153375,0.610321044921875,-0.830902099609375,-0.1172027587890625,368522.681239125,0.01204068392046625,0.213587649953227,-0.2610648879705056,368522.681239125,-1.549412548196287,1.286254846197871,1.031500511043693,-0.006564716808497906,0.2322379499673843,-0.2257129698991776,-0.01888403855264187,0.02048506587743759,0.01258081290870905,XTrueNorthZVertical,0.6469629344453733,0.09674857191818864,-0.2755880133742657,0.7043649335084486,0.4928830564022064,-0.8580704927444458,-0.144157350063324,32.15252685546875,-7.018220901489258,-1.875619173049927,1,10.3.35.51,10.71.35.210,1,0
2015-03-10 17:29:24.139,142,1426033758.003121,37.78806874121031,-122.3964594008449,12.44675,-1,-1,10,165,-9999,1426033764.086637,33.82915496826172,-8.65869140625,-2.810436248779297,310.4904174804688,296.7203674316406,15,368522.7521938334,0.5542449951171875,-0.82275390625,-0.076080322265625,368522.733012125,-0.1017990663521699,0.1547435077712722,-0.2324644020758176,368522.733012125,-1.548382971740145,1.298350586513239,1.019694339108057,-0.1204042583703995,0.1733936220407486,-0.1971128731966019,0.09718863666057587,0.04668067395687103,0.03141966089606285,XTrueNorthZVertical,0.646860163501905,0.1054570661702006,-0.2751441574325816,0.7033821621892968,0.5043128132820129,-0.8519480228424072,-0.1409014761447906,32.26832580566406,-6.578807830810547,-1.425683736801147,1,10.3.35.51,10.71.35.210,1,0
2015-03-10 17:29:24.200,143,1426033758.003121,37.78806874121031,-122.3964594008449,12.44675,-1,-1,10,165,-9999,1426033764.189529,33.91440582275391,-8.097930908203125,-1.795291900634766,310.5741882324219,296.8041381835938,15,368522.8013702084,0.64703369140625,-0.8127899169921875,-0.10406494140625,368522.7847847917,0.02357856302712554,0.1514675533143657,-0.09071392463082405,368522.7847847917,-1.548701861552225,1.307305383645817,1.014585641098364,0.004973553586751223,0.1701174676418304,-0.0553627572953701,0.1004186049103737,0.01382789481431246,0.03344671800732613,XTrueNorthZVertical,0.647365610812078,0.110281169861755,-0.2740175387974594,0.7026167200754072,0.5097498297691345,-0.8492618799209595,-0.1375116556882858,32.32326889038086,-6.352641105651855,-1.186753988265991,1,10.3.35.51,10.71.35.210,1,0
2015-03-10 17:29:24.238,144,1426033758.003121,37.78806874121031,-122.3964594008449,12.44675,-1,-1,10,165,-9999,1426033764.189529,33.91440582275391,-8.097930908203125,-1.795291900634766,310.5741882324219,296.8041381835938,15,368522.8504020834,0.596832275390625,-0.8044281005859375,-0.1325225830078125,368522.8365554584,-0.01105451536880991,-0.004090082802143694,-0.04268967332564316,368522.7847847917,-1.548701861552225,1.307305383645817,1.014585641098364,0.004973553586751223,0.1701174676418304,-0.0553627572953701,0.1004186049103737,0.01382789481431246,0.03344671800732613,XTrueNorthZVertical,0.647365610812078,0.110281169861755,-0.2740175387974594,0.7026167200754072,0.5097498297691345,-0.8492618799209595,-0.1375116556882858,32.32326889038086,-6.352641105651855,-1.186753988265991,1,10.3.35.51,10.71.35.210,1,0
2015-03-10 17:29:24.298,145,1426033758.003121,37.78806874121031,-122.3964594008449,12.44675,-1,-1,10,165,-9999,1426033764.242008,34.28954315185547,-7.554168701171875,-1.495746612548828,310.6243591308594,296.8543090820312,15,368522.8993554167,0.63336181640625,-0.7784576416015625,-0.118865966796875,368522.8883281667,-0.004296477786624835,0.09525807639882626,-0.04520982266518515,368522.8883281667,-1.545667099033736,1.312175634006481,1.012706234145699,-0.0229011345654726,0.1139076426625252,-0.009859323501586914,0.1091381087899208,0.05459742620587349,0.0006850242498330772,XTrueNorthZVertical,0.6475884675219495,0.1136287001848766,-0.2719854235070096,0.7026675330573433,0.5119556188583374,-0.8482680916786194,-0.1354353874921799,32.34969329833984,-6.265642166137695,-0.8927140235900879,1,10.3.35.51,10.71.35.210,1,0
2015-03-10 17:29:24.335,146,1426033758.003121,37.78806874121031,-122.3964594008449,12.44675,-1,-1,10,165,-9999,1426033764.294052,33.82914733886719,-7.163299560546875,-1.811935424804688,311.8431701660156,298.0731201171875,15,368522.9484009584,0.5937347412109375,-0.81201171875,-0.1142578125,368522.9401011667,0.002414688160374845,0.002992327800813032,-0.03799958032990462,368522.8883281667,-1.545667099033736,1.312175634006481,1.012706234145699,-0.0229011345654726,0.1139076426625252,-0.009859323501586914,0.1091381087899208,0.05459742620587349,0.0006850242498330772,XTrueNorthZVertical,0.6475884675219495,0.1136287001848766,-0.2719854235070096,0.7026675330573433,0.5119556188583374,-0.8482680916786194,-0.1354353874921799,32.34969329833984,-6.265642166137695,-0.8927140235900879,1,10.3.35.51,10.71.35.210,1,0
2015-03-10 17:29:24.396,147,1426033758.003121,37.78806874121031,-122.3964594008449,12.44675,-1,-1,10,165,-9999,1426033764.346137,33.98261260986328,-7.282257080078125,-1.795291900634766,312.1096496582031,298.339599609375,15,368522.997444625,0.603179931640625,-0.806243896484375,-0.108551025390625,368522.9918715417,0.005110872447971066,-0.04423031201625401,-0.1199905871262831,368522.9401011667,-1.54418199342712,1.312244814238824,1.011090178877463,-0.01618976332247257,0.0216416921466589,-0.002649472560733557,0.07634050399065018,0.03117276169359684,0.0292134303599596,XTrueNorthZVertical,0.6472787242018972,0.1146957091147107,-0.271966572225069,0.7027868585031274,0.5132896304130554,-0.8474111557006836,-0.1357502937316895,32.35909271240234,-6.229189872741699,-0.8027989864349365,1,10.3.35.51,10.71.35.210,1,0
