loggingTime,loggingSample,locationTimestamp_since1970,locationLatitude,locationLongitude,locationAltitude,locationSpeed,locationCourse,locationVerticalAccuracy,locationHorizontalAccuracy,locationFloor,locationHeadingTimestamp_since1970,locationHeadingX,locationHeadingY,locationHeadingZ,locationTrueHeading,locationMagneticHeading,locationHeadingAccuracy,accelerometerTimestamp_sinceReboot,accelerometerAccelerationX,accelerometerAccelerationY,accelerometerAccelerationZ,gyroTimestamp_sinceReboot,gyroRotationX,gyroRotationY,gyroRotationZ,motionTimestamp_sinceReboot,motionYaw,motionRoll,motionPitch,motionRotationRateX,motionRotationRateY,motionRotationRateZ,motionUserAccelerationX,motionUserAccelerationY,motionUserAccelerationZ,motionAttitudeReferenceFrame,motionQuaternionX,motionQuaternionY,motionQuaternionZ,motionQuaternionW,motionGravityX,motionGravityY,motionGravityZ,motionMagneticFieldX,motionMagneticFieldY,motionMagneticFieldZ,motionMagneticFieldCalibrationAccuracy,IP_en0,IP_pdp_ip0,deviceOrientation,state
2015-02-28 14:12:17.839,1,1425161533.082659,37.77929805027279,-122.4388122420612,56.69903,-1,-1,10,65,-9999,1425161537.791376,31.5269660949707,-33.33554077148438,1.387939453125,243.91064453125,230.122802734375,25,156610.4719619167,0.5522613525390625,-0.6892547607421875,-0.458282470703125,156610.4722400834,-0.03697852436796824,0.01371128487227296,-0.08223495235222977,156610.4204654167,-0.9597318860374203,0.8547376152820946,0.7925770634807457,-0.168764516711235,0.01448641438037157,-0.05760310962796211,0.005681084468960762,-0.0003443896130193025,-0.009905889630317688,XTrueNorthZVertical,-0.4881240663333063,-0.1769990072131122,0.2456598094381378,-0.8185704265921075,0.5295972228050232,-0.7121647596359253,-0.460812509059906,30.9416618347168,-33.06102752685547,2.01426887512207,1,192.168.1.8,10.83.46.32,1,0
2015-02-28 14:12:17.846,2,1425161533.082659,37.77929805027279,-122.4388122420612,56.69903,-1,-1,10,65,-9999,1425161537.791376,31.5269660949707,-33.33554077148438,1.387939453125,243.91064453125,230.122802734375,25,156610.5210241667,0.5248870849609375,-0.6784820556640625,-0.4667510986328125,156610.524013125,0.01625726687438871,-0.0526626789757719,-0.05129807523321529,156610.4722400834,-0.9547141186353857,0.8518572723082177,0.7892619636709413,-0.05094504728913307,0.0290854275226593,-0.04839746281504631,0.02221992984414101,0.02057885564863682,0.005605843849480152,XTrueNorthZVertical,-0.4862110905193116,-0.1779174475606916,0.2451359240214651,-0.8196661357017314,0.5300413966178894,-0.7098336219787598,-0.4638883173465729,30.95326232910156,-33.06300735473633,1.791269302368164,1,192.168.1.8,10.83.46.32,1,0
2015-02-28 14:12:17.901,3,1425161533.082659,37.77929805027279,-122.4388122420612,56.69903,-1,-1,10,65,-9999,1425161537.84663,31.85089492797852,-33.2845458984375,1.238166809082031,244.3221282958984,230.5342864990234,25,156610.5700644584,0.518646240234375,-0.6817169189453125,-0.4545440673828125,156610.524013125,0.01625726687438871,-0.0526626789757719,-0.05129807523321529,156610.524013125,-0.9556320490232415,0.8531676856714114,0.7860785474473667,0.00229045539163053,-0.03728647902607918,-0.01746534556150436,-0.007461457513272762,0.0291056651622057,-0.002074129180982709,XTrueNorthZVertical,-0.4853814033684009,-0.1790709593470012,0.2459891748262905,-0.8196510529508908,0.5323485136032104,-0.707587718963623,-0.4646769762039185,31.05607604980469,-32.96756744384766,1.770565032958984,1,192.168.1.8,10.83.46.32,1,0
2015-02-28 14:12:17.937,4,1425161533.082659,37.77929805027279,-122.4388122420612,56.69903,-1,-1,10,65,-9999,1425161537.921327,31.78269958496094,-33.59043884277344,1.071746826171875,243.9239807128906,230.1361389160156,25,156610.6191275417,0.5097808837890625,-0.7025299072265625,-0.449066162109375,156610.6275628333,0.1187002855781397,0.06728849336637806,-0.02882259352960057,156610.5757879167,-0.9582731809924616,0.8555531084938699,0.7859733421142782,0.0470772385597229,0.06906671822071075,-0.02389942482113838,-0.01486543379724026,0.02579645812511444,0.008910521864891052,XTrueNorthZVertical,-0.4858764124197368,-0.1794347161833551,0.2465183250994969,-0.8191190681610457,0.5335116982460022,-0.7075133919715881,-0.4634545743465424,31.08283233642578,-32.94385528564453,1.742269515991211,1,192.168.1.8,10.83.46.32,1,0
2015-02-28 14:12:17.992,5,1425161533.082659,37.77929805027279,-122.4388122420612,56.69903,-1,-1,10,65,-9999,1425161537.973037,31.68040084838867,-33.55642700195312,1.304733276367188,243.7776184082031,229.9897766113281,25,156610.6681675,0.574127197265625,-0.7151641845703125,-0.4410552978515625,156610.6275628333,0.1187002855781397,0.06728849336637806,-0.02882259352960057,156610.6275628333,-0.9623244100838982,0.8615464199858264,0.7882973950637462,0.1047331392765045,0.08266287297010422,0.005010955967009068,-0.02524959482252598,0.006623965688049793,0.01011050492525101,XTrueNorthZVertical,-0.4877587012337631,-0.1802862048540619,0.2461341870112907,-0.8179280736390699,0.5350304841995239,-0.7091538906097412,-0.4591766595840454,31.12590026855469,-32.89216232299805,1.938962936401367,1,192.168.1.8,10.83.46.32,1,0
2015-02-28 14:12:18.035,6,1425161533.082659,37.77929805027279,-122.4388122420612,56.69903,-1,-1,10,65,-9999,1425161538.024757,31.90203475952148,-33.57341003417969,1.554359436035156,244.3072662353516,230.5194244384766,25,156610.71735725,0.573883056640625,-0.67364501953125,-0.5091552734375,156610.67933575,0.2978974711107375,0.4956518294351163,0.06768423910436384,156610.67933575,-0.9691171606405091,0.8745665019279381,0.7939511500704849,0.2839330434799194,0.511027991771698,0.1015182733535767,0.04091779887676239,-0.0642150342464447,0.1129538491368294,XTrueNorthZVertical,-0.4918544804559905,-0.1824350354124122,0.2442890322738804,-0.815548609570691,0.5378785729408264,-0.7131287455558777,-0.4495932459831238,31.0501708984375,-32.94535827636719,2.228418350219727,1,192.168.1.8,10.83.46.32,1,0
2015-02-28 14:12:18.094,7,1425161533.082659,37.77929805027279,-122.4388122420612,56.69903,-1,-1,10,65,-9999,1425161538.0765,31.78269577026367,-33.55642700195312,2.070259094238281,243.8257446289062,230.0379028320312,25,156610.7662756667,0.45037841796875,-0.710479736328125,-0.4297332763671875,156610.7311107084,0.0491505021301754,-0.01767167172932979,-0.137865191730677,156610.7311107084,-0.9715482757181153,0.8868512595792211,0.7952825256299071,0.03517531603574753,-0.002304303692653775,-0.104034960269928,0.09633716195821762,0.005046532489359379,-0.01780781522393227,XTrueNorthZVertical,-0.4940119166129457,-0.1864845381800238,0.2419115515934994,-0.8140359834935855,0.5426246523857117,-0.714061439037323,-0.4423514902591705,30.96431732177734,-32.96800994873047,2.96595573425293,1,192.168.1.8,10.83.46.32,1,0
2015-02-28 14:12:18.134,8,1425161533.082659,37.77929805027279,-122.4388122420612,56.69903,-1,-1,10,65,-9999,1425161538.128441,31.40761184692383,-33.48844909667969,2.636085510253906,243.1903228759766,229.4024810791016,25,156610.815465,0.653656005859375,-0.69732666015625,-0.4732208251953125,156610.782885375,-0.03536917612123335,0.1612496103143357,0.01434032352174967,156610.782885375,-0.9668815679115669,0.8813023979270249,0.7948161982901432,-0.04934423416852951,0.176616832613945,0.04817024618387222,-0.1112193837761879,0.03815199434757233,0.03933264687657356,XTrueNorthZVertical,-0.4927533778690507,-0.1855004412799531,0.2414990640902275,-0.8151453458615114,0.5404186248779297,-0.7137348651885986,-0.445567399263382,31.00724601745605,-32.94676971435547,2.745244979858398,1,192.168.1.8,10.83.46.32,1,0
2015-02-28 14:12:18.194,9,1425161533.082659,37.77929805027279,-122.4388122420612,56.69903,-1,-1,10,65,-9999,1425161538.179591,31.40761566162109,-33.69239807128906,2.436386108398438,242.7115173339844,228.9236755371094,25,156610.8644337917,0.494659423828125,-0.6758270263671875,-0.4289093017578125,156610.8346585833,0.07102437574354122,-0.1686774329106757,-0.02400333722099318,156610.8346585833,-0.9680445474019879,0.8861093827435751,0.7926734938300619,0.0570494532585144,-0.1533103585243225,0.009826249442994595,0.09768088161945343,-0.002031458308920264,-0.02356813848018646,XTrueNorthZVertical,-0.4927337943556985,-0.1877447402573602,0.2413367691958383,-0.8146913048463221,0.5437375903129578,-0.7122324705123901,-0.4439306259155273,30.99204444885254,-32.94811630249023,2.896574020385742,1,192.168.1.8,10.83.46.32,1,0
2015-02-28 14:12:18.231,10,1425161533.082659,37.77929805027279,-122.4388122420612,56.69903,-1,-1,10,65,-9999,1425161538.179591,31.40761566162109,-33.69239807128906,2.436386108398438,242.7115173339844,228.9236755371094,25,156610.913589125,0.5067138671875,-0.7316131591796875,-0.387451171875,156610.88643325,0.1249560509787359,0.2688615583778216,0.1752463860554652,156610.88643325,-0.9636577862633056,0.8800056697330693,0.8023243597314768,0.110981285572052,0.2842284739017487,0.2090755999088287,-0.0702560618519783,0.0910438597202301,0.04689056053757668,XTrueNorthZVertical,-0.494782889085842,-0.1837646675610499,0.2385866695373354,-0.8151667796811168,0.5356948971748352,-0.7189735770225525,-0.4428408741950989,30.94669532775879,-33.00392532348633,2.741992950439453,1,192.168.1.8,10.83.46.32,1,0
2015-02-28 14:12:18.291,11,1425161533.082659,37.77929805027279,-122.4388122420612,56.69903,-1,-1,10,65,-9999,1425161538.28392,30.69155120849609,-33.86235046386719,4.400131225585938,241.3708648681641,227.5830230712891,25,156610.962544625,0.48004150390625,-0.7226104736328125,-0.32513427734375,156610.9382082083,0.121331755051247,1.264296845363203,0.2198463448310222,156610.9382082083,-0.9601849536914248,0.9228399466315128,0.8152577314322768,0.1073571294546127,1.279663681983948,0.2536752223968506,-0.186888799071312,0.1301545351743698,-0.02671868540346622,XTrueNorthZVertical,-0.5036271339426428,-0.1985838468983448,0.223127369816065,-0.8106407222063885,0.5467063188552856,-0.727902352809906,-0.413848340511322,30.40037536621094,-33.39348602294922,3.894573211669922,1,192.168.1.8,10.83.46.32,1,0
2015-02-28 14:12:18.329,12,1425161533.082659,37.77929805027279,-122.4388122420612,56.69903,-1,-1,10,65,-9999,1425161538.28392,30.69155120849609,-33.86235046386719,4.400131225585938,241.3708648681641,227.5830230712891,25,156611.0117517917,0.598175048828125,-0.6696319580078125,-0.29632568359375,156610.9899813333,0.2675369020516161,2.229424293879047,-0.05186905697092829,156610.9899813333,-0.9708036984572049,1.015838475879493,0.8232691885977578,0.2535624206066132,2.24479079246521,-0.01804048754274845,-0.06318274140357971,0.008320348337292671,0.1184295043349266,XTrueNorthZVertical,-0.5171779217877089,-0.2311361952362546,0.2014928485854141,-0.7990642817624534,0.5778006315231323,-0.7333722114562988,-0.3582061231136322,29.849609375,-33.5723876953125,6.030832290649414,1,192.168.1.8,10.83.46.32,1,0
2015-02-28 14:12:18.397,13,1425161533.082659,37.77929805027279,-122.4388122420612,56.69903,-1,-1,10,65,-9999,1425161538.387946,28.40696334838867,-34.03230285644531,9.758827209472656,234.2668762207031,220.4790344238281,25,156611.0607007917,0.7343597412109375,-0.740814208984375,-0.1306304931640625,156611.0417561667,0.3657582777953736,1.832569615615363,-0.06771380019246372,156611.0417561667,-0.9932061398880186,1.145395523969145,0.8274761271052913,0.3518858850002289,1.847855925559998,-0.03379884734749794,0.1062963753938675,0.01901686005294323,-0.0350363552570343,XTrueNorthZVertical,-0.5334721844689264,-0.2752593466161961,0.1750892147237388,-0.7803739650567261,0.6164209246635437,-0.7362257242202759,-0.2792794406414032,29.14430618286133,-33.42726516723633,9.364981651306152,1,192.168.1.8,10.83.46.32,1,0
2015-02-28 14:12:18.428,14,1425161533.082659,37.77929805027279,-122.4388122420612,56.69903,-1,-1,10,65,-9999,1425161538.387946,28.40696334838867,-34.03230285644531,9.758827209472656,234.2668762207031,220.4790344238281,25,156611.1097954584,0.7109222412109375,-0.7558135986328125,-0.160400390625,156611.0935308333,0.3639047176766784,2.171021437489718,0.3004935205413467,156611.0935308333,-1.004708282606406,1.251956780721435,0.8445687070047013,0.3500324785709381,2.186307668685913,0.3344081044197083,-0.08940195292234421,0.005131069105118513,0.01487443316727877,XTrueNorthZVertical,-0.5484192153199904,-0.3084762669328802,0.1454609429278929,-0.763491918124903,0.6305854320526123,-0.7476847767829895,-0.2081575095653534,27.59951210021973,-33.40379333496094,13.3014612197876,1,192.168.1.8,10.83.46.32,1,0
2015-02-28 14:12:18.494,15,1425161533.082659,37.77929805027279,-122.4388122420612,56.69903,-1,-1,10,65,-9999,1425161538.439811,26.63384628295898,-34.33819580078125,13.08721160888672,230.2538452148438,216.4660034179688,25,156611.1588519583,0.3666839599609375,-0.6129913330078125,-0.0563201904296875,156611.1453039167,0.4350209724778274,3.021149062762087,0.6091712014286159,156611.0935308333,-1.004708282606406,1.251956780721435,0.8445687070047013,0.3500324785709381,2.186307668685913,0.3344081044197083,-0.08940195292234421,0.005131069105118513,0.01487443316727877,XTrueNorthZVertical,-0.5484192153199904,-0.3084762669328802,0.1454609429278929,-0.763491918124903,0.6305854320526123,-0.7476847767829895,-0.2081575095653534,27.59951210021973,-33.40379333496094,13.3014612197876,1,192.168.1.8,10.83.46.32,1,0
2015-02-28 14:12:18.526,16,1425161533.082659,37.77929805027279,-122.4388122420612,56.69903,-1,-1,10,65,-9999,1425161538.490609,23.58205032348633,-34.42315673828125,16.56536865234375,224.2915649414062,210.5037231445312,25,156611.208022125,0.9141387939453125,-0.9147796630859375,0.0590667724609375,156611.1970789167,0.4690143595799258,2.884118505717042,0.5966676601106939,156611.1970789167,-1.05862879656257,1.570278681941387,0.9022096860292432,0.455142617225647,2.899404764175415,0.6305813789367676,0.1107743307948112,0.00843818299472332,0.05723616108298302,XTrueNorthZVertical,-0.5874010701165527,-0.3934457327340259,0.0553981972417504,-0.7050471728290469,0.6198775172233582,-0.7846985459327698,-0.0003208764246664941,22.23720550537109,-33.85286331176758,20.34615325927734,1,192.168.1.8,10.83.46.32,1,0
2015-02-28 14:12:18.601,17,1425161533.082659,37.77929805027279,-122.4388122420612,56.69903,-1,-1,10,65,-9999,1425161538.543047,19.55844879150391,-34.76301574707031,20.89226531982422,217.4153289794922,203.6274871826172,25,156611.2569412917,0.750640869140625,-0.93109130859375,0.14398193359375,156611.2488537917,0.04923891907836603,0.6913057526077497,1.106588972982564,156611.1970789167,-1.05862879656257,1.570278681941387,0.9022096860292432,0.455142617225647,2.899404764175415,0.6305813789367676,0.1107743307948112,0.00843818299472332,0.05723616108298302,XTrueNorthZVertical,-0.5874010701165527,-0.3934457327340259,0.0553981972417504,-0.7050471728290469,0.6198775172233582,-0.7846985459327698,-0.0003208764246664941,22.23720550537109,-33.85286331176758,20.34615325927734,1,192.168.1.8,10.83.46.32,1,0
2015-02-28 14:12:18.624,18,1425161533.082659,37.77929805027279,-122.4388122420612,56.69903,-1,-1,10,65,-9999,1425161538.594242,15.89288711547852,-34.84797668457031,23.40520477294922,211.0836486816406,197.2958068847656,25,156611.30601925,0.447723388671875,-0.861053466796875,0.1279449462890625,156611.3006269167,-0.01768791701197928,1.562735204491336,0.821720218556712,156611.2488537917,-1.08520339691629,1.678577524799745,0.9478525785430966,0.03536733984947205,0.7065919041633606,1.140502333641052,0.1557662636041641,-0.1413877308368683,-0.01324618048965931,XTrueNorthZVertical,-0.6029836133697021,-0.4096232873366919,0.01606660685973187,-0.6843693641416658,0.5800430774688721,-0.8121644854545593,0.06276094913482666,17.33639144897461,-34.18655776977539,24.19099807739258,1,192.168.1.8,10.83.46.32,1,0
2015-02-28 14:12:18.692,19,1425161533.082659,37.77929805027279,-122.4388122420612,56.69903,-1,-1,10,65,-9999,1425161538.646203,12.73878479003906,-35.17086791992188,24.52020263671875,205.9372253417969,192.1493835449219,25,156611.3550567917,0.6310882568359375,-0.828369140625,0.168975830078125,156611.3524015417,0.05306481630037386,0.4337168224920155,0.7583542951599116,156611.3006269167,-1.091607645883647,1.72820215678896,1.00802000753343,-0.03155935928225517,1.578021168708801,0.8556331992149353,-0.1471339911222458,-0.01123278215527534,0.1175670102238655,XTrueNorthZVertical,-0.6137196877855762,-0.4064060000755711,-0.01876565666231452,-0.6766315068111562,0.5269405245780945,-0.8457770943641663,0.08363538235425949,14.59967994689941,-35.0947151184082,24.69181823730469,1,192.168.1.8,10.83.46.32,1,0
2015-02-28 14:12:18.722,20,1425161533.082659,37.77929805027279,-122.4388122420612,56.69903,-1,-1,10,65,-9999,1425161538.698338,10.16436767578125,-35.3577880859375,25.26909637451172,201.5653991699219,187.7775573730469,25,156611.4042372083,0.4927825927734375,-0.832733154296875,0.22509765625,156611.4041764167,0.1955178356409303,-0.01623036894737891,0.2349145102786905,156611.3524015417,-1.118079046085395,1.805316353941415,1.044075465163004,0.03919349610805511,0.4490026533603668,0.7922670245170593,0.2784545123577118,0.04233184829354286,0.05878230184316635,XTrueNorthZVertical,-0.6227722563542589,-0.4129922970906607,-0.04702369351275375,-0.6628581216672059,0.4889405071735382,-0.8644601702690125,0.1168158426880836,11.62905311584473,-35.58318710327148,25.55538177490234,1,192.168.1.8,10.83.46.32,1,0
2015-02-28 14:12:18.763,21,1425161533.082659,37.77929805027279,-122.4388122420612,56.69903,-1,-1,10,65,-9999,1425161538.749801,8.32305908203125,-35.5277099609375,26.13446807861328,198.8921508789062,185.1043090820312,25,156611.4531735417,0.46844482421875,-0.8683624267578125,0.1394500732421875,156611.4041764167,0.1955178356409303,-0.01623036894737891,0.2349145102786905,156611.4041764167,-1.134431011755471,1.832838106964291,1.069762484290187,0.1816466599702835,-0.0009446910116821527,0.2688269019126892,0.04793576896190643,-0.008289533667266369,0.02084723301231861,XTrueNorthZVertical,-0.6284294427161661,-0.4090137942608532,-0.059754348722753,-0.6589488655374274,0.4639355540275574,-0.8770864605903625,0.124431699514389,9.388628005981445,-35.96253967285156,25.94272613525391,1,192.168.1.8,10.83.46.32,1,0
2015-02-28 14:12:18.819,22,1425161533.082659,37.77929805027279,-122.4388122420612,56.69903,-1,-1,10,65,-9999,1425161538.802025,7.436504364013672,-35.59568786621094,26.40073394775391,196.8893127441406,183.1014709472656,25,156611.502237875,0.426666259765625,-0.7820281982421875,0.113677978515625,156611.5077245834,0.009139169912824922,-0.4685909169666032,0.2050799155348598,156611.4559495834,-1.149190720042762,1.864681413678623,1.08100915538865,-0.0514274537563324,0.3590468764305115,0.3139783143997192,0.01817634887993336,0.01407057419419289,0.003176871687173843,XTrueNorthZVertical,-0.6316360269218485,-0.411305884063222,-0.06912430512103979,-0.6535176107982406,0.4502684772014618,-0.8824329972267151,0.136273205280304,8.710282325744629,-35.90003967285156,26.26392364501953,1,192.168.1.8,10.83.46.32,1,0
2015-02-28 14:12:18.863,23,1425161533.082659,37.77929805027279,-122.4388122420612,56.69903,-1,-1,10,65,-9999,1425161538.853946,7.248966217041016,-35.64665222167969,26.45066833496094,196.5478210449219,182.7599792480469,25,156611.5512775417,0.6041412353515625,-0.8101959228515625,-0.0352325439453125,156611.5077245834,0.009139169912824922,-0.4685909169666032,0.2050799155348598,156611.5077245834,-1.157847549466295,1.867809405746715,1.096241455237199,-0.004731731489300728,-0.4533055424690247,0.2389916330575943,-0.01026911754161119,0.1074680089950562,-0.0200533140450716,XTrueNorthZVertical,-0.6348145696944308,-0.4048161413366814,-0.07295333542543332,-0.6540735452682764,0.4369353652000427,-0.8894962072372437,0.1337312906980515,7.917995452880859,-36.0714225769043,26.27990341186523,1,192.168.1.8,10.83.46.32,1,0
2015-02-28 14:12:18.919,24,1425161533.082659,37.77929805027279,-122.4388122420612,56.69903,-1,-1,10,65,-9999,1425161538.905874,8.783393859863281,-35.71463012695312,25.58528137207031,200.1060791015625,186.3182373046875,25,156611.6004450417,0.59136962890625,-0.8748321533203125,0.041351318359375,156611.5594992917,-0.6800576254276911,-1.864063892350531,-0.07159642274569024,156611.5594992917,-1.111237064356774,1.759826818073099,1.106352314928399,-0.6939284205436707,-1.848778605461121,-0.03768504410982132,0.164194330573082,0.08387482166290283,-0.1194008365273476,XTrueNorthZVertical,-0.6303130329935384,-0.3805123210513175,-0.05801743493138548,-0.6742031364234085,0.4399469196796417,-0.8940707445144653,0.08416829258203506,8.635942459106445,-36.48384475708008,25.4720458984375,1,192.168.1.8,10.83.46.32,1,0
2015-02-28 14:12:18.964,25,1425161533.082659,37.77929805027279,-122.4388122420612,56.69903,-1,-1,10,65,-9999,1425161538.957294,11.6817512512207,-36.53033447265625,23.62153625488281,205.4606628417969,191.6728210449219,25,156611.64937775,0.4555206298828125,-1.246292114257812,0.109375,156611.611272625,-0.8668890285411099,-1.71065702513037,-0.795604728275177,156611.611272625,-1.03283815837051,1.596366791347248,1.094914727771645,-0.880759596824646,-1.695371985435486,-0.7616937160491943,0.1512650847434998,-0.03762448579072952,-0.03321275860071182,XTrueNorthZVertical,-0.6178527807958804,-0.3522988840281551,-0.02984544714292004,-0.7023195318462292,0.4579725861549377,-0.8888891935348511,0.01171312481164932,10.79514408111572,-37.16874313354492,23.58865737915039,1,192.168.1.8,10.83.46.32,1,0
2015-02-28 14:12:19.017,26,1425161533.082659,37.77929805027279,-122.4388122420612,56.69903,-1,-1,10,65,-9999,1425161539.009778,14.35846710205078,-37.9407958984375,20.70920562744141,209.2964019775391,195.5085601806641,25,156611.6985575834,0.3230438232421875,-0.8378143310546875,0.1906585693359375,156611.663047375,-1.061805788724009,-2.100369904298788,-0.09430280051581483,156611.663047375,-0.9327626478668644,1.403400025558937,1.052176665982294,-1.075676202774048,-2.085084915161133,-0.06039213761687279,-0.04217419400811195,-0.2881425023078918,0.2504502832889557,XTrueNorthZVertical,-0.5935706663434137,-0.3261590048905417,0.007454750944885257,-0.7356892225840683,0.4887531697750092,-0.8685042262077332,-0.08258833736181259,14.00100708007812,-37.60778045654297,21.0737361907959,1,192.168.1.8,10.83.46.32,1,0
2015-02-28 14:12:19.061,27,1425161533.082659,37.77929805027279,-122.4388122420612,56.69903,-1,-1,10,65,-9999,1425161539.009778,14.35846710205078,-37.9407958984375,20.70920562744141,209.2964019775391,195.5085601806641,25,156611.7475034167,0.5423431396484375,-0.62744140625,-0.09466552734375,156611.7148224167,-0.5965653947248348,1.387798544070647,0.389266267053612,156611.7148224167,-0.8378888757882815,1.316668447097998,1.068244796241773,-0.6104357242584229,1.403083324432373,0.4231766164302826,-0.09532874077558517,0.01188500225543976,0.3294953405857086,XTrueNorthZVertical,-0.5820811324716612,-0.3172320165118014,-0.007561438878798888,-0.7486576423940392,0.4661936163902283,-0.8763564229011536,-0.1210908070206642,15.46704769134521,-38.78001403808594,17.64529800415039,1,192.168.1.8,10.83.46.32,1,0
2015-02-28 14:12:19.114,28,1425161533.082659,37.77929805027279,-122.4388122420612,56.69903,-1,-1,10,65,-9999,1425161539.060965,15.07453155517578,-39.19834899902344,18.54574584960938,209.4705200195312,195.6826782226562,25,156611.796709875,0.7129974365234375,-0.8362274169921875,-0.0728302001953125,156611.7665954583,-0.06405514948691286,1.463176921880359,0.3130149050385723,156611.7665954583,-0.797482470240505,1.363184396351418,1.081375569360551,-0.07792536169290543,1.478461623191833,0.346924901008606,0.2007775902748108,0.2464663982391357,0.02332392148673534,XTrueNorthZVertical,-0.5780845587277808,-0.3425891735062204,-0.04035091871522706,-0.7394746395030888,0.4600195288658142,-0.8826053142547607,-0.09690180420875549,13.5304594039917,-39.4600830078125,17.7286205291748,1,192.168.1.8,10.83.46.32,1,0
2015-02-28 14:12:19.163,29,1425161533.082659,37.77929805027279,-122.4388122420612,56.69903,-1,-1,10,65,-9999,1425161539.113415,13.2673225402832,-40.3199462890625,18.14634704589844,204.0998687744141,190.3120269775391,25,156611.84561625,0.5922088623046875,-0.889068603515625,-0.011627197265625,156611.8183704583,-0.07572432243531306,-0.2275969425514798,0.418102709020881,156611.8183704583,-0.7703972351168675,1.374784906860146,1.104723123810861,-0.08959437161684036,-0.2123125046491623,0.4520123600959778,0.2453346997499466,0.03681819513440132,0.0704464390873909,XTrueNorthZVertical,-0.5787874153363195,-0.348201976156413,-0.0613128126536046,-0.7348477996198463,0.4407767355442047,-0.8933398127555847,-0.0875210240483284,11.66278839111328,-39.81872177124023,18.2462158203125,1,192.168.1.8,10.83.46.32,1,0
2015-02-28 14:12:19.213,30,1425161533.082659,37.77929805027279,-122.4388122420612,56.69903,-1,-1,10,65,-9999,1425161539.165529,11.66469573974609,-40.55783081054688,18.44589233398438,200.9414367675781,187.1535949707031,25,156611.8947819167,0.5008544921875,-0.9407958984375,0.060943603515625,156611.87014525,0.172183484485765,-0.3772836400449095,0.6342749568120298,156611.87014525,-0.7631573401906184,1.339020553248625,1.128294245991246,0.1583135724067688,-0.3619993329048157,0.6681842803955078,0.1205406188964844,-0.03386268019676208,0.09193668514490128,XTrueNorthZVertical,-0.5844065342048645,-0.3305883913468776,-0.06121586217916804,-0.7385343420962611,0.4167518615722656,-0.9036831259727478,-0.09836063534021378,10.91661643981934,-40.17014312744141,17.93496131896973,1,192.168.1.8,10.83.46.32,1,0
2015-02-28 14:12:19.297,31,1425161533.082659,37.77929805027279,-122.4388122420612,56.69903,-1,-1,10,65,-9999,1425161539.270675,10.26667022705078,-41.06764221191406,19.01172637939453,200.4288940429688,186.6410522460938,25,156611.9437095,0.4449310302734375,-0.8667449951171875,-0.0070343017578125,156611.9219185833,0.3057671121319216,-0.5520384065631461,0.4207158026824667,156611.9219185833,-0.7821984754903059,1.336110965445664,1.156164976650143,0.29189732670784,-0.536754310131073,0.4546248018741608,0.1487484127283096,0.02619628980755806,0.09746231883764267,XTrueNorthZVertical,-0.5943352342384786,-0.3161116283442048,-0.06229543167705379,-0.7368570993842645,0.3918094635009766,-0.915264904499054,-0.09367813915014267,10.18882179260254,-40.25910568237305,18.16226387023926,1,192.168.1.8,10.83.46.32,1,0
2015-02-28 14:12:19.310,32,1425161533.082659,37.77929805027279,-122.4388122420612,56.69903,-1,-1,10,65,-9999,1425161539.270675,10.26667022705078,-41.06764221191406,19.01172637939453,200.4288940429688,186.6410522460938,25,156611.9928950834,0.4417572021484375,-0.8609619140625,-0.0102691650390625,156611.973693375,0.2120360923021468,-0.4840324575991006,0.4632028094491549,156611.973693375,-0.8054297996761176,1.335874796809062,1.180132771374191,0.1981664448976517,-0.4687484800815582,0.497111439704895,0.1149327605962753,0.01186055969446898,0.1032101958990097,XTrueNorthZVertical,-0.6035900525896164,-0.3022582072472276,-0.06139161893258085,-0.7352211447203809,0.3703425228595734,-0.9246565699577332,-0.0886380523443222,9.81392765045166,-40.19686889648438,18.50334930419922,1,192.168.1.8,10.83.46.32,1,0
2015-02-28 14:12:19.350,33,1425161533.082659,37.77929805027279,-122.4388122420612,56.69903,-1,-1,10,65,-9999,1425161539.322152,10.02798080444336,-41.10163879394531,19.27799224853516,200.5089416503906,186.7210998535156,25,156612.041829375,0.2567901611328125,-1.043045043945312,0.0113067626953125,156612.025468375,0.03764857569823218,-0.5081023738473458,0.2366064165192178,156612.025468375,-0.8048818462048288,1.313134159392578,1.200462729382085,0.02377907559275627,-0.4928185343742371,0.2705146968364716,-0.006854346953332424,0.002625971334055066,0.07373268157243729,XTrueNorthZVertical,-0.6089406585674725,-0.2882327321676068,-0.06122251864855946,-0.7364543486282716,0.3499787449836731,-0.9322066307067871,-0.09222633391618729,9.233474731445312,-40.2508430480957,18.68389511108398,1,192.168.1.8,10.83.46.32,1,0
2015-02-28 14:12:19.408,34,1425161533.082659,37.77929805027279,-122.4388122420612,56.69903,-1,-1,10,65,-9999,1425161539.398247,9.533557891845703,-40.91468811035156,18.8619384765625,200.8018035888672,187.0139617919922,25,156612.09090425,0.38873291015625,-0.9516754150390625,-0.0044708251953125,156612.0772415,0.1171082478784904,-0.2376927199278612,0.3372794983625022,156612.0772415,-0.7916399845600844,1.280028613860642,1.213790007541976,0.103234738111496,-0.2224338948726654,0.3712411820888519,0.05982119217514992,0.01327168755233288,0.09359727054834366,XTrueNorthZVertical,-0.611219194821544,-0.2762545260330304,-0.06023347761204372,-0.7392337241057685,0.3348016142845154,-0.936947226524353,-0.1001890674233437,9.189901351928711,-40.36835098266602,18.45040702819824,1,192.168.1.8,10.83.46.32,1,0
2015-02-28 14:12:19.447,35,1425161533.082659,37.77929805027279,-122.4388122420612,56.69903,-1,-1,10,65,-9999,1425161539.398247,9.533557891845703,-40.91468811035156,18.8619384765625,200.8018035888672,187.0139617919922,25,156612.1399513333,0.41705322265625,-0.900115966796875,-0.1190032958984375,156612.1290165833,-0.01690441501927796,-0.8261019174982194,0.2214911131202551,156612.0772415,-0.7916399845600844,1.280028613860642,1.213790007541976,0.103234738111496,-0.2224338948726654,0.3712411820888519,0.05982119217514992,0.01327168755233288,0.09359727054834366,XTrueNorthZVertical,-0.611219194821544,-0.2762545260330304,-0.06023347761204372,-0.7392337241057685,0.3348016142845154,-0.936947226524353,-0.1001890674233437,9.189901351928711,-40.36835098266602,18.45040702819824,1,192.168.1.8,10.83.46.32,1,0
2015-02-28 14:12:19.507,36,1425161533.082659,37.77929805027279,-122.4388122420612,56.69903,-1,-1,10,65,-9999,1425161539.500344,9.635848999023438,-40.98265075683594,18.36267852783203,202.0292816162109,188.2414398193359,25,156612.1890319167,0.291656494140625,-1.097686767578125,0.1207427978515625,156612.1807913333,0.03264769180328138,-0.3553458505653818,-0.3898545593384105,156612.1807913333,-0.7894770364542203,1.213444655663531,1.220429721246201,0.01877447403967381,-0.340087354183197,-0.3558935821056366,-0.06345602124929428,-0.1598588973283768,0.1727986037731171,XTrueNorthZVertical,-0.6142625441352546,-0.2502986415247576,-0.04269735400711274,-0.7471339176056,0.3215584456920624,-0.9392469525337219,-0.1200642362236977,9.540838241577148,-40.51684951782227,17.9397029876709,1,192.168.1.8,10.83.46.32,1,0
2015-02-28 14:12:19.546,37,1425161539.501272,37.77930814871304,-122.4388067854434,56.56614,-1,-1,10,65,-9999,1425161539.500344,9.635848999023438,-40.98265075683594,18.36267852783203,202.0292816162109,188.2414398193359,25,156612.2380805833,0.5357666015625,-0.9190216064453125,-0.1245574951171875,156612.1807913333,0.03264769180328138,-0.3553458505653818,-0.3898545593384105,156612.1807913333,-0.7894770364542203,1.213444655663531,1.220429721246201,0.01877447403967381,-0.340087354183197,-0.3558935821056366,-0.06345602124929428,-0.1598588973283768,0.1727986037731171,XTrueNorthZVertical,-0.6142625441352546,-0.2502986415247576,-0.04269735400711274,-0.7471339176056,0.3215584456920624,-0.9392469525337219,-0.1200642362236977,9.540838241577148,-40.51684951782227,17.9397029876709,1,192.168.1.8,10.83.46.32,1,0
2015-02-28 14:12:19.606,38,1425161539.501272,37.77930814871304,-122.4388067854434,56.56614,-1,-1,10,65,-9999,1425161539.553383,9.874538421630859,-40.91468811035156,18.7620849609375,202.4901275634766,188.7022857666016,25,156612.2871644167,0.383758544921875,-0.9172515869140625,-0.035247802734375,156612.2843395417,-0.184282757950213,0.9523035289187853,-0.5900563627045722,156612.23256475,-0.8075859152973061,1.297058618099393,1.20851011302115,0.09177398681640625,1.960256457328796,-0.497274786233902,0.0600888729095459,0.01608265750110149,0.07607953250408173,XTrueNorthZVertical,-0.6116833210624728,-0.2791754695911631,-0.05788268472961239,-0.7379391605502342,0.3412172794342041,-0.9350889921188354,-0.09580914676189423,9.668538093566895,-40.39604187011719,18.14262008666992,1,192.168.1.8,10.83.46.32,1,0
2015-02-28 14:12:19.645,39,1425161539.501272,37.77930814871304,-122.4388067854434,56.56614,-1,-1,10,65,-9999,1425161539.60617,10.11323165893555,-40.37088012695312,19.02834320068359,201.2499389648438,187.4620971679688,25,156612.3363116667,0.218597412109375,-0.8251800537109375,0.0610198974609375,156612.3361145417,-0.16633278588697,1.051642100739831,-0.36385598182873,156612.2843395417,-0.838769032582913,1.382906408841593,1.167901440274645,-0.1981557011604309,0.9675617218017578,-0.5560960173606873,0.05262245610356331,-0.05878417566418648,0.01247529126703739,XTrueNorthZVertical,-0.6045181035973773,-0.3129536190257998,-0.05939530002775893,-0.730130215132104,0.3851827085018158,-0.9199298024177551,-0.07323578745126724,9.779228210449219,-39.88398361206055,19.18618774414062,1,192.168.1.8,10.83.46.32,1,0
2015-02-28 14:12:19.703,40,1425161539.501272,37.77930814871304,-122.4388067854434,56.56614,-1,-1,10,65,-9999,1425161539.657423,10.21553039550781,-39.86106872558594,19.26132965087891,199.9919586181641,186.2041168212891,25,156612.385284125,0.4045257568359375,-0.8974151611328125,-0.0099029541015625,156612.3878878333,0.1596085704506289,1.366279669830589,-0.438437275524181,156612.3361145417,-0.8130286308156524,1.401881813234851,1.150376723115232,-0.1802055984735489,1.066900134086609,-0.3298960030078888,-0.105688750743866,0.08819547295570374,0.1051130369305611,XTrueNorthZVertical,-0.5958381688046651,-0.332670814834,-0.0686875519949246,-0.7277287019945589,0.4023348689079285,-0.9129177331924438,-0.06861401349306107,9.709300994873047,-39.94308471679688,19.09855270385742,1,192.168.1.8,10.83.46.32,1,0
2015-02-28 14:12:19.742,41,1425161539.501272,37.77930814871304,-122.4388067854434,56.56614,-1,-1,10,65,-9999,1425161539.709835,9.721099853515625,-39.67413330078125,19.71067810058594,197.7558288574219,183.9679870605469,25,156612.434374875,0.2882080078125,-0.93853759765625,-0.0398101806640625,156612.3878878333,0.1596085704506289,1.366279669830589,-0.438437275524181,156612.3878878333,-0.8193633110694775,1.490294330183479,1.136217724777656,0.1457359045743942,1.381537437438965,-0.4044776856899261,-0.01513902563601732,0.009632382541894913,0.02395406737923622,XTrueNorthZVertical,-0.5903927374983894,-0.3667531928202733,-0.08787057891855046,-0.713587633285756,0.4196647703647614,-0.9070475697517395,-0.03385702148079872,8.931768417358398,-39.92502593994141,19.51131248474121,1,192.168.1.8,10.83.46.32,1,0
2015-02-28 14:12:19.803,42,1425161539.501272,37.77930814871304,-122.4388067854434,56.56614,-1,-1,10,65,-9999,1425161539.761165,8.681095123291016,-39.24929809570312,20.79240417480469,195.3865661621094,181.5987243652344,25,156612.4834003334,0.7353515625,-0.9815216064453125,-0.025909423828125,156612.4914375833,0.2077768987707831,0.7914137116677192,0.2683249314181706,156612.43966275,-0.8412616983701945,1.579619416430423,1.141560602635197,0.3145010769367218,1.762709498405457,0.2400133907794952,-0.1279518604278564,-0.0292535088956356,-0.04348209127783775,XTrueNorthZVertical,-0.5912341588153063,-0.3902282985914811,-0.108382479608079,-0.6974362483373762,0.4161598682403564,-0.9092841148376465,0.003671911079436541,7.45787239074707,-39.69984436035156,20.56156730651855,1,192.168.1.8,10.83.46.32,1,0
2015-02-28 14:12:19.841,43,1425161539.501272,37.77930814871304,-122.4388067854434,56.56614,-1,-1,10,65,-9999,1425161539.813237,7.300113677978516,-38.72250366210938,22.20697021484375,192.1477661132812,178.3599243164062,25,156612.532490625,0.372344970703125,-1.012542724609375,0.1414947509765625,156612.4914375833,0.2077768987707831,0.7914137116677192,0.2683249314181706,156612.4914375833,-0.8680919838962885,1.670181302030614,1.137912167117398,0.1939045041799545,0.8066713213920593,0.30228391289711,0.3179308176040649,-0.0737619549036026,-0.06753190606832504,XTrueNorthZVertical,-0.5906940440647597,-0.4145983432135538,-0.1246014829750235,-0.6809282403484052,0.4174207448959351,-0.9077596664428711,0.04162247851490974,6.098969459533691,-39.43515396118164,21.49759483337402,1,192.168.1.8,10.83.46.32,1,0
2015-02-28 14:12:19.899,44,1425161539.501272,37.77930814871304,-122.4388067854434,56.56614,-1,-1,10,65,-9999,1425161539.864625,6.157825469970703,-38.16169738769531,23.42183685302734,190.4991302490234,176.7112884521484,25,156612.581623125,0.44488525390625,-0.8743743896484375,-0.009918212890625,156612.5432107917,0.1502326455168959,0.7229550253183604,-0.129832831566889,156612.5432107917,-0.9025591021286761,1.742430713398766,1.148731583866608,0.1363603919744492,0.7382124662399292,-0.09587424993515015,0.09463445842266083,-0.07861491292715073,0.07005017250776291,XTrueNorthZVertical,-0.5949448286642577,-0.4254678454883437,-0.1383183516066467,-0.6677468344084746,0.403626024723053,-0.9122450947761536,0.06996447592973709,4.699109077453613,-39.27275085449219,22.1369571685791,1,192.168.1.8,10.83.46.32,1,0
2015-02-28 14:12:19.939,45,1425161539.501272,37.77930814871304,-122.4388067854434,56.56614,-1,-1,10,65,-9999,1425161539.917575,4.930278778076172,-37.85578918457031,24.02093505859375,188.4006652832031,174.6128234863281,25,156612.630665125,0.284820556640625,-0.870849609375,0.1341400146484375,156612.5949859167,-0.01517948558123364,0.2936420060048999,0.2176843906580959,156612.5949859167,-0.9080137668225554,1.765080163158703,1.153843888157524,-0.02905159257352352,0.3088992834091187,0.251642644405365,0.02151218988001347,0.04233335331082344,-0.07945271581411362,XTrueNorthZVertical,-0.5952716900757363,-0.4298194202543004,-0.1451144388916205,-0.6632109155799226,0.3973568379878998,-0.9143273830413818,0.07818623632192612,3.858563423156738,-39.15883255004883,22.49828147888184,1,192.168.1.8,10.83.46.32,1,0
2015-02-28 14:12:19.997,46,1425161539.501272,37.77930814871304,-122.4388067854434,56.56614,-1,-1,10,65,-9999,1425161539.917575,4.930278778076172,-37.85578918457031,24.02093505859375,188.4006652832031,174.6128234863281,25,156612.6796215417,0.4515838623046875,-1.001800537109375,0.084136962890625,156612.646760875,0.3065713867811256,1.287510289004879,0.1051690303955561,156612.646760875,-0.9310576947695521,1.8336706022764,1.16922943453744,0.29269939661026,1.302767395973206,0.1391269713640213,-0.05553453043103218,0.04419846460223198,-0.005239338148385286,XTrueNorthZVertical,-0.5971104564553211,-0.4407302344389346,-0.1636759949366243,-0.6499432051165559,0.3774339556694031,-0.9204496741294861,0.1015680730342865,2.514456748962402,-39.17998886108398,22.65130233764648,1,192.168.1.8,10.83.46.32,1,0
2015-02-28 14:12:20.037,47,1425161539.501272,37.77930814871304,-122.4388067854434,56.56614,-1,-1,10,65,-9999,1425161539.994351,2.355854034423828,-37.70286560058594,24.10414123535156,183.853759765625,170.06591796875,25,156612.7287729583,0.4839630126953125,-0.8106842041015625,0.07806396484375,156612.6985342083,0.2950433613704996,1.176662333900838,0.2266395361395963,156612.6985342083,-0.9788364227909733,1.933614643828881,1.174708190474936,0.2811715006828308,1.191919326782227,0.2605971395969391,0.07190578430891037,-0.09800681471824646,0.004626913461834192,XTrueNorthZVertical,-0.5998694049329413,-0.4567506248400225,-0.1803254196067098,-0.6316789886721481,0.3606961369514465,-0.9225773215293884,0.1369288712739944,0.9528818130493164,-38.88267517089844,23.27456283569336,1,192.168.1.8,10.83.46.32,1,0
2015-02-28 14:12:20.096,48,1425161539.501272,37.77930814871304,-122.4388067854434,56.56614,-1,-1,10,65,-9999,1425161540.046585,0.49749755859375,-37.41395568847656,24.62004089355469,179.3691101074219,165.5812683105469,25,156612.7777201667,0.5871124267578125,-0.80950927734375,0.2214508056640625,156612.7503089583,0.1972022850304054,0.0898550551792735,0.03529647182347419,156612.7503089583,-1.019790674183997,1.996913346531284,1.180181263099804,0.1833305954933167,0.1051118746399879,0.06925369799137115,0.1042796671390533,0.007713374681770802,-0.1020226553082466,XTrueNorthZVertical,-0.603947457977372,-0.4625345812293203,-0.1886155062014071,-0.621074438326543,0.3467091023921967,-0.9246750473976135,0.157381534576416,-0.7399396896362305,-38.4906005859375,23.9249153137207,1,192.168.1.8,10.83.46.32,1,0
2015-02-28 14:12:20.137,49,1425161539.501272,37.77930814871304,-122.4388067854434,56.56614,-1,-1,10,65,-9999,1425161540.098587,-0.3549652099609375,-37.14205932617188,25.05272674560547,177.6249694824219,163.8371276855469,25,156612.8268582083,0.405670166015625,-0.89898681640625,0.0786895751953125,156612.802084125,-0.07423934381148488,-0.8950112107040197,0.164619574357722,156612.802084125,-1.021303029558827,1.969286644717233,1.185790733171436,-0.08811089396476746,-0.8797545433044434,0.1985764652490616,0.09951004385948181,0.0653308779001236,-0.02790091931819916,XTrueNorthZVertical,-0.6073250507083985,-0.4516867574047289,-0.1818957244236203,-0.6277334938938697,0.3461381494998932,-0.9267963171005249,0.1457292884588242,-0.503753662109375,-38.44359588623047,24.00648880004883,1,192.168.1.8,10.83.46.32,1,0
2015-02-28 14:12:20.195,50,1425161539.501272,37.77930814871304,-122.4388067854434,56.56614,-1,-1,10,65,-9999,1425161540.150006,-0.1503829956054688,-36.56423950195312,25.48541259765625,179.9471740722656,166.1593322753906,25,156612.8758195,0.5851898193359375,-0.8697052001953125,0.0298614501953125,156612.85385725,-0.009724799036533347,-1.214593737306836,0.02945589323682141,156612.85385725,-1.026396596952829,1.928588523555155,1.191382809993076,-0.02359622716903687,-1.199337244033813,0.06341247260570526,0.1020385324954987,0.01813067123293877,-0.07053467631340027,XTrueNorthZVertical,-0.6125348846827658,-0.4354941396798036,-0.1699744751700939,-0.6373810360329413,0.3469208180904388,-0.9288820028305054,0.1297082602977753,0.1263494491577148,-38.49460601806641,23.92958068847656,1,192.168.1.8,10.83.46.32,1,0
2015-02-28 14:12:20.232,51,1425161539.501272,37.77930814871304,-122.4388067854434,56.56614,-1,-1,10,65,-9999,1425161540.202198,0.736175537109375,-36.9381103515625,24.91959381103516,182.1320343017578,168.3441925048828,25,156612.9248555,0.405517578125,-0.9599151611328125,0.04180908203125,156612.9056323333,-0.3145379668659886,-3.34517533995981,0.3700201344878274,156612.9056323333,-1.007239469297001,1.796127545436883,1.206345896224092,-0.3284092545509338,-3.32991886138916,0.4039763212203979,0.2184315919876099,0.006051355972886086,-0.1325099170207977,XTrueNorthZVertical,-0.620432569119662,-0.393551184384852,-0.1409255977283242,-0.6635668062089352,0.3474253416061401,-0.934319794178009,0.07963821291923523,2.199440002441406,-38.68441009521484,23.51922988891602,1,192.168.1.8,10.83.46.32,1,0
2015-02-28 14:12:20.297,52,1425161539.501272,37.77930814871304,-122.4388067854434,56.56614,-1,-1,10,65,-9999,1425161540.255531,2.867317199707031,-37.90676879882812,24.17070007324219,186.5286407470703,172.7407989501953,25,156612.9739291667,0.3142852783203125,-1.046142578125,0.085205078125,156612.9574071667,-0.4200801061302648,-2.981793933437332,0.1261795071835183,156612.9574071667,-0.9641687610289206,1.588030354757558,1.21648500374738,-0.4339465498924255,-2.966533660888672,0.160132423043251,-0.04193097725510597,-0.07946360111236572,0.06082402169704437,XTrueNorthZVertical,-0.6262568217774153,-0.3328541304392238,-0.094370679700111,-0.6986449268350085,0.3468931317329407,-0.9378856420516968,0.005978957749903202,5.390562057495117,-39.02185821533203,22.42123413085938,1,192.168.1.8,10.83.46.32,1,0
2015-02-28 14:12:20.331,53,1425161539.501272,37.77930814871304,-122.4388067854434,56.56614,-1,-1,10,65,-9999,1425161540.306156,5.765678405761719,-38.65451049804688,22.47322845458984,192.94970703125,179.161865234375,25,156613.0230655833,0.0653076171875,-1.011337280273438,0.02197265625,156613.0091805,-0.6110412731460696,-1.668868032885392,0.2744129176700917,156612.9574071667,-0.9641687610289206,1.588030354757558,1.21648500374738,-0.4339465498924255,-2.966533660888672,0.160132423043251,-0.04193097725510597,-0.07946360111236572,0.06082402169704437,XTrueNorthZVertical,-0.6262568217774153,-0.3328541304392238,-0.094370679700111,-0.6986449268350085,0.3468931317329407,-0.9378856420516968,0.005978957749903202,5.390562057495117,-39.02185821533203,22.42123413085938,1,192.168.1.8,10.83.46.32,1,0
2015-02-28 14:12:20.398,54,1425161539.501272,37.77930814871304,-122.4388067854434,56.56614,-1,-1,10,65,-9999,1425161540.357006,8.084362030029297,-39.60614013671875,20.60933685302734,199.2652435302734,185.4774017333984,25,156613.0720214584,0.1254730224609375,-1.02606201171875,0.0158843994140625,156613.0609555,-0.7534186587116678,0.9917201772647211,1.011151399526266,156613.0609555,-0.7397503834397532,1.249114179281513,1.245555297459495,-0.7671990990638733,1.006909966468811,1.045181512832642,-0.2288210391998291,-0.07015697658061981,0.1370823532342911,XTrueNorthZVertical,-0.6128782791096556,-0.271785395228579,-0.07980733389003239,-0.73766099350986,0.3031466007232666,-0.947573721408844,-0.101025827229023,7.809354305267334,-40.62563705444336,18.52153015136719,1,192.168.1.8,10.83.46.32,1,0
2015-02-28 14:12:20.429,55,1425161539.501272,37.77930814871304,-122.4388067854434,56.56614,-1,-1,10,65,-9999,1425161540.409973,7.334194183349609,-40.45584106445312,19.01171112060547,198.1684875488281,184.3806457519531,25,156613.1210609583,0.2408599853515625,-1.012710571289062,0.0032501220703125,156613.1127306667,-0.7534349039943172,2.449510323208176,1.557820873331813,156613.0609555,-0.7397503834397532,1.249114179281513,1.245555297459495,-0.7671990990638733,1.006909966468811,1.045181512832642,-0.2288210391998291,-0.07015697658061981,0.1370823532342911,XTrueNorthZVertical,-0.6128782791096556,-0.271785395228579,-0.07980733389003239,-0.73766099350986,0.3031466007232666,-0.947573721408844,-0.101025827229023,7.809354305267334,-40.62563705444336,18.52153015136719,1,192.168.1.8,10.83.46.32,1,0
2015-02-28 14:12:20.497,56,1425161539.501272,37.77930814871304,-122.4388067854434,56.56614,-1,-1,10,65,-9999,1425161540.460551,3.549285888671875,-41.13560485839844,18.07975769042969,190.5996246337891,176.8117828369141,25,156613.1701255417,0.2803802490234375,-0.92608642578125,0.02325439453125,156613.1645038333,-0.9457670663392949,2.384627995886685,1.706589312881383,156613.1127306667,-0.5379487309244597,1.152581707263752,1.295164460409423,-0.7672151923179626,2.464699983596802,1.591850638389587,-0.02720299363136292,-0.07152953743934631,0.109614722430706,XTrueNorthZVertical,-0.6031303746030748,-0.2845498637841257,-0.139196204650716,-0.7320447942680715,0.2486995756626129,-0.9622534513473511,-0.110530249774456,4.309990406036377,-41.5713996887207,17.54189491271973,1,192.168.1.8,10.83.46.32,1,0
2015-02-28 14:12:20.527,57,1425161539.501272,37.77930814871304,-122.4388067854434,56.56614,-1,-1,10,65,-9999,1425161540.512991,-1.889396667480469,-41.73039245605469,16.26577758789062,179.1199188232422,165.3320770263672,25,156613.21917325,0.2267913818359375,-1.030838012695312,0.03271484375,156613.216279,-1.550836200740862,1.325677648483458,1.796791377950694,156613.1645038333,-0.2048162178088777,0.9575195956952028,1.349685004016025,-0.959547221660614,2.39981746673584,1.740618705749512,0.08520910143852234,0.06754275411367416,0.1190241575241089,XTrueNorthZVertical,-0.5883956639145753,-0.3011268662371877,-0.2154657113944235,-0.718809931958754,0.1793477833271027,-0.9756543040275574,-0.1262263059616089,-0.7557992935180664,-42.32690048217773,16.19684600830078,1,192.168.1.8,10.83.46.32,1,0
2015-02-28 14:12:20.597,58,1425161539.501272,37.77930814871304,-122.4388067854434,56.56614,-1,-1,10,65,-9999,1425161540.564499,-7.31103515625,-42.27415466308594,13.50321960449219,168.9815521240234,155.1937103271484,25,156613.268249875,-0.0208282470703125,-1.050521850585938,-0.0974273681640625,156613.2680538333,-1.359060106431493,0.2428062555369223,1.269670305494656,156613.216279,0.3015171173008687,0.5563486220568717,1.366641216995677,-1.564616203308105,1.340866923332214,1.830820322036743,0.1664184927940369,-0.06063858792185783,0.2467495799064636,XTrueNorthZVertical,-0.5682323323323115,-0.3017112976553124,-0.2833991837962163,-0.7111731504602259,0.1070647910237312,-0.9792326092720032,-0.1721646189689636,-7.15827465057373,-42.84870147705078,12.93147850036621,1,192.168.1.8,10.83.46.32,1,0
2015-02-28 14:12:20.625,59,1425161539.501272,37.77930814871304,-122.4388067854434,56.56614,-1,-1,10,65,-9999,1425161540.616878,-11.64151763916016,-42.64799499511719,10.74065399169922,161.9484405517578,148.1605987548828,25,156613.31741475,0.0024871826171875,-1.068099975585938,-0.089019775390625,156613.2680538333,-1.359060106431493,0.2428062555369223,1.269670305494656,156613.2680538333,0.7668271985272532,0.13576918092912,1.319004736857153,-1.37283992767334,0.2579954266548157,1.303698897361755,-0.04866000637412071,-0.06426247954368591,0.1349999457597733,XTrueNorthZVertical,-0.5468727697181901,-0.2784003243468004,-0.3335048812461829,-0.7156800718770062,0.03372165188193321,-0.9684675931930542,-0.2468468695878983,-11.05297374725342,-42.93620681762695,9.422809600830078,1,192.168.1.8,10.83.46.32,1,0
2015-02-28 14:12:20.693,60,1425161539.501272,37.77930814871304,-122.4388067854434,56.56614,-1,-1,10,65,-9999,1425161540.670002,-14.62512969970703,-42.529052734375,7.528762817382812,157.318115234375,143.5302734375,25,156613.3663719167,0.131256103515625,-1.019561767578125,-0.0926361083984375,156613.3716021667,-0.799872710238138,1.094068121117556,0.3762516651225038,156613.319827375,0.9669500549669167,-0.04026111345852548,1.261891783889133,-1.066324353218079,0.5039400458335876,0.9030659794807434,0.01472387090325356,-0.1154327988624573,0.2147491574287415,XTrueNorthZVertical,-0.5297461699947831,-0.2597778429831022,-0.3647699389322651,-0.7202967425129815,-0.01223668828606606,-0.9526671767234802,-0.3037689328193665,-13.48562145233154,-42.7435417175293,6.753024101257324,1,192.168.1.8,10.83.46.32,1,0
2015-02-28 14:12:20.723,61,1425161539.501272,37.77930814871304,-122.4388067854434,56.56614,-1,-1,10,65,-9999,1425161540.670002,-14.62512969970703,-42.529052734375,7.528762817382812,157.318115234375,143.5302734375,25,156613.4154124167,0.162506103515625,-0.9048919677734375,-0.2466888427734375,156613.3716021667,-0.799872710238138,1.094068121117556,0.3762516651225038,156613.3716021667,1.047686301223522,-0.07599754880989823,1.216311728907197,-0.8136523365974426,1.109256982803345,0.4102796614170074,0.1576100140810013,-0.0817362517118454,0.2534691095352173,XTrueNorthZVertical,-0.5099766202870079,-0.2585947275922846,-0.3914339420770678,-0.7209938422515658,-0.02635390497744083,-0.9378255009651184,-0.3461052179336548,-15.55300140380859,-42.41191864013672,3.716020584106445,1,192.168.1.8,10.83.46.32,1,0
2015-02-28 14:12:20.794,62,1425161539.501272,37.77930814871304,-122.4388067854434,56.56614,-1,-1,10,65,-9999,1425161540.772122,-16.9779052734375,-42.18919372558594,2.835739135742188,151.5312194824219,137.7433776855469,25,156613.46447525,0.0457916259765625,-0.8692474365234375,-0.31292724609375,156613.4233771667,-1.06507268843321,0.4649788715801287,0.2213595529624052,156613.4233771667,1.087986292035651,-0.06924044393696564,1.165836466602843,-1.07885217666626,0.48016756772995,0.2553872168064117,0.1897637993097305,0.01422624476253986,0.1463490426540375,XTrueNorthZVertical,-0.4856764005473679,-0.2599990254705851,-0.4155255314078247,-0.7237800158932959,-0.02725769206881523,-0.9191182255744934,-0.393037885427475,-16.43330764770508,-42.22451782226562,1.229652404785156,1,192.168.1.8,10.83.46.32,1,0
2015-02-28 14:12:20.822,63,1425161539.501272,37.77930814871304,-122.4388067854434,56.56614,-1,-1,10,65,-9999,1425161540.772122,-16.9779052734375,-42.18919372558594,2.835739135742188,151.5312194824219,137.7433776855469,25,156613.513518875,-0.0083770751953125,-0.919952392578125,-0.2924957275390625,156613.4751505833,-0.9056199129063504,-0.3378150600577172,-0.1415251740167729,156613.4751505833,1.078885719046027,-0.06485524223287284,1.115233589763751,-0.9193992614746094,-0.3226265013217926,-0.107497900724411,0.07445842772722244,0.002551548182964325,0.1268479824066162,XTrueNorthZVertical,-0.4679137051269996,-0.2480632220448628,-0.4208990246701962,-0.7364546499325518,-0.02851421758532524,-0.8980135917663574,-0.4390428066253662,-16.6946849822998,-42.12924575805664,-0.9431095123291016,1,192.168.1.8,10.83.46.32,1,0
2015-02-28 14:12:20.894,64,1425161539.501272,37.77930814871304,-122.4388067854434,56.56614,-1,-1,10,65,-9999,1425161540.874653,-16.53463745117188,-41.8153076171875,-0.259674072265625,152.4988708496094,138.7110290527344,25,156613.56260075,-0.11279296875,-0.86993408203125,-0.401153564453125,156613.5269257083,-0.4668281706410797,-0.5799960053706888,-0.005314870587471135,156613.5269257083,1.0728383944459,-0.07886116485996882,1.083621971484016,-0.4806073606014252,-0.5648075938224792,0.0287120696157217,0.01493695564568043,-0.03678151965141296,0.2044994682073593,XTrueNorthZVertical,-0.460173272830446,-0.2343129738673423,-0.4200515432540745,-0.7462537961125451,-0.03687909618020058,-0.8836591839790344,-0.4666759669780731,-16.61465263366699,-42.09311676025391,-2.568735122680664,1,192.168.1.8,10.83.46.32,1,0
2015-02-28 14:12:20.920,65,1425161539.501272,37.77930814871304,-122.4388067854434,56.56614,-1,-1,10,65,-9999,1425161540.874653,-16.53463745117188,-41.8153076171875,-0.259674072265625,152.4988708496094,138.7110290527344,25,156613.6116905,-0.1110076904296875,-0.8763885498046875,-0.4051971435546875,156613.5787005833,-0.1301095340041482,-0.4163604690357511,-0.0381838710773381,156613.5787005833,1.074548293321336,-0.1036119426094871,1.065369696773995,-0.1438886076211929,-0.4011722207069397,-0.004157236777245998,-0.1023123264312744,0.02990573272109032,0.03775179386138916,XTrueNorthZVertical,-0.4585406723525196,-0.2212427540898164,-0.4177009219911574,-0.7525410774712201,-0.05007720366120338,-0.8749679923057556,-0.4815841913223267,-16.7772331237793,-41.99814605712891,-3.025781631469727,1,192.168.1.8,10.83.46.32,1,0
2015-02-28 14:12:20.996,66,1425161539.501272,37.77930814871304,-122.4388067854434,56.56614,-1,-1,10,65,-9999,1425161540.978748,-16.84152221679688,-42.29112243652344,-0.6258087158203125,153.6726684570312,139.8848266601562,25,156613.6607117917,-0.132049560546875,-0.91656494140625,-0.3561553955078125,156613.6304741667,0.1646438091236417,-0.4174244018912378,-0.05458787812779017,156613.6304741667,1.064210706094041,-0.118106765958236,1.067180945998915,0.1508648693561554,-0.4022363126277924,-0.020561583340168,-0.03714405745267868,-0.01707029342651367,0.07559248805046082,XTrueNorthZVertical,-0.4633221726696464,-0.2138128784440291,-0.4101905368631545,-0.7558838394519554,-0.05686534196138382,-0.8758435249328613,-0.4792332351207733,-16.70592308044434,-42.03887176513672,-2.84968090057373,1,192.168.1.8,10.83.46.32,1,0
2015-02-28 14:12:21.018,67,1425161539.501272,37.77930814871304,-122.4388067854434,56.56614,-1,-1,10,65,-9999,1425161540.978748,-16.84152221679688,-42.29112243652344,-0.6258087158203125,153.6726684570312,139.8848266601562,25,156613.7098567083,0.0394134521484375,-1.011947631835938,-0.363128662109375,156613.6822490417,0.2838815206097595,0.1981133524393215,0.273380410115468,156613.6822490417,1.082744492207814,-0.1391350781011121,1.078792241369388,0.2701027393341064,0.2133012861013412,0.3074063062667847,0.04020028561353683,-0.1022851839661598,0.1637968271970749,XTrueNorthZVertical,-0.4698414066235563,-0.2129200643066823,-0.4104814449027429,-0.7519435618321018,-0.06551461666822433,-0.8813878893852234,-0.4678281843662262,-16.8625431060791,-42.02130889892578,-2.083234786987305,1,192.168.1.8,10.83.46.32,1,0
2015-02-28 14:12:21.097,68,1425161539.501272,37.77930814871304,-122.4388067854434,56.56614,-1,-1,10,65,-9999,1425161541.08259,-18.88742065429688,-41.74736022949219,0.1064376831054688,149.8397674560547,136.0519256591797,25,156613.7588182917,0.126953125,-0.8990936279296875,-0.341461181640625,156613.7340241667,0.1639604419879274,0.5599290865569418,0.6069605114077412,156613.7340241667,1.143871001306363,-0.1668193265962192,1.08438999482424,0.1501828879117966,0.5751177668571472,0.6409832239151001,0.09982040524482727,-0.0701746866106987,0.06743869930505753,XTrueNorthZVertical,-0.471013874307549,-0.2183219998559326,-0.4258709112660108,-0.7410232381502696,-0.07761886715888977,-0.8840184211730957,-0.4609628617763519,-17.69207572937012,-41.6837043762207,-1.983646392822266,1,192.168.1.8,10.83.46.32,1,0
2015-02-28 14:12:21.116,69,1425161539.501272,37.77930814871304,-122.4388067854434,56.56614,-1,-1,10,65,-9999,1425161541.08259,-18.88742065429688,-41.74736022949219,0.1064376831054688,149.8397674560547,136.0519256591797,25,156613.8079675833,0.0256500244140625,-0.7270050048828125,-0.4120635986328125,156613.7857974167,-0.2083971489886625,-0.001839711681026738,0.6242569437394788,156613.7857974167,1.212257427876738,-0.2135695941628079,1.07613573221397,-0.2221745848655701,0.01334886904805899,0.6582793593406677,0.2320892661809921,0.04504688084125519,0.1095924749970436,XTrueNorthZVertical,-0.4709248767040956,-0.2150722953923488,-0.4415159430660694,-0.7328283415827563,-0.1006195321679115,-0.880129873752594,-0.4639473259449005,-18.8577995300293,-41.15798950195312,-2.208807945251465,1,192.168.1.8,10.83.46.32,1,0
2015-02-28 14:12:21.196,70,1425161539.501272,37.77930814871304,-122.4388067854434,56.56614,-1,-1,10,65,-9999,1425161541.187942,-20.64349365234375,-40.30288696289062,-0.1431884765625,147.5414886474609,133.7536468505859,25,156613.8569250834,-0.00347900390625,-0.6649169921875,-0.30987548828125,156613.8375725833,-0.2603993640140948,-0.9637732311015386,0.3257064655294539,156613.8375725833,1.254729299164218,-0.2753940423409095,1.05622262863079,-0.2741766571998596,-0.9485848546028137,0.3597284853458405,0.1012547016143799,0.1940804868936539,0.08741822838783264,XTrueNorthZVertical,-0.4736842858684798,-0.1970129625974827,-0.4462435979609816,-0.7332637854968866,-0.1338322162628174,-0.8705025911331177,-0.4736181795597076,-20.30510330200195,-40.44399261474609,-2.541970252990723,1,192.168.1.8,10.83.46.32,1,0
2015-02-28 14:12:21.214,71,1425161539.501272,37.77930814871304,-122.4388067854434,56.56614,-1,-1,10,65,-9999,1425161541.187942,-20.64349365234375,-40.30288696289062,-0.1431884765625,147.5414886474609,133.7536468505859,25,156613.905963375,-0.20623779296875,-0.498748779296875,-0.4141082763671875,156613.8893475,-0.1224116668732742,-1.225710038012936,0.4176963106385349,156613.8893475,1.287028163764356,-0.3623241770979679,1.038730896784937,-0.1361888200044632,-1.210521817207336,0.4517180025577545,0.09929617494344711,0.2651119232177734,0.07152996957302094,XTrueNorthZVertical,-0.484411844703234,-0.1677990878093346,-0.440825892877611,-0.7367911515231286,-0.179816797375679,-0.8617610931396484,-0.4743772745132446,-21.12636375427246,-40.05258941650391,-1.985544204711914,1,192.168.1.8,10.83.46.32,1,0
2015-02-28 14:12:21.296,72,1425161539.501272,37.77930814871304,-122.4388067854434,56.56614,-1,-1,10,65,-9999,1425161541.238369,-21.49594879150391,-40.23490905761719,0.2229385375976562,148.0099029541016,134.2220611572266,25,156613.95502375,-0.1458892822265625,-0.61346435546875,-0.270263671875,156613.9411210833,-0.1205123003838297,-1.373570073314681,0.02755199937352377,156613.9411210833,1.306790962017454,-0.4436613578560157,1.030438951462809,-0.1342893242835999,-1.358381986618042,0.06157338619232178,0.004607011564075947,0.3708763420581818,0.2076487988233566,XTrueNorthZVertical,-0.4980319869773399,-0.1401623201695548,-0.4299330742614433,-0.7399163828168356,-0.2208240479230881,-0.8575248718261719,-0.4646373391151428,-21.89653587341309,-39.67461395263672,-0.9706802368164062,1,192.168.1.8,10.83.46.32,1,0
2015-02-28 14:12:21.312,73,1425161539.501272,37.77930814871304,-122.4388067854434,56.56614,-1,-1,10,65,-9999,1425161541.290006,-22.12676239013672,-39.94602966308594,0.6722640991210938,149.0789489746094,135.2911071777344,25,156614.004158875,-0.2600860595703125,-0.702911376953125,-0.3367156982421875,156613.9928960833,-0.09693560156946716,-0.9801945486990762,0.3564079192081054,156613.9411210833,1.306790962017454,-0.4436613578560157,1.030438951462809,-0.1342893242835999,-1.358381986618042,0.06157338619232178,0.004607011564075947,0.3708763420581818,0.2076487988233566,XTrueNorthZVertical,-0.4980319869773399,-0.1401623201695548,-0.4299330742614433,-0.7399163828168356,-0.2208240479230881,-0.8575248718261719,-0.4646373391151428,-21.89653587341309,-39.67461395263672,-0.9706802368164062,1,192.168.1.8,10.83.46.32,1,0
2015-02-28 14:12:21.395,74,1425161539.501272,37.77930814871304,-122.4388067854434,56.56614,-1,-1,10,65,-9999,1425161541.34221,-22.92806243896484,-40.13294982910156,2.020263671875,150.2020721435547,136.4142303466797,25,156614.05312775,-0.3407440185546875,-0.52362060546875,-0.401611328125,156614.0446711667,-0.05976186749359612,-1.208675660732462,0.612867402705537,156614.0446711667,1.3544527570167,-0.594858688703173,0.9990543270282717,-0.07353860139846802,-1.193487763404846,0.6468880772590637,0.02592878788709641,0.3135243654251099,0.04028480127453804,XTrueNorthZVertical,-0.5181129408114161,-0.08650354744658187,-0.4165128805376075,-0.7420196595385621,-0.3032267689704895,-0.8409596681594849,-0.4481522440910339,-23.06516456604004,-39.0026741027832,1.124778747558594,1,192.168.1.8,10.83.46.32,1,0
2015-02-28 14:12:21.411,75,1425161539.501272,37.77930814871304,-122.4388067854434,56.56614,-1,-1,10,65,-9999,1425161541.393503,-23.84872436523438,-39.4871826171875,3.118621826171875,151.0073852539062,137.2195434570312,25,156614.1023146667,-0.390228271484375,-0.556060791015625,-0.3690338134765625,156614.0446711667,-0.05976186749359612,-1.208675660732462,0.612867402705537,156614.0446711667,1.3544527570167,-0.594858688703173,0.9990543270282717,-0.07353860139846802,-1.193487763404846,0.6468880772590637,0.02592878788709641,0.3135243654251099,0.04028480127453804,XTrueNorthZVertical,-0.5181129408114161,-0.08650354744658187,-0.4165128805376075,-0.7420196595385621,-0.3032267689704895,-0.8409596681594849,-0.4481522440910339,-23.06516456604004,-39.0026741027832,1.124778747558594,1,192.168.1.8,10.83.46.32,1,0
2015-02-28 14:12:21.492,76,1425161539.501272,37.77930814871304,-122.4388067854434,56.56614,-1,-1,10,65,-9999,1425161541.445416,-24.22380828857422,-38.80740356445312,4.616401672363281,152.5746765136719,138.7868347167969,25,156614.1512386667,-0.4210662841796875,-0.560211181640625,-0.2386474609375,156614.1482194584,-0.07449873570165859,-1.256756104736644,0.1272700716499057,156614.0964445417,1.383375283345946,-0.6837244524722537,0.978648192308933,-0.1947639435529709,-1.268080949783325,0.3628290593624115,-0.07488822191953659,0.2467052936553955,0.08831238746643066,XTrueNorthZVertical,-0.529791794745834,-0.05455873154896695,-0.4090504737517654,-0.7409600170776881,-0.3525714874267578,-0.8297436237335205,-0.4326879978179932,-24.00575637817383,-38.37938690185547,2.28514289855957,1,192.168.1.8,10.83.46.32,1,0
2015-02-28 14:12:21.509,77,1425161539.501272,37.77930814871304,-122.4388067854434,56.56614,-1,-1,10,65,-9999,1425161541.497472,-24.59888458251953,-38.39955139160156,5.448501586914062,153.2470550537109,139.4592132568359,25,156614.20026875,-0.634735107421875,-0.6209564208984375,-0.4068756103515625,156614.1999947084,-0.06358909629614899,-0.8704621917756692,-0.2519105380394672,156614.1482194584,1.397952616322425,-0.7587551190074711,0.9642757177061594,-0.08819850534200668,-1.241633176803589,0.1613635569810867,-0.02264648303389549,0.3044701516628265,0.1339450180530548,XTrueNorthZVertical,-0.5408323786866061,-0.0259499387475975,-0.3981001665019526,-0.7405020150052644,-0.3921789526939392,-0.8216362595558167,-0.4136538803577423,-24.59622955322266,-37.88017272949219,3.820169448852539,1,192.168.1.8,10.83.46.32,1,0
2015-02-28 14:12:21.599,78,1425161539.501272,37.77930814871304,-122.4388067854434,56.56614,-1,-1,10,65,-9999,1425161541.55016,-24.32610321044922,-38.46754455566406,6.680000305175781,155.0259094238281,141.2380676269531,25,156614.2493367083,-0.4124298095703125,-0.7959747314453125,-0.207916259765625,156614.2517679167,-0.1794983890518857,-0.8080363642436669,-0.3841617861922572,156614.1999947084,1.387090633771919,-0.8001069893264391,0.9606123331067548,-0.07728873193264008,-0.8553394079208374,-0.2178173959255219,-0.1383833736181259,0.1697928458452225,0.02399860695004463,XTrueNorthZVertical,-0.5480580483652252,-0.006443523756467323,-0.383789728785154,-0.7431664272928872,-0.4111008644104004,-0.8195425868034363,-0.3991817235946655,-24.47346496582031,-37.84670257568359,4.811664581298828,1,192.168.1.8,10.83.46.32,1,0
2015-02-28 14:12:21.606,79,1425161539.501272,37.77930814871304,-122.4388067854434,56.56614,-1,-1,10,65,-9999,1425161541.600768,-23.64414215087891,-38.87538146972656,7.478805541992188,157.3046264648438,143.5167846679688,25,156614.2983815417,-0.486114501953125,-0.9077911376953125,-0.3156280517578125,156614.2517679167,-0.1794983890518857,-0.8080363642436669,-0.3841617861922572,156614.2517679167,1.35331346318781,-0.8188184528566508,0.9703858972258983,-0.1931972503662109,-0.7929142713546753,-0.3500626981258392,0.0001981390960281715,0.02912906743586063,0.1780137121677399,XTrueNorthZVertical,-0.554067680434374,0.006634745593336978,-0.363394150788688,-0.748939059452842,-0.4126279354095459,-0.8251038193702698,-0.3859299719333649,-23.71836471557617,-38.21160507202148,5.638080596923828,1,192.168.1.8,10.83.46.32,1,0
2015-02-28 14:12:21.696,80,1425161539.501272,37.77930814871304,-122.4388067854434,56.56614,-1,-1,10,65,-9999,1425161541.654005,-22.38249969482422,-39.21525573730469,8.077919006347656,159.5756530761719,145.7878112792969,25,156614.3474560833,-0.5189361572265625,-0.8708343505859375,-0.407562255859375,156614.3553180833,0.3133264948861115,-0.2820122478406328,-0.5854767908940719,156614.3035432083,1.349440641134447,-0.8352175710423453,0.9896191910300279,0.296475887298584,-0.1442495882511139,-0.4871819317340851,-0.07905645668506622,-0.07197416573762894,0.05276546627283096,XTrueNorthZVertical,-0.5619126707816429,0.00757575570446734,-0.3521166033221436,-0.7484722399381145,-0.40705806016922,-0.8358169794082642,-0.3683935105800629,-22.7013111114502,-38.69734573364258,6.453017234802246,1,192.168.1.8,10.83.46.32,1,0
2015-02-28 14:12:21.705,81,1425161539.501272,37.77930814871304,-122.4388067854434,56.56614,-1,-1,10,65,-9999,1425161541.654005,-22.38249969482422,-39.21525573730469,8.077919006347656,159.5756530761719,145.7878112792969,25,156614.3964920834,-0.3781890869140625,-1.051727294921875,-0.357391357421875,156614.3553180833,0.3133264948861115,-0.2820122478406328,-0.5854767908940719,156614.3553180833,1.33648553503846,-0.8367361104894516,1.012679685217264,0.299650102853775,-0.26688352227211,-0.5513609051704407,-0.1257367134094238,-0.02258032932877541,-0.05279562622308731,XTrueNorthZVertical,-0.5679773315491098,0.004293705789775063,-0.3404755972747042,-0.7493061594234577,-0.3931994438171387,-0.8482540249824524,-0.3547666370868683,-21.94052886962891,-38.99726867675781,7.23199462890625,1,192.168.1.8,10.83.46.32,1,0
2015-02-28 14:12:21.763,82,1425161539.501272,37.77930814871304,-122.4388067854434,56.56614,-1,-1,10,65,-9999,1425161541.756287,-20.16612243652344,-40.23490905761719,8.84344482421875,162.8150177001953,149.0271759033203,25,156614.4455765417,-0.4884185791015625,-1.132293701171875,-0.3450164794921875,156614.4070917083,0.1565890784066971,-0.1498432913655263,-0.5041305353976017,156614.4070917083,1.31150648337601,-0.8268714417001942,1.040824986570598,0.1429143100976944,-0.1347143799066544,-0.4700133502483368,0.00410266499966383,-0.2285633236169815,-0.05695581436157227,XTrueNorthZVertical,-0.573443675173017,-0.00137534939365729,-0.3261251371327161,-0.7515336936563998,-0.3719615638256073,-0.8628215789794922,-0.3423209190368652,-20.81074714660645,-39.48432922363281,7.897860527038574,1,192.168.1.8,10.83.46.32,1,0
2015-02-28 14:12:21.803,83,1425161539.501272,37.77930814871304,-122.4388067854434,56.56614,-1,-1,10,65,-9999,1425161541.756287,-20.16612243652344,-40.23490905761719,8.84344482421875,162.8150177001953,149.0271759033203,25,156614.494588625,-0.313934326171875,-1.0400390625,-0.3851318359375,156614.458866625,0.01885624578219704,0.0896939339333237,-0.4022883258357725,156614.458866625,1.292813511021984,-0.8080088648872833,1.063888723384423,0.005181611515581608,0.1048226952552795,-0.3681714832782745,-0.09434033185243607,-0.2443108260631561,-0.02795358560979366,XTrueNorthZVertical,-0.5763445962655569,-0.01047228793495419,-0.3181439733995928,-0.7526630638492724,-0.350956916809082,-0.8742499947547913,-0.3354344666004181,-19.6132698059082,-39.99161148071289,8.394397735595703,1,192.168.1.8,10.83.46.32,1,0
2015-02-28 14:12:21.862,84,1425161539.501272,37.77930814871304,-122.4388067854434,56.56614,-1,-1,10,65,-9999,1425161541.860105,-18.35890197753906,-40.4388427734375,8.677032470703125,165.1272277832031,151.3393859863281,25,156614.543652125,-0.375244140625,-1.114822387695312,-0.3928680419921875,156614.5106418333,-0.1963759061441539,-0.03701101493326721,-0.1614006115481432,156614.5106418333,1.273792308839351,-0.7886954477842523,1.06706886068902,-0.2100504189729691,-0.02188238687813282,-0.1272840797901154,-0.01112205907702446,-0.1882517039775848,-0.05695198848843575,XTrueNorthZVertical,-0.5742204712876278,-0.0132888055906064,-0.3156566398564787,-0.7552848347923197,-0.3424393534660339,-0.8757894039154053,-0.3401885032653809,-19.21697044372559,-40.20974349975586,8.268019676208496,1,192.168.1.8,10.83.46.32,1,0
2015-02-28 14:12:21.900,85,1425161539.501272,37.77930814871304,-122.4388067854434,56.56614,-1,-1,10,65,-9999,1425161541.860105,-18.35890197753906,-40.4388427734375,8.677032470703125,165.1272277832031,151.3393859863281,25,156614.5927144584,-0.3307037353515625,-1.100921630859375,-0.391510009765625,156614.562415125,-0.2615024453376056,-0.01691107292200316,-0.01500584747816048,156614.562415125,1.249854166030117,-0.7717959576100116,1.061186785244217,-0.2751768231391907,-0.001782594830729067,0.01911034248769283,0.01188998576253653,-0.2114613056182861,0.02312023937702179,XTrueNorthZVertical,-0.5701515110722635,-0.01099908595450468,-0.3130185597605794,-0.7594904171404322,-0.3402286171913147,-0.8729350566864014,-0.3496125638484955,-18.97276306152344,-40.39627075195312,7.915248870849609,1,192.168.1.8,10.83.46.32,1,0
2015-02-28 14:12:21.962,86,1425161539.501272,37.77930814871304,-122.4388067854434,56.56614,-1,-1,10,65,-9999,1425161541.912296,-18.18841552734375,-40.40486145019531,8.344184875488281,165.616943359375,151.8291015625,25,156614.6417617917,-0.3354644775390625,-1.029876708984375,-0.36395263671875,156614.6141903333,-0.2794436289692514,0.1233277942882614,0.1723067888442357,156614.6141903333,1.240532311918709,-0.7581403789741634,1.043993258410887,-0.2931178510189056,0.1384561061859131,0.2064226120710373,-0.02854461595416069,-0.242041751742363,-0.07357332855463028,XTrueNorthZVertical,-0.5633798437643311,-0.00822253581015674,-0.317931448138829,-0.762532080493556,-0.3456924557685852,-0.8644188046455383,-0.3650710880756378,-19.23460006713867,-40.41615676879883,7.144223213195801,1,192.168.1.8,10.83.46.32,1,0
2015-02-28 14:12:21.999,87,1425161539.501272,37.77930814871304,-122.4388067854434,56.56614,-1,-1,10,65,-9999,1425161541.964816,-18.52939605712891,-40.47285461425781,8.244338989257812,165.4470367431641,151.6591949462891,25,156614.6908,-0.324920654296875,-1.055313110351562,-0.53643798828125,156614.6659652917,-0.4275065971460598,0.2621013902667644,0.4479607395823044,156614.6659652917,1.238003417852338,-0.7458346584103087,1.018817877022631,-0.4411806762218475,0.2772295475006104,0.4820761978626251,0.05120520293712616,-0.216122955083847,0.01391699258238077,XTrueNorthZVertical,-0.5544353659189338,-0.004445180847151328,-0.3270310497434721,-0.7652662254678514,-0.355831652879715,-0.8514887690544128,-0.3851633369922638,-19.75250625610352,-40.29710388183594,6.360595703125,1,192.168.1.8,10.83.46.32,1,0
2015-02-28 14:12:22.063,88,1425161539.501272,37.77930814871304,-122.4388067854434,56.56614,-1,-1,10,65,-9999,1425161542.016674,-19.38185119628906,-40.26895141601562,7.545372009277344,164.3712463378906,150.5834045410156,25,156614.739874,-0.608978271484375,-1.165328979492188,-0.6179351806640625,156614.717738875,-0.8552060071550414,0.7274043685515558,0.6082313718799269,156614.717738875,1.241586113383726,-0.7261516787156708,0.981488803210014,-0.8688799738883972,0.7425323724746704,0.6423465609550476,-0.1431365758180618,-0.3678777515888214,-0.1203998252749443,XTrueNorthZVertical,-0.5405623290433589,-0.001472097261833627,-0.3434396824718355,-0.7680100414741144,-0.3690399527549744,-0.8313257694244385,-0.4155803918838501,-20.72023773193359,-39.96637725830078,5.275964736938477,1,192.168.1.8,10.83.46.32,1,0
2015-02-28 14:12:22.096,89,1425161539.501272,37.77930814871304,-122.4388067854434,56.56614,-1,-1,10,65,-9999,1425161542.067447,-20.95037841796875,-39.62318420410156,5.315353393554688,161.8977203369141,148.1098785400391,25,156614.788919625,-0.2682952880859375,-1.050079345703125,-0.4537811279296875,156614.7695138333,-1.111612227430671,0.1986172225175646,1.793875749189275,156614.7695138333,1.258842897649706,-0.7185968397023325,0.8779014786773531,-1.125285983085632,0.2137450724840164,1.827990531921387,0.05317894741892815,0.009314048103988171,0.07482875883579254,XTrueNorthZVertical,-0.5089768611951696,0.0230841189527,-0.3780447871339603,-0.7729759731670085,-0.4205190241336823,-0.7694001197814941,-0.4808193445205688,-23.54520225524902,-38.69203186035156,1.739389419555664,1,192.168.1.8,10.83.46.32,1,0
2015-02-28 14:12:22.163,90,1425161539.501272,37.77930814871304,-122.4388067854434,56.56614,-1,-1,10,65,-9999,1425161542.120082,-23.35430908203125,-38.62057495117188,2.469596862792969,159.2409362792969,145.4530944824219,25,156614.8379912083,-0.3348846435546875,-0.851409912109375,-0.59466552734375,156614.821288875,-1.325054735104489,1.705327773473012,1.258375572995521,156614.821288875,1.284182017946559,-0.6867755694029498,0.7868470476377525,-1.338728427886963,1.720455408096313,1.292490005493164,0.1196402162313461,-0.3453362286090851,0.08058537542819977,XTrueNorthZVertical,-0.4753064398896978,0.03285284288881329,-0.4174649010343264,-0.7737748853965593,-0.4476889073848724,-0.7081305384635925,-0.5460089445114136,-26.23236465454102,-36.95346832275391,-0.8828907012939453,1,192.168.1.8,10.83.46.32,1,0
2015-02-28 14:12:22.197,91,1425161539.501272,37.77930814871304,-122.4388067854434,56.56614,-1,-1,10,65,-9999,1425161542.171977,-25.82643890380859,-36.83621215820312,-0.9420013427734375,155.1258239746094,141.3379821777344,25,156614.8870355417,0.1439666748046875,-0.760528564453125,-0.687835693359375,156614.873062375,-1.101902342096242,2.05111820204719,0.09208944733384998,156614.821288875,1.284182017946559,-0.6867755694029498,0.7868470476377525,-1.338728427886963,1.720455408096313,1.292490005493164,0.1196402162313461,-0.3453362286090851,0.08058537542819977,XTrueNorthZVertical,-0.4753064398896978,0.03285284288881329,-0.4174649010343264,-0.7737748853965593,-0.4476889073848724,-0.7081305384635925,-0.5460089445114136,-26.23236465454102,-36.95346832275391,-0.8828907012939453,1,192.168.1.8,10.83.46.32,1,0
2015-02-28 14:12:22.263,92,1425161539.501272,37.77930814871304,-122.4388067854434,56.56614,-1,-1,10,65,-9999,1425161542.223863,-27.24151611328125,-35.42570495605469,-4.420166015625,150.5654296875,136.777587890625,25,156614.9360944583,-0.173004150390625,-0.84979248046875,-0.5365142822265625,156614.9248375834,0.1041176143971929,-0.6993301232882675,-1.455277453454966,156614.9248375834,1.212116400953576,-0.5059389713069771,0.7110089702567601,0.09044419974088669,-0.6842026710510254,-1.42116367816925,0.4229913651943207,-0.09456326067447662,-0.04277260228991508,XTrueNorthZVertical,-0.4106214131119718,0.0008846966130329546,-0.4454194140050426,-0.7956072246943138,-0.3672052323818207,-0.6525986194610596,-0.6627785563468933,-26.57186698913574,-35.53431701660156,-9.258710861206055,1,192.168.1.8,10.83.46.32,1,0
2015-02-28 14:12:22.297,93,1425161539.501272,37.77930814871304,-122.4388067854434,56.56614,-1,-1,10,65,-9999,1425161542.274611,-26.40610504150391,-35.40872192382812,-6.367263793945312,149.8762817382812,136.0884399414062,25,156614.9851264167,-0.5358428955078125,-0.6270751953125,-0.6002349853515625,156614.9766125834,0.8479872427042725,-0.4501115084786524,-1.606019295372284,156614.9248375834,1.212116400953576,-0.5059389713069771,0.7110089702567601,0.09044419974088669,-0.6842026710510254,-1.42116367816925,0.4229913651943207,-0.09456326067447662,-0.04277260228991508,XTrueNorthZVertical,-0.4106214131119718,0.0008846966130329546,-0.4454194140050426,-0.7956072246943138,-0.3672052323818207,-0.6525986194610596,-0.6627785563468933,-26.57186698913574,-35.53431701660156,-9.258710861206055,1,192.168.1.8,10.83.46.32,1,0
2015-02-28 14:12:22.364,94,1425161539.501272,37.77930814871304,-122.4388067854434,56.56614,-1,-1,10,65,-9999,1425161542.32727,-23.67825317382812,-37.92381286621094,-5.834724426269531,154.5911560058594,140.8033142089844,25,156615.0341962083,-0.153961181640625,-0.8369140625,-0.47198486328125,156615.0283861667,1.026691477119097,0.4310115834567131,-1.792493834899633,156614.9766125834,1.131605012690952,-0.4931821545803904,0.7685852177344213,0.8343139886856079,-0.4349842667579651,-1.571905851364136,-0.1603088676929474,0.02434248849749565,-0.010970838367939,XTrueNorthZVertical,-0.4282203098061943,-0.003873905012365922,-0.4047067604880841,-0.8079757639293619,-0.3403472602367401,-0.6951188445091248,-0.6332247257232666,-24.34946823120117,-37.4158935546875,-7.850456237792969,1,192.168.1.8,10.83.46.32,1,0
2015-02-28 14:12:22.400,95,1425161539.501272,37.77930814871304,-122.4388067854434,56.56614,-1,-1,10,65,-9999,1425161542.378479,-20.11497497558594,-40.35392761230469,-4.287025451660156,158.6494445800781,144.8616027832031,25,156615.0832312084,-0.2061920166015625,-0.855865478515625,-0.6725006103515625,156615.080161125,1.050419177167267,0.02323634682705036,-1.219565859062014,156615.0283861667,1.052157540535315,-0.4261356519033745,0.8527600938344696,1.013018250465393,0.4461386799812317,-1.758380770683289,0.07939860224723816,-0.02355794794857502,0.1352336853742599,XTrueNorthZVertical,-0.4462438683804,-0.03648605847643256,-0.3712205171081526,-0.8134682188630724,-0.2719492614269257,-0.7530991435050964,-0.5990703701972961,-21.55533027648926,-39.4039306640625,-6.097005844116211,1,192.168.1.8,10.83.46.32,1,0
2015-02-28 14:12:22.463,96,1425161539.501272,37.77930814871304,-122.4388067854434,56.56614,-1,-1,10,65,-9999,1425161542.430884,-16.90973663330078,-41.95133972167969,-2.056999206542969,162.9467926025391,149.1589508056641,25,156615.132396875,-0.1641387939453125,-0.734375,-0.4162445068359375,156615.1319364167,1.689427636500803,-0.2179139551440607,-1.026250457642579,156615.080161125,0.9758211250253123,-0.3469795105798598,0.9271629171041998,1.036813735961914,0.03830315172672272,-1.18538510799408,-0.05583162605762482,-0.02779239974915981,-0.1127514615654945,XTrueNorthZVertical,-0.4614292903906749,-0.07008558589915544,-0.3448287591379942,-0.8144103298968123,-0.2040713280439377,-0.7999206185340881,-0.5643420219421387,-17.52078247070312,-41.59769439697266,-4.138774871826172,1,192.168.1.8,10.83.46.32,1,0
2015-02-28 14:12:22.497,97,1425161539.501272,37.77930814871304,-122.4388067854434,56.56614,-1,-1,10,65,-9999,1425161542.482048,-14.19892120361328,-42.78404235839844,0.422637939453125,166.1042022705078,152.3163604736328,25,156615.18132275,0.053497314453125,-0.89324951171875,-0.459320068359375,156615.1319364167,1.689427636500803,-0.2179139551440607,-1.026250457642579,156615.1319364167,0.9284092344701462,-0.3224279177915873,1.006045546753814,1.675822257995605,-0.2028473019599915,-0.9920701384544373,0.04968711361289024,0.06611178070306778,0.1238365545868874,XTrueNorthZVertical,-0.4884354294701729,-0.08728129176823059,-0.3179745494320845,-0.8079016222360079,-0.1695906817913055,-0.8447220325469971,-0.5076256394386292,-15.4935131072998,-42.55871963500977,-1.783845901489258,1,192.168.1.8,10.83.46.32,1,0
2015-02-28 14:12:22.548,98,1425161539.501272,37.77930814871304,-122.4388067854434,56.56614,-1,-1,10,65,-9999,1425161542.534236,-12.28941345214844,-43.66770935058594,4.283561706542969,168.7227325439453,154.9348907470703,25,156615.230388875,-0.3303680419921875,-1.078170776367188,-0.64569091796875,156615.2354850417,2.280059242000833,0.1581510223860285,0.572940226378633,156615.18370975,0.8927387031995556,-0.2839879035440401,1.107251705183299,1.902216553688049,0.3590222597122192,-0.7008585929870605,0.1787745207548141,0.001223731902427971,-0.03010767325758934,XTrueNorthZVertical,-0.5214529925005755,-0.1161058943279168,-0.2963971012837816,-0.7916785927493777,-0.1252772063016891,-0.8944732546806335,-0.4292123913764954,-13.54926109313965,-43.22384643554688,1.609979629516602,1,192.168.1.8,10.83.46.32,1,0
2015-02-28 14:12:22.599,99,1425161539.501272,37.77930814871304,-122.4388067854434,56.56614,-1,-1,10,65,-9999,1425161542.585566,-12.56219482421875,-43.05592346191406,7.478805541992188,167.7339324951172,153.9460906982422,25,156615.279435,-0.6661224365234375,-1.713973999023438,-0.7873382568359375,156615.2354850417,2.280059242000833,0.1581510223860285,0.572940226378633,156615.2354850417,0.9417474149256598,-0.317102561254092,1.203086565773646,2.266454219818115,0.1732173562049866,0.6071198582649231,-0.2182770371437073,-0.145017683506012,-0.3041342198848724,XTrueNorthZVertical,-0.5570572457080571,-0.1375095522139632,-0.2897114536616518,-0.7660585223231153,-0.1120909973978996,-0.9331530928611755,-0.3415566980838776,-12.28977680206299,-43.17672729492188,6.261574745178223,1,192.168.1.8,10.83.46.32,1,0
2015-02-28 14:12:22.646,100,1425161539.501272,37.77930814871304,-122.4388067854434,56.56614,-1,-1,10,65,-9999,1425161542.638515,-14.26710510253906,-42.34217834472656,8.643745422363281,164.4953460693359,150.7075042724609,25,156615.328604875,0.72222900390625,-0.89324951171875,0.033477783203125,156615.2872599583,-0.9272716788848036,2.530488796158107,1.277196931367438,156615.2872599583,1.128626356657862,-0.4458572425081799,1.202570463361423,-0.9408765435218811,2.545554876327515,1.311376214027405,-0.5108959674835205,-0.7810065746307373,-0.4625667035579681,XTrueNorthZVertical,-0.563671586346606,-0.1410268103961955,-0.3244385906560751,-0.7464083469124857,-0.1552264541387558,-0.9329674243927002,-0.3247715532779694,-14.38270378112793,-42.11890029907227,8.579710006713867,1,192.168.1.8,10.83.46.32,1,0
2015-02-28 14:12:22.695,101,1425161539.501272,37.77930814871304,-122.4388067854434,56.56614,-1,-1,10,65,-9999,1425161542.638515,-14.26710510253906,-42.34217834472656,8.643745422363281,164.4953460693359,150.7075042724609,25,156615.3775315833,-0.524749755859375,-0.7409820556640625,-0.5241546630859375,156615.3390334167,-0.1419574050616927,-0.04477146634975811,0.3866955176533585,156615.3390334167,1.171971366040913,-0.3820361333243951,1.18383328549432,-0.1555621474981308,-0.02970543131232262,0.4208744764328003,0.8302961587905884,-0.02914078533649445,0.3514076471328735,XTrueNorthZVertical,-0.543545745129303,-0.1716746163472387,-0.3623304592465184,-0.737429674822366,-0.1406904458999634,-0.9260594248771667,-0.350171685218811,-16.77461814880371,-41.71778106689453,5.719621658325195,1,192.168.1.8,10.83.46.32,1,0
2015-02-28 14:12:22.744,102,1425161539.501272,37.77930814871304,-122.4388067854434,56.56614,-1,-1,10,65,-9999,1425161542.689199,-16.07431793212891,-41.59445190429688,7.978073120117188,159.9861297607422,146.1982879638672,25,156615.426600875,-0.4712677001953125,-0.87152099609375,-0.0691986083984375,156615.3908086667,0.1776482910426077,-2.053242605648746,0.7903332672134741,156615.3908086667,1.264585143138,-0.5580001528408582,1.164893396556033,0.1640436798334122,-2.038176774978638,0.8245118856430054,-0.4888683557510376,0.1346275955438614,-0.05769819393754005,XTrueNorthZVertical,-0.5624897900845296,-0.1269926101602274,-0.3522669912855375,-0.7371472836676151,-0.2090686559677124,-0.9187462329864502,-0.3349562287330627,-18.01139450073242,-41.07527542114258,6.548827171325684,1,192.168.1.8,10.83.46.32,1,0
2015-02-28 14:12:22.793,103,1425161539.501272,37.77930814871304,-122.4388067854434,56.56614,-1,-1,10,65,-9999,1425161542.742549,-17.30186462402344,-41.01664733886719,7.811653137207031,159.4891815185547,145.7013397216797,25,156615.4756308333,-0.1282958984375,-0.9344482421875,-0.395782470703125,156615.4425838334,-0.1746847253815675,1.303848515976406,0.5679936709699198,156615.4425838334,1.332744639830689,-0.6192853995288851,1.141785839098991,-0.1882892102003098,1.318914294242859,0.6021719574928284,-0.0836823582649231,0.0473782904446125,0.1934589743614197,XTrueNorthZVertical,-0.5630655461681224,-0.1166013161466745,-0.3659401069370385,-0.7317439442036536,-0.2414519190788269,-0.9093778133392334,-0.3387226462364197,-19.17124557495117,-40.42178344726562,7.281360626220703,1,192.168.1.8,10.83.46.32,1,0
2015-02-28 14:12:22.842,104,1425161539.501272,37.77930814871304,-122.4388067854434,56.56614,-1,-1,10,65,-9999,1425161542.793756,-18.83628845214844,-40.37089538574219,8.144500732421875,157.5264129638672,143.7385711669922,25,156615.524789625,-0.2998199462890625,-0.91046142578125,-0.24993896484375,156615.494357125,0.0262760788952668,-0.2245356388784337,0.5548419162426724,156615.494357125,1.394335253993299,-0.6341706936749609,1.12542951811898,0.01267172489315271,-0.2094700485467911,0.5890198945999146,0.09873723983764648,-0.05679106712341309,0.01847557723522186,XTrueNorthZVertical,-0.5579361596271601,-0.1232612269676581,-0.388452628642601,-0.7229235816876709,-0.255246639251709,-0.9024527072906494,-0.3470278382301331,-20.65177536010742,-39.88798522949219,6.076862335205078,1,192.168.1.8,10.83.46.32,1,0
2015-02-28 14:12:22.893,105,1425161539.501272,37.77930814871304,-122.4388067854434,56.56614,-1,-1,10,65,-9999,1425161542.846036,-20.26841735839844,-39.48722839355469,8.4107666015625,154.8788146972656,141.0909729003906,25,156615.5737178334,-0.385406494140625,-0.89178466796875,-0.1822357177734375,156615.5461324167,0.1160325971142074,-0.6420591103622225,0.5480963955176108,156615.5461324167,1.453961485273614,-0.7274112894901353,1.109655959526525,0.1024283915758133,-0.6269936561584473,0.5822740197181702,-0.08046534657478333,-0.05461914464831352,0.2237197607755661,XTrueNorthZVertical,-0.5688302621708091,-0.1012846945941224,-0.3879397461327675,-0.7181060748960851,-0.2958774268627167,-0.8955456614494324,-0.3323470950126648,-21.90608596801758,-39.075927734375,6.904396057128906,1,192.168.1.8,10.83.46.32,1,0
2015-02-28 14:12:22.941,106,1425161539.501272,37.77930814871304,-122.4388067854434,56.56614,-1,-1,10,65,-9999,1425161542.89796,-21.68349456787109,-38.85845947265625,8.76025390625,153.5068969726562,139.7190551757812,25,156615.622879125,-0.356353759765625,-0.9598541259765625,-0.2633209228515625,156615.5979075417,-0.03325808832512754,-0.1399776111073278,0.4488411806386846,156615.5979075417,1.496988565066854,-0.7769009957084415,1.094806610815815,-0.0468621551990509,-0.1249123215675354,0.4830184280872345,0.02562075108289719,0.01658623293042183,0.130461722612381,XTrueNorthZVertical,-0.5730376217242316,-0.09084321696270108,-0.3933614037446456,-0.7131915857727855,-0.3212445378303528,-0.8888396620750427,-0.326750785112381,-22.69367408752441,-38.53189468383789,7.400398254394531,1,192.168.1.8,10.83.46.32,1,0
2015-02-28 14:12:22.995,107,1425161539.501272,37.77930814871304,-122.4388067854434,56.56614,-1,-1,10,65,-9999,1425161542.951162,-21.93923950195312,-38.36561584472656,9.109733581542969,153.183349609375,139.3955078125,25,156615.6718124167,-0.4096527099609375,-0.884185791015625,-0.174713134765625,156615.649680875,-0.007359379356324967,-0.5634495192019175,0.3922087937420405,156615.649680875,1.528366876814151,-0.8205598371614696,1.079533598348465,-0.02096332423388958,-0.5483843684196472,0.4263857305049896,0.06828095018863678,-0.03589517250657082,0.1410499215126038,XTrueNorthZVertical,-0.5769982636819807,-0.07908322933843051,-0.3963182779051186,-0.7097539764568146,-0.3450906574726105,-0.8817378878593445,-0.3216376900672913,-23.39293479919434,-38.07558059692383,7.582638740539551,1,192.168.1.8,10.83.46.32,1,0
2015-02-28 14:12:23.039,108,1425161539.501272,37.77930814871304,-122.4388067854434,56.56614,-1,-1,10,65,-9999,1425161543.026747,-22.57005310058594,-37.66893005371094,9.725479125976562,152.8999633789062,139.1121215820312,25,156615.720981375,-0.41583251953125,-0.8780059814453125,-0.2447509765625,156615.7014561667,-0.06017305956590435,-0.3734811786404943,0.2835350433519401,156615.7014561667,1.580238818888122,-0.9006190149841717,1.076089058744487,-0.07370532304048538,-0.3584045469760895,0.3177083730697632,-0.0240780021995306,-0.05083099007606506,0.1523006558418274,XTrueNorthZVertical,-0.5902211200769136,-0.06474573583854154,-0.3922760781967521,-0.7025429065423761,-0.3720859289169312,-0.8801077008247375,-0.2948940396308899,-23.99981307983398,-37.5267219543457,8.380317687988281,1,192.168.1.8,10.83.46.32,1,0
2015-02-28 14:12:23.095,109,1425161539.501272,37.77930814871304,-122.4388067854434,56.56614,-1,-1,10,65,-9999,1425161543.078244,-23.71234130859375,-37.27806091308594,9.975112915039062,151.7248840332031,137.9370422363281,25,156615.7699095,-0.4125213623046875,-0.8424530029296875,-0.1859283447265625,156615.753231125,-0.2149879400543906,-0.378173668481214,0.1249137067174036,156615.753231125,1.588770253760256,-0.922999466138172,1.067500745717146,-0.2284862250089645,-0.3630900681018829,0.1590697169303894,0.04387664422392845,-0.02611705474555492,0.08813255280256271,XTrueNorthZVertical,-0.5927057354325497,-0.05637328530882329,-0.3911958927122274,-0.7017747326361136,-0.3846054077148438,-0.8759978413581848,-0.2910439372062683,-24.34749984741211,-37.11563873291016,9.170834541320801,1,192.168.1.8,10.83.46.32,1,0
2015-02-28 14:12:23.136,110,1425161539.501272,37.77930814871304,-122.4388067854434,56.56614,-1,-1,10,65,-9999,1425161543.13088,-24.18971252441406,-36.76826477050781,9.875267028808594,151.3249206542969,137.5370788574219,25,156615.8189724167,-0.3621978759765625,-0.8828582763671875,-0.230804443359375,156615.8050048334,-0.1043035030412804,-0.1928139281861729,0.2227856757261426,156615.8050048334,1.605209069479374,-0.9599620407926651,1.052309260446244,-0.1177680641412735,-0.1777270287275314,0.2569664716720581,-0.01874462515115738,-0.06983033567667007,0.08158082515001297,XTrueNorthZVertical,-0.5966927702052525,-0.04291081145121775,-0.3904906652912034,-0.6997381499663772,-0.4059532582759857,-0.8685699105262756,-0.2842327952384949,-24.52640914916992,-36.79321670532227,9.959414482116699,1,192.168.1.8,10.83.46.32,1,0
2015-02-28 14:12:23.194,111,1425161539.501272,37.77930814871304,-122.4388067854434,56.56614,-1,-1,10,65,-9999,1425161543.182534,-24.92282867431641,-36.81924438476562,9.192939758300781,150.5686950683594,136.7808532714844,25,156615.8680053334,-0.378387451171875,-0.889923095703125,-0.2313690185546875,156615.8567797917,-0.3080481096055745,-0.2077790292996551,0.2846892573683805,156615.8050048334,1.605209069479374,-0.9599620407926651,1.052309260446244,-0.1177680641412735,-0.1777270287275314,0.2569664716720581,-0.01874462515115738,-0.06983033567667007,0.08158082515001297,XTrueNorthZVertical,-0.5966927702052525,-0.04291081145121775,-0.3904906652912034,-0.6997381499663772,-0.4059532582759857,-0.8685699105262756,-0.2842327952384949,-24.52640914916992,-36.79321670532227,9.959414482116699,1,192.168.1.8,10.83.46.32,1,0
2015-02-28 14:12:23.235,112,1425161539.501272,37.77930814871304,-122.4388067854434,56.56614,-1,-1,10,65,-9999,1425161543.182534,-24.92282867431641,-36.81924438476562,9.192939758300781,150.5686950683594,136.7808532714844,25,156615.91717325,-0.3826751708984375,-0.9911651611328125,-0.3353118896484375,156615.908555125,-0.3620631417828886,-0.008978847615202151,0.3103480155229669,156615.908555125,1.598401864692047,-0.9672132131989405,1.015327344759002,-0.3754969835281372,0.006113107316195965,0.3444910049438477,0.01134329196065664,-0.1038074716925621,-0.04966656118631363,XTrueNorthZVertical,-0.5913608698098413,-0.02517380819183593,-0.3969510998302821,-0.7014901733701997,-0.4341643452644348,-0.8496532440185547,-0.2993172109127045,-25.37641525268555,-36.2862548828125,9.686108589172363,1,192.168.1.8,10.83.46.32,1,0
2015-02-28 14:12:23.296,113,1425161539.501272,37.77930814871304,-122.4388067854434,56.56614,-1,-1,10,65,-9999,1425161543.289461,-26.33790588378906,-36.76826477050781,9.142997741699219,149.8520812988281,136.0642395019531,25,156615.966106125,-0.3160247802734375,-0.8554840087890625,-0.3421783447265625,156615.908555125,-0.3620631417828886,-0.008978847615202151,0.3103480155229669,156615.908555125,1.598401864692047,-0.9672132131989405,1.015327344759002,-0.3754969835281372,0.006113107316195965,0.3444910049438477,0.01134329196065664,-0.1038074716925621,-0.04966656118631363,XTrueNorthZVertical,-0.5913608698098413,-0.02517380819183593,-0.3969510998302821,-0.7014901733701997,-0.4341643452644348,-0.8496532440185547,-0.2993172109127045,-25.37641525268555,-36.2862548828125,9.686108589172363,1,192.168.1.8,10.83.46.32,1,0
2015-02-28 14:12:23.333,114,1425161539.501272,37.77930814871304,-122.4388067854434,56.56614,-1,-1,10,65,-9999,1425161543.289461,-26.33790588378906,-36.76826477050781,9.142997741699219,149.8520812988281,136.0642395019531,25,156616.015276125,-0.387939453125,-0.8288421630859375,-0.3600006103515625,156616.01210375,-0.9877078587664077,-0.4954941702985837,0.6160996813205661,156615.9603285,1.575345689113451,-0.9528267158429325,1.002472623386491,-0.4146341681480408,-0.4139271378517151,0.4150417745113373,0.151005819439888,-0.02632099017500877,-0.008996564894914627,XTrueNorthZVertical,-0.5862815159300488,-0.01888430661141654,-0.3968605031308111,-0.7059880636738018,-0.4386797547340393,-0.8428043723106384,-0.3118347227573395,-25.84604263305664,-36.10065841674805,9.121402740478516,1,192.168.1.8,10.83.46.32,1,0
2015-02-28 14:12:23.396,115,1425161539.501272,37.77930814871304,-122.4388067854434,56.56614,-1,-1,10,65,-9999,1425161543.363588,-27.22447204589844,-35.85060119628906,7.578666687011719,149.3187408447266,135.5308990478516,25,156616.0642074583,-0.52593994140625,-1.121795654296875,-0.539886474609375,156616.06387875,-1.386950060947348,1.313488892806384,0.5393457808078284,156616.01210375,1.546626183778935,-0.95353880791554,0.9608950502938171,-1.001141667366028,-0.4804013967514038,0.6501808166503906,0.09738443046808243,0.029848612844944,-0.0398847758769989,XTrueNorthZVertical,-0.5781142272924538,0.004385902615889407,-0.3985755224497982,-0.7119707121200408,-0.4670896232128143,-0.8197045922279358,-0.3315294086933136,-26.13442993164062,-36.05231094360352,8.467453002929688,1,192.168.1.8,10.83.46.32,1,0
2015-02-28 14:12:23.431,116,1425161539.501272,37.77930814871304,-122.4388067854434,56.56614,-1,-1,10,65,-9999,1425161543.415875,-28.16217803955078,-35.08587646484375,4.633049011230469,148.3333587646484,134.5455169677734,25,156616.113268875,-0.280364990234375,-0.6786041259765625,-0.5773162841796875,156616.1156524583,-1.607995360901123,1.678979522912204,0.2234900818344686,156616.06387875,1.500304927530494,-0.899030665799179,0.8963213940582702,-1.40033221244812,1.328524112701416,0.5734952092170715,-0.01745487563312054,-0.3342604637145996,-0.1118725016713142,XTrueNorthZVertical,-0.5524956512143238,0.02043964726322488,-0.4156396098341087,-0.7222011692724674,-0.4888012409210205,-0.7810349464416504,-0.3886615633964539,-27.24616622924805,-35.58029556274414,6.794450759887695,1,192.168.1.8,10.83.46.32,1,0
2015-02-28 14:12:23.496,117,1425161539.501272,37.77930814871304,-122.4388067854434,56.56614,-1,-1,10,65,-9999,1425161543.467587,-28.75888824462891,-35.13685607910156,1.254730224609375,147.3535766601562,133.5657348632812,25,156616.1623062917,0.05047607421875,-0.635284423828125,-0.593780517578125,156616.1156524583,-1.607995360901123,1.678979522912204,0.2234900818344686,156616.1156524583,1.433575621442595,-0.7603305911992307,0.8304900931571891,-1.621377468109131,1.694014549255371,0.257639080286026,0.1844838112592697,0.05965790897607803,-0.08855785429477692,XTrueNorthZVertical,-0.505493036925583,0.009878064407895782,-0.4453574278200374,-0.7389424963428338,-0.4648487865924835,-0.7382620573043823,-0.4887584149837494,-28.35391807556152,-35.26978302001953,2.563800811767578,1,192.168.1.8,10.83.46.32,1,0
2015-02-28 14:12:23.529,118,1425161539.501272,37.77930814871304,-122.4388067854434,56.56614,-1,-1,10,65,-9999,1425161543.519795,-27.97463989257812,-35.98654174804688,-1.9072265625,148.6627349853516,134.8748931884766,25,156616.21136025,-0.4095001220703125,-0.6815948486328125,-0.6043853759765625,156616.2192027917,-0.6293126887528853,-1.807149743010557,-0.8779965408156124,156616.1674274583,1.336240312706379,-0.6452762851942359,0.7884951810501003,-1.2613844871521,0.1302086710929871,-1.153032898902893,0.4744245707988739,0.07400888204574585,-0.03060141764581203,XTrueNorthZVertical,-0.4673258988712745,0.004117535020070647,-0.446868675565788,-0.7628223744097619,-0.4239484965801239,-0.7092933058738708,-0.563179075717926,-28.1066722869873,-35.43413543701172,-2.985376358032227,1,192.168.1.8,10.83.46.32,1,0
2015-02-28 14:12:23.597,119,1425161539.501272,37.77930814871304,-122.4388067854434,56.56614,-1,-1,10,65,-9999,1425161543.573552,-26.45726776123047,-37.02314758300781,-3.521492004394531,152.8212738037109,139.0334320068359,25,156616.2603938333,-0.2020721435546875,-0.487396240234375,-0.4156646728515625,156616.2192027917,-0.6293126887528853,-1.807149743010557,-0.8779965408156124,156616.2192027917,1.240265043497646,-0.6358123016934335,0.78665350089464,-0.6426945328712463,-1.792114973068237,-0.8438481092453003,0.009874566458165646,0.0263990331441164,-0.03616924956440926,XTrueNorthZVertical,-0.4640530284388847,0.02338211582191637,-0.4123769103200117,-0.7836155851205781,-0.4193746745586395,-0.7079938650131226,-0.5682161450386047,-26.36569023132324,-36.67279815673828,-3.798923492431641,1,192.168.1.8,10.83.46.32,1,0
2015-02-28 14:12:23.627,120,1425161539.501272,37.77930814871304,-122.4388067854434,56.56614,-1,-1,10,65,-9999,1425161543.573552,-26.45726776123047,-37.02314758300781,-3.521492004394531,152.8212738037109,139.0334320068359,25,156616.3095556667,-0.45025634765625,-0.6296844482421875,-0.568328857421875,156616.270976125,-0.1774173949760978,-0.2825392874203595,-1.763756995157133,156616.270976125,1.133350997328671,-0.6150524830554605,0.7981353757773116,-0.1907990723848343,-0.2675046324729919,-1.72960901260376,0.156678095459938,0.1940220594406128,0.1379014849662781,XTrueNorthZVertical,-0.4621749610078869,0.03651481393544599,-0.3722088636672926,-0.8040656525064824,-0.4027718603610992,-0.7160557508468628,-0.5701219439506531,-24.8610954284668,-37.75642395019531,-3.29454231262207,1,192.168.1.8,10.83.46.32,1,0
2015-02-28 14:12:23.695,121,1425161539.501272,37.77930814871304,-122.4388067854434,56.56614,-1,-1,10,65,-9999,1425161543.649325,-22.1097412109375,-39.14736938476562,-3.005592346191406,161.1297149658203,147.3418731689453,25,156616.358473875,-0.391510009765625,-0.6048736572265625,-0.536773681640625,156616.3227514584,-0.01101696479743979,-0.5409993375286586,-1.36488071130997,156616.3227514584,1.044116887069021,-0.5637965501383913,0.8395833936606809,-0.02439850382506847,-0.5259648561477661,-1.330733060836792,-0.0153809217736125,0.1831925064325333,0.0352943167090416,XTrueNorthZVertical,-0.4660094978129601,0.02496948881442405,-0.3391192966843974,-0.8168291211418047,-0.3568572402000427,-0.7443649768829346,-0.5644233226776123,-21.27580070495605,-39.89745712280273,-3.163658142089844,1,192.168.1.8,10.83.46.32,1,0
2015-02-28 14:12:23.726,122,1425161539.501272,37.77930814871304,-122.4388067854434,56.56614,-1,-1,10,65,-9999,1425161543.701414,-19.53531646728516,-40.4898681640625,-2.090286254882812,165.8284149169922,152.0405731201172,25,156616.407656875,-0.4581146240234375,-0.693878173828125,-0.5312042236328125,156616.3745264584,0.386981541154433,-1.096371489144366,-0.7803354941652076,156616.3745264584,0.9829896473437647,-0.5596064209110155,0.8763273451662423,0.3736001253128052,-1.081337213516235,-0.7461881637573242,-0.1287873238325119,0.1009589582681656,-0.02581828646361828,XTrueNorthZVertical,-0.4775305911680077,0.02802753315484045,-0.3074392125472176,-0.8225935572473739,-0.3397337794303894,-0.7683936357498169,-0.5423579812049866,-19.16016006469727,-41.00965881347656,-2.360462188720703,1,192.168.1.8,10.83.46.32,1,0
2015-02-28 14:12:23.795,123,1425161539.501272,37.77930814871304,-122.4388067854434,56.56614,-1,-1,10,65,-9999,1425161543.75431,-17.69400787353516,-41.71342468261719,-0.6590805053710938,170.1089324951172,156.3210906982422,25,156616.4565875417,-1.314193725585938,-1.122604370117188,-0.8831634521484375,156616.426300125,0.6715373741522005,-0.6263286167514515,-0.6948554800247163,156616.426300125,0.9597551320609695,-0.5763795548309135,0.9161165522523405,0.6581559181213379,-0.6112945675849915,-0.6607066988945007,-0.09837305545806885,0.06764175742864609,-0.03544341772794724,XTrueNorthZVertical,-0.4937719678739538,0.03039057203855446,-0.2855144453701102,-0.8208210501142167,-0.3318485021591187,-0.7932429313659668,-0.5105313062667847,-17.92576217651367,-41.62133026123047,-0.8985958099365234,1,192.168.1.8,10.83.46.32,1,0
2015-02-28 14:12:23.824,124,1425161539.501272,37.77930814871304,-122.4388067854434,56.56614,-1,-1,10,65,-9999,1425161543.805503,-17.50646209716797,-41.45849609375,0.6889266967773438,171.5808715820312,157.7930297851562,25,156616.505842625,-0.2806549072265625,-0.9278411865234375,-0.319854736328125,156616.478075125,0.4322592744274152,0.9140600030330295,1.064805307059766,156616.478075125,1.026445487438963,-0.6633797635491739,0.9206063929297518,0.4188779890537262,0.9290938377380371,1.098953604698181,-0.7302552461624146,-0.1702787131071091,-0.2739758491516113,XTrueNorthZVertical,-0.5091404639058352,0.04794295382565359,-0.289887987068965,-0.8089761764711493,-0.3727568089962006,-0.7959688305854797,-0.4769549369812012,-17.21438217163086,-41.60989379882812,1.593545913696289,2,192.168.1.8,10.83.46.32,1,0
2015-02-28 14:12:23.894,125,1425161539.501272,37.77930814871304,-122.4388067854434,56.56614,-1,-1,10,65,-9999,1425161543.856955,-18.13728332519531,-41.47549438476562,1.271392822265625,168.4256744384766,154.6378326416016,25,156616.554672375,0.123443603515625,-0.8726806640625,-0.59210205078125,156616.5298504167,0.7895441725824837,2.197405108093024,-0.3076483691259536,156616.5298504167,1.069261491682706,-0.5642468524313075,0.9558666875665666,0.7761653065681458,2.212439060211182,-0.2735010981559753,0.3851445615291595,-0.07565727084875107,0.3460581302642822,XTrueNorthZVertical,-0.5060715260104452,-0.01238234680664926,-0.3243650513157065,-0.7990779933689409,-0.3085149228572845,-0.8168140649795532,-0.4874765872955322,-18.06603240966797,-41.25985717773438,1.224851608276367,2,192.168.1.8,10.83.46.32,1,0
2015-02-28 14:12:23.922,126,1425161539.501272,37.77930814871304,-122.4388067854434,56.56614,-1,-1,10,65,-9999,1425161543.909248,-18.78514099121094,-41.23760986328125,1.704078674316406,164.5482635498047,150.7604217529297,25,156616.6038480417,-0.62030029296875,-0.788055419921875,-0.329315185546875,156616.5816238333,0.298420515948829,-1.953360748965324,0.4561049525118757,156616.5816238333,1.1009422187447,-0.5958873324430786,0.967416865256817,0.2850417792797089,-1.938326716423035,0.4902518689632416,0.1573936939239502,0.08755235373973846,-0.2919487953186035,XTrueNorthZVertical,-0.514841000247779,-0.01106466849238387,-0.3263209466920644,-0.7926733219161409,-0.3184654712677002,-0.8234227299690247,-0.469632625579834,-18.18728828430176,-41.18769073486328,1.747638702392578,2,192.168.1.8,10.83.46.32,1,0
2015-02-28 14:12:23.996,127,1425161539.501272,37.77930814871304,-122.4388067854434,56.56614,-1,-1,10,65,-9999,1425161543.960486,-18.78513336181641,-41.06767272949219,2.9688720703125,166.8631286621094,153.0752868652344,25,156616.6527674583,-0.4352874755859375,-0.8036651611328125,-0.3382720947265625,156616.633399125,0.04538612392934839,0.002985137265869818,-0.06131768620242041,156616.633399125,1.132063682940986,-0.699109503202376,0.9752112689940176,0.03200754150748253,0.01801889017224312,-0.02717111632227898,-0.2878452241420746,0.06474364548921585,0.331523060798645,XTrueNorthZVertical,-0.5337888067763799,0.01931433866725249,-0.3097041458266874,-0.7866256073205427,-0.3610195219516754,-0.8278204202651978,-0.42939293384552,-18.4345588684082,-40.91593933105469,4.038631439208984,2,192.168.1.8,10.83.46.32,1,0
2015-02-28 14:12:24.020,128,1425161539.501272,37.77930814871304,-122.4388067854434,56.56614,-1,-1,10,65,-9999,1425161544.012754,-18.95562744140625,-40.38790893554688,3.734397888183594,166.1961975097656,152.4083557128906,25,156616.7019572917,-0.27752685546875,-0.823028564453125,-0.3712615966796875,156616.6851741667,0.6024770797125928,0.9017857598849632,0.1217147176160004,156616.6851741667,1.159803525101105,-0.6723996781954938,0.9848435265864055,0.5890986323356628,0.9168193340301514,0.1558609455823898,0.06546393781900406,0.00507583050057292,-0.036935705691576,XTrueNorthZVertical,-0.5326224166931235,-0.001362169447738636,-0.3253420770644333,-0.7813220056892857,-0.344440370798111,-0.8331855535507202,-0.4326229989528656,-18.70012283325195,-40.81406402587891,3.843816757202148,2,192.168.1.8,10.83.46.32,1,0
2015-02-28 14:12:24.095,129,1425161539.501272,37.77930814871304,-122.4388067854434,56.56614,-1,-1,10,65,-9999,1425161544.064782,-19.38185119628906,-40.33694458007812,4.050582885742188,164.0545196533203,150.2666778564453,25,156616.750859375,-0.630218505859375,-0.7745513916015625,-0.3118438720703125,156616.736947875,0.5597261536818777,0.05511917876526098,0.0428622461642803,156616.6851741667,1.159803525101105,-0.6723996781954938,0.9848435265864055,0.5890986323356628,0.9168193340301514,0.1558609455823898,0.06546393781900406,0.00507583050057292,-0.036935705691576,XTrueNorthZVertical,-0.5326224166931235,-0.001362169447738636,-0.3253420770644333,-0.7813220056892857,-0.344440370798111,-0.8331855535507202,-0.4326229989528656,-18.70012283325195,-40.81406402587891,3.843816757202148,2,192.168.1.8,10.83.46.32,1,0
2015-02-28 14:12:24.118,130,1425161539.501272,37.77930814871304,-122.4388067854434,56.56614,-1,-1,10,65,-9999,1425161544.064782,-19.38185119628906,-40.33694458007812,4.050582885742188,164.0545196533203,150.2666778564453,25,156616.8000437084,-0.1970672607421875,-0.8918304443359375,-0.4717559814453125,156616.7887229167,0.3428718703355596,1.352690091420132,-0.1326206285959839,156616.7887229167,1.232631025096572,-0.6778781477123645,1.025554811374159,0.3294936716556549,1.36772346496582,-0.09847505390644073,-0.09572358429431915,-0.05472694337368011,0.2485333979129791,XTrueNorthZVertical,-0.5450297530399587,-0.03102996376971179,-0.3419267804186417,-0.764895956607662,-0.3252511620521545,-0.8550020456314087,-0.4039594233036041,-19.27642440795898,-40.39292144775391,5.204668998718262,2,192.168.1.8,10.83.46.32,1,0
2015-02-28 14:12:24.165,131,1425161539.501272,37.77930814871304,-122.4388067854434,56.56614,-1,-1,10,65,-9999,1425161544.116799,-19.62053680419922,-40.50686645507812,4.4832763671875,162.6204376220703,148.8325958251953,25,156616.84895875,-0.3624267578125,-0.8708343505859375,-0.3066558837890625,156616.8404982083,0.2671049373228053,-0.1146613354689256,-0.1773968886357042,156616.7887229167,1.232631025096572,-0.6778781477123645,1.025554811374159,0.3294936716556549,1.36772346496582,-0.09847505390644073,-0.09572358429431915,-0.05472694337368011,0.2485333979129791,XTrueNorthZVertical,-0.5450297530399587,-0.03102996376971179,-0.3419267804186417,-0.764895956607662,-0.3252511620521545,-0.8550020456314087,-0.4039594233036041,-19.27642440795898,-40.39292144775391,5.204668998718262,2,192.168.1.8,10.83.46.32,1,0
2015-02-28 14:12:24.216,132,1425161539.501272,37.77930814871304,-122.4388067854434,56.56614,-1,-1,10,65,-9999,1425161544.169708,-19.31365203857422,-40.43888854980469,4.915969848632812,161.8236999511719,148.0358581542969,25,156616.89811525,-0.462158203125,-0.8406829833984375,-0.4152069091796875,156616.8922717917,0.2396171201315524,0.3513737457995286,-0.2857462660050329,156616.8404982083,1.243262751750803,-0.6557336045615813,1.042494947706138,0.2537268698215485,-0.09962818771600723,-0.1432516872882843,-0.04164873063564301,-0.02044496312737465,0.03662420436739922,XTrueNorthZVertical,-0.5458745330718991,-0.04752896141629362,-0.3477637255009033,-0.7608037993783372,-0.3073503077030182,-0.8636645078659058,-0.3995239734649658,-19.29689025878906,-40.41279602050781,4.96922779083252,2,192.168.1.8,10.83.46.32,1,0
2015-02-28 14:12:24.300,133,1425161539.501272,37.77930814871304,-122.4388067854434,56.56614,-1,-1,10,65,-9999,1425161544.272083,-18.75103759765625,-40.52384948730469,5.265449523925781,161.8128356933594,148.0249938964844,25,156616.94703975,-0.16351318359375,-0.821380615234375,-0.3778533935546875,156616.9440469583,0.3042602955871548,0.8278098027052871,-0.2563004927803538,156616.8922717917,1.23450739165112,-0.6473399391703556,1.054749286870086,0.2262392044067383,0.3664067387580872,-0.2516014277935028,-0.1518211215734482,0.05268364772200584,-0.02870027907192707,XTrueNorthZVertical,-0.5481631318961648,-0.05204390030235469,-0.3436597463032904,-0.760727697664822,-0.2975807189941406,-0.8697765469551086,-0.3936172127723694,-18.82228851318359,-40.57905960083008,5.414701461791992,2,192.168.1.8,10.83.46.32,1,0
2015-02-28 14:12:24.315,134,1425161539.501272,37.77930814871304,-122.4388067854434,56.56614,-1,-1,10,65,-9999,1425161544.272083,-18.75103759765625,-40.52384948730469,5.265449523925781,161.8128356933594,148.0249938964844,25,156616.9961144167,-0.1311492919921875,-0.9722747802734375,-0.38995361328125,156616.995822,0.1104655251715057,0.3734138006649154,-0.3851506179050035,156616.9440469583,1.233034114856565,-0.6136506561970445,1.077502978483478,0.2908824980258942,0.842842698097229,-0.2221559286117554,0.04715968295931816,0.05048639327287674,0.0735204890370369,XTrueNorthZVertical,-0.5489558561979458,-0.07127606149185184,-0.3466831715299142,-0.7572172789462119,-0.2726845741271973,-0.8807781338691711,-0.3871343731880188,-18.44209671020508,-40.73063278198242,5.582315444946289,2,192.168.1.8,10.83.46.32,1,0
2015-02-28 14:12:24.362,135,1425161539.501272,37.77930814871304,-122.4388067854434,56.56614,-1,-1,10,65,-9999,1425161544.324203,-18.73398590087891,-40.67680358886719,5.315376281738281,160.8038940429688,147.0160522460938,25,156617.0451064583,-0.26043701171875,-0.8450775146484375,-0.3483428955078125,156616.995822,0.1104655251715057,0.3734138006649154,-0.3851506179050035,156616.995822,1.228323896918881,-0.5683995490611218,1.092770320598656,0.09708786755800247,0.3884465098381042,-0.3510063886642456,0.07355310022830963,-0.09656181186437607,-0.04921057820320129,XTrueNorthZVertical,-0.5456702868495807,-0.09163390914567313,-0.3535554147088799,-0.7542186496147957,-0.2476253658533096,-0.8879047632217407,-0.3876943290233612,-18.33423614501953,-40.81246566772461,5.334394454956055,2,192.168.1.8,10.83.46.32,1,0
2015-02-28 14:12:24.412,136,1425161539.501272,37.77930814871304,-122.4388067854434,56.56614,-1,-1,10,65,-9999,1425161544.376856,-18.12021636962891,-40.74476623535156,4.949264526367188,160.4981536865234,146.7103118896484,25,156617.0942515417,-0.1215667724609375,-0.945892333984375,-0.2982940673828125,156617.0993706667,0.003855191993998705,0.5531859626768612,-0.1974536874373089,156617.0475955,1.2037206637401,-0.5415490305971536,1.106878490400663,0.1906613707542419,0.159564420580864,-0.2561021149158478,-0.02978990040719509,0.04922879487276077,0.03508660569787025,XTrueNorthZVertical,-0.5463038303465244,-0.0991835367826138,-0.3482227308238822,-0.7552851902891526,-0.2306471168994904,-0.8943063020706177,-0.3834294974803925,-17.57099151611328,-41.13722229003906,5.408018112182617,2,192.168.1.8,10.83.46.32,1,0
2015-02-28 14:12:24.462,137,1425161539.501272,37.77930814871304,-122.4388067854434,56.56614,-1,-1,10,65,-9999,1425161544.427726,-17.47234344482422,-41.11860656738281,4.616424560546875,160.820068359375,147.0322265625,25,156617.1433134583,0.04095458984375,-0.989715576171875,-0.290557861328125,156617.0993706667,0.003855191993998705,0.5531859626768612,-0.1974536874373089,156617.0993706667,1.188687508360558,-0.5089141130770171,1.114596594381924,-0.009475834667682648,0.5681648254394531,-0.1632445603609085,0.09307707101106644,-0.04815918952226639,0.08641786128282547,XTrueNorthZVertical,-0.5437144930110533,-0.1096293087757941,-0.3496294536648836,-0.755059764409166,-0.2146438360214233,-0.8977331519126892,-0.3847119212150574,-17.26699447631836,-41.27462768554688,5.339788436889648,2,192.168.1.8,10.83.46.32,1,0
2015-02-28 14:12:24.510,138,1425161539.501272,37.77930814871304,-122.4388067854434,56.56614,-1,-1,10,65,-9999,1425161544.479139,-17.08022308349609,-41.33953857421875,4.666343688964844,160.8045196533203,147.0166778564453,25,156617.1922170834,0.0067901611328125,-0.927581787109375,-0.3108367919921875,156617.1511460417,-0.09060872976776592,-0.04625644497358629,-0.01457175222047756,156617.1511460417,1.179945676679179,-0.4817907998993524,1.1164486330254,-0.1039396375417709,-0.03127769380807877,0.01963706687092781,0.2443153411149979,-0.09116807579994202,0.09835965931415558,XTrueNorthZVertical,-0.5400107832606443,-0.1180236933164268,-0.3532532855276576,-0.7547654708547858,-0.2033607512712479,-0.8985475301742554,-0.3889175355434418,-17.1469554901123,-41.37131118774414,4.96529483795166,2,192.168.1.8,10.83.46.32,1,0
2015-02-28 14:12:24.549,139,1425161539.501272,37.77930814871304,-122.4388067854434,56.56614,-1,-1,10,65,-9999,1425161544.531336,-16.85858154296875,-41.59443664550781,4.483268737792969,160.6940460205078,146.9062042236328,25,156617.2412435834,-0.0794830322265625,-1.005294799804688,-0.277496337890625,156617.202919625,-0.383518632789003,-0.1415659203814511,0.04218100955743803,156617.202919625,1.169706280280908,-0.4825652262633381,1.10395476881606,-0.3968493938446045,-0.1265873312950134,0.07638944685459137,0.2019584774971008,-0.04680982232093811,-0.003746360074728727,XTrueNorthZVertical,-0.5368791871805726,-0.1114625339873302,-0.3519978169201687,-0.7585739362286595,-0.2088554501533508,-0.892994225025177,-0.3986736834049225,-17.16178131103516,-41.40797805786133,4.594577789306641,2,192.168.1.8,10.83.46.32,1,0
2015-02-28 14:12:24.609,140,1425161539.501272,37.77930814871304,-122.4388067854434,56.56614,-1,-1,10,65,-9999,1425161544.58306,-17.08022308349609,-41.237548828125,3.667831420898438,159.6335144042969,145.8456726074219,25,156617.2904456667,-0.0438079833984375,-0.938079833984375,-0.455352783203125,156617.254694625,-0.3395775400671316,0.112289524202101,0.1359967179098774,156617.254694625,1.165390696509711,-0.4776012144187884,1.088084820664473,-0.3529081642627716,0.1272679567337036,0.1702048182487488,0.1968363374471664,-0.03598286584019661,0.1312500238418579,XTrueNorthZVertical,-0.5312904528445714,-0.1077503878309349,-0.3552402031337412,-0.7615279014379893,-0.2133616060018539,-0.8857395648956299,-0.4122406244277954,-17.33890914916992,-41.39107894897461,4.049491882324219,2,192.168.1.8,10.83.46.32,1,0
2015-02-28 14:12:24.648,141,1425161539.501272,37.77930814871304,-122.4388067854434,56.56614,-1,-1,10,65,-9999,1425161544.635405,-17.59169769287109,-41.06761169433594,3.235137939453125,158.3530883789062,144.5652465820312,25,156617.3394466667,0.0324554443359375,-0.89581298828125,-0.3777923583984375,156617.3064699583,-0.4092247952109929,0.05357933902297717,0.1314879861843732,156617.3064699583,1.169992309982887,-0.476467741016646,1.066526684546196,-0.4225552976131439,0.06855764240026474,0.1656957715749741,0.1136306077241898,-0.09683874249458313,-0.03413257747888565,XTrueNorthZVertical,-0.5240630308318788,-0.1033507082868036,-0.3620798097698593,-0.7639206896802179,-0.2216017991304398,-0.8755276203155518,-0.4293531477451324,-17.78452682495117,-41.26773452758789,3.307897567749023,2,192.168.1.8,10.83.46.32,1,0
2015-02-28 14:12:24.706,142,1425161539.501272,37.77930814871304,-122.4388067854434,56.56614,-1,-1,10,65,-9999,1425161544.687209,-17.81333160400391,-41.22056579589844,2.486244201660156,158.3649139404297,144.5770721435547,25,156617.388406375,-0.27801513671875,-0.8718719482421875,-0.3605499267578125,156617.3582434167,-0.6279667271379592,-0.5250925426537243,0.1379264444357488,156617.3582434167,1.154776192179474,-0.4716441250624149,1.040779516154529,-0.6412971019744873,-0.5101143717765808,0.1721338927745819,0.2148038744926453,0.02417552471160889,0.01364688016474247,XTrueNorthZVertical,-0.5157329349546302,-0.09403631337383371,-0.3631359324844479,-0.770265567230775,-0.2296964526176453,-0.8627985715866089,-0.4503534138202667,-18.07417106628418,-41.21613311767578,2.193622589111328,2,192.168.1.8,10.83.46.32,1,0
2015-02-28 14:12:24.745,143,1425161539.501272,37.77930814871304,-122.4388067854434,56.56614,-1,-1,10,65,-9999,1425161544.738884,-17.76218414306641,-41.06761169433594,2.070198059082031,159.8754119873047,146.0875701904297,25,156617.4375475417,-0.19384765625,-0.845458984375,-0.620941162109375,156617.4100187917,-0.5723391509206021,-0.5889836414174883,0.08561823220106644,156617.4100187917,1.142216320416118,-0.4970261374591775,1.01391454996008,-0.5856693387031555,-0.574005663394928,0.1198253110051155,0.003160299733281136,0.05442797765135765,0.2170166671276093,XTrueNorthZVertical,-0.5121563409700975,-0.07348893610194096,-0.3575895465398891,-0.7774477556933835,-0.2520158886909485,-0.8489073514938354,-0.4645905196666718,-18.2801628112793,-41.14498519897461,1.784185409545898,2,192.168.1.8,10.83.46.32,1,0
2015-02-28 14:12:24.805,144,1425161539.501272,37.77930814871304,-122.4388067854434,56.56614,-1,-1,10,65,-9999,1425161544.790201,-18.32481384277344,-41.25454711914062,0.8553390502929688,159.8128051757812,146.0249633789062,25,156617.486507375,-0.138519287109375,-0.8434600830078125,-0.601287841796875,156617.4617937917,-0.7466680779805349,-0.2091649383309324,-0.008058725458579774,156617.4617937917,1.116737564622289,-0.4854283643003026,0.9785670805076079,-0.7599982023239136,-0.1941870898008347,0.02614800631999969,0.2222618907690048,-0.0506269671022892,0.04209505021572113,XTrueNorthZVertical,-0.4993196716209959,-0.06178609435456856,-0.3581330974840806,-0.7865132335286694,-0.2604546248912811,-0.8296983242034912,-0.4937246739864349,-18.46658515930176,-41.09423065185547,0.7118167877197266,2,192.168.1.8,10.83.46.32,1,0
2015-02-28 14:12:24.844,145,1425161539.501272,37.77930814871304,-122.4388067854434,56.56614,-1,-1,10,65,-9999,1425161544.790201,-18.32481384277344,-41.25454711914062,0.8553390502929688,159.8128051757812,146.0249633789062,25,156617.5355866667,-0.1712799072265625,-0.80706787109375,-0.7844696044921875,156617.5135675,-1.489671646301121,-0.6157899556857899,-0.02214738025731696,156617.5135675,1.079149065743905,-0.4792718753051476,0.9273200843552289,-1.503001570701599,-0.6008122563362122,0.0120590440928936,0.004667592700570822,-0.2944980263710022,-0.4384595155715942,XTrueNorthZVertical,-0.4817907385930771,-0.0410757946400222,-0.3553290934224786,-0.7999573342502357,-0.2766707539558411,-0.8000149130821228,-0.5323809385299683,-18.68058204650879,-40.98364639282227,-1.278329849243164,2,192.168.1.8,10.83.46.32,1,0
2015-02-28 14:12:24.903,146,1425161539.501272,37.77930814871304,-122.4388067854434,56.56614,-1,-1,10,65,-9999,1425161544.894142,-18.54644775390625,-40.89767456054688,-2.356552124023438,162.1623840332031,148.3745422363281,25,156617.5847019583,-0.198760986328125,-0.3917236328125,-0.0698394775390625,156617.5653425833,-0.8705159876296888,-0.4638656702444756,-0.237485525995053,156617.5653425833,1.027696410011366,-0.4817330271279647,0.8778046948485244,-0.883846640586853,-0.4488880932331085,-0.2032796293497086,-0.1871994733810425,0.3915154039859772,0.03392588719725609,XTrueNorthZVertical,-0.4655238789212015,-0.0147960314749418,-0.343821582501105,-0.8153866279046662,-0.2959853410720825,-0.7693383097648621,-0.5661371946334839,-18.61867523193359,-40.93136215209961,-2.868097305297852,2,192.168.1.8,10.83.46.32,1,0
2015-02-28 14:12:24.942,147,1425161539.501272,37.77930814871304,-122.4388067854434,56.56614,-1,-1,10,65,-9999,1425161544.894142,-18.54644775390625,-40.89767456054688,-2.356552124023438,162.1623840332031,148.3745422363281,25,156617.6337284583,-0.05712890625,-0.3883209228515625,-0.8284149169921875,156617.617117875,1.263259544118617,2.104306855338252,-1.832714225262555,156617.617117875,0.9688817939812562,-0.376141390696414,0.9021640048285037,1.249928951263428,2.119284391403198,-1.798508644104004,0.4606103897094727,0.5333274602890015,0.05391532182693481,XTrueNorthZVertical,-0.457338262815704,-0.05054109302641407,-0.3396138034186146,-0.8203351837880096,-0.2277155071496964,-0.7846702337265015,-0.5765746235847473,-17.63630294799805,-41.27693557739258,-3.928466796875,2,192.168.1.8,10.83.46.32,1,0
