loggingTime,loggingSample,locationTimestamp_since1970,locationLatitude,locationLongitude,locationAltitude,locationSpeed,locationCourse,locationVerticalAccuracy,locationHorizontalAccuracy,locationFloor,locationHeadingTimestamp_since1970,locationHeadingX,locationHeadingY,locationHeadingZ,locationTrueHeading,locationMagneticHeading,locationHeadingAccuracy,accelerometerTimestamp_sinceReboot,accelerometerAccelerationX,accelerometerAccelerationY,accelerometerAccelerationZ,gyroTimestamp_sinceReboot,gyroRotationX,gyroRotationY,gyroRotationZ,motionTimestamp_sinceReboot,motionYaw,motionRoll,motionPitch,motionRotationRateX,motionRotationRateY,motionRotationRateZ,motionUserAccelerationX,motionUserAccelerationY,motionUserAccelerationZ,motionAttitudeReferenceFrame,motionQuaternionX,motionQuaternionY,motionQuaternionZ,motionQuaternionW,motionGravityX,motionGravityY,motionGravityZ,motionMagneticFieldX,motionMagneticFieldY,motionMagneticFieldZ,motionMagneticFieldCalibrationAccuracy,IP_en0,IP_pdp_ip0,deviceOrientation,state
2015-03-01 17:31:26.926,1,1425259869.828554,37.77924608066725,-122.4388316454234,56.96329,-1,-1,10,65,-9999,1425259886.906553,16.78017807006836,-26.91607666015625,-31.3603515625,355.1341857910156,341.3570861816406,10,191238.01585,0.176300048828125,-0.9227142333984375,-0.284637451171875,191237.9894792083,-0.05734638038489425,-0.07599010591210296,-0.147210490311874,191237.9894792083,-1.858093481349823,0.5099616625837914,1.209296135901056,-0.07384216785430908,-0.06345305591821671,-0.1155214831233025,-0.02606967464089394,-0.1015131995081902,-0.0198905598372221,XTrueNorthZVertical,0.4955082744148565,-0.3164381101057708,-0.5518884121549532,0.5914030805605359,0.1726455986499786,-0.9353672862052917,-0.3086769580841064,13.21414947509766,-28.62542724609375,-31.45883560180664,1,192.168.1.8,10.83.46.32,1,0
2015-03-01 17:31:26.979,2,1425259869.828554,37.77924608066725,-122.4388316454234,56.96329,-1,-1,10,65,-9999,1425259886.95839,16.5755500793457,-26.71217346191406,-32.22571563720703,355.6560974121094,341.8789978027344,10,191238.064926125,0.1862945556640625,-0.9393157958984375,-0.3007354736328125,191238.041254625,-0.03972797187736604,0.06629593322810554,-0.03340616008173595,191238.041254625,-1.856548271252696,0.5067141554374934,1.207674336202232,-0.05622093379497528,0.07883409410715103,-0.001718152896501124,0.0008395349723286927,-0.005499891005456448,0.01945476047694683,XTrueNorthZVertical,0.4945619147735481,-0.3164293655508936,-0.552692867157781,0.5914486574283522,0.1723782420158386,-0.9347924590110779,-0.3105619251728058,13.22199535369873,-28.53478622436523,-31.53779029846191,1,192.168.1.8,10.83.46.32,1,0
2015-03-01 17:31:27.018,3,1425259869.828554,37.77924608066725,-122.4388316454234,56.96329,-1,-1,10,65,-9999,1425259887.010557,16.88248443603516,-26.47427368164062,-32.05929565429688,355.5963439941406,341.8192443847656,10,191238.1139699584,0.1815338134765625,-0.9263763427734375,-0.29571533203125,191238.0930303333,-5.060006071150553e-05,0.005304750575328834,-0.02949104696321046,191238.0930303333,-1.853634839388339,0.5055305291825287,1.20664822723839,-0.01654375717043877,0.01784293167293072,0.002195489127188921,0.01829043030738831,0.01337648183107376,0.007039378862828016,XTrueNorthZVertical,0.494508365426936,-0.3156882515879298,-0.5524124760438375,0.592151003842399,0.1724749505519867,-0.9344274997711182,-0.3116047978401184,13.26522254943848,-28.48883438110352,-31.56117248535156,1,192.168.1.8,10.83.46.32,1,0
2015-03-01 17:31:27.078,4,1425259869.828554,37.77924608066725,-122.4388316454234,56.96329,-1,-1,10,65,-9999,1425259887.066718,16.59260559082031,-26.52525329589844,-32.27564239501953,356.2956848144531,342.5185852050781,10,191238.163050125,0.1952056884765625,-0.9311370849609375,-0.3121795654296875,191238.14480425,-0.001629321954910478,0.06229480000637048,-0.03092702342298119,191238.14480425,-1.854338051939497,0.508197471953476,1.206244364338249,-0.01811967603862286,0.07483451813459396,0.0007564350962638855,0.009143456816673279,0.001223901752382517,0.01385070290416479,XTrueNorthZVertical,0.4950602476353351,-0.3149264351513381,-0.5520746686189413,0.5924105017905282,0.1734889894723892,-0.9342836141586304,-0.3114733695983887,13.32491874694824,-28.44795227050781,-31.57289505004883,1,192.168.1.8,10.83.46.32,1,0
2015-03-01 17:31:27.117,5,1425259869.828554,37.77924608066725,-122.4388316454234,56.96329,-1,-1,10,65,-9999,1425259887.066718,16.59260559082031,-26.52525329589844,-32.27564239501953,356.2956848144531,342.5185852050781,10,191238.2121019167,0.200775146484375,-0.9388580322265625,-0.317138671875,191238.19657975,-0.02350505978103936,0.02488297932904636,-0.02872006182763252,191238.14480425,-1.854338051939497,0.508197471953476,1.206244364338249,-0.01811967603862286,0.07483451813459396,0.0007564350962638855,0.009143456816673279,0.001223901752382517,0.01385070290416479,XTrueNorthZVertical,0.4950602476353351,-0.3149264351513381,-0.5520746686189413,0.5924105017905282,0.1734889894723892,-0.9342836141586304,-0.3114733695983887,13.32491874694824,-28.44795227050781,-31.57289505004883,1,192.168.1.8,10.83.46.32,1,0
2015-03-01 17:31:27.175,6,1425259869.828554,37.77924608066725,-122.4388316454234,56.96329,-1,-1,10,65,-9999,1425259887.139674,16.49029159545898,-26.18536376953125,-32.00938415527344,355.984619140625,342.20751953125,10,191238.2611745833,0.20098876953125,-0.937652587890625,-0.317138671875,191238.248355375,-0.02081819655725841,-0.01376161861687545,-0.03875831492446819,191238.248355375,-1.860809513085819,0.5197271466092104,1.200296459616697,-0.03730879724025726,-0.001216954551637173,-0.007096973247826099,0.02046158537268639,-0.005750258918851614,-0.003341491101309657,XTrueNorthZVertical,0.4961551135154391,-0.310958199302681,-0.5528122323397127,0.5929027644587328,0.1798252761363983,-0.9321464896202087,-0.3142701983451843,13.58536148071289,-28.33576583862305,-31.56278800964355,1,192.168.1.8,10.83.46.32,1,0
2015-03-01 17:31:27.215,7,1425259869.828554,37.77924608066725,-122.4388316454234,56.96329,-1,-1,10,65,-9999,1425259887.192416,16.98479080200195,-26.03244018554688,-31.659912109375,355.9805297851562,342.2034301757812,10,191238.3102146667,0.199798583984375,-0.9369354248046875,-0.308197021484375,191238.3001295,-0.007140201198611446,-0.03958336223017474,-0.02222913930278239,191238.248355375,-1.860809513085819,0.5197271466092104,1.200296459616697,-0.03730879724025726,-0.001216954551637173,-0.007096973247826099,0.02046158537268639,-0.005750258918851614,-0.003341491101309657,XTrueNorthZVertical,0.4961551135154391,-0.310958199302681,-0.5528122323397127,0.5929027644587328,0.1798252761363983,-0.9321464896202087,-0.3142701983451843,13.58536148071289,-28.33576583862305,-31.56278800964355,1,192.168.1.8,10.83.46.32,1,0
2015-03-01 17:31:27.275,8,1425259869.828554,37.77924608066725,-122.4388316454234,56.96329,-1,-1,10,65,-9999,1425259887.243357,16.91658401489258,-26.44027709960938,-31.56005859375,355.9562683105469,342.1791687011719,10,191238.359285875,0.196563720703125,-0.9280548095703125,-0.32012939453125,191238.3519049583,-0.005787581680960201,-0.05700336523649205,0.00634178550380569,191238.3519049583,-1.863932491759613,0.5225737157637194,1.196461392165641,-0.02227566577494144,-0.04445282369852066,0.03798219189047813,0.01648781076073647,-0.001164271961897612,-0.005199533421546221,XTrueNorthZVertical,0.4957687266534537,-0.3094949682819284,-0.5541139354457428,0.5927764600030276,0.1825020611286163,-0.9307510256767273,-0.316852480173111,13.76448059082031,-28.15325546264648,-31.64838790893555,1,192.168.1.8,10.83.46.32,1,0
2015-03-01 17:31:27.313,9,1425259869.828554,37.77924608066725,-122.4388316454234,56.96329,-1,-1,10,65,-9999,1425259887.29718,16.47323608398438,-26.91607666015625,-31.29378509521484,355.9534912109375,342.1763916015625,10,191238.4084379167,0.1727294921875,-0.929534912109375,-0.309844970703125,191238.403680625,0.006786267089739915,-0.1065104646366291,-0.01200233440076911,191238.3519049583,-1.863932491759613,0.5225737157637194,1.196461392165641,-0.02227566577494144,-0.04445282369852066,0.03798219189047813,0.01648781076073647,-0.001164271961897612,-0.005199533421546221,XTrueNorthZVertical,0.4957687266534537,-0.3094949682819284,-0.5541139354457428,0.5927764600030276,0.1825020611286163,-0.9307510256767273,-0.316852480173111,13.76448059082031,-28.15325546264648,-31.64838790893555,1,192.168.1.8,10.83.46.32,1,0
2015-03-01 17:31:27.372,10,1425259869.828554,37.77924608066725,-122.4388316454234,56.96329,-1,-1,10,65,-9999,1425259887.347431,16.30271911621094,-26.84811401367188,-31.69318389892578,355.9756469726562,342.1985473632812,10,191238.4573978334,0.17535400390625,-0.9319610595703125,-0.310791015625,191238.455454625,0.006277070689316764,-0.02507499324364107,-0.02751231827328159,191238.403680625,-1.861936786453503,0.516895936483477,1.195977923777504,-0.009702528826892376,-0.09395918995141983,0.01963296718895435,-0.0003346943121869117,0.004701317753642797,0.003058661706745625,XTrueNorthZVertical,0.4944165195859655,-0.3105075555107696,-0.5550642823094033,0.5924870938205169,0.1809224635362625,-0.9305741190910339,-0.3182747364044189,13.7405948638916,-28.11985778808594,-31.68843460083008,1,192.168.1.8,10.83.46.32,1,0
2015-03-01 17:31:27.412,11,1425259869.828554,37.77924608066725,-122.4388316454234,56.96329,-1,-1,10,65,-9999,1425259887.399319,16.45618438720703,-26.62721252441406,-31.47685241699219,355.9822692871094,342.2051696777344,10,191238.5065390833,0.1919097900390625,-0.92962646484375,-0.324859619140625,191238.455454625,0.006277070689316764,-0.02507499324364107,-0.02751231827328159,191238.455454625,-1.859700970345563,0.5118577786035035,1.197224670713039,-0.01020767819136381,-0.01252368185669184,0.004128689412027597,-0.01033700257539749,-0.003647288307547569,0.009439376182854176,XTrueNorthZVertical,0.493591906611253,-0.3119003081462057,-0.5552959510924499,0.5922259576502953,0.1787482500076294,-0.9310298562049866,-0.3181704580783844,13.50943565368652,-28.14158630371094,-31.76843643188477,1,192.168.1.8,10.83.46.32,1,0
2015-03-01 17:31:27.475,12,1425259869.828554,37.77924608066725,-122.4388316454234,56.96329,-1,-1,10,65,-9999,1425259887.450166,16.47323226928711,-26.47427368164062,-31.32707214355469,355.9747314453125,342.1976318359375,10,191238.5555029167,0.195648193359375,-0.9294586181640625,-0.3274383544921875,191238.55900575,0.01252244976166159,-0.0431413454465206,-0.0380762793692989,191238.5072302917,-1.860365545321647,0.512778374705787,1.196306581040943,-0.01151229999959469,-0.001412344397976995,-0.008383779786527157,0.01244942750781775,0.001067928038537502,-0.006109155248850584,XTrueNorthZVertical,0.493577167755515,-0.3114584201312239,-0.5555235233541429,0.5922573745495392,0.1794603615999222,-0.9306944012641907,-0.3187504708766937,13.49274635314941,-28.1443042755127,-31.77312088012695,1,192.168.1.8,10.83.46.32,1,0
2015-03-01 17:31:27.509,13,1425259869.828554,37.77924608066725,-122.4388316454234,56.96329,-1,-1,10,65,-9999,1425259887.502799,16.52439117431641,-26.42330932617188,-31.57669067382812,355.9682006835938,342.1911010742188,10,191238.6046550834,0.199737548828125,-0.9252471923828125,-0.3175201416015625,191238.55900575,0.01252244976166159,-0.0431413454465206,-0.0380762793692989,191238.55900575,-1.863124426665877,0.5146982105408101,1.195192112304117,-0.003965497482568026,-0.03058941662311554,-0.006444468162953854,0.01506572589278221,0.0008275267318822443,-0.008130362257361412,XTrueNorthZVertical,0.4934792224148708,-0.3111659699261131,-0.5561797140080889,0.5918767377072225,0.1805824637413025,-0.930286169052124,-0.3193079829216003,13.52906036376953,-28.11002922058105,-31.78801727294922,1,192.168.1.8,10.83.46.32,1,0
2015-03-01 17:31:27.570,14,1425259869.828554,37.77924608066725,-122.4388316454234,56.96329,-1,-1,10,65,-9999,1425259887.554336,16.64375686645508,-26.30435180664062,-31.92617034912109,355.9664306640625,342.1893310546875,10,191238.6536084167,0.201629638671875,-0.9255523681640625,-0.310699462890625,191238.662555375,0.02282861686415923,-0.1219322978770599,-0.04222202223822525,191238.6107799583,-1.86685945888254,0.5156261896045057,1.194051229427385,0.004931134171783924,-0.0792122557759285,-0.001571712316945195,0.01833563670516014,0.004619831684976816,0.002543284557759762,XTrueNorthZVertical,0.4929501105345437,-0.3113976163349111,-0.5573762052292124,0.5910697332950723,0.1814019083976746,-0.9298670291900635,-0.3200634121894836,13.53042602539062,-28.05335235595703,-31.83746719360352,1,192.168.1.8,10.83.46.32,1,0
2015-03-01 17:31:27.607,15,1425259869.828554,37.77924608066725,-122.4388316454234,56.96329,-1,-1,10,65,-9999,1425259887.554336,16.64375686645508,-26.30435180664062,-31.92617034912109,355.9664306640625,342.1893310546875,10,191238.70264425,0.2021026611328125,-0.9264984130859375,-0.3111724853515625,191238.662555375,0.02282861686415923,-0.1219322978770599,-0.04222202223822525,191238.662555375,-1.871882828407,0.5163757736539391,1.193694026317943,0.006341610569506884,-0.1093755587935448,-0.01060676388442516,0.01982388086616993,0.004183182958513498,0.009516720660030842,XTrueNorthZVertical,0.4923117842149755,-0.3122835496258494,-0.5587750484802326,0.5898122478046469,0.1818057596683502,-0.929735541343689,-0.320216178894043,13.46747207641602,-28.04812812805176,-31.86874389648438,1,192.168.1.8,10.83.46.32,1,0
2015-03-01 17:31:27.678,16,1425259869.828554,37.77924608066725,-122.4388316454234,56.96329,-1,-1,10,65,-9999,1425259887.657321,15.99578475952148,-26.81414794921875,-32.25900268554688,357.5786437988281,343.8015441894531,10,191238.7517162917,0.2222900390625,-0.9394989013671875,-0.317108154296875,191238.714331125,0.02912113388779845,-0.1473300662448186,-0.04893132397246187,191238.714331125,-1.879894808454609,0.5184946599751409,1.193564012057479,0.01263782940804958,-0.1347689479589462,-0.01732639037072659,0.02232074923813343,-0.004241774789988995,0.004002000205218792,XTrueNorthZVertical,0.4916279539090104,-0.3135830687716715,-0.5606494258366136,0.5879113759167839,0.1825437545776367,-0.9296876788139343,-0.3199352324008942,13.41707038879395,-28.0461540222168,-31.8917350769043,1,192.168.1.8,10.83.46.32,1,0
2015-03-01 17:31:27.705,17,1425259869.828554,37.77924608066725,-122.4388316454234,56.96329,-1,-1,10,65,-9999,1425259887.657321,15.99578475952148,-26.81414794921875,-32.25900268554688,357.5786437988281,343.8015441894531,10,191238.800856125,0.2540435791015625,-0.918670654296875,-0.3157196044921875,191238.7661050417,0.02584331521812893,-0.2107580412950178,-0.02041339607156637,191238.7661050417,-1.888780179600005,0.5196715542089037,1.192969949443151,0.009363002143800259,-0.1981917768716812,0.01117728278040886,0.04703021794557571,-0.009480902925133705,0.003335481975227594,XTrueNorthZVertical,0.4904568429969255,-0.3152020579690415,-0.5631348923012158,0.585643911938626,0.1831943839788437,-0.9294686913490295,-0.3201994895935059,13.23800086975098,-28.05041122436523,-31.96274185180664,1,192.168.1.8,10.83.46.32,1,0
2015-03-01 17:31:27.773,18,1425259869.828554,37.77924608066725,-122.4388316454234,56.96329,-1,-1,10,65,-9999,1425259887.761027,15.02383041381836,-26.38931274414062,-32.30892944335938,359.2193603515625,345.4422607421875,10,191238.8498146667,0.30859375,-0.902557373046875,-0.3239593505859375,191238.81788075,-0.04203746517468276,-0.3526011967459461,0.02120861597306403,191238.81788075,-1.896004018012158,0.5148523789476183,1.190136361784593,-0.05851569771766663,-0.340026319026947,0.05277115479111671,0.08145899325609207,0.01550154760479927,0.01170887053012848,XTrueNorthZVertical,0.4874546364272881,-0.3173376102532413,-0.56722256145501,0.5830465976481032,0.1829453110694885,-0.9284196496009827,-0.3233696222305298,13.06363105773926,-28.00792694091797,-32.07155990600586,1,192.168.1.8,10.83.46.32,1,0
2015-03-01 17:31:27.804,19,1425259869.828554,37.77924608066725,-122.4388316454234,56.96329,-1,-1,10,65,-9999,1425259887.761027,15.02383041381836,-26.38931274414062,-32.30892944335938,359.2193603515625,345.4422607421875,10,191238.8989624583,0.360198974609375,-0.8901519775390625,-0.3454132080078125,191238.8696562083,-0.1118327920751524,-0.5776409720187318,0.1150858433466842,191238.8696562083,-1.883010263004011,0.4810634418030103,1.186925208843435,-0.1283106505870819,-0.565062940120697,0.1466367095708847,0.1568286269903183,0.03308728337287903,-0.001748852315358818,XTrueNorthZVertical,0.4793305897952655,-0.3228604424329234,-0.5725041436992557,0.5815860009955813,0.1732952743768692,-0.9272217750549316,-0.3320066332817078,12.80196952819824,-27.94741249084473,-32.22946929931641,1,192.168.1.8,10.83.46.32,1,0
2015-03-01 17:31:27.872,20,1425259869.828554,37.77924608066725,-122.4388316454234,56.96329,-1,-1,10,65,-9999,1425259887.864815,12.48310852050781,-25.86251831054688,-33.09107208251953,1.989150047302246,348.2120361328125,10,191238.947921625,0.36517333984375,-0.873321533203125,-0.3473968505859375,191238.9214304167,-0.1851416274017636,-1.024233645749062,0.2757231929264107,191238.9214304167,-1.84615895215645,0.4070266059305105,1.184402041347817,-0.2016193270683289,-1.011655688285828,0.3072737455368042,0.2274752408266068,0.0415387861430645,-0.009390553459525108,XTrueNorthZVertical,0.4635725359177956,-0.334767135445331,-0.5799419003911432,0.5802575392422672,0.1491879671812057,-0.9262738823890686,-0.3460629284381866,11.12337684631348,-27.7353458404541,-33.02587890625,1,192.168.1.8,10.83.46.32,1,0
2015-03-01 17:31:27.901,21,1425259869.828554,37.77924608066725,-122.4388316454234,56.96329,-1,-1,10,65,-9999,1425259887.864815,12.48310852050781,-25.86251831054688,-33.09107208251953,1.989150047302246,348.2120361328125,10,191238.9970910417,0.2660064697265625,-0.8309326171875,-0.3632659912109375,191238.973206,-0.3579821137284512,-1.656343985227076,0.4987131331081625,191238.973206,-1.7811343965254,0.2783387716707523,1.178391993237378,-0.3743439912796021,-1.643733382225037,0.5303711295127869,0.2356885075569153,0.07401670515537262,0.009157479740679264,XTrueNorthZVertical,0.4357967711781762,-0.3552950195490182,-0.5916105715316201,0.5777919224726837,0.1050707697868347,-0.9239922761917114,-0.3676932454109192,8.960139274597168,-27.55743217468262,-33.82293701171875,1,192.168.1.8,10.83.46.32,1,0
2015-03-01 17:31:27.971,22,1425259869.828554,37.77924608066725,-122.4388316454234,56.96329,-1,-1,10,65,-9999,1425259887.916892,9.80596923828125,-25.67559814453125,-33.80666351318359,1.908583641052246,348.1314697265625,10,191239.0460585833,0.1766204833984375,-0.7888336181640625,-0.3160858154296875,191239.0249815834,-0.5705479087714148,-2.031676327141284,0.5954178386111197,191239.0249815834,-1.694414041345572,0.1040616292667153,1.159809871898311,-0.5869095921516418,-2.019065856933594,0.6270753741264343,0.1768999844789505,0.09238634258508682,0.04440152645111084,XTrueNorthZVertical,0.3948955379244191,-0.3812889002444449,-0.6071969664026609,0.5744458924715904,0.0414990596473217,-0.9167271852493286,-0.3973525762557983,6.878714561462402,-27.30972099304199,-34.50434112548828,1,192.168.1.8,10.83.46.32,1,0
2015-03-01 17:31:28.000,23,1425259869.828554,37.77924608066725,-122.4388316454234,56.96329,-1,-1,10,65,-9999,1425259887.969278,5.611221313476562,-25.16580200195312,-35.00486755371094,5.019576072692871,351.2424621582031,10,191239.0952040417,0.1222991943359375,-0.669036865234375,-0.254669189453125,191239.0767555417,-0.8941390254470187,-2.129357081183756,0.665740737723534,191239.0249815834,-1.694414041345572,0.1040616292667153,1.159809871898311,-0.5869095921516418,-2.019065856933594,0.6270753741264343,0.1768999844789505,0.09238634258508682,0.04440152645111084,XTrueNorthZVertical,0.3948955379244191,-0.3812889002444449,-0.6071969664026609,0.5744458924715904,0.0414990596473217,-0.9167271852493286,-0.3973525762557983,6.878714561462402,-27.30972099304199,-34.50434112548828,1,192.168.1.8,10.83.46.32,1,0
2015-03-01 17:31:28.072,24,1425259869.828554,37.77924608066725,-122.4388316454234,56.96329,-1,-1,10,65,-9999,1425259888.020821,0.9390182495117188,-23.80633544921875,-35.93679046630859,5.940077781677246,352.1629638671875,10,191239.144171375,-0.0587158203125,-0.6054840087890625,-0.1842498779296875,191239.1285313334,-1.174277739460781,-2.294239509541069,0.825754108659855,191239.1285313334,-1.546807615636935,-0.2429165170200987,1.063522381426535,-1.190639138221741,-2.281629323959351,0.8574109673500061,0.1485432833433151,0.2505064010620117,0.2640597820281982,XTrueNorthZVertical,0.2871898504360495,-0.4263275980430415,-0.6416352051122215,0.5692723278205942,-0.116850771009922,-0.8740720748901367,-0.4715335369110107,-4.051125526428223,-24.21583557128906,-37.16004180908203,1,192.168.1.8,10.83.46.32,1,0
2015-03-01 17:31:28.098,25,1425259869.828554,37.77924608066725,-122.4388316454234,56.96329,-1,-1,10,65,-9999,1425259888.072273,-4.023063659667969,-21.03646850585938,-37.01850128173828,9.259902000427246,355.4827880859375,10,191239.19321275,-0.250579833984375,-0.6083526611328125,-0.135009765625,191239.180306875,-1.365846639837342,-2.298565814731902,0.8200906302856925,191239.180306875,-1.506760564190785,-0.3920828715068648,0.9880807316549146,-1.382207870483398,-2.285955667495728,0.8517472147941589,0.0431910902261734,0.234339639544487,0.3704423904418945,XTrueNorthZVertical,0.2219159408002226,-0.443267518136631,-0.6581383806069899,0.5666754320279495,-0.2102748304605484,-0.8349713683128357,-0.5085344314575195,-7.19903564453125,-22.74880981445312,-37.60787963867188,1,192.168.1.8,10.83.46.32,1,0
2015-03-01 17:31:28.173,26,1425259869.828554,37.77924608066725,-122.4388316454234,56.96329,-1,-1,10,65,-9999,1425259888.124316,-9.513740539550781,-18.01165771484375,-36.88536071777344,13.09532070159912,359.3182067871094,10,191239.242271625,-0.48651123046875,-0.710357666015625,-0.1409149169921875,191239.2320808333,-1.376696624434433,-2.355345740752937,0.580571248166146,191239.180306875,-1.506760564190785,-0.3920828715068648,0.9880807316549146,-1.382207870483398,-2.285955667495728,0.8517472147941589,0.0431910902261734,0.234339639544487,0.3704423904418945,XTrueNorthZVertical,0.2219159408002226,-0.443267518136631,-0.6581383806069899,0.5666754320279495,-0.2102748304605484,-0.8349713683128357,-0.5085344314575195,-7.19903564453125,-22.74880981445312,-37.60787963867188,1,192.168.1.8,10.83.46.32,1,0
2015-03-01 17:31:28.196,27,1425259869.828554,37.77924608066725,-122.4388316454234,56.96329,-1,-1,10,65,-9999,1425259888.175972,-15.39662170410156,-14.69796752929688,-36.56917572021484,15.664381980896,1.88726806640625,10,191239.291419375,-0.5491180419921875,-0.6009368896484375,-0.2173309326171875,191239.2838565417,-1.392487571801949,-1.801063887287508,0.4014739311744263,191239.2320808333,-1.501651006630765,-0.5122633580328338,0.9085739535180826,-1.393057584762573,-2.342735767364502,0.6122274994850159,-0.09476886689662933,0.1013413295149803,0.3932595551013947,XTrueNorthZVertical,0.1550582754626202,-0.456053378989934,-0.6743264365810576,0.5596928214285275,-0.3013798296451569,-0.7886276841163635,-0.5359445214271545,-15.01394844055176,-18.19103240966797,-37.78034973144531,1,192.168.1.8,10.83.46.32,1,0
2015-03-01 17:31:28.276,28,1425259869.828554,37.77924608066725,-122.4388316454234,56.96329,-1,-1,10,65,-9999,1425259888.228233,-20.11997985839844,-10.8065185546875,-35.75373077392578,18.46615982055664,4.689046382904053,10,191239.3403826667,-0.5776519775390625,-0.5988616943359375,-0.2733001708984375,191239.335632,-1.463407018998541,-1.043170052680071,0.4852175642841859,191239.335632,-1.559082064617291,-0.6410482960758613,0.7632748523107605,-1.479767799377441,-1.030560374259949,0.5168731212615967,-0.1379572004079819,0.1184917986392975,0.2947291433811188,XTrueNorthZVertical,0.04586089268412708,-0.4564378951442133,-0.7026127335080244,0.543963715535538,-0.4321264028549194,-0.6912914514541626,-0.5791224241256714,-21.25171661376953,-13.179612159729,-36.3996467590332,1,192.168.1.8,10.83.46.32,1,0
2015-03-01 17:31:28.294,29,1425259869.828554,37.77924608066725,-122.4388316454234,56.96329,-1,-1,10,65,-9999,1425259888.280244,-23.56444549560547,-7.10198974609375,-35.18792724609375,21.51126670837402,7.734152317047119,10,191239.3894635417,-0.585784912109375,-0.6186370849609375,-0.3280029296875,191239.335632,-1.463407018998541,-1.043170052680071,0.4852175642841859,191239.335632,-1.559082064617291,-0.6410482960758613,0.7632748523107605,-1.479767799377441,-1.030560374259949,0.5168731212615967,-0.1379572004079819,0.1184917986392975,0.2947291433811188,XTrueNorthZVertical,0.04586089268412708,-0.4564378951442133,-0.7026127335080244,0.543963715535538,-0.4321264028549194,-0.6912914514541626,-0.5791224241256714,-21.25171661376953,-13.179612159729,-36.3996467590332,1,192.168.1.8,10.83.46.32,1,0
2015-03-01 17:31:28.373,30,1425259869.828554,37.77924608066725,-122.4388316454234,56.96329,-1,-1,10,65,-9999,1425259888.334134,-25.49129486083984,-3.652374267578125,-34.37248229980469,23.03448486328125,9.25737190246582,10,191239.4384905834,-0.695556640625,-0.49615478515625,-0.5931854248046875,191239.43918175,-1.436714155392677,-0.6236175187617508,0.1406420697993026,191239.3874063333,-1.600548722693339,-0.6555484112434076,0.6886049787591977,-1.646578669548035,-0.6802772283554077,0.37010657787323,-0.1057892218232155,-0.01245804224163294,0.3184252083301544,XTrueNorthZVertical,0.005136366395202111,-0.4403785994441787,-0.715163148682872,0.5427540219714168,-0.4706878364086151,-0.6354606747627258,-0.6120806336402893,-24.53718566894531,-8.322710037231445,-35.76213836669922,1,192.168.1.8,10.83.46.32,1,0
2015-03-01 17:31:28.394,31,1425259869.828554,37.77924608066725,-122.4388316454234,56.96329,-1,-1,10,65,-9999,1425259888.334134,-25.49129486083984,-3.652374267578125,-34.37248229980469,23.03448486328125,9.25737190246582,10,191239.4875265,-0.7628173828125,-0.5741119384765625,-0.647491455078125,191239.4909573334,-1.589232592073188,-0.6436370333080944,-0.4371568276720709,191239.43918175,-1.646836708506074,-0.6569021590336139,0.6164627837235381,-1.45307457447052,-0.6110080480575562,0.1722970008850098,-0.1972962766885757,0.08199787884950638,0.05293845012784004,XTrueNorthZVertical,-0.03026591047886045,-0.4195498035714892,-0.7280630789309638,0.5412818496789693,-0.4982603788375854,-0.5781526565551758,-0.6461238861083984,-25.66180992126465,-5.293615341186523,-35.54885101318359,1,192.168.1.8,10.83.46.32,1,0
2015-03-01 17:31:28.475,32,1425259869.828554,37.77924608066725,-122.4388316454234,56.96329,-1,-1,10,65,-9999,1425259888.461258,-29.32794952392578,3.43377685546875,-31.95945739746094,29.40962219238281,15.63250732421875,10,191239.5365822917,-0.8050537109375,-0.4795074462890625,-0.643585205078125,191239.4909573334,-1.589232592073188,-0.6436370333080944,-0.4371568276720709,191239.4909573334,-1.709931923565651,-0.6556872834326096,0.5644042412400564,-1.605592727661133,-0.6310276389122009,-0.4055022001266479,-0.247673824429512,-0.03919938951730728,0.02220672369003296,XTrueNorthZVertical,-0.06034373572930546,-0.4018825000417326,-0.7449479959434648,0.5290572027357393,-0.5151435732841492,-0.5349125266075134,-0.669698178768158,-26.32878112792969,-3.584310531616211,-35.27349853515625,1,192.168.1.8,10.83.46.32,1,0
2015-03-01 17:31:28.491,33,1425259869.828554,37.77924608066725,-122.4388316454234,56.96329,-1,-1,10,65,-9999,1425259888.461258,-29.32794952392578,3.43377685546875,-31.95945739746094,29.40962219238281,15.63250732421875,10,191239.5856268333,-0.835357666015625,-0.4804840087890625,-0.7151031494140625,191239.5427315,-1.51635252568208,-0.2985227813346881,-0.3053308863453666,191239.5427315,-1.782969891524331,-0.6425162047751986,0.5129376585777673,-1.532712578773499,-0.2859135270118713,-0.2736765444278717,-0.2829565107822418,0.01123151555657387,0.05397465080022812,XTrueNorthZVertical,-0.08641383316211891,-0.3791473605586207,-0.7643786973157787,0.5143005796397717,-0.5220972299575806,-0.4907389581203461,-0.6975598335266113,-28.6609001159668,0.3756484985351562,-34.47332000732422,1,192.168.1.8,10.83.46.32,1,0
2015-03-01 17:31:28.575,34,1425259869.828554,37.77924608066725,-122.4388316454234,56.96329,-1,-1,10,65,-9999,1425259888.566512,-29.95886993408203,7.699066162109375,-31.37699890136719,33.46652221679688,19.68940925598145,10,191239.6346850834,-0.8096466064453125,-0.4093780517578125,-0.8090667724609375,191239.6462826667,-1.145230108819069,0.2581820160904948,-0.3861042958913609,191239.5945072917,-1.845154835373776,-0.6143699983174009,0.4623563602582857,-1.389016509056091,0.1076983585953712,-0.3389160335063934,-0.3194381892681122,-0.03442571312189102,0.01623744145035744,XTrueNorthZVertical,-0.102768103896743,-0.3518073638941598,-0.7814602904194518,0.5049654054855321,-0.5159195065498352,-0.4460583031177521,-0.7313405871391296,-29.35084915161133,2.736494064331055,-34.26643753051758,2,192.168.1.8,10.83.46.32,1,0
2015-03-01 17:31:28.588,35,1425259869.828554,37.77924608066725,-122.4388316454234,56.96329,-1,-1,10,65,-9999,1425259888.566512,-29.95886993408203,7.699066162109375,-31.37699890136719,33.46652221679688,19.68940925598145,10,191239.6837199584,-0.808502197265625,-0.426727294921875,-0.8474884033203125,191239.6462826667,-1.145230108819069,0.2581820160904948,-0.3861042958913609,191239.6462826667,-1.901016635321816,-0.5805502314723354,0.4199075965872771,-1.161589741706848,0.2707909941673279,-0.3544506132602692,-0.3070564270019531,-0.006477973889559507,-0.06155240535736084,XTrueNorthZVertical,-0.1117056828045302,-0.3252098117922215,-0.7972221395324612,0.4961826575877452,-0.5008354187011719,-0.4076760709285736,-0.7635208368301392,-29.2833137512207,3.883377075195312,-34.21339416503906,2,192.168.1.8,10.83.46.32,1,0
2015-03-01 17:31:28.679,36,1425259869.828554,37.77924608066725,-122.4388316454234,56.96329,-1,-1,10,65,-9999,1425259888.642473,-29.73719787597656,10.1630859375,-31.75975036621094,39.36088562011719,25.58377075195312,10,191239.7327794167,-0.78778076171875,-0.425506591796875,-0.80560302734375,191239.6980569584,-0.9536952969044608,0.2632683874564372,-0.4293886530884188,191239.6980569584,-1.950117062038353,-0.5481704276100707,0.3864588181626133,-0.9700548648834229,0.2758772373199463,-0.3977352678775787,-0.3255342543125153,-0.03197900205850601,-0.04837805405259132,XTrueNorthZVertical,-0.1161411029354963,-0.3020658682024347,-0.811172923265561,0.487099471099232,-0.4826932847499847,-0.3769107758998871,-0.7905349135398865,-28.81413269042969,6.057564735412598,-34.29579162597656,2,192.168.1.8,10.83.46.32,1,0
2015-03-01 17:31:28.686,37,1425259869.828554,37.77924608066725,-122.4388316454234,56.96329,-1,-1,10,65,-9999,1425259888.642473,-29.73719787597656,10.1630859375,-31.75975036621094,39.36088562011719,25.58377075195312,10,191239.7818155417,-0.6688995361328125,-0.499176025390625,-0.840484619140625,191239.7498324584,-0.960796083318939,0.631153998330566,-0.3151188022997349,191239.7498324584,-1.992012100463906,-0.5094454951652438,0.3533027987951128,-0.9771554470062256,0.6437627673149109,-0.283465713262558,-0.320627361536026,-0.09803227335214615,0.00937044620513916,XTrueNorthZVertical,-0.1157381596297032,-0.2775932371986897,-0.8236582253910433,0.4807637169349099,-0.457570880651474,-0.3459984958171844,-0.8190933465957642,-28.38718414306641,7.066387176513672,-34.45843124389648,2,192.168.1.8,10.83.46.32,1,0
2015-03-01 17:31:28.779,38,1425259869.828554,37.77924608066725,-122.4388316454234,56.96329,-1,-1,10,65,-9999,1425259888.748248,-28.08317565917969,12.42318725585938,-32.20906829833984,41.15310287475586,27.37598991394043,10,191239.8308665,-0.6175994873046875,-0.4228363037109375,-0.9223480224609375,191239.8016082083,-0.8769903985557804,0.7989358101666481,-0.1629343260199199,191239.8016082083,-2.024816619816278,-0.4607855739151913,0.316817187734449,-0.8933495879173279,0.8115444183349609,-0.1312815845012665,-0.189156711101532,-0.1745860278606415,-0.027002127841115,XTrueNorthZVertical,-0.1098804900762216,-0.2497264822068055,-0.8344480691622199,0.4788103304701958,-0.4225223660469055,-0.311543732881546,-0.8511258959770203,-27.8050594329834,7.829291343688965,-34.76679992675781,2,192.168.1.8,10.83.46.32,1,0
2015-03-01 17:31:28.784,39,1425259869.828554,37.77924608066725,-122.4388316454234,56.96329,-1,-1,10,65,-9999,1425259888.748248,-28.08317565917969,12.42318725585938,-32.20906829833984,41.15310287475586,27.37598991394043,10,191239.879958375,-0.6601409912109375,-0.441009521484375,-0.980621337890625,191239.8533822084,-0.8959856613468796,0.6829894994717592,-0.2553830337848215,191239.8533822084,-2.050234427684281,-0.4141319475209569,0.2800830218868444,-0.912344753742218,0.6955979466438293,-0.2237306386232376,-0.2303045988082886,-0.1418690085411072,-0.05236689001321793,XTrueNorthZVertical,-0.103115835090732,-0.2224204542319777,-0.8432200057816841,0.4784101155396175,-0.3867150545120239,-0.2764354348182678,-0.8797925114631653,-25.81002426147461,9.898471832275391,-35.76328277587891,2,192.168.1.8,10.83.46.32,1,0
2015-03-01 17:31:28.843,40,1425259869.828554,37.77924608066725,-122.4388316454234,56.96329,-1,-1,10,65,-9999,1425259888.824139,-26.37799072265625,14.05450439453125,-32.77487182617188,42.44378280639648,28.66666793823242,10,191239.9289547083,-0.91754150390625,-0.2982025146484375,-1.01226806640625,191239.9051579583,-0.7618845815009206,0.6339234195481394,-0.3693671273885399,191239.9051579583,-2.083296216306872,-0.3754816405718497,0.2439721848007826,-0.7782434821128845,0.6465317606925964,-0.3377149999141693,-0.4144488275051117,-0.2039975672960281,-0.09618202596902847,XTrueNorthZVertical,-0.09957087041695174,-0.1967115954644964,-0.8532313112351367,0.4726377790766457,-0.3558606207370758,-0.2415590733289719,-0.9027803540229797,-24.88332748413086,11.1142520904541,-36.06165313720703,2,192.168.1.8,10.83.46.32,1,0
2015-03-01 17:31:28.883,41,1425259869.828554,37.77924608066725,-122.4388316454234,56.96329,-1,-1,10,65,-9999,1425259888.876188,-24.72396087646484,15.36300659179688,-33.52375030517578,43.0686149597168,29.29150199890137,10,191239.9779932083,-0.639312744140625,-0.5209808349609375,-0.944732666015625,191239.9569334583,-0.7267463014461972,1.716386549899566,-0.3319265445714429,191239.9569334583,-2.108195455539009,-0.3052524640375476,0.218220860810703,-0.7431050539016724,1.728994846343994,-0.3002747297286987,-0.5707139372825623,-0.04289113357663155,0.0469353199005127,XTrueNorthZVertical,-0.07823128122194295,-0.168238083440971,-0.862416066063396,0.4709716484275142,-0.2934065759181976,-0.2164930254220963,-0.9311516284942627,-24.2907829284668,11.73847770690918,-36.26728057861328,2,192.168.1.8,10.83.46.32,1,0
2015-03-01 17:31:28.982,42,1425259869.828554,37.77924608066725,-122.4388316454234,56.96329,-1,-1,10,65,-9999,1425259888.927529,-21.77399444580078,16.22964477539062,-34.27262878417969,42.90605163574219,29.12893867492676,10,191240.027042375,-0.515350341796875,0.151397705078125,-0.9578857421875,191240.0087077917,-0.7026345735688379,2.428752580407663,0.05615221895210272,191240.0087077917,-2.131418692061223,-0.2013275669894578,0.1805010865269929,-0.7188864946365356,2.44139289855957,0.08790921419858932,-0.4686837494373322,0.0002012526820180938,-0.06701508164405823,XTrueNorthZVertical,-0.04419679664500346,-0.1269041383266377,-0.8715412648330726,0.4715482554769703,-0.1967215090990067,-0.1795225441455841,-0.9638839364051819,-20.0394344329834,13.33552742004395,-38.25878143310547,2,192.168.1.8,10.83.46.32,1,0
2015-03-01 17:31:28.988,43,1425259869.828554,37.77924608066725,-122.4388316454234,56.96329,-1,-1,10,65,-9999,1425259888.983087,-17.40872955322266,17.69107055664062,-35.4708251953125,43.42962646484375,29.65251159667969,10,191240.0760697917,0.0347900390625,0.05670166015625,-0.7887725830078125,191240.06048325,-0.745662468352921,2.685496489509515,0.5586030986501913,191240.0087077917,-2.131418692061223,-0.2013275669894578,0.1805010865269929,-0.7188864946365356,2.44139289855957,0.08790921419858932,-0.4686837494373322,0.0002012526820180938,-0.06701508164405823,XTrueNorthZVertical,-0.04419679664500346,-0.1269041383266377,-0.8715412648330726,0.4715482554769703,-0.1967215090990067,-0.1795225441455841,-0.9638839364051819,-20.0394344329834,13.33552742004395,-38.25878143310547,2,192.168.1.8,10.83.46.32,1,0
2015-03-01 17:31:29.043,44,1425259869.828554,37.77924608066725,-122.4388316454234,56.96329,-1,-1,10,65,-9999,1425259889.034141,-12.173828125,19.135498046875,-36.85208129882812,41.9199333190918,28.14281845092773,10,191240.1251414584,0.0946044921875,-0.2203826904296875,-0.6884307861328125,191240.112259,-0.4295582964498568,1.829931221923422,0.7765713822804897,191240.112259,-2.081871097784334,0.03706406810503825,0.1110452106923673,-0.4458099007606506,1.842571258544922,0.8083277940750122,0.06601689010858536,-0.08034497499465942,0.2534731924533844,XTrueNorthZVertical,0.04400794541916016,-0.03852500537428279,-0.8608800672594058,0.5054350454852224,0.03682735189795494,-0.1108171343803406,-0.993158221244812,-11.6775074005127,15.94361686706543,-40.65201568603516,2,192.168.1.8,10.83.46.32,1,0
2015-03-01 17:31:29.079,45,1425259869.828554,37.77924608066725,-122.4388316454234,56.96329,-1,-1,10,65,-9999,1425259889.034141,-12.173828125,19.135498046875,-36.85208129882812,41.9199333190918,28.14281845092773,10,191240.1742949167,0.3056793212890625,0.0133209228515625,-0.680908203125,191240.1640330417,-0.2939623842840364,2.216783866081095,1.463791579459949,191240.112259,-2.081871097784334,0.03706406810503825,0.1110452106923673,-0.4458099007606506,1.842571258544922,0.8083277940750122,0.06601689010858536,-0.08034497499465942,0.2534731924533844,XTrueNorthZVertical,0.04400794541916016,-0.03852500537428279,-0.8608800672594058,0.5054350454852224,0.03682735189795494,-0.1108171343803406,-0.993158221244812,-11.6775074005127,15.94361686706543,-40.65201568603516,2,192.168.1.8,10.83.46.32,1,0
2015-03-01 17:31:29.176,46,1425259869.828554,37.77924608066725,-122.4388316454234,56.96329,-1,-1,10,65,-9999,1425259889.160404,1.399436950683594,20.86883544921875,-37.58433532714844,30.53068161010742,16.75356864929199,10,191240.223258875,0.362396240234375,0.11114501953125,-0.556671142578125,191240.2158087917,-0.05410025333219667,1.81414719877474,2.054550217743975,191240.2158087917,-1.929556079757525,0.2272375799025857,0.107422015700934,-0.0703515037894249,1.826786994934082,2.086305856704712,0.1237441599369049,0.2162853628396988,0.3905819356441498,XTrueNorthZVertical,0.1234325518945306,0.02064434540299188,-0.8119784848903915,0.5701132404348295,0.2239883840084076,-0.1072155386209488,-0.9686764478683472,0.9010887145996094,18.46928024291992,-41.24588775634766,2,192.168.1.8,10.83.46.32,1,0
2015-03-01 17:31:29.178,47,1425259869.828554,37.77924608066725,-122.4388316454234,56.96329,-1,-1,10,65,-9999,1425259889.160404,1.399436950683594,20.86883544921875,-37.58433532714844,30.53068161010742,16.75356864929199,10,191240.2722979583,0.29473876953125,0.08697509765625,-0.591064453125,191240.2675842917,0.2851390652764949,1.414093797725762,2.501950095600709,191240.2158087917,-1.929556079757525,0.2272375799025857,0.107422015700934,-0.0703515037894249,1.826786994934082,2.086305856704712,0.1237441599369049,0.2162853628396988,0.3905819356441498,XTrueNorthZVertical,0.1234325518945306,0.02064434540299188,-0.8119784848903915,0.5701132404348295,0.2239883840084076,-0.1072155386209488,-0.9686764478683472,0.9010887145996094,18.46928024291992,-41.24588775634766,2,192.168.1.8,10.83.46.32,1,0
2015-03-01 17:31:29.244,48,1425259869.828554,37.77924608066725,-122.4388316454234,56.96329,-1,-1,10,65,-9999,1425259889.215731,8.083747863769531,19.6793212890625,-37.15165710449219,22.42426490783691,8.647150993347168,10,191240.3213598334,0.2029571533203125,-0.0825653076171875,-0.56121826171875,191240.3193585833,0.9876450081646818,1.023559599677163,2.603511874299752,191240.2675842917,-1.817111884255914,0.2960517170901434,0.1416535141824528,0.2688879668712616,1.426733374595642,2.533705472946167,0.04276492819190025,0.2500669658184052,0.372299998998642,XTrueNorthZVertical,0.1590562669518518,0.03526134832347366,-0.7716191841409139,0.6148670804586741,0.2888238131999969,-0.1411802619695663,-0.9469155073165894,4.320521831512451,18.39440155029297,-41.0625,2,192.168.1.8,10.83.46.32,1,0
2015-03-01 17:31:29.284,49,1425259869.828554,37.77924608066725,-122.4388316454234,56.96329,-1,-1,10,65,-9999,1425259889.266094,12.80709838867188,16.6715087890625,-37.13501739501953,14.345383644104,0.5682698488235474,10,191240.3703965833,0.339691162109375,-0.33758544921875,-0.586822509765625,191240.3193585833,0.9876450081646818,1.023559599677163,2.603511874299752,191240.3193585833,-1.702016418967587,0.3339458033752953,0.2141401074767798,0.9713940620422363,1.03619909286499,2.635267019271851,-0.1319018751382828,0.1721477508544922,0.3521327376365662,XTrueNorthZVertical,0.1937250041105942,0.02969507988526451,-0.7255330938722754,0.6596897038891797,0.3202868700027466,-0.2125072479248047,-0.9231776595115662,11.9212589263916,15.84712982177734,-40.61898040771484,2,192.168.1.8,10.83.46.32,1,0
2015-03-01 17:31:29.349,50,1425259869.828554,37.77924608066725,-122.4388316454234,56.96329,-1,-1,10,65,-9999,1425259889.316453,17.18941879272461,11.82843017578125,-36.95197296142578,6.228163719177246,352.4510498046875,10,191240.4194671667,0.3768157958984375,-0.530120849609375,-0.654449462890625,191240.4229099167,1.650078099814337,1.196963610890512,3.088453002462788,191240.3711340833,-1.590460754515651,0.3505179902122197,0.3187641586682039,1.390321016311646,0.8386968374252319,2.870687007904053,0.0136053366586566,-0.02419223263859749,0.3050590455532074,XTrueNorthZVertical,0.2323343616539483,0.008942305305225912,-0.6748014841133554,0.7004167954278404,0.3260858356952667,-0.3133932054042816,-0.8918815851211548,15.42906188964844,12.21082019805908,-40.69384765625,2,192.168.1.8,10.83.46.32,1,0
2015-03-01 17:31:29.380,51,1425259869.828554,37.77924608066725,-122.4388316454234,56.96329,-1,-1,10,65,-9999,1425259889.368424,20.77030181884766,5.77880859375,-36.91868591308594,357.91259765625,344.135498046875,10,191240.4685014584,0.4356842041015625,-0.7609405517578125,-0.7585296630859375,191240.4229099167,1.650078099814337,1.196963610890512,3.088453002462788,191240.4229099167,-1.465698306011962,0.3542221003516745,0.4433499518571216,1.633827447891235,1.209602832794189,3.120207548141479,0.06348954141139984,-0.1011529043316841,0.1927890777587891,XTrueNorthZVertical,0.2758450825277412,-0.01703583357064891,-0.6136189976090166,0.739655965501147,0.3133262395858765,-0.4289679527282715,-0.8472385406494141,17.38402938842773,9.119109153747559,-40.7159309387207,2,192.168.1.8,10.83.46.32,1,0
2015-03-01 17:31:29.479,52,1425259869.828554,37.77924608066725,-122.4388316454234,56.96329,-1,-1,10,65,-9999,1425259889.419998,23.03819274902344,-1.20538330078125,-36.03668212890625,348.8924560546875,335.1153564453125,10,191240.517567625,0.3532257080078125,-0.9522705078125,-0.612457275390625,191240.5264597917,2.566529621506258,-0.3261677250302556,2.262896234039708,191240.4746839583,-1.337973961125569,0.3409328974498579,0.5813919114940526,2.033966064453125,0.4246136844158173,2.882431507110596,0.1562545001506805,-0.211752861738205,0.02906915731728077,XTrueNorthZVertical,0.3223759890397667,-0.04768974547204291,-0.5474171546104215,0.7708007650579917,0.279429703950882,-0.5491876602172852,-0.7875988483428955,21.71406745910645,-0.4250392913818359,-39.64174652099609,2,192.168.1.8,10.83.46.32,1,0
2015-03-01 17:31:29.484,53,1425259869.828554,37.77924608066725,-122.4388316454234,56.96329,-1,-1,10,65,-9999,1425259889.477861,23.49859237670898,-8.801361083984375,-35.42094421386719,340.7205810546875,326.9434814453125,10,191240.5666019584,0.320220947265625,-0.8988494873046875,-0.7113494873046875,191240.5264597917,2.566529621506258,-0.3261677250302556,2.262896234039708,191240.5264597917,-1.229889972780837,0.266918245265532,0.7296672929737459,2.550279140472412,-0.3135286867618561,2.294650077819824,0.1566199511289597,-0.2856488227844238,0.106543205678463,XTrueNorthZVertical,0.3605530961921691,-0.1024754790768538,-0.4953716320968223,0.783649882177144,0.1966057568788528,-0.6666216850280762,-0.7190004587173462,21.56209182739258,-6.894357681274414,-39.12408065795898,2,192.168.1.8,10.83.46.32,1,0
2015-03-01 17:31:29.546,54,1425259869.828554,37.77924608066725,-122.4388316454234,56.96329,-1,-1,10,65,-9999,1425259889.477861,23.49859237670898,-8.801361083984375,-35.42094421386719,340.7205810546875,326.9434814453125,10,191240.6157697917,0.2351226806640625,-0.911773681640625,-0.54937744140625,191240.5782352083,3.268137546474871,0.1826760728645682,1.881828242085796,191240.5782352083,-1.124560489943242,0.1905421968405218,0.8961724151410008,3.251887321472168,0.1953149735927582,1.913581728935242,0.2143165916204453,-0.0876493975520134,-0.106259360909462,XTrueNorthZVertical,0.4105853849026844,-0.1573847593364549,-0.4434395193518582,0.7810320240670197,0.1182944998145103,-0.780941903591156,-0.6132993698120117,20.57283973693848,-11.2966365814209,-38.63021850585938,2,192.168.1.8,10.83.46.32,1,0
2015-03-01 17:31:29.579,55,1425259869.828554,37.77924608066725,-122.4388316454234,56.96329,-1,-1,10,65,-9999,1425259889.550294,22.50958251953125,-20.39073181152344,-32.29232025146484,332.8273620605469,319.0502624511719,10,191240.664691375,0.3536834716796875,-1.076431274414062,-0.3999176025390625,191240.630009375,3.308328109433583,0.5479424648066041,0.9673599764576573,191240.630009375,-1.053818426725569,0.1545923766958635,1.072697337511219,3.292077541351318,0.5605815649032593,0.9991127848625183,0.1861256808042526,-0.07525824010372162,-0.03668450191617012,XTrueNorthZVertical,0.4737507914259923,-0.1988235295037487,-0.3968543951250464,0.7606154951860783,0.07356365025043488,-0.8784923553466797,-0.4720587730407715,18.87967872619629,-22.71401977539062,-34.21667098999023,2,192.168.1.8,10.83.46.32,1,0
2015-03-01 17:31:29.629,56,1425259869.828554,37.77924608066725,-122.4388316454234,56.96329,-1,-1,10,65,-9999,1425259889.602673,21.96392822265625,-26.67820739746094,-28.36489105224609,330.4241333007812,316.6470336914062,10,191240.7138544167,0.4027099609375,-1.095062255859375,-0.3543548583984375,191240.6817850417,2.767948223174477,0.3046757487172072,0.5439011178524089,191240.6817850417,-1.023100543400211,0.1452654286068352,1.227054873707395,2.751697540283203,0.3173147141933441,0.575653612613678,0.329465925693512,-0.1641820222139359,-0.09108293801546097,XTrueNorthZVertical,0.5297728325190724,-0.2293677604358696,-0.3627617458768075,0.731529249472688,0.04878418520092964,-0.9415003657341003,-0.3334623575210571,18.55633354187012,-28.07807731628418,-30.17339324951172,2,192.168.1.8,10.83.46.32,1,0
2015-03-01 17:31:29.679,57,1425259869.828554,37.77924608066725,-122.4388316454234,56.96329,-1,-1,10,65,-9999,1425259889.653775,21.82751083374023,-31.23239135742188,-24.63715362548828,328.9891967773438,315.2120971679688,10,191240.7627725417,0.1072998046875,-1.470245361328125,-0.242706298828125,191240.733560625,2.138352973029934,-0.2010638686110204,0.2165224534744943,191240.733560625,-1.012618649847035,0.1382852611811993,1.344315943166826,2.122102499008179,-0.1884250491857529,0.2482746541500092,0.1782145351171494,-0.2029206603765488,0.04200076684355736,XTrueNorthZVertical,0.5694704816082373,-0.253969792229929,-0.3409371721225281,0.703537142292412,0.0309529472142458,-0.9744627475738525,-0.2224054336547852,18.30835342407227,-30.8046932220459,-27.5504035949707,2,192.168.1.8,10.83.46.32,1,0
2015-03-01 17:31:29.727,58,1425259869.828554,37.77924608066725,-122.4388316454234,56.96329,-1,-1,10,65,-9999,1425259889.705455,21.92982482910156,-34.12124633789062,-21.50851440429688,327.9454345703125,314.1683349609375,10,191240.811941125,-0.089691162109375,-0.656646728515625,0.0412445068359375,191240.7853349583,0.6799697411117185,0.8514501510697026,-0.1915183003158493,191240.7853349583,-1.078918641887631,0.2109106228244479,1.406184745968418,0.6637195944786072,0.8640888333320618,-0.1597664058208466,0.07729675620794296,-0.2522721886634827,-0.1155496537685394,XTrueNorthZVertical,0.592921409026206,-0.2613911886111021,-0.331282438076431,0.6858358011691283,0.03430603072047234,-0.9864820837974548,-0.1602376997470856,17.71348762512207,-34.68368148803711,-22.94393348693848,2,192.168.1.8,10.83.46.32,1,0
2015-03-01 17:31:29.775,59,1425259869.828554,37.77924608066725,-122.4388316454234,56.96329,-1,-1,10,65,-9999,1425259889.757339,21.81045532226562,-35.93954467773438,-19.36174011230469,326.7379760742188,312.9608764648438,10,191240.8608654167,0.157684326171875,-0.8575439453125,0.017181396484375,191240.8371104167,1.18147226914563,0.623893954882901,0.2169853108719501,191240.8371104167,-0.9422180742213739,0.09945128266870611,1.456566657985775,1.16522228717804,0.6365325450897217,0.2487369179725647,-0.1011606305837631,0.2944319844245911,0.1554863005876541,XTrueNorthZVertical,0.6091876301688055,-0.2686661850720717,-0.3088369793393327,0.679211736610169,0.01131688244640827,-0.9934828877449036,-0.1134178265929222,17.84169960021973,-35.67216873168945,-21.26780891418457,2,192.168.1.8,10.83.46.32,1,0
2015-03-01 17:31:29.824,60,1425259869.828554,37.77924608066725,-122.4388316454234,56.96329,-1,-1,10,65,-9999,1425259889.809243,22.27085876464844,-37.45193481445312,-16.71572113037109,324.4361267089844,310.6590270996094,10,191240.9100072917,-0.4299774169921875,-2.639938354492188,-0.1065673828125,191240.8888860834,1.173988253850289,0.617073333015099,-0.04214905162435708,191240.8888860834,-1.195609945086337,0.3775907124558994,1.52119571554411,1.157738327980042,0.6297118067741394,-0.01039776764810085,-0.02722065523266792,-0.2087646424770355,0.008672189898788929,XTrueNorthZVertical,0.6361978783454743,-0.2687171172042353,-0.2935441921907455,0.6609653004882755,0.01827900484204292,-0.9987701177597046,-0.04608673974871635,17.78462219238281,-36.57662582397461,-19.72326469421387,2,192.168.1.8,10.83.46.32,1,0
2015-03-01 17:31:29.877,61,1425259869.828554,37.77924608066725,-122.4388316454234,56.96329,-1,-1,10,65,-9999,1425259889.859733,23.31101608276367,-37.80877685546875,-14.43581390380859,322.7143859863281,308.9372863769531,10,191240.958938,0.282257080078125,-1.031524658203125,0.2728271484375,191240.9406602917,-0.5854805193195981,1.526265876523791,-0.1842649147709095,191240.8888860834,-1.195609945086337,0.3775907124558994,1.52119571554411,1.157738327980042,0.6297118067741394,-0.01039776764810085,-0.02722065523266792,-0.2087646424770355,0.008672189898788929,XTrueNorthZVertical,0.6361978783454743,-0.2687171172042353,-0.2935441921907455,0.6609653004882755,0.01827900484204292,-0.9987701177597046,-0.04608673974871635,17.78462219238281,-36.57662582397461,-19.72326469421387,2,192.168.1.8,10.83.46.32,1,0
2015-03-01 17:31:29.922,62,1425259869.828554,37.77924608066725,-122.4388316454234,56.96329,-1,-1,10,65,-9999,1425259889.913238,23.44742584228516,-37.74081420898438,-13.30416870117188,318.736083984375,304.958984375,10,191241.0080960834,0.0142974853515625,-1.07958984375,0.1203460693359375,191240.9924360417,-0.009308280642044954,-0.2720988969989219,0.1255363537802641,191240.9924360417,-0.9392481065725298,0.206801748606457,1.517165527072992,-0.02537831105291843,-0.2594708800315857,0.1574154198169708,0.2298076152801514,-0.03406107798218727,0.1512474566698074,XTrueNorthZVertical,0.6440482184868331,-0.2428391724986195,-0.2633971599572711,0.6759089549627806,0.01100660022348166,-0.998562216758728,-0.05246205627918243,19.56693267822266,-37.48785400390625,-15.96701622009277,2,192.168.1.8,10.83.46.32,1,0
2015-03-01 17:31:29.975,63,1425259869.828554,37.77924608066725,-122.4388316454234,56.96329,-1,-1,10,65,-9999,1425259889.966003,23.15754318237305,-37.68983459472656,-13.65364837646484,318.1666259765625,304.3895263671875,10,191241.057020625,0.0535430908203125,-1.008010864257812,0.0081024169921875,191241.0442115,-0.3534840346473074,-0.01177729728865741,0.2516889630367726,191241.0442115,-0.7848909548261473,0.04849344615594222,1.506134153110386,-0.3695539236068726,0.0008505965815857053,0.2835677266120911,-0.001575847854837775,-0.02534426376223564,0.1079517006874084,XTrueNorthZVertical,0.6384682159784404,-0.2451287695176582,-0.2636311959699876,0.6802710979894798,0.003132244339212775,-0.9979101419448853,-0.06454044580459595,19.25035667419434,-37.58951950073242,-16.11215209960938,2,192.168.1.8,10.83.46.32,1,0
2015-03-01 17:31:30.023,64,1425259869.828554,37.77924608066725,-122.4388316454234,56.96329,-1,-1,10,65,-9999,1425259890.016701,22.71419525146484,-37.68983459472656,-13.95319366455078,317.6187133789062,303.8416137695312,10,191241.1060822083,-0.0019378662109375,-1.011917114257812,-0.0079803466796875,191241.0959859167,-0.3896835843964274,0.08413085673225718,0.2603418397345491,191241.0442115,-0.7848909548261473,0.04849344615594222,1.506134153110386,-0.3695539236068726,0.0008505965815857053,0.2835677266120911,-0.001575847854837775,-0.02534426376223564,0.1079517006874084,XTrueNorthZVertical,0.6384682159784404,-0.2451287695176582,-0.2636311959699876,0.6802710979894798,0.003132244339212775,-0.9979101419448853,-0.06454044580459595,19.25035667419434,-37.58951950073242,-16.11215209960938,2,192.168.1.8,10.83.46.32,1,0
2015-03-01 17:31:30.075,65,1425259869.828554,37.77924608066725,-122.4388316454234,56.96329,-1,-1,10,65,-9999,1425259890.016701,22.71419525146484,-37.68983459472656,-13.95319366455078,317.6187133789062,303.8416137695312,10,191241.155121875,0.0715484619140625,-0.9986114501953125,0.028900146484375,191241.147761375,-0.4340201565401756,0.1123132263358027,0.3428881156182091,191241.0959859167,-0.581821444441405,-0.1530751326900021,1.485822003893637,-0.4057532846927643,0.09675861895084381,0.2922202944755554,0.03975073993206024,-0.03633824735879898,0.08235327154397964,XTrueNorthZVertical,0.6299634860439474,-0.247399334246276,-0.2601777850211296,0.6886559711174135,-0.01294104848057032,-0.9963918328285217,-0.08387915045022964,18.5274829864502,-37.52920150756836,-17.07164192199707,2,192.168.1.8,10.83.46.32,1,0
2015-03-01 17:31:30.119,66,1425259869.828554,37.77924608066725,-122.4388316454234,56.96329,-1,-1,10,65,-9999,1425259890.069104,22.50957489013672,-37.79177856445312,-14.68543243408203,316.1412963867188,302.3641967773438,10,191241.2043120417,0.0505828857421875,-1.011306762695312,0.0283050537109375,191241.1995371667,-0.4385480630255283,0.05880046634007752,0.4359876999535262,191241.1995371667,-0.3528748762010182,-0.368296335543435,1.433757387070568,-0.454617440700531,0.07142797112464905,0.4678654968738556,0.128101721405983,-0.02310805954039097,0.1492236107587814,XTrueNorthZVertical,0.6116693043912271,-0.2492709496052167,-0.2485243645567398,0.7084915290096606,-0.04918326064944267,-0.9906248450279236,-0.1274493187665939,17.7821044921875,-37.40999603271484,-18.09526252746582,2,192.168.1.8,10.83.46.32,1,0
2015-03-01 17:31:30.176,67,1425259869.828554,37.77924608066725,-122.4388316454234,56.96329,-1,-1,10,65,-9999,1425259890.120848,21.81045150756836,-38.04666137695312,-14.96834564208984,314.9736022949219,301.1965026855469,10,191241.25322725,-0.018798828125,-1.010650634765625,-0.015045166015625,191241.1995371667,-0.4385480630255283,0.05880046634007752,0.4359876999535262,191241.1995371667,-0.3528748762010182,-0.368296335543435,1.433757387070568,-0.454617440700531,0.07142797112464905,0.4678654968738556,0.128101721405983,-0.02310805954039097,0.1492236107587814,XTrueNorthZVertical,0.6116693043912271,-0.2492709496052167,-0.2485243645567398,0.7084915290096606,-0.04918326064944267,-0.9906248450279236,-0.1274493187665939,17.7821044921875,-37.40999603271484,-18.09526252746582,2,192.168.1.8,10.83.46.32,1,0
2015-03-01 17:31:30.216,68,1425259869.828554,37.77924608066725,-122.4388316454234,56.96329,-1,-1,10,65,-9999,1425259890.172223,20.44630432128906,-37.84275817871094,-16.13324737548828,315.2484741210938,301.4713745117188,10,191241.302286125,-0.0265350341796875,-1.005767822265625,-0.162200927734375,191241.303087,-0.4988678627674961,-0.3051457966496061,0.5737210652102441,191241.2513112084,-0.2751611366470796,-0.4417139414924044,1.400995108811614,-0.5794947147369385,0.01548739057034254,0.5502254962921143,0.04642195254564285,-0.01512930262833834,0.1422383785247803,XTrueNorthZVertical,0.6000284932726438,-0.2521553842585139,-0.242180148214272,0.7195360977530089,-0.07223982363939285,-0.9856183528900146,-0.1527669429779053,16.65964698791504,-37.3485221862793,-19.25340843200684,2,192.168.1.8,10.83.46.32,1,0
2015-03-01 17:31:30.272,69,1425259869.828554,37.77924608066725,-122.4388316454234,56.96329,-1,-1,10,65,-9999,1425259890.224797,19.11626052856445,-37.87673950195312,-17.1650390625,313.3993225097656,299.6222229003906,10,191241.3513220834,-0.193359375,-0.956817626953125,-0.2117462158203125,191241.3548625417,-0.4223770825704582,-0.3688544688786997,0.4981296345133261,191241.303087,-0.2015110643134718,-0.5194975394673107,1.366084991693446,-0.5149320960044861,-0.292503833770752,0.6055843830108643,0.07438425719738007,-0.02664811536669731,0.01426384411752224,XTrueNorthZVertical,0.5868516035614415,-0.2595627275020082,-0.2366848753246898,0.7295290305326663,-0.1009192913770676,-0.9791197180747986,-0.1764647662639618,16.07445335388184,-37.31439590454102,-19.80902099609375,2,192.168.1.8,10.83.46.32,1,0
2015-03-01 17:31:30.316,70,1425259869.828554,37.77924608066725,-122.4388316454234,56.96329,-1,-1,10,65,-9999,1425259890.275394,18.05904769897461,-38.08067321777344,-18.2301025390625,311.5625305175781,297.7854309082031,10,191241.4004059167,-0.18414306640625,-1.006378173828125,-0.311553955078125,191241.3548625417,-0.4223770825704582,-0.3688544688786997,0.4981296345133261,191241.3548625417,-0.1504948789699866,-0.5860408866489907,1.330772325408033,-0.4384411573410034,-0.3562126159667969,0.5299926400184631,-0.06188112124800682,0.01451464276760817,-0.01368811167776585,XTrueNorthZVertical,0.5722936702397579,-0.2710182707150328,-0.2344367106242556,0.737609945270624,-0.1314782500267029,-0.9713322520256042,-0.1980580985546112,14.91260528564453,-37.24886322021484,-20.81552696228027,2,192.168.1.8,10.83.46.32,1,0
2015-03-01 17:31:30.371,71,1425259869.828554,37.77924608066725,-122.4388316454234,56.96329,-1,-1,10,65,-9999,1425259890.32753,16.81425857543945,-38.13165283203125,-19.54478454589844,311.1310424804688,297.3539428710938,10,191241.4494437917,-0.332611083984375,-1.058120727539062,-0.1410675048828125,191241.406636875,-0.3040224753018107,-0.6477787814353857,0.4462445985758573,191241.406636875,-0.1110920641153476,-0.6476169952510036,1.300191743889196,-0.3200864195823669,-0.6351370215415955,0.4781073033809662,-0.02287588641047478,-0.04276871308684349,-0.09836477041244507,XTrueNorthZVertical,0.5588611826266997,-0.284744770876092,-0.2341818201365739,0.7428010634333013,-0.1612671762704849,-0.9636094570159912,-0.2131891846656799,12.78969383239746,-37.09552001953125,-22.43870735168457,2,192.168.1.8,10.83.46.32,1,0
2015-03-01 17:31:30.413,72,1425259869.828554,37.77924608066725,-122.4388316454234,56.96329,-1,-1,10,65,-9999,1425259890.380633,15.36485290527344,-38.18263244628906,-20.59320831298828,310.9236450195312,297.1465454101562,10,191241.49862175,-0.0726165771484375,-1.325408935546875,-0.2083587646484375,191241.5101881667,-1.044059814800266,-0.1757835456473342,0.03566798279554025,191241.458412375,-0.1004720977861661,-0.6872996259247101,1.277274108025709,-0.3952427804470062,-0.4219764173030853,0.2147634923458099,-0.1490479111671448,-0.1008899807929993,0.08257010579109192,XTrueNorthZVertical,0.5469561448986091,-0.2983624822312785,-0.238549338762672,0.7449248072380511,-0.1835631728172302,-0.9572307467460632,-0.2236376106739044,11.8480863571167,-37.05203247070312,-23.01997375488281,2,192.168.1.8,10.83.46.32,1,0
2015-03-01 17:31:30.477,73,1425259869.828554,37.77924608066725,-122.4388316454234,56.96329,-1,-1,10,65,-9999,1425259890.435389,14.6998291015625,-37.85972595214844,-21.60836029052734,310.8554077148438,297.0783081054688,10,191241.5475562917,-0.28424072265625,-1.443130493164062,-0.363861083984375,191241.5101881667,-1.044059814800266,-0.1757835456473342,0.03566798279554025,191241.5101881667,-0.1559966369268149,-0.6449326914252472,1.245450492470373,-1.060123324394226,-0.1631420850753784,0.06753001362085342,0.1023344695568085,-0.4408569633960724,0.02424837835133076,XTrueNorthZVertical,0.5314484564621627,-0.2997422092831545,-0.2443051087091457,0.7536790501698748,-0.1921477019786835,-0.9475402235984802,-0.2554343044757843,10.86496829986572,-36.80254364013672,-23.88879776000977,2,192.168.1.8,10.83.46.32,1,0
2015-03-01 17:31:30.511,74,1425259869.828554,37.77924608066725,-122.4388316454234,56.96329,-1,-1,10,65,-9999,1425259890.435389,14.6998291015625,-37.85972595214844,-21.60836029052734,310.8554077148438,297.0783081054688,10,191241.5966219167,-0.187744140625,-1.11346435546875,-0.5048828125,191241.56196225,-2.313469663140313,0.3397298728814842,0.00291429718087371,191241.56196225,-0.288462362192541,-0.5200744472672043,1.173536338754415,-2.329533100128174,0.3523712158203125,0.03477600961923599,-0.1463890820741653,-0.4527381360530853,-0.07424947619438171,XTrueNorthZVertical,0.4987284165907191,-0.2887914554880907,-0.2565466121279174,0.7759209033374381,-0.1922644823789597,-0.9221245646476746,-0.3357389271259308,10.4602165222168,-34.71552658081055,-26.99195098876953,2,192.168.1.8,10.83.46.32,1,0
2015-03-01 17:31:30.573,75,1425259869.828554,37.77924608066725,-122.4388316454234,56.96329,-1,-1,10,65,-9999,1425259890.560712,15.6376838684082,-30.05987548828125,-29.94582366943359,312.0155639648438,298.2384643554688,10,191241.6456617083,0.071868896484375,-0.64715576171875,-0.4052886962890625,191241.6137380417,-3.808177080746664,1.112934753228005,-0.3466357159041686,191241.6137380417,-0.4433698995870554,-0.3375895996608858,1.030465356738738,-3.824240207672119,1.12557590007782,-0.3147742748260498,0.03514423966407776,-0.2047326415777206,-0.02490066550672054,XTrueNorthZVertical,0.4417055797969202,-0.2494079026500318,-0.2693614935362206,0.8186184797451311,-0.1703828871250153,-0.8575384616851807,-0.4853837490081787,10.79837799072266,-32.68531036376953,-29.29530715942383,2,192.168.1.8,10.83.46.32,1,0
2015-03-01 17:31:30.609,76,1425259869.828554,37.77924608066725,-122.4388316454234,56.96329,-1,-1,10,65,-9999,1425259890.560712,15.6376838684082,-30.05987548828125,-29.94582366943359,312.0155639648438,298.2384643554688,10,191241.6948435,0.3255157470703125,-0.3398895263671875,-0.6063690185546875,191241.6655135417,-4.276732045038552,1.463260278822478,-1.890990315183996,191241.6655135417,-0.6122731109503436,-0.1377199555488067,0.8406583063678396,-4.29279613494873,1.475902676582336,-1.859131455421448,0.3006717562675476,0.3108172118663788,0.2990545034408569,XTrueNorthZVertical,0.3692346881876614,-0.1825845121364247,-0.3012629959155108,0.8599820922363384,-0.0915653258562088,-0.7450823783874512,-0.6606572866439819,12.51865196228027,-27.57746505737305,-33.5546760559082,2,192.168.1.8,10.83.46.32,1,0
2015-03-01 17:31:30.682,77,1425259869.828554,37.77924608066725,-122.4388316454234,56.96329,-1,-1,10,65,-9999,1425259890.665372,20.75323104858398,-13.3045654296875,-35.83697509765625,320.8709411621094,307.0938415527344,10,191241.7437794583,0.291778564453125,-0.5346832275390625,-0.84295654296875,191241.717287875,-3.31384271710281,0.4966872664669392,-3.545337994857948,191241.717287875,-0.8185781167492939,0.05814094645731933,0.6467327952653441,-3.329906940460205,0.5093295574188232,-3.513479471206665,0.2488534152507782,0.1751377582550049,0.03590509667992592,XTrueNorthZVertical,0.3023590397805794,-0.101118010943265,-0.3686988241026914,0.8731639518094244,0.0463736392557621,-0.6025822162628174,-0.796708345413208,18.90027809143066,-13.85004711151123,-38.65365982055664,2,192.168.1.8,10.83.46.32,1,0
2015-03-01 17:31:30.708,78,1425259869.828554,37.77924608066725,-122.4388316454234,56.96329,-1,-1,10,65,-9999,1425259890.665372,20.75323104858398,-13.3045654296875,-35.83697509765625,320.8709411621094,307.0938415527344,10,191241.79285225,-0.01885986328125,-0.4868316650390625,-0.7239990234375,191241.7690634167,-1.469724569736427,-1.449700261500122,-3.925188655877585,191241.7690634167,-1.026651677097624,0.1422229943830456,0.5158059993378904,-1.485788583755493,-1.437058091163635,-3.893330335617065,0.1256904453039169,-0.05138055607676506,0.03069859743118286,XTrueNorthZVertical,0.2553574813731483,-0.06508723974056976,-0.4578493329194885,0.849076054887435,0.1233024746179581,-0.4932361543178558,-0.8611124157905579,20.50787734985352,-7.979518890380859,-39.48295593261719,2,192.168.1.8,10.83.46.32,1,0
2015-03-01 17:31:30.773,79,1425259869.828554,37.77924608066725,-122.4388316454234,56.96329,-1,-1,10,65,-9999,1425259890.715996,21.04311752319336,-4.485076904296875,-37.61763763427734,333.2344665527344,319.4573669433594,10,191241.84190375,-0.265167236328125,-0.4709320068359375,-0.6098480224609375,191241.8208392917,-0.9887206589289649,-1.182968433046036,-3.965811982513435,191241.8208392917,-1.235894272803013,0.1578879047580986,0.4300607419954495,-1.004784464836121,-1.170326352119446,-3.933954238891602,-0.3409895300865173,-0.05475367233157158,0.255712628364563,XTrueNorthZVertical,0.2180130058799769,-0.06044015082180668,-0.5505420788194128,0.8035674754451733,0.1429151892662048,-0.4169260263442993,-0.8976346254348755,19.36926460266113,-1.25959587097168,-40.82149887084961,2,192.168.1.8,10.83.46.32,1,0
2015-03-01 17:31:30.805,80,1425259869.828554,37.77924608066725,-122.4388316454234,56.96329,-1,-1,10,65,-9999,1425259890.767073,18.55355453491211,2.720062255859375,-38.78255462646484,346.8447875976562,333.0676879882812,10,191241.8910819583,-0.108642578125,-0.39776611328125,-0.7037506103515625,191241.8726134583,-0.8721511685389975,0.6758860498961909,-3.559136631413975,191241.8726134583,-1.42181430797919,0.2217256713525172,0.3479390327059705,-0.8882148265838623,0.6885279417037964,-3.527279138565063,-0.4104404449462891,-0.05028954520821571,0.2435102909803391,XTrueNorthZVertical,0.201462311821992,-0.02968261482667549,-0.6242150168866041,0.7542462745641915,0.2067355960607529,-0.3409610688686371,-0.9170637726783752,15.2940788269043,6.936123847961426,-41.96582794189453,2,192.168.1.8,10.83.46.32,1,0
2015-03-01 17:31:30.873,81,1425259869.828554,37.77924608066725,-122.4388316454234,56.96329,-1,-1,10,65,-9999,1425259890.819591,17.03594589233398,8.242828369140625,-38.73262786865234,357.4668579101562,343.6897583007812,10,191241.9400255833,0.4436798095703125,-0.3068389892578125,-0.9503021240234375,191241.9243891667,-0.4165415639898765,1.908755730183696,-3.295061306147244,191241.8726134583,-1.42181430797919,0.2217256713525172,0.3479390327059705,-0.8882148265838623,0.6885279417037964,-3.527279138565063,-0.4104404449462891,-0.05028954520821571,0.2435102909803391,XTrueNorthZVertical,0.201462311821992,-0.02968261482667549,-0.6242150168866041,0.7542462745641915,0.2067355960607529,-0.3409610688686371,-0.9170637726783752,15.2940788269043,6.936123847961426,-41.96582794189453,2,192.168.1.8,10.83.46.32,1,0
2015-03-01 17:31:30.903,82,1425259869.828554,37.77924608066725,-122.4388316454234,56.96329,-1,-1,10,65,-9999,1425259890.871231,16.93363189697266,12.66110229492188,-37.90053558349609,6.768752098083496,352.9916381835938,10,191241.9891951667,0.5513458251953125,-0.352691650390625,-0.9513702392578125,191241.9761646667,0.278388484545362,0.5690528101354443,-3.011729728302586,191241.9761646667,-1.732467962296747,0.447256189065115,0.2084553405749012,0.2623251080513,0.581694483757019,-2.979872941970825,0.1084551736712456,-0.147451713681221,-0.1261824816465378,XTrueNorthZVertical,0.2337558355421053,0.06556721304572001,-0.723947510189199,0.6457237049409015,0.4231305122375488,-0.206948921084404,-0.882118284702301,16.77530097961426,12.96909332275391,-39.91918563842773,2,192.168.1.8,10.83.46.32,1,0
2015-03-01 17:31:30.973,83,1425259869.828554,37.77924608066725,-122.4388316454234,56.96329,-1,-1,10,65,-9999,1425259890.923454,16.78016662597656,15.49896240234375,-36.31958770751953,17.22554016113281,3.44842529296875,10,191242.03812525,0.536956787109375,-0.2821044921875,-0.8413543701171875,191242.027938875,0.4669807697715413,-0.07153144161509231,-2.286435115966591,191241.9761646667,-1.732467962296747,0.447256189065115,0.2084553405749012,0.2623251080513,0.581694483757019,-2.979872941970825,0.1084551736712456,-0.147451713681221,-0.1261824816465378,XTrueNorthZVertical,0.2337558355421053,0.06556721304572001,-0.723947510189199,0.6457237049409015,0.4231305122375488,-0.206948921084404,-0.882118284702301,16.77530097961426,12.96909332275391,-39.91918563842773,2,192.168.1.8,10.83.46.32,1,0
2015-03-01 17:31:31.001,84,1425259869.828554,37.77924608066725,-122.4388316454234,56.96329,-1,-1,10,65,-9999,1425259890.973961,15.0408821105957,17.70806884765625,-36.05331420898438,23.09450340270996,9.317389488220215,10,191242.0872282083,0.4832763671875,-0.1792449951171875,-0.76873779296875,191242.0797145417,0.5893239934048005,0.0605408421124443,-1.728535091844181,191242.0797145417,-1.959447097499629,0.4917000905213202,0.148122467798286,0.5733593702316284,0.07321713119745255,-1.696576118469238,-0.007574332412332296,-0.07742468267679214,0.1055822372436523,XTrueNorthZVertical,0.2415289477134841,0.07566013574283968,-0.7931324716221064,0.5539676384435442,0.4669554233551025,-0.1475814133882523,-0.8718786239624023,14.13804721832275,16.55246353149414,-39.61415100097656,2,192.168.1.8,10.83.46.32,1,0
2015-03-01 17:31:31.072,85,1425259869.828554,37.77924608066725,-122.4388316454234,56.96329,-1,-1,10,65,-9999,1425259891.026085,12.72183227539062,18.5577392578125,-36.38615417480469,30.01543045043945,16.23831558227539,10,191242.13623425,0.5608673095703125,-0.14825439453125,-0.8132781982421875,191242.1314902084,0.7976247359620021,-0.4464235630011106,-1.581557894443798,191242.0797145417,-1.959447097499629,0.4917000905213202,0.148122467798286,0.5733593702316284,0.07321713119745255,-1.696576118469238,-0.007574332412332296,-0.07742468267679214,0.1055822372436523,XTrueNorthZVertical,0.2415289477134841,0.07566013574283968,-0.7931324716221064,0.5539676384435442,0.4669554233551025,-0.1475814133882523,-0.8718786239624023,14.13804721832275,16.55246353149414,-39.61415100097656,2,192.168.1.8,10.83.46.32,1,0
2015-03-01 17:31:31.100,86,1425259869.828554,37.77924608066725,-122.4388316454234,56.96329,-1,-1,10,65,-9999,1425259891.079467,10.67561721801758,18.4217529296875,-37.41793823242188,35.40448379516602,21.62737083435059,10,191242.1853010417,0.4259033203125,-0.1328277587890625,-0.828216552734375,191242.1832645833,0.9068569512326922,-0.8319331750210569,-1.553673532566232,191242.1314902084,-2.048963150723113,0.5007132541782933,0.1366986008836568,0.7816633582115173,-0.4337443113327026,-1.549601674079895,0.1216711699962616,-0.01813042536377907,0.04262558370828629,XTrueNorthZVertical,0.2455705144434193,0.0718797200674767,-0.8170832162368247,0.5166269415462362,0.4755730926990509,-0.1362732648849487,-0.8690568804740906,13.33142280578613,16.59771728515625,-39.8740348815918,2,192.168.1.8,10.83.46.32,1,0
2015-03-01 17:31:31.143,87,1425259869.828554,37.77924608066725,-122.4388316454234,56.96329,-1,-1,10,65,-9999,1425259891.129997,8.134895324707031,17.21524047851562,-38.06696319580078,40.66156005859375,26.88444709777832,10,191242.2343316667,0.3883514404296875,-0.1466522216796875,-0.821807861328125,191242.1832645833,0.9068569512326922,-0.8319331750210569,-1.553673532566232,191242.1832645833,-2.136248347160081,0.4821606502405558,0.1390717429377069,0.890906035900116,-0.8192455172538757,-1.52172327041626,-0.005375491920858622,0.0005013210466131568,0.0529780201613903,XTrueNorthZVertical,0.24121744951865,0.05562091580608484,-0.8409080523486285,0.4812421988730445,0.4592176675796509,-0.1386238783597946,-0.8774409294128418,10.43476867675781,15.73912906646729,-41.06756973266602,2,192.168.1.8,10.83.46.32,1,0
2015-03-01 17:31:31.198,88,1425259869.828554,37.77924608066725,-122.4388316454234,56.96329,-1,-1,10,65,-9999,1425259891.182074,5.645332336425781,16.09371948242188,-39.23188781738281,44.9927864074707,31.21567344665527,10,191242.2833920417,0.3717041015625,-0.1143798828125,-0.854522705078125,191242.2868157917,1.088422485922697,-0.7712370706170609,-1.270523848624026,191242.235040125,-2.222883393849588,0.4487506968803847,0.1506730615600364,1.001281499862671,-0.97360759973526,-1.318641901016235,-0.04057352989912033,0.003451380645856261,0.06897396594285965,XTrueNorthZVertical,0.2314012561514105,0.03259668283747504,-0.8639670218424845,0.4460401896651094,0.4289249777793884,-0.1501035988330841,-0.8907818198204041,7.813525199890137,14.62290573120117,-42.05078887939453,2,192.168.1.8,10.83.46.32,1,0
2015-03-01 17:31:31.244,89,1425259869.828554,37.77924608066725,-122.4388316454234,56.96329,-1,-1,10,65,-9999,1425259891.234128,2.899986267089844,14.20742797851562,-40.28031921386719,49.88499450683594,36.10787963867188,10,191242.3324275,0.2777099609375,-0.1519012451171875,-0.8458099365234375,191242.2868157917,1.088422485922697,-0.7712370706170609,-1.270523848624026,191242.2868157917,-2.303490416665321,0.4178904437182976,0.1704742840957329,1.072471976280212,-0.7585497498512268,-1.238574147224426,-0.0282464399933815,0.05526989325881004,0.04617619514465332,XTrueNorthZVertical,0.2226797123201871,0.008018472081750799,-0.8831779221566103,0.4127301277468388,0.3999505341053009,-0.1696497797966003,-0.9006989002227783,6.026243209838867,13.61477088928223,-42.67870712280273,2,192.168.1.8,10.83.46.32,1,0
2015-03-01 17:31:31.297,90,1425259869.828554,37.77924608066725,-122.4388316454234,56.96329,-1,-1,10,65,-9999,1425259891.285251,0.291046142578125,12.2872314453125,-40.72962951660156,53.82961654663086,40.0525016784668,10,191242.3815694167,-0.1641998291015625,-0.1524200439453125,-1.151535034179688,191242.3385900834,1.02879510806415,-0.6280703241043633,-0.9364252298675149,191242.3385900834,-2.374975843680703,0.3945163761014726,0.1985881083704969,1.012844681739807,-0.6153830885887146,-0.9044758677482605,-0.09909758716821671,0.04538413882255554,0.05922847986221313,XTrueNorthZVertical,0.2172193762683953,-0.01722016216517769,-0.897701839798584,0.3829498219337999,0.3768075406551361,-0.197285383939743,-0.9050384163856506,2.296208381652832,10.53426742553711,-43.89654159545898,2,192.168.1.8,10.83.46.32,5,0
2015-03-01 17:31:31.343,91,1425259869.828554,37.77924608066725,-122.4388316454234,56.96329,-1,-1,10,65,-9999,1425259891.337114,-0.76617431640625,11.02969360351562,-40.92933654785156,55.93780517578125,42.16069030761719,10,191242.4305178333,0.2978057861328125,-0.214935302734375,-0.6630859375,191242.390365875,0.1401254165478272,-0.2412962431988474,-0.2241236478577985,191242.390365875,-2.409517929692937,0.3757901254603739,0.2113336710802244,0.1241751313209534,-0.2286091446876526,-0.1921746283769608,-0.5230422616004944,0.05734404176473618,-0.2420125752687454,XTrueNorthZVertical,0.2105295541883445,-0.03026673123749742,-0.9051508095728824,0.368053249450846,0.3588424623012543,-0.2097640782594681,-0.9095224738121033,1.238297462463379,9.294129371643066,-44.21804428100586,2,192.168.1.8,10.83.46.32,5,0
2015-03-01 17:31:31.393,92,1425259869.828554,37.77924608066725,-122.4388316454234,56.96329,-1,-1,10,65,-9999,1425259891.389333,-0.8173294067382812,10.1630859375,-41.14569091796875,56.59072494506836,42.8136100769043,10,191242.479634125,0.2768402099609375,-0.1738128662109375,-0.8429107666015625,191242.442141375,0.417697908535189,-0.01322046428337135,0.07419939639513369,191242.442141375,-2.422714823733281,0.3840246862792853,0.2296480836552745,0.4017477929592133,-0.0005335025489330292,0.1061480492353439,-0.1421170234680176,-0.0152850616723299,0.2927613854408264,XTrueNorthZVertical,0.217022802748518,-0.03859520226751578,-0.9051492805607245,0.3634779829065678,0.3648190498352051,-0.2276348620653152,-0.9028230309486389,0.4050655364990234,8.738114356994629,-44.34671020507812,2,192.168.1.8,10.83.46.32,5,0
2015-03-01 17:31:31.443,93,1425259869.828554,37.77924608066725,-122.4388316454234,56.96329,-1,-1,10,65,-9999,1425259891.440464,-0.3910293579101562,9.39837646484375,-41.16232299804688,56.73671722412109,42.95960235595703,10,191242.5286201667,0.4154205322265625,-0.4176788330078125,-0.8599700927734375,191242.4939157917,0.3217916187270374,0.2087622683741124,0.1128029816602683,191242.4939157917,-2.433169795340602,0.3923741761178903,0.2444088349658403,0.3058416843414307,0.2214491069316864,0.1447513252496719,-0.06007541343569756,0.1002438813447952,0.0003484680783003569,XTrueNorthZVertical,0.222936452720788,-0.04503193310711511,-0.9048256601367557,0.3599471329449785,0.3710190057754517,-0.2419827729463577,-0.8965429067611694,0.6265277862548828,7.309266090393066,-44.60192489624023,2,192.168.1.8,10.83.46.32,5,0
2015-03-01 17:31:31.494,94,1425259869.828554,37.77924608066725,-122.4388316454234,56.96329,-1,-1,10,65,-9999,1425259891.440464,-0.3910293579101562,9.39837646484375,-41.16232299804688,56.73671722412109,42.95960235595703,10,191242.5776927917,0.3959503173828125,-0.0286712646484375,-0.9892425537109375,191242.5456913333,-0.05309783949789084,-0.1251592501699089,0.285816040825593,191242.5456913333,-2.435396297928457,0.3974581983128442,0.2626069685732732,-0.06904763728380203,-0.1124725267291069,0.3177641034126282,0.06888237595558167,-0.3162524104118347,0.1857096254825592,XTrueNorthZVertical,0.2280333079542487,-0.05274854023594606,-0.9029820500209571,0.3603356352273352,0.3738056123256683,-0.2595990300178528,-0.8904368281364441,0.92327880859375,6.862957000732422,-44.66762924194336,2,192.168.1.8,10.83.46.32,5,0
2015-03-01 17:31:31.542,95,1425259869.828554,37.77924608066725,-122.4388316454234,56.96329,-1,-1,10,65,-9999,1425259891.493689,-0.7491226196289062,9.31341552734375,-41.21224975585938,57.1212043762207,43.34408950805664,10,191242.6267395,0.3360595703125,-0.1820526123046875,-1.022689819335938,191242.5974669583,-0.1458528107881516,-0.2369105495157049,0.1200004408223164,191242.5974669583,-2.414614908404937,0.3813785442544242,0.2537643755767732,-0.1618024259805679,-0.2242239713668823,0.1519481390714645,-0.03435258567333221,0.1513791382312775,-0.1260322034358978,XTrueNorthZVertical,0.2199026781869139,-0.0492848611245618,-0.9018156100457352,0.3687036354259498,0.3602803349494934,-0.2510495483875275,-0.8984276056289673,0.9188423156738281,6.4375,-44.73101806640625,2,192.168.1.8,10.83.46.32,5,0
2015-03-01 17:31:31.590,96,1425259869.828554,37.77924608066725,-122.4388316454234,56.96329,-1,-1,10,65,-9999,1425259891.54466,-1.345932006835938,9.46636962890625,-41.49516296386719,55.51837921142578,41.74126434326172,10,191242.6757939583,0.3961029052734375,-0.3212738037109375,-0.89996337890625,191242.6492412083,0.09664957806839265,-0.7389297308010917,0.007471498438217303,191242.6492412083,-2.411852708749005,0.3554969474013247,0.2564805164134776,0.0807001143693924,-0.7262433171272278,0.03941887989640236,0.02052205614745617,-0.01371724624186754,-0.008567025884985924,XTrueNorthZVertical,0.2087333791965254,-0.05501373955778369,-0.9038327425442245,0.3694457863914157,0.3366709351539612,-0.2536777853965759,-0.9068077206611633,-0.03000545501708984,7.002406120300293,-44.65551376342773,2,192.168.1.8,10.83.46.32,5,0
2015-03-01 17:31:31.631,97,1425259869.828554,37.77924608066725,-122.4388316454234,56.96329,-1,-1,10,65,-9999,1425259891.597039,-2.266731262207031,9.602294921875,-41.19560241699219,55.38706207275391,41.60994720458984,10,191242.7249359167,0.1899261474609375,-0.17279052734375,-0.908660888671875,191242.7010170417,0.01500291800096139,-0.8299896000575171,0.1420231851406177,191242.7010170417,-2.407059016963335,0.3139178857719938,0.2573972694971947,-0.0009464006870985031,-0.8173032999038696,0.1739702820777893,0.0003050089871976525,0.02794089540839195,0.07162179052829742,XTrueNorthZVertical,0.1902017171841976,-0.0626489273797676,-0.9070117554848817,0.3704430385348033,0.2986146807670593,-0.2545644342899323,-0.9197968244552612,-0.9646711349487305,6.922808647155762,-44.65751647949219,2,192.168.1.8,10.83.46.32,5,0
2015-03-01 17:31:31.688,98,1425259869.828554,37.77924608066725,-122.4388316454234,56.96329,-1,-1,10,65,-9999,1425259891.673145,-4.091270446777344,9.5853271484375,-40.91268920898438,54.56837844848633,40.79126358032227,10,191242.7738918333,0.1419219970703125,-0.178802490234375,-0.89727783203125,191242.7527925833,0.2194458054030743,-0.323760493720933,0.1264301106420947,191242.7527925833,-2.400216269320758,0.286327629550709,0.2644382631916253,0.2034966498613358,-0.3110742568969727,0.1583768874406815,-0.07833891361951828,0.1018059402704239,0.02867961674928665,XTrueNorthZVertical,0.1790930867491348,-0.07038871586245182,-0.9076766430453972,0.3729532910916034,0.2726138234138489,-0.2613671123981476,-0.9259421825408936,-2.580428123474121,6.954849243164062,-44.58834838867188,2,192.168.1.8,10.83.46.32,5,0
2015-03-01 17:31:31.727,99,1425259869.828554,37.77924608066725,-122.4388316454234,56.96329,-1,-1,10,65,-9999,1425259891.673145,-4.091270446777344,9.5853271484375,-40.91268920898438,54.56837844848633,40.79126358032227,10,191242.8229371667,0.2227325439453125,-0.243621826171875,-0.9438934326171875,191242.8045669167,0.2083694521133257,-0.1347162700577673,-0.02388402760415763,191242.7527925833,-2.400216269320758,0.286327629550709,0.2644382631916253,0.2034966498613358,-0.3110742568969727,0.1583768874406815,-0.07833891361951828,0.1018059402704239,0.02867961674928665,XTrueNorthZVertical,0.1790930867491348,-0.07038871586245182,-0.9076766430453972,0.3729532910916034,0.2726138234138489,-0.2613671123981476,-0.9259421825408936,-2.580428123474121,6.954849243164062,-44.58834838867188,2,192.168.1.8,10.83.46.32,5,0
2015-03-01 17:31:31.786,100,1425259869.828554,37.77924608066725,-122.4388316454234,56.96329,-1,-1,10,65,-9999,1425259891.776763,-5.472457885742188,9.262451171875,-40.79621887207031,53.93269729614258,40.15558242797852,10,191242.8721139167,0.2104644775390625,-0.3199615478515625,-0.8676300048828125,191242.8563424583,0.1373533321691637,-0.1588884516918715,0.08938873567240062,191242.8563424583,-2.398131643119434,0.2689317049829142,0.2827375800065843,0.1214045062661171,-0.1462025046348572,0.1213348358869553,-0.08272776752710342,-0.0125793656334281,0.02233537472784519,XTrueNorthZVertical,0.1743749183045762,-0.08188106871436232,-0.9072180804365042,0.373957462407008,0.2551520764827728,-0.2789855897426605,-0.9257777333259583,-3.761920928955078,6.18095588684082,-44.61830520629883,2,192.168.1.8,10.83.46.32,5,0
2015-03-01 17:31:31.825,101,1425259869.828554,37.77924608066725,-122.4388316454234,56.96329,-1,-1,10,65,-9999,1425259891.776763,-5.472457885742188,9.262451171875,-40.79621887207031,53.93269729614258,40.15558242797852,10,191242.9210532084,0.2456207275390625,-0.39154052734375,-0.9012298583984375,191242.908118125,0.2937775609043849,0.1723872163091561,0.1296735745337022,191242.908118125,-2.392961281807163,0.2697612141772204,0.2981210743629149,0.2778288722038269,0.185073047876358,0.1616193801164627,-0.08236739784479141,-0.05528960376977921,0.0569399930536747,XTrueNorthZVertical,0.1775800553816841,-0.08834809842492293,-0.9047750567578252,0.3768845775732016,0.2547459304332733,-0.2937246859073639,-0.9213199019432068,-4.081635475158691,5.959762573242188,-44.62029647827148,2,192.168.1.8,10.83.46.32,5,0
2015-03-01 17:31:31.884,102,1425259869.828554,37.77924608066725,-122.4388316454234,56.96329,-1,-1,10,65,-9999,1425259891.829613,-4.858596801757812,9.092529296875,-40.72962951660156,52.06049728393555,38.28338241577148,10,191242.970125375,0.2049560546875,-0.1656951904296875,-0.9151611328125,191242.959892375,0.4194667801312196,0.1150879738755563,0.2385369419934163,191242.908118125,-2.392961281807163,0.2697612141772204,0.2981210743629149,0.2778288722038269,0.185073047876358,0.1616193801164627,-0.08236739784479141,-0.05528960376977921,0.0569399930536747,XTrueNorthZVertical,0.1775800553816841,-0.08834809842492293,-0.9047750567578252,0.3768845775732016,0.2547459304332733,-0.2937246859073639,-0.9213199019432068,-4.081635475158691,5.959762573242188,-44.62029647827148,2,192.168.1.8,10.83.46.32,5,0
2015-03-01 17:31:31.924,103,1425259869.828554,37.77924608066725,-122.4388316454234,56.96329,-1,-1,10,65,-9999,1425259891.881204,-4.722175598144531,9.1944580078125,-40.52992248535156,50.5805778503418,36.80346298217773,10,191243.0192677917,0.242279052734375,-0.22113037109375,-0.9383087158203125,191243.0116681667,0.3220704516931687,-0.2507792272084016,-0.02605104178315511,191242.959892375,-2.385135219357116,0.2744680279395834,0.3190254534122678,0.4035182297229767,0.1277736723423004,0.2704824209213257,-0.04001271352171898,0.08767393231391907,0.02779977396130562,XTrueNorthZVertical,0.1836235272956755,-0.09634592845090734,-0.9008717191229489,0.381352800812067,0.2573589086532593,-0.3136413395404816,-0.9139997363090515,-3.624176025390625,4.957629203796387,-44.7821044921875,2,192.168.1.8,10.83.46.32,5,0
2015-03-01 17:31:31.982,104,1425259869.828554,37.77924608066725,-122.4388316454234,56.96329,-1,-1,10,65,-9999,1425259891.934828,-4.790382385253906,9.22845458984375,-39.43157958984375,49.26737594604492,35.49026107788086,10,191243.0682340834,0.106536865234375,-0.185577392578125,-0.85601806640625,191243.06344375,0.3129866755310174,-0.1854795825440947,-0.1683522609415771,191243.06344375,-2.391442495665866,0.2570220017059773,0.3526687388097894,0.2971187233924866,-0.1727630943059921,-0.1363076716661453,-0.1213232129812241,0.1822870671749115,0.03206266090273857,XTrueNorthZVertical,0.1811334965709479,-0.1156591488009991,-0.9002615523314333,0.3786062675402065,0.2385564893484116,-0.3454035222530365,-0.9076272249221802,-7.125024795532227,7.49416446685791,-41.29584884643555,2,192.168.1.8,10.83.46.32,5,0
2015-03-01 17:31:32.022,105,1425259869.828554,37.77924608066725,-122.4388316454234,56.96329,-1,-1,10,65,-9999,1425259891.985376,-4.909736633300781,8.667694091796875,-38.81582641601562,49.05918884277344,35.28207397460938,10,191243.1173750834,0.01593017578125,-0.1991424560546875,-0.841461181640625,191243.06344375,0.3129866755310174,-0.1854795825440947,-0.1683522609415771,191243.06344375,-2.391442495665866,0.2570220017059773,0.3526687388097894,0.2971187233924866,-0.1727630943059921,-0.1363076716661453,-0.1213232129812241,0.1822870671749115,0.03206266090273857,XTrueNorthZVertical,0.1811334965709479,-0.1156591488009991,-0.9002615523314333,0.3786062675402065,0.2385564893484116,-0.3454035222530365,-0.9076272249221802,-7.125024795532227,7.49416446685791,-41.29584884643555,2,192.168.1.8,10.83.46.32,5,0
2015-03-01 17:31:32.081,106,1425259869.828554,37.77924608066725,-122.4388316454234,56.96329,-1,-1,10,65,-9999,1425259892.035484,-4.909736633300781,7.546142578125,-38.948974609375,49.46722793579102,35.69011306762695,10,191243.1663339583,0.3719940185546875,-0.573944091796875,-0.59130859375,191243.1669936667,0.3102870291340041,1.823893036783885,-0.4930722916032656,191243.115218125,-2.409262327961865,0.2768178175319461,0.3590459846112223,0.1272246241569519,0.6542244553565979,-0.5458605885505676,-0.2446991503238678,0.1659411489963531,0.04393114894628525,XTrueNorthZVertical,0.1900707560598539,-0.1165249586156061,-0.9010953895638351,0.3719167801075725,0.2558685839176178,-0.3513812124729156,-0.9005900621414185,-5.572300910949707,4.985637664794922,-43.18975067138672,2,192.168.1.8,10.83.46.32,5,0
2015-03-01 17:31:32.120,107,1425259869.828554,37.77924608066725,-122.4388316454234,56.96329,-1,-1,10,65,-9999,1425259892.088925,-3.681999206542969,6.3226318359375,-40.57984924316406,52.06758880615234,38.29047393798828,10,191243.2153760833,0.6127777099609375,-0.3325042724609375,-0.89703369140625,191243.2187693334,-0.1722186382121541,1.452273940377574,0.06027985232561654,191243.1669936667,-2.454257346537055,0.3508524058636683,0.3493897327231821,0.2944193780422211,1.836609244346619,-0.4610283672809601,0.04906124994158745,-0.2316196113824844,0.2910339534282684,XTrueNorthZVertical,0.2194856727232577,-0.1032219262948575,-0.9027435536843419,0.3552820012199903,0.3229327797889709,-0.3423244655132294,-0.882342517375946,-4.740786552429199,4.785562515258789,-43.31149291992188,2,192.168.1.8,10.83.46.32,5,0
2015-03-01 17:31:32.179,108,1425259869.828554,37.77924608066725,-122.4388316454234,56.96329,-1,-1,10,65,-9999,1425259892.139276,-0.4421463012695312,4.997161865234375,-41.64491271972656,54.97462463378906,41.197509765625,10,191243.2644457083,0.18292236328125,-0.32586669921875,-0.704803466796875,191243.2187693334,-0.1722186382121541,1.452273940377574,0.06027985232561654,191243.2187693334,-2.43490065609139,0.4583794334815557,0.3522135744647615,-0.1880861222743988,1.464990019798279,0.09232347458600998,0.1974464803934097,0.01247206423431635,-0.05531444773077965,XTrueNorthZVertical,0.2688960565105795,-0.0826758094375474,-0.8857812486534762,0.3691221363845732,0.4153312146663666,-0.3449763357639313,-0.8417192697525024,-1.883293151855469,4.544642448425293,-43.55526733398438,2,192.168.1.8,10.83.46.32,5,0
2015-03-01 17:31:32.218,109,1425259869.828554,37.77924608066725,-122.4388316454234,56.96329,-1,-1,10,65,-9999,1425259892.192702,3.104629516601562,4.249420166015625,-41.87791442871094,53.46371841430664,39.68660354614258,10,191243.3135892084,0.200714111328125,-0.3098602294921875,-0.6268463134765625,191243.2705435833,-0.2339411249002666,0.9215562688693845,0.2474843643077555,191243.2705435833,-2.426283212902206,0.4899119269900246,0.3497865615887013,-0.2498084604740143,0.9342722296714783,0.2795276939868927,-0.2591321766376495,0.01683060266077518,0.1241394281387329,XTrueNorthZVertical,0.2827983089794108,-0.07452293797147255,-0.8801218026903732,0.3739746131649194,0.4420545399188995,-0.3426972925662994,-0.8289428949356079,3.159977912902832,4.839212417602539,-43.44949340820312,2,192.168.1.8,10.83.46.32,5,0
2015-03-01 17:31:32.282,110,1425259869.828554,37.77924608066725,-122.4388316454234,56.96329,-1,-1,10,65,-9999,1425259892.243655,6.1739501953125,4.8612060546875,-41.61164855957031,51.37203598022461,37.59492111206055,10,191243.3625523333,0.3692474365234375,-0.3243865966796875,-0.524139404296875,191243.3740949584,-1.008626456496762,3.936450631495312,0.8357438922248512,191243.3223194167,-2.399866826787454,0.5600560992667633,0.3396054017244954,-0.5812442898750305,2.121397256851196,0.4128404259681702,-0.3001788258552551,0.02325482666492462,0.1719907224178314,XTrueNorthZVertical,0.3127470050538413,-0.0526383378352978,-0.8659018656430006,0.3868235075639507,0.5008929371833801,-0.3331150710582733,-0.7988370060920715,4.500577926635742,5.145795822143555,-43.29581451416016,2,192.168.1.8,10.83.46.32,5,0
2015-03-01 17:31:32.316,111,1425259869.828554,37.77924608066725,-122.4388316454234,56.96329,-1,-1,10,65,-9999,1425259892.30101,10.89730453491211,5.35400390625,-40.363525390625,48.80752944946289,35.03041458129883,10,191243.4115952083,0.6684722900390625,-0.379730224609375,-0.4282989501953125,191243.3740949584,-1.008626456496762,3.936450631495312,0.8357438922248512,191243.3740949584,-2.344346420089627,0.7015656304669178,0.3241362696939067,-1.024493455886841,3.949166536331177,0.8677865862846375,-0.2098733931779861,0.00534928310662508,0.214184507727623,XTrueNorthZVertical,0.3713586114254185,-0.00801942911967319,-0.8326109781304754,0.4108374134395633,0.6118051409721375,-0.3184901475906372,-0.7240569591522217,8.23790454864502,6.026991844177246,-42.62715148925781,2,192.168.1.8,10.83.46.32,5,0
2015-03-01 17:31:32.379,112,1425259869.828554,37.77924608066725,-122.4388316454234,56.96329,-1,-1,10,65,-9999,1425259892.30101,10.89730453491211,5.35400390625,-40.363525390625,48.80752944946289,35.03041458129883,10,191243.4606619167,1.137359619140625,-0.389862060546875,-0.5328216552734375,191243.4258691667,-0.9857416469336022,4.431022815424511,1.047064925774312,191243.4258691667,-2.269810761002566,0.8954484086931001,0.3233620635970562,-1.001608490943909,4.443738460540771,1.079107284545898,0.04548383504152298,-0.09064532071352005,0.1771642863750458,XTrueNorthZVertical,0.4485853997069115,0.04885875188354986,-0.7770639176505837,0.4388115542325857,0.7400386333465576,-0.317756175994873,-0.5927678942680359,20.29981422424316,8.106160163879395,-37.99301910400391,2,192.168.1.8,10.83.46.32,5,0
2015-03-01 17:31:32.415,113,1425259869.828554,37.77924608066725,-122.4388316454234,56.96329,-1,-1,10,65,-9999,1425259892.373504,22.7653694152832,5.79583740234375,-35.20461273193359,43.13271331787109,29.35559844970703,10,191243.5097104583,1.014480590820312,-0.3753509521484375,-0.4104766845703125,191243.4776449167,-0.4321982880384524,2.716650414257371,1.345001279036964,191243.4776449167,-2.19717116745614,1.056670038952592,0.353058420156374,-0.4480649828910828,2.729366064071655,1.3770432472229,0.3251957595348358,-0.01200363133102655,-0.08758506178855896,XTrueNorthZVertical,0.5109408450027133,0.09065726715002559,-0.7169144824083129,0.4655687794970162,0.8170161843299866,-0.3457691967487335,-0.4614414274692535,25.36561012268066,8.434224128723145,-34.73775100708008,2,192.168.1.8,10.83.46.32,5,0
2015-03-01 17:31:32.483,114,1425259869.828554,37.77924608066725,-122.4388316454234,56.96329,-1,-1,10,65,-9999,1425259892.425462,29.80776977539062,5.54095458984375,-30.59487915039062,35.34553909301758,21.56842422485352,10,191243.5587744583,1.008499145507812,-0.4185638427734375,-0.4140777587890625,191243.52942075,-0.2298395905054355,1.518500631417338,0.9002797422885234,191243.52942075,-2.156472689897114,1.138737581298197,0.3991006345300908,-0.2457061260938644,1.531215906143188,0.9323214888572693,0.1674273312091827,0.003686860436573625,-0.009430957026779652,XTrueNorthZVertical,0.5445395956270557,0.1027631812238385,-0.6768586172713057,0.4845396994189164,0.8367382884025574,-0.3885898292064667,-0.3858327269554138,30.57562255859375,7.713929176330566,-30.44484329223633,2,192.168.1.8,10.83.46.32,5,0
2015-03-01 17:31:32.513,115,1425259869.828554,37.77924608066725,-122.4388316454234,56.96329,-1,-1,10,65,-9999,1425259892.476799,33.96841430664062,4.861236572265625,-27.1334228515625,28.20608901977539,14.42897605895996,10,191243.6079095417,0.9532928466796875,-0.487945556640625,-0.298553466796875,191243.581195,-0.1761092502486508,0.731310959554593,0.5274054980604581,191243.581195,-2.12910447603859,1.181303774751464,0.4275466013447976,-0.1919756233692169,0.7440261840820312,0.5594468712806702,0.1302621811628342,-0.03686807304620743,-0.02984257787466049,XTrueNorthZVertical,0.5614063969648417,0.1097880307340224,-0.6525766080718644,0.4969035792387071,0.8418294787406921,-0.4146395027637482,-0.3455388844013214,34.32540893554688,5.899204254150391,-26.612548828125,2,192.168.1.8,10.83.46.32,5,0
2015-03-01 17:31:32.582,116,1425259869.828554,37.77924608066725,-122.4388316454234,56.96329,-1,-1,10,65,-9999,1425259892.535928,36.13399124145508,4.13055419921875,-24.58724975585938,23.27197456359863,9.494860649108887,10,191243.6568640417,0.9634857177734375,-0.4948272705078125,-0.292938232421875,191243.6329705417,-0.2398807730794703,0.5067191279771587,0.4328864488641289,191243.6329705417,-2.108031398708684,1.201137865949499,0.4466409564157212,-0.255746990442276,0.5194342136383057,0.4649275541305542,0.1013720780611038,-0.05892154201865196,0.03923375904560089,XTrueNorthZVertical,0.5693922735737571,0.1134240381763553,-0.6376303943923869,0.5063149782631396,0.8409802317619324,-0.4319384396076202,-0.3258548378944397,34.98959732055664,5.467148780822754,-25.82828521728516,2,192.168.1.8,10.83.46.32,5,0
2015-03-01 17:31:32.611,117,1425259869.828554,37.77924608066725,-122.4388316454234,56.96329,-1,-1,10,65,-9999,1425259892.606876,38.12905120849609,3.0260009765625,-23.00629425048828,19.10196685791016,5.324851989746094,10,191243.7058992917,0.903167724609375,-0.48394775390625,-0.27606201171875,191243.6847462917,-0.2953237922332849,0.3236150851254146,0.3152871140806279,191243.6847462917,-2.084582362793943,1.212301161586465,0.4601738166536318,-0.3111898601055145,0.3363300561904907,0.3473278880119324,0.0737815797328949,-0.04141556099057198,0.01598116382956505,XTrueNorthZVertical,0.5735242040884353,0.1178414004180331,-0.6254966336522718,0.5156910932624654,0.8390144109725952,-0.4441038370132446,-0.3143667876720428,35.7151985168457,4.974773406982422,-24.91862869262695,2,192.168.1.8,10.83.46.32,5,0
2015-03-01 17:31:32.693,118,1425259869.828554,37.77924608066725,-122.4388316454234,56.96329,-1,-1,10,65,-9999,1425259892.658058,38.65765380859375,2.635162353515625,-22.52368927001953,17.58421325683594,3.80709981918335,10,191243.754966,0.876922607421875,-0.462005615234375,-0.26959228515625,191243.7365205,-0.4270274944659546,0.1572466128798376,0.1766080603208227,191243.7365205,-2.059661225449914,1.213839052646762,0.4655370383195802,-0.442893385887146,0.1699614375829697,0.2086484730243683,0.06727259606122971,-0.01386580150574446,0.03752009198069572,XTrueNorthZVertical,0.5732905315369401,0.1233624785617203,-0.6173827185955386,0.5243645628959882,0.8372531533241272,-0.4489027559757233,-0.3122393190860748,36.47695159912109,4.669822692871094,-23.85134124755859,2,192.168.1.8,10.83.46.32,4,0
2015-03-01 17:31:32.710,119,1425259869.828554,37.77924608066725,-122.4388316454234,56.96329,-1,-1,10,65,-9999,1425259892.658058,38.65765380859375,2.635162353515625,-22.52368927001953,17.58421325683594,3.80709981918335,10,191243.8040755833,0.8034515380859375,-0.4990386962890625,-0.235687255859375,191243.7882962083,-0.5046415960107878,0.1819913741483089,0.03056057245698628,191243.7365205,-2.059661225449914,1.213839052646762,0.4655370383195802,-0.442893385887146,0.1699614375829697,0.2086484730243683,0.06727259606122971,-0.01386580150574446,0.03752009198069572,XTrueNorthZVertical,0.5732905315369401,0.1233624785617203,-0.6173827185955386,0.5243645628959882,0.8372531533241272,-0.4489027559757233,-0.3122393190860748,36.47695159912109,4.669822692871094,-23.85134124755859,2,192.168.1.8,10.83.46.32,4,0
2015-03-01 17:31:32.776,120,1425259869.828554,37.77924608066725,-122.4388316454234,56.96329,-1,-1,10,65,-9999,1425259892.761572,39.13510131835938,3.518768310546875,-21.15908050537109,14.12960815429688,0.3524943590164185,10,191243.8530756667,0.798095703125,-0.470062255859375,-0.258056640625,191243.840071875,-0.6324751925473543,0.601980932801511,0.05566059941487409,191243.840071875,-2.001378634001498,1.220631794786472,0.4618846324049715,-0.6483170986175537,0.6147105693817139,0.08770246058702469,-0.04673032835125923,-0.04555962979793549,0.05689171701669693,XTrueNorthZVertical,0.5709098589534762,0.1432105543234669,-0.600743821842965,0.5409801117471075,0.8408892750740051,-0.4456360340118408,-0.3071053326129913,36.93778991699219,4.910263061523438,-23.08139801025391,2,192.168.1.8,10.83.46.32,4,0
2015-03-01 17:31:32.807,121,1425259869.828554,37.77924608066725,-122.4388316454234,56.96329,-1,-1,10,65,-9999,1425259892.761572,39.13510131835938,3.518768310546875,-21.15908050537109,14.12960815429688,0.3524943590164185,10,191243.9022332917,0.834014892578125,-0.4464263916015625,-0.2742767333984375,191243.8918463333,-0.3937994998611449,0.7302968278114909,0.01040390511450355,191243.840071875,-2.001378634001498,1.220631794786472,0.4618846324049715,-0.6483170986175537,0.6147105693817139,0.08770246058702469,-0.04673032835125923,-0.04555962979793549,0.05689171701669693,XTrueNorthZVertical,0.5709098589534762,0.1432105543234669,-0.600743821842965,0.5409801117471075,0.8408892750740051,-0.4456360340118408,-0.3071053326129913,36.93778991699219,4.910263061523438,-23.08139801025391,2,192.168.1.8,10.83.46.32,4,0
2015-03-01 17:31:32.878,122,1425259869.828554,37.77924608066725,-122.4388316454234,56.96329,-1,-1,10,65,-9999,1425259892.868074,40.14116287231445,3.977569580078125,-18.28007507324219,11.339919090271,357.5628051757812,10,191243.9512037917,0.924224853515625,-0.4282073974609375,-0.2189483642578125,191243.943621875,-0.04843890548690622,0.6698598489815596,-0.1905193485909606,191243.943621875,-1.96021030509504,1.275777001756928,0.4507075342020332,-0.06427983194589615,0.6825894117355347,-0.1584779024124146,0.04406926780939102,0.006098127923905849,0.03334464877843857,XTrueNorthZVertical,0.5820664502741636,0.1741757000056373,-0.5762515877361648,0.5466219272336661,0.8612499237060547,-0.4356025159358978,-0.2617229521274567,38.42007064819336,5.844367027282715,-20.27322387695312,2,192.168.1.8,10.83.46.32,4,0
2015-03-01 17:31:32.905,123,1425259869.828554,37.77924608066725,-122.4388316454234,56.96329,-1,-1,10,65,-9999,1425259892.868074,40.14116287231445,3.977569580078125,-18.28007507324219,11.339919090271,357.5628051757812,10,191244.000382,0.9138336181640625,-0.3683624267578125,-0.120025634765625,191243.9953977083,0.2952673332181752,0.4701997325811201,-0.477220091530678,191243.943621875,-1.96021030509504,1.275777001756928,0.4507075342020332,-0.06427983194589615,0.6825894117355347,-0.1584779024124146,0.04406926780939102,0.006098127923905849,0.03334464877843857,XTrueNorthZVertical,0.5820664502741636,0.1741757000056373,-0.5762515877361648,0.5466219272336661,0.8612499237060547,-0.4356025159358978,-0.2617229521274567,38.42007064819336,5.844367027282715,-20.27322387695312,2,192.168.1.8,10.83.46.32,4,0
2015-03-01 17:31:32.976,124,1425259869.828554,37.77924608066725,-122.4388316454234,56.96329,-1,-1,10,65,-9999,1425259892.942349,41.45415496826172,4.980194091796875,-16.3330078125,12.12843227386475,358.351318359375,10,191244.0493213334,0.896270751953125,-0.3583526611328125,-0.072479248046875,191244.0471718333,0.4447580220553751,0.5133621170002522,-0.6082382960987612,191243.9953977083,-1.972199713132443,1.310475278377736,0.4370622001773177,0.2794997990131378,0.482961893081665,-0.445084273815155,0.03733770921826363,0.04972923547029495,0.07761719822883606,XTrueNorthZVertical,0.5909164884020055,0.1849859356304164,-0.5725464129361804,0.5373904196166994,0.8754735589027405,-0.4232796430587769,-0.2331958115100861,39.04553985595703,6.17252254486084,-18.93694114685059,2,192.168.1.8,10.83.46.32,4,0
2015-03-01 17:31:33.004,125,1425259869.828554,37.77924608066725,-122.4388316454234,56.96329,-1,-1,10,65,-9999,1425259892.99493,42.10212707519531,5.86383056640625,-15.43435668945312,13.34910488128662,359.5719909667969,10,191244.0984782084,0.9480438232421875,-0.3660736083984375,-0.0132293701171875,191244.0471718333,0.4447580220553751,0.5133621170002522,-0.6082382960987612,191244.0471718333,-1.998080785444678,1.346497867006893,0.4162326069421203,0.4289906322956085,0.5261241793632507,-0.5761027336120605,0.0235144030302763,0.04466794431209564,0.1241317838430405,XTrueNorthZVertical,0.6004508371984798,0.194275413565044,-0.573557484849593,0.5222524466894365,0.8917077779769897,-0.4043176174163818,-0.203431710600853,39.55972290039062,7.059344291687012,-17.50588607788086,2,192.168.1.8,10.83.46.32,4,0
2015-03-01 17:31:33.076,126,1425259869.828554,37.77924608066725,-122.4388316454234,56.96329,-1,-1,10,65,-9999,1425259893.047136,42.11917877197266,6.866424560546875,-14.28609466552734,15.1522045135498,1.375090718269348,10,191244.1474494583,0.9864654541015625,-0.3596343994140625,-0.0229644775390625,191244.15072325,0.6665298323545246,0.8164942975496495,-0.4303607068862977,191244.0989476667,-2.031195894492121,1.393596715663639,0.3924771083745241,0.5660732984542847,0.8088089823722839,-0.5174317955970764,0.03854759782552719,0.01640473864972591,0.149641290307045,XTrueNorthZVertical,0.613722290249309,0.2047184014147742,-0.5732420587691995,0.5028208620768333,0.9094962477684021,-0.3824783563613892,-0.1628706604242325,39.71331405639648,7.522586822509766,-16.95656204223633,2,192.168.1.8,10.83.46.32,4,0
2015-03-01 17:31:33.100,127,1425259869.828554,37.77924608066725,-122.4388316454234,56.96329,-1,-1,10,65,-9999,1425259893.047136,42.11917877197266,6.866424560546875,-14.28609466552734,15.1522045135498,1.375090718269348,10,191244.1964980834,0.9660491943359375,-0.3464202880859375,-0.0038604736328125,191244.15072325,0.6665298323545246,0.8164942975496495,-0.4303607068862977,191244.15072325,-2.067640452058114,1.450167907174588,0.3753257826662088,0.6507627964019775,0.8292560577392578,-0.3982258439064026,0.06283818930387497,0.006941253319382668,0.08899479359388351,XTrueNorthZVertical,0.6312817774778315,0.2133159185316288,-0.5685241947139296,0.4824518909265803,0.9236272573471069,-0.3665756583213806,-0.111959271132946,40.07083129882812,8.134746551513672,-15.7929162979126,2,192.168.1.8,10.83.46.32,4,0
2015-03-01 17:31:33.176,128,1425259869.828554,37.77924608066725,-122.4388316454234,56.96329,-1,-1,10,65,-9999,1425259893.150302,42.34085845947266,8.106842041015625,-11.90634155273438,19.95745468139648,6.180339813232422,10,191244.2455589584,1.0101318359375,-0.3524932861328125,-0.0028839111328125,191244.2542732084,0.5207883416999383,0.5530490761968311,-0.3965380284100734,191244.202497625,-2.107543427440946,1.499844120546313,0.3595054354703335,0.7256877422332764,0.6275105476379395,-0.4018301963806152,0.03233351558446884,0.005391040816903114,0.06250011175870895,XTrueNorthZVertical,0.6476148938381335,0.2177490710422211,-0.5656162119382967,0.4617992451706291,0.9337157011032104,-0.3518113195896149,-0.06636058539152145,40.70579147338867,8.634586334228516,-13.7747745513916,2,192.168.1.8,10.83.46.32,4,0
2015-03-01 17:31:33.200,129,1425259869.828554,37.77924608066725,-122.4388316454234,56.96329,-1,-1,10,65,-9999,1425259893.150302,42.34085845947266,8.106842041015625,-11.90634155273438,19.95745468139648,6.180339813232422,10,191244.294599,1.033355712890625,-0.3177032470703125,0.0046539306640625,191244.2542732084,0.5207883416999383,0.5530490761968311,-0.3965380284100734,191244.2542732084,-2.141642322996918,1.541749331152183,0.342245247546474,0.5050216913223267,0.5658112764358521,-0.3644042909145355,0.06852572411298752,-0.01689031906425953,0.02447461150586605,XTrueNorthZVertical,0.6611025672859847,0.2219552519180713,-0.5634238182277486,0.4429817303635095,0.9416061043739319,-0.3356029689311981,-0.02735852263867855,40.85715866088867,8.8341064453125,-13.18760776519775,2,192.168.1.8,10.83.46.32,4,0
2015-03-01 17:31:33.273,130,1425259869.828554,37.77924608066725,-122.4388316454234,56.96329,-1,-1,10,65,-9999,1425259893.254079,42.44316482543945,8.8885498046875,-9.975914001464844,24.44988059997559,10.67276668548584,10,191244.343651625,0.9751434326171875,-0.259063720703125,0.064239501953125,191244.306049,0.1769822344539788,0.3455289061551317,-0.3429767988825088,191244.306049,-2.159287270363806,1.570276573803849,0.3251748402598651,0.1612149924039841,0.3582916557788849,-0.3108446896076202,0.08113759756088257,-0.0005328557454049587,0.008198203518986702,XTrueNorthZVertical,0.6691351220648784,0.2280612435426399,-0.5614856935645393,0.4300930413802014,0.9475947022438049,-0.319474458694458,-0.0004925152170471847,41.04257202148438,9.18463134765625,-12.34551525115967,2,192.168.1.8,10.83.46.32,4,0
2015-03-01 17:31:33.297,131,1425259869.828554,37.77924608066725,-122.4388316454234,56.96329,-1,-1,10,65,-9999,1425259893.254079,42.44316482543945,8.8885498046875,-9.975914001464844,24.44988059997559,10.67276668548584,10,191244.39278525,0.958526611328125,-0.2021484375,0.1377410888671875,191244.3578231667,-0.1731840341073078,0.1785396510594572,-0.2427226322786938,191244.3578231667,-2.15763322087221,1.583943810515801,0.3090274154777995,-0.1889548152685165,0.1913095116615295,-0.2106003165245056,0.01513445563614368,0.06281451880931854,0.0744049996137619,XTrueNorthZVertical,0.6709194883299732,0.2369160229122774,-0.5600150175378528,0.4244066082271495,0.9525474309921265,-0.3041322529315948,0.01252432353794575,41.12842178344727,10.12219524383545,-11.28077983856201,2,192.168.1.8,10.83.46.32,4,0
2015-03-01 17:31:33.373,132,1425259869.828554,37.77924608066725,-122.4388316454234,56.96329,-1,-1,10,65,-9999,1425259893.357622,42.68189239501953,9.5682373046875,-8.54473876953125,24.67266845703125,10.89555358886719,10,191244.4417237084,0.9726715087890625,-0.1302947998046875,0.1632232666015625,191244.409599,-0.4411536998360618,0.2463977945830032,0.06184765525934618,191244.409599,-2.139473957391675,1.591324294682175,0.3061281276899093,-0.4569243490695953,0.2591675519943237,0.0939696878194809,0.007524060551077127,0.1108325496315956,0.1161547303199768,XTrueNorthZVertical,0.6704460476784272,0.2455365466240086,-0.5542947797757132,0.4277512703032498,0.9533066153526306,-0.3013690412044525,0.01957219652831554,41.13472747802734,10.43692302703857,-10.96661853790283,2,192.168.1.8,10.83.46.32,4,0
2015-03-01 17:31:33.396,133,1425259869.828554,37.77924608066725,-122.4388316454234,56.96329,-1,-1,10,65,-9999,1425259893.357622,42.68189239501953,9.5682373046875,-8.54473876953125,24.67266845703125,10.89555358886719,10,191244.4908715833,0.93035888671875,-0.150054931640625,0.2060089111328125,191244.4613745833,-0.458398466842652,-0.1093832165044975,0.4304837449286594,191244.4613745833,-2.114503027610569,1.586582604486574,0.3205136409710839,-0.4741689264774323,-0.09661360830068588,0.4626054167747498,0.03213895112276077,0.1933805048465729,0.1748681366443634,XTrueNorthZVertical,0.6677768253571709,0.2481228941433334,-0.5473185281359496,0.439262473226715,0.9489554166793823,-0.3150540888309479,0.01498171780258417,41.26770401000977,10.59646606445312,-10.29337787628174,2,192.168.1.8,10.83.46.32,4,0
2015-03-01 17:31:33.479,134,1425259869.828554,37.77924608066725,-122.4388316454234,56.96329,-1,-1,10,65,-9999,1425259893.461091,43.14229202270508,7.3421630859375,-8.661224365234375,22.58597564697266,8.808862686157227,10,191244.5398017917,1.0130615234375,-0.130462646484375,0.2364044189453125,191244.5131489584,-0.2303317426748822,-0.4180140257565814,0.7485613191994722,191244.5131489584,-2.095291410072018,1.567207028158204,0.3536173573817166,-0.2461020350456238,-0.4052445292472839,0.7806826829910278,-0.004297458566725254,0.1785537302494049,0.2229106575250626,XTrueNorthZVertical,0.6641476315118983,0.2392160524431441,-0.5420363963644349,0.4559387015106631,0.9381200671195984,-0.3462935984134674,-0.003367207711562514,41.54409027099609,9.524629592895508,-10.22896575927734,2,192.168.1.8,10.83.46.32,4,0
2015-03-01 17:31:33.493,135,1425259869.828554,37.77924608066725,-122.4388316454234,56.96329,-1,-1,10,65,-9999,1425259893.461091,43.14229202270508,7.3421630859375,-8.661224365234375,22.58597564697266,8.808862686157227,10,191244.5889034167,1.062469482421875,-0.2326812744140625,0.284881591796875,191244.5649245417,0.2336375245359975,-0.94937085592639,0.9984451916493892,191244.5649245417,-2.094359191240114,1.532225938744875,0.4004119072286336,0.217867374420166,-0.9366015195846558,1.030566334724426,0.1069298386573792,0.2466550022363663,0.2993504106998444,XTrueNorthZVertical,0.6601065034628706,0.2156480075572668,-0.542651077873106,0.472530527388525,0.9202155470848083,-0.3897976875305176,-0.03551068156957626,41.62427520751953,8.594705581665039,-10.71506118774414,2,192.168.1.8,10.83.46.32,4,0
2015-03-01 17:31:33.574,136,1425259869.828554,37.77924608066725,-122.4388316454234,56.96329,-1,-1,10,65,-9999,1425259893.566002,43.3469123840332,3.19580078125,-12.25582122802734,16.65497016906738,2.877856492996216,10,191244.6378885417,1.148880004882812,-0.238494873046875,0.2100067138671875,191244.616700375,0.5043984494032636,-1.039333236497594,1.023471182728973,191244.616700375,-2.112019818502711,1.487874085986588,0.4547877300180701,0.488628476858139,-1.026564002037048,1.055591821670532,0.1957817673683167,0.1729752421379089,0.3438173830509186,XTrueNorthZVertical,0.6559222449988702,0.1804491780752577,-0.5487944229567108,0.4858278858685792,0.8952674269676208,-0.4392716288566589,-0.07440820336341858,41.53954315185547,6.676140785217285,-12.29462146759033,2,192.168.1.8,10.83.46.32,4,0
2015-03-01 17:31:33.591,137,1425259869.828554,37.77924608066725,-122.4388316454234,56.96329,-1,-1,10,65,-9999,1425259893.566002,43.3469123840332,3.19580078125,-12.25582122802734,16.65497016906738,2.877856492996216,10,191244.686922875,1.179458618164062,-0.37109375,0.098114013671875,191244.668474625,0.6807122304236325,-0.7836577876250815,0.6925497151529257,191244.616700375,-2.112019818502711,1.487874085986588,0.4547877300180701,0.488628476858139,-1.026564002037048,1.055591821670532,0.1957817673683167,0.1729752421379089,0.3438173830509186,XTrueNorthZVertical,0.6559222449988702,0.1804491780752577,-0.5487944229567108,0.4858278858685792,0.8952674269676208,-0.4392716288566589,-0.07440820336341858,41.53954315185547,6.676140785217285,-12.29462146759033,2,192.168.1.8,10.83.46.32,4,0
2015-03-01 17:31:33.682,138,1425259869.828554,37.77924608066725,-122.4388316454234,56.96329,-1,-1,10,65,-9999,1425259893.669473,42.49431991577148,-1.086456298828125,-15.95025634765625,19.60372543334961,5.826611042022705,10,191244.735975375,1.024551391601562,-0.44158935546875,-0.1868896484375,191244.720250375,0.5564470034316632,-0.5621445702677788,0.5428422450029934,191244.720250375,-2.171626394755848,1.441144405165548,0.5369159926541978,0.5406773090362549,-0.549375593662262,0.574962317943573,0.3165010213851929,0.09026949852705002,0.1091588959097862,XTrueNorthZVertical,0.6557365146562026,0.1202549131870208,-0.559374410046887,0.4925937467060776,0.8520780801773071,-0.5114883780479431,-0.1110967621207237,40.55683135986328,1.824602127075195,-16.52501678466797,2,192.168.1.8,10.83.46.32,4,0
2015-03-01 17:31:33.691,139,1425259869.828554,37.77924608066725,-122.4388316454234,56.96329,-1,-1,10,65,-9999,1425259893.669473,42.49431991577148,-1.086456298828125,-15.95025634765625,19.60372543334961,5.826611042022705,10,191244.7850095417,0.4724578857421875,-0.6415557861328125,-0.2744903564453125,191244.7720259167,0.7363829498506489,-0.9521834203536227,-0.3479169627046057,191244.7720259167,-2.20660996656787,1.421596741912939,0.5522955449444241,0.720613420009613,-0.9394145607948303,-0.3157971799373627,-0.2232274115085602,0.01486197486519814,-0.1293131560087204,XTrueNorthZVertical,0.6534825077948353,0.09842509519124974,-0.570729346442856,0.4873818589771198,0.8418645262718201,-0.5246428847312927,-0.1265462189912796,40.15313720703125,0.3005771636962891,-17.57547378540039,2,192.168.1.8,10.83.46.32,4,0
2015-03-01 17:31:33.775,140,1425259869.828554,37.77924608066725,-122.4388316454234,56.96329,-1,-1,10,65,-9999,1425259893.720617,41.84635162353516,-1.8001708984375,-17.28158569335938,20.72818946838379,6.951075553894043,10,191244.83406975,0.32733154296875,-0.9143218994140625,-0.32989501953125,191244.823800375,0.5978509025830161,-0.4572746128626385,-1.006016824944594,191244.7720259167,-2.20660996656787,1.421596741912939,0.5522955449444241,0.720613420009613,-0.9394145607948303,-0.3157971799373627,-0.2232274115085602,0.01486197486519814,-0.1293131560087204,XTrueNorthZVertical,0.6534825077948353,0.09842509519124974,-0.570729346442856,0.4873818589771198,0.8418645262718201,-0.5246428847312927,-0.1265462189912796,40.15313720703125,0.3005771636962891,-17.57547378540039,2,192.168.1.8,10.83.46.32,4,0
2015-03-01 17:31:33.787,141,1425259869.828554,37.77924608066725,-122.4388316454234,56.96329,-1,-1,10,65,-9999,1425259893.772164,41.0960693359375,-0.98455810546875,-18.47978210449219,24.71146011352539,10.93434715270996,10,191244.883104625,0.388671875,-0.915069580078125,-0.43603515625,191244.8755760417,0.6110881447812549,0.2208444976075839,-0.6696515897843155,191244.823800375,-2.251693244158943,1.407930011994796,0.5187965608337962,0.5820815563201904,-0.444505900144577,-0.973897397518158,-0.5137999653816223,-0.347136378288269,-0.1452909559011459,XTrueNorthZVertical,0.6488351333246534,0.09277552306043564,-0.5935846871144135,0.4669719927533577,0.8569243550300598,-0.4958354234695435,-0.1408113390207291,39.01268768310547,0.1124000549316406,-19.98147773742676,2,192.168.1.8,10.83.46.32,4,0
2015-03-01 17:31:33.872,142,1425259869.828554,37.77924608066725,-122.4388316454234,56.96329,-1,-1,10,65,-9999,1425259893.823927,41.0960693359375,-0.202880859375,-18.28007507324219,28.03738403320312,14.26026916503906,10,191244.932172375,0.3734893798828125,-0.6370697021484375,-0.289459228515625,191244.9273517083,0.4464520588247745,0.2339397933197215,-0.6415531097551074,191244.9273517083,-2.324729303890357,1.451317927680283,0.4575999290483913,0.4306830167770386,0.2467082589864731,-0.6094343066215515,-0.5172151327133179,-0.2433233857154846,-0.2258936315774918,XTrueNorthZVertical,0.6605564071305472,0.1009935396261941,-0.6088579294314302,0.4275014741838242,0.8907197713851929,-0.4417962431907654,-0.1069310754537582,38.83377456665039,1.615251541137695,-20.26303863525391,2,192.168.1.8,10.83.46.32,4,0
2015-03-01 17:31:33.886,143,1425259869.828554,37.77924608066725,-122.4388316454234,56.96329,-1,-1,10,65,-9999,1425259893.875836,41.0960693359375,0.57879638671875,-17.94725036621094,31.01723098754883,17.2401180267334,10,191244.981209,0.6771240234375,-0.5581512451171875,-0.028076171875,191244.9273517083,0.4464520588247745,0.2339397933197215,-0.6415531097551074,191244.9273517083,-2.324729303890357,1.451317927680283,0.4575999290483913,0.4306830167770386,0.2467082589864731,-0.6094343066215515,-0.5172151327133179,-0.2433233857154846,-0.2258936315774918,XTrueNorthZVertical,0.6605564071305472,0.1009935396261941,-0.6088579294314302,0.4275014741838242,0.8907197713851929,-0.4417962431907654,-0.1069310754537582,38.83377456665039,1.615251541137695,-20.26303863525391,2,192.168.1.8,10.83.46.32,4,0
2015-03-01 17:31:33.973,144,1425259869.828554,37.77924608066725,-122.4388316454234,56.96329,-1,-1,10,65,-9999,1425259893.927627,41.69288635253906,1.54742431640625,-16.83226013183594,32.32101821899414,18.54390335083008,10,191245.03029625,0.9882659912109375,-0.5826416015625,-0.000885009765625,191245.0309017083,-0.1987128300006984,1.337176645438203,-0.2388996645338851,191244.9791258333,-2.34168938790595,1.48856052551779,0.4253845926403752,0.03450998663902283,0.9594866633415222,-0.6401728391647339,-0.3145095109939575,-0.1381101161241531,0.006234292406588793,XTrueNorthZVertical,0.6703777973105096,0.114814346787099,-0.606575070350571,0.4116769478395371,0.9078017473220825,-0.4126711189746857,-0.0748225525021553,39.21700286865234,2.806588172912598,-19.37553787231445,2,192.168.1.8,10.83.46.32,4,0
2015-03-01 17:31:33.983,145,1425259869.828554,37.77924608066725,-122.4388316454234,56.96329,-1,-1,10,65,-9999,1425259893.927627,41.69288635253906,1.54742431640625,-16.83226013183594,32.32101821899414,18.54390335083008,10,191245.0793310833,1.213088989257812,-0.4371795654296875,0.07159423828125,191245.0826774584,0.1337157204362245,0.6337401940651419,0.08406401138889619,191245.0309017083,-2.334432442192546,1.547661440744226,0.4037802097575836,-0.2144123613834381,1.349973440170288,-0.2066848427057266,0.06892979145050049,-0.1897442489862442,0.02038752473890781,XTrueNorthZVertical,0.6860017269300689,0.1369867287754272,-0.5893821498113097,0.4040605140080946,0.919336199760437,-0.392897367477417,-0.02127253450453281,39.71400451660156,3.529990196228027,-18.20986175537109,2,192.168.1.8,10.83.46.32,4,0
2015-03-01 17:31:34.071,146,1425259869.828554,37.77924608066725,-122.4388316454234,56.96329,-1,-1,10,65,-9999,1425259894.031531,43.38101577758789,2.550018310546875,-13.38743591308594,32.48905181884766,18.71193695068359,10,191245.1283977084,1.097732543945312,-0.2373809814453125,0.1163482666015625,191245.0826774584,0.1337157204362245,0.6337401940651419,0.08406401138889619,191245.0826774584,-2.333140859716537,1.599379439769583,0.4033264591799693,0.1180163472890854,0.6465368866920471,0.1162785068154335,0.2937042117118835,-0.04469951242208481,0.04530820250511169,XTrueNorthZVertical,0.7008852377638761,0.1479962914138122,-0.5712809073807326,0.4006183430435956,0.919384777545929,-0.3924800455570221,0.02628603763878345,40.65937042236328,4.235586166381836,-15.81573390960693,2,192.168.1.8,10.83.46.32,4,0
2015-03-01 17:31:34.083,147,1425259869.828554,37.77924608066725,-122.4388316454234,56.96329,-1,-1,10,65,-9999,1425259894.031531,43.38101577758789,2.550018310546875,-13.38743591308594,32.48905181884766,18.71193695068359,10,191245.1774396667,0.92974853515625,-0.36614990234375,0.107086181640625,191245.1344515417,0.1532681165273682,0.06620485311882482,0.2561502904948734,191245.1344515417,-2.342135410556391,1.616023485235863,0.4174236313416526,0.1375688761472702,0.07900141179561615,0.2883644700050354,0.1845309287309647,0.1680256724357605,0.07501856982707977,XTrueNorthZVertical,0.7071877070925781,0.1433540932069894,-0.5643632941326079,0.4010351279402485,0.913201630115509,-0.405406653881073,0.04132969677448273,41.44721221923828,3.722893714904785,-13.76700592041016,2,192.168.1.8,10.83.46.32,4,0
