loggingTime,loggingSample,locationTimestamp_since1970,locationLatitude,locationLongitude,locationAltitude,locationSpeed,locationCourse,locationVerticalAccuracy,locationHorizontalAccuracy,locationFloor,locationHeadingTimestamp_since1970,locationHeadingX,locationHeadingY,locationHeadingZ,locationTrueHeading,locationMagneticHeading,locationHeadingAccuracy,accelerometerTimestamp_sinceReboot,accelerometerAccelerationX,accelerometerAccelerationY,accelerometerAccelerationZ,gyroTimestamp_sinceReboot,gyroRotationX,gyroRotationY,gyroRotationZ,motionTimestamp_sinceReboot,motionYaw,motionRoll,motionPitch,motionRotationRateX,motionRotationRateY,motionRotationRateZ,motionUserAccelerationX,motionUserAccelerationY,motionUserAccelerationZ,motionAttitudeReferenceFrame,motionQuaternionX,motionQuaternionY,motionQuaternionZ,motionQuaternionW,motionGravityX,motionGravityY,motionGravityZ,motionMagneticFieldX,motionMagneticFieldY,motionMagneticFieldZ,motionMagneticFieldCalibrationAccuracy,IP_en0,IP_pdp_ip0,deviceOrientation,state
2015-03-01 11:13:51.890,1,1425237230.218477,37.74680265057643,-122.4444073499602,174.3765,-1,-1,10,65,-9999,1425237231.827501,5.244140625,-39.69281005859375,11.57541656494141,198.3172454833984,184.5456237792969,10,180682.310294125,0.152374267578125,-0.9602508544921875,-0.212554931640625,180682.3122439584,-0.2031097089604192,0.2662061204549035,-0.09687354991606832,180682.26046875,0.8360307677837454,0.6630936806833986,1.292191803527735,-0.03243204951286316,-0.1142985671758652,-0.01489558536559343,0.02192085236310959,0.008513514883816242,0.03088418208062649,XTrueNorthZVertical,0.4147627594530085,0.4686189677808115,0.4855773365881774,0.6103955071490242,0.1692870259284973,-0.9614401459693909,-0.216736227273941,3.228325366973877,-39.62848663330078,10.68392753601074,2,0.0.0.0,10.83.46.32,1,0
2015-03-01 11:13:51.941,2,1425237230.218477,37.74680265057643,-122.4444073499602,174.3765,-1,-1,10,65,-9999,1425237231.904381,5.4658203125,-39.64179992675781,11.25922393798828,198.6645050048828,184.8928833007812,10,180682.3593912917,0.179779052734375,-0.942840576171875,-0.2619781494140625,180682.3122439584,-0.2031097089604192,0.2662061204549035,-0.09687354991606832,180682.3122439584,0.8438131934821623,0.6607222965588243,1.28639954743357,-0.2178849875926971,0.2819029688835144,-0.06492535769939423,-0.01981304585933685,-0.0004197764792479575,0.00897540058940649,XTrueNorthZVertical,0.4112855041187409,0.4691258551745598,0.4874479310794739,0.6108678982756272,0.1721873134374619,-0.9598310589790344,-0.2215303331613541,3.321961402893066,-39.61113739013672,10.71949768066406,2,0.0.0.0,10.83.46.32,1,0
2015-03-01 11:13:51.964,3,1425237230.218477,37.74680265057643,-122.4444073499602,174.3765,-1,-1,10,65,-9999,1425237231.956051,5.022472381591797,-39.81172180175781,10.99295806884766,197.3798065185547,183.6081848144531,10,180682.4084349167,0.1759796142578125,-0.9106292724609375,-0.247406005859375,180682.4157924167,0.04942081298081844,-0.05716901385629498,-0.09160981202152671,180682.3640173333,0.8587275071298842,0.6561423079002229,1.278397017621332,-0.09273125231266022,0.1013575345277786,-0.05692358314990997,0.003927718382328749,0.01471445430070162,-0.03358259052038193,XTrueNorthZVertical,0.40582031928076,0.4702255725759939,0.4910583681245307,0.6107858601818834,0.1758513301610947,-0.9575550556182861,-0.2283955514431,3.285182952880859,-39.73393249511719,10.26681518554688,2,0.0.0.0,10.83.46.32,1,0
2015-03-01 11:13:52.013,4,1425237230.218477,37.74680265057643,-122.4444073499602,174.3765,-1,-1,10,65,-9999,1425237232.008083,4.886058807373047,-39.87969970703125,11.12608337402344,196.9201812744141,183.1485595703125,10,180682.4574774583,0.1855316162109375,-0.9499359130859375,-0.1957244873046875,180682.4157924167,0.04942081298081844,-0.05716901385629498,-0.09160981202152671,180682.4157924167,0.8557769215243269,0.6588451397747273,1.272911123392849,0.03466042131185532,-0.04152407869696617,-0.05953358486294746,-0.003701659617945552,0.04533004388213158,-0.01533644180744886,XTrueNorthZVertical,0.4037343989930127,0.4700678173531334,0.4906983513340934,0.6125763778545692,0.179681271314621,-0.9559593200683594,-0.2320695668458939,3.347986698150635,-39.76403045654297,10.12907218933105,2,0.0.0.0,10.83.46.32,1,0
2015-03-01 11:13:52.061,5,1425237230.218477,37.74680265057643,-122.4444073499602,174.3765,-1,-1,10,65,-9999,1425237232.008083,4.886058807373047,-39.87969970703125,11.12608337402344,196.9201812744141,183.1485595703125,10,180682.5065402084,0.2161102294921875,-0.9573822021484375,-0.2267608642578125,180682.4675675833,0.03649196483681076,0.04941202454922117,-0.08082161276172473,180682.4675675833,0.8389407245404127,0.6746905205999306,1.273559503563656,0.02173630893230438,0.06505846232175827,-0.04874648153781891,0.0117535712197423,0.003650025930255651,0.03158106654882431,XTrueNorthZVertical,0.4040683561049218,0.4715655658738101,0.4887436594707163,0.6127676758386991,0.18294857442379,-0.9561493992805481,-0.2287093549966812,3.477785110473633,-39.76688766479492,10.07398319244385,2,0.0.0.0,10.83.46.32,1,0
2015-03-01 11:13:52.107,6,1425237230.218477,37.74680265057643,-122.4444073499602,174.3765,-1,-1,10,65,-9999,1425237232.058938,5.244144439697266,-40.2705078125,11.076171875,197.3425750732422,183.5709533691406,10,180682.5555785,0.237335205078125,-0.9759063720703125,-0.204986572265625,180682.5193410417,0.0422236201348793,0.1181207817249385,-0.06054883159571454,180682.5193410417,0.8288031036242254,0.6910947115469772,1.272961279165891,0.02747084572911263,0.1337689459323883,-0.02847813069820404,0.02902432344853878,0.0004839246685151011,-0.0006272977916523814,XTrueNorthZVertical,0.4022252122659802,0.4745057689750394,0.4889415830116333,0.6115514620846562,0.1870401352643967,-0.9559740424156189,-0.2261183112859726,3.63290548324585,-39.71074295043945,10.23935794830322,2,0.0.0.0,10.83.46.32,1,0
2015-03-01 11:13:52.160,7,1425237230.218477,37.74680265057643,-122.4444073499602,174.3765,-1,-1,10,65,-9999,1425237232.110986,5.431713104248047,-40.08360290527344,11.05953216552734,197.7080383300781,183.9364166259766,10,180682.6046647917,0.2296600341796875,-0.9664459228515625,-0.2298431396484375,180682.571116375,0.003318032402129723,0.05520679676512459,-0.04543539240951486,180682.571116375,0.8152386805021071,0.7098126251940317,1.271778769197325,-0.01143162604421377,0.07085854560136795,-0.01337674353271723,0.0529121533036232,-0.0225535724312067,0.01257396675646305,XTrueNorthZVertical,0.4004215826811731,0.4774358280622122,0.48853470397237,0.6107792872790394,0.1919761449098587,-0.955626368522644,-0.223435178399086,3.666117429733276,-39.6872673034668,10.31823062896729,2,0.0.0.0,10.83.46.32,1,0
2015-03-01 11:13:52.206,8,1425237230.218477,37.74680265057643,-122.4444073499602,174.3765,-1,-1,10,65,-9999,1425237232.163087,5.5169677734375,-39.99864196777344,11.076171875,197.7085113525391,183.9368896484375,10,180682.6536864583,0.230133056640625,-0.9483489990234375,-0.2254791259765625,180682.6228914167,0.02208053491395597,0.008787100016716447,0.0462199596666522,180682.6228914167,0.8158769443123706,0.7104491479166392,1.272396052026857,0.007330482359975576,0.02443956211209297,0.07827334105968475,0.03667522966861725,-0.007525112014263868,-0.003193251555785537,XTrueNorthZVertical,0.400352614010491,0.4777917227284694,0.4888680396052294,0.6102792824178752,0.1917335838079453,-0.9558080434799194,-0.2228657156229019,3.703921794891357,-39.67040252685547,10.36944484710693,2,0.0.0.0,10.83.46.32,1,0
2015-03-01 11:13:52.259,9,1425237230.218477,37.74680265057643,-122.4444073499602,174.3765,-1,-1,10,65,-9999,1425237232.21614,5.516960144042969,-40.23652648925781,10.94303131103516,197.693603515625,183.9219818115234,10,180682.7027557917,0.2514801025390625,-0.9819183349609375,-0.1930084228515625,180682.6746649584,-0.009299225894338684,-0.07860772694754185,0.07294691173446942,180682.6746649584,0.818639110909432,0.7087285197010774,1.270161599610266,-0.02405278384685516,-0.06295247375965118,0.1049795523285866,0.03893477469682693,-0.007513021118938923,-0.02027053758502007,XTrueNorthZVertical,0.3992484076117249,0.4776951362654553,0.4893277682964274,0.6107096769584355,0.1927394270896912,-0.9551486968994141,-0.2248161286115646,3.610928535461426,-39.67843246459961,10.37152004241943,2,0.0.0.0,10.83.46.32,1,0
2015-03-01 11:13:52.306,10,1425237230.218477,37.74680265057643,-122.4444073499602,174.3765,-1,-1,10,65,-9999,1425237232.267565,5.329391479492188,-40.72935485839844,11.32579040527344,197.2169647216797,183.4453430175781,10,180682.7517760417,0.1743011474609375,-0.9385223388671875,-0.208343505859375,180682.7264399167,-0.006797718682427256,-0.2837875110232796,0.09646981469481231,180682.7264399167,0.8219469313932609,0.6957329843827786,1.270806861471441,-0.02155399136245251,-0.2681289315223694,0.1284832507371902,0.04678424447774887,-0.01173193100839853,0.01676095463335514,XTrueNorthZVertical,0.4018853428834053,0.4744194548981334,0.4877469950014952,0.6127945246209905,0.1894065588712692,-0.9553396105766296,-0.2268287092447281,3.75647497177124,-39.69404983520508,10.25947666168213,2,0.0.0.0,10.83.46.32,1,0
2015-03-01 11:13:52.356,11,1425237230.218477,37.74680265057643,-122.4444073499602,174.3765,-1,-1,10,65,-9999,1425237232.319656,5.431705474853516,-40.62739562988281,11.52549743652344,197.81005859375,184.0384368896484,10,180682.8009405833,0.16217041015625,-0.9706878662109375,-0.1987457275390625,180682.7782152084,0.04831480218010853,-0.2661288887832913,0.02130981609448704,180682.7782152084,0.8321589774901325,0.6704704045639355,1.274948778574773,0.03356184065341949,-0.2504690885543823,0.05332484468817711,-0.0406532846391201,0.02271749265491962,0.02664087526500225,XTrueNorthZVertical,0.4072282676989736,0.4689839635853374,0.4858162759756573,0.6149810033103723,0.1811562180519104,-0.9565553665161133,-0.2284383624792099,3.765068054199219,-39.70207595825195,10.22520446777344,2,0.0.0.0,10.83.46.32,1,0
2015-03-01 11:13:52.406,12,1425237230.218477,37.74680265057643,-122.4444073499602,174.3765,-1,-1,10,65,-9999,1425237232.370974,5.363498687744141,-40.76336669921875,11.59206390380859,197.9532928466797,184.1816711425781,10,180682.8498754167,0.1658782958984375,-0.967620849609375,-0.2318572998046875,180682.8299885417,0.05378360347858625,-0.1591353267249218,-0.00464215609611712,180682.7782152084,0.8321589774901325,0.6704704045639355,1.274948778574773,0.03356184065341949,-0.2504690885543823,0.05332484468817711,-0.0406532846391201,0.02271749265491962,0.02664087526500225,XTrueNorthZVertical,0.4072282676989736,0.4689839635853374,0.4858162759756573,0.6149810033103723,0.1811562180519104,-0.9565553665161133,-0.2284383624792099,3.765068054199219,-39.70207595825195,10.22520446777344,2,0.0.0.0,10.83.46.32,1,0
2015-03-01 11:13:52.454,13,1425237230.218477,37.74680265057643,-122.4444073499602,174.3765,-1,-1,10,65,-9999,1425237232.423293,5.38055419921875,-40.37251281738281,11.14273834228516,198.2803497314453,184.5087280273438,10,180682.8990469583,0.1570587158203125,-0.979827880859375,-0.2439422607421875,180682.8817636667,0.06488898522421667,-0.1676971233134176,-0.005668804696342666,180682.8817636667,0.8291604211017209,0.6576792336722965,1.280016644546663,0.05013633146882057,-0.1520376354455948,0.02634555101394653,0.0006189070991240442,-0.02690368331968784,-0.01518335845321417,XTrueNorthZVertical,0.4129825289476009,0.4647545218498593,0.4823002669131377,0.6171183243823479,0.1752538979053497,-0.9580206274986267,-0.2268973290920258,3.765563488006592,-39.68186950683594,10.30316734313965,2,0.0.0.0,10.83.46.32,1,0
2015-03-01 11:13:52.513,14,1425237230.218477,37.74680265057643,-122.4444073499602,174.3765,-1,-1,10,65,-9999,1425237232.474257,5.192977905273438,-40.01565551757812,11.0262451171875,198.2084045410156,184.4367828369141,10,180682.947975125,0.1453094482421875,-0.9684295654296875,-0.227447509765625,180682.9335387917,0.002992327800813032,-0.08939219778181773,-0.01976678055889513,180682.9335387917,0.8348074470733874,0.6453963618558705,1.282023487664,-0.01176102738827467,-0.07373449206352234,0.01225246675312519,-0.03888120502233505,-0.006722709164023399,-0.004406644497066736,XTrueNorthZVertical,0.4154081570702804,0.4622638285232799,0.4815061260028593,0.6179805620316867,0.1712969690561295,-0.9585940837860107,-0.2274964302778244,3.80277156829834,-39.65562438964844,10.39018440246582,2,0.0.0.0,10.83.46.32,1,0
2015-03-01 11:13:52.553,15,1425237230.218477,37.74680265057643,-122.4444073499602,174.3765,-1,-1,10,65,-9999,1425237232.527246,5.175926208496094,-39.96466064453125,10.87648010253906,198.330078125,184.5584564208984,10,180682.9971691667,0.1706085205078125,-0.9793701171875,-0.2357025146484375,180682.9853125,-0.07261881028817166,0.0239199802788737,-0.01759870111546162,180682.9335387917,0.8348074470733874,0.6453963618558705,1.282023487664,-0.01176102738827467,-0.07373449206352234,0.01225246675312519,-0.03888120502233505,-0.006722709164023399,-0.004406644497066736,XTrueNorthZVertical,0.4154081570702804,0.4622638285232799,0.4815061260028593,0.6179805620316867,0.1712969690561295,-0.9585940837860107,-0.2274964302778244,3.80277156829834,-39.65562438964844,10.39018440246582,2,0.0.0.0,10.83.46.32,1,0
2015-03-01 11:13:52.606,16,1425237230.218477,37.74680265057643,-122.4444073499602,174.3765,-1,-1,10,65,-9999,1425237232.579558,4.920150756835938,-39.94766235351562,11.09281158447266,198.1936340332031,184.4220123291016,10,180683.0460832917,0.2001953125,-0.96685791015625,-0.2158203125,180683.0370875,-0.07491259093505691,0.000451139488659423,0.0123549369290956,180682.9853125,0.8475057454084052,0.6327272877557036,1.280915255849838,-0.08737190067768097,0.03957581892609596,0.01442760415375233,-0.00926972646266222,-0.0170791782438755,-0.003778602695092559,XTrueNorthZVertical,0.4151042370884282,0.4609078542174281,0.48280101583326,0.6181872773934292,0.1690292507410049,-0.9582778811454773,-0.2305048406124115,3.757801532745361,-39.67375564575195,10.33718013763428,2,0.0.0.0,10.83.46.32,1,0
2015-03-01 11:13:52.650,17,1425237230.218477,37.74680265057643,-122.4444073499602,174.3765,-1,-1,10,65,-9999,1425237232.630749,5.073619842529297,-39.79473876953125,11.30915069580078,198.1972961425781,184.4256744384766,10,180683.0952667917,0.1620025634765625,-0.9235076904296875,-0.2275390625,180683.0888627917,-0.03818999634784528,0.01648443451537247,-0.02603532913272364,180683.0888627917,0.8682196335841426,0.6161298821564685,1.275380449790156,-0.05293749272823334,0.03214478492736816,0.005979345645755529,-0.01733340695500374,0.04769982397556305,0.01203275565057993,XTrueNorthZVertical,0.4122229705018476,0.4596417141071873,0.4858062319346784,0.6187034271809702,0.1682428270578384,-0.9566811323165894,-0.2376034408807755,3.619377374649048,-39.77084732055664,10.0082540512085,2,0.0.0.0,10.83.46.32,1,0
2015-03-01 11:13:52.705,18,1425237230.218477,37.74680265057643,-122.4444073499602,174.3765,-1,-1,10,65,-9999,1425237232.682565,5.38055419921875,-40.30451965332031,11.10945129394531,198.2404022216797,184.4687805175781,10,180683.14416675,0.2353668212890625,-0.9610443115234375,-0.2413330078125,180683.0888627917,-0.03818999634784528,0.01648443451537247,-0.02603532913272364,180683.0888627917,0.8682196335841426,0.6161298821564685,1.275380449790156,-0.05293749272823334,0.03214478492736816,0.005979345645755529,-0.01733340695500374,0.04769982397556305,0.01203275565057993,XTrueNorthZVertical,0.4122229705018476,0.4596417141071873,0.4858062319346784,0.6187034271809702,0.1682428270578384,-0.9566811323165894,-0.2376034408807755,3.619377374649048,-39.77084732055664,10.0082540512085,2,0.0.0.0,10.83.46.32,1,0
2015-03-01 11:13:52.749,19,1425237230.218477,37.74680265057643,-122.4444073499602,174.3765,-1,-1,10,65,-9999,1425237232.734536,5.295291900634766,-40.4234619140625,11.09281158447266,198.4726715087891,184.7010498046875,10,180683.193346125,0.1942901611328125,-0.963134765625,-0.236236572265625,180683.1924114167,0.03822355217758028,-0.2277026700467559,-0.02857039217437007,180683.1406361667,0.8641413575047676,0.622529127080482,1.273319200399426,-0.00482664443552494,-0.004329104907810688,-0.01276442408561707,0.0634961873292923,-0.004019258543848991,0.000101628596894443,XTrueNorthZVertical,0.4108121642192867,0.4606209137021959,0.4858770994778401,0.6188578934952921,0.1709093302488327,-0.9560790061950684,-0.2381234765052795,3.576912879943848,-39.79803085327148,9.915021896362305,2,0.0.0.0,10.83.46.32,1,0
2015-03-01 11:13:52.807,20,1425237230.218477,37.74680265057643,-122.4444073499602,174.3765,-1,-1,10,65,-9999,1425237232.786035,5.261192321777344,-40.28753662109375,10.79325866699219,198.4883880615234,184.7167663574219,10,180683.2422572917,0.1434326171875,-0.9479217529296875,-0.22894287109375,180683.2441864167,0.02207174648235871,-0.1993783539571092,-0.04882772700605779,180683.1924114167,0.8584640238378235,0.6215307544005988,1.273510693603449,0.02347720414400101,-0.2120396792888641,0.003431628225371242,0.03107999637722969,-0.01143995393067598,0.003068238962441683,XTrueNorthZVertical,0.412433564298631,0.459157906867666,0.483911477906234,0.6204048369413675,0.1705649048089981,-0.956135094165802,-0.2381451427936554,3.648746967315674,-39.79164886474609,9.914470672607422,2,0.0.0.0,10.83.46.32,1,0
2015-03-01 11:13:52.847,21,1425237230.218477,37.74680265057643,-122.4444073499602,174.3765,-1,-1,10,65,-9999,1425237232.838884,5.534019470214844,-40.2535400390625,10.89311218261719,199.2575836181641,185.4859619140625,10,180683.2914177084,0.121307373046875,-0.9412841796875,-0.2423095703125,180683.2441864167,0.02207174648235871,-0.1993783539571092,-0.04882772700605779,180683.2441864167,0.8571005543616331,0.6121750138646493,1.274320609886676,0.007326551247388124,-0.1837154179811478,-0.01682440936565399,-0.02445176988840103,0.008450297638773918,0.01015374809503555,XTrueNorthZVertical,0.4153161702332158,0.4560308860791318,0.4815461492130442,0.6226247059116707,0.1678843945264816,-0.9563720226287842,-0.2390966266393661,3.81932806968689,-39.77184295654297,9.929689407348633,2,0.0.0.0,10.83.46.32,1,0
2015-03-01 11:13:52.910,22,1425237230.218477,37.74680265057643,-122.4444073499602,174.3765,-1,-1,10,65,-9999,1425237232.889883,5.721588134765625,-40.10061645507812,10.80989837646484,199.9562225341797,186.1846008300781,10,180683.34035175,0.152679443359375,-0.963531494140625,-0.2516021728515625,180683.295960125,0.03351242020923011,-0.06461041857419438,-0.07182199249001996,180683.295960125,0.8529668128769087,0.6102252936811773,1.273574553280129,0.01876737177371979,-0.04894764721393585,-0.03981899842619896,-0.04651935398578644,0.01486964337527752,-0.00230141100473702,XTrueNorthZVertical,0.4164378496167697,0.4545057070280858,0.4798577407046628,0.6242920285572183,0.1678267270326614,-0.9561538100242615,-0.2400081604719162,3.90765905380249,-39.76863098144531,9.908150672912598,2,0.0.0.0,10.83.46.32,1,0
2015-03-01 11:13:52.944,23,1425237230.218477,37.74680265057643,-122.4444073499602,174.3765,-1,-1,10,65,-9999,1425237232.889883,5.721588134765625,-40.10061645507812,10.80989837646484,199.9562225341797,186.1846008300781,10,180683.3894102917,0.1741943359375,-0.962738037109375,-0.2569580078125,180683.3995104167,0.03543149409074121,0.02896161053850271,-0.01180392889955821,180683.3477350833,0.8473057503444178,0.6171429233757899,1.273594281545535,0.01306860614567995,0.08264938741922379,-0.005211771000176668,-0.01679262705147266,-0.007371893152594566,-0.012776093557477,XTrueNorthZVertical,0.4160741768039144,0.455487914184889,0.4795306037027788,0.6240699865317204,0.1694720685482025,-0.9561595916748047,-0.2388260811567307,3.995735883712769,-39.75746536254883,9.917826652526855,2,0.0.0.0,10.83.46.32,1,0
2015-03-01 11:13:53.010,24,1425237230.218477,37.74680265057643,-122.4444073499602,174.3765,-1,-1,10,65,-9999,1425237232.993231,5.909160614013672,-40.32148742675781,10.69340515136719,200.3359222412109,186.5643005371094,10,180683.4384530833,0.1680755615234375,-1.001022338867188,-0.225738525390625,180683.3995104167,0.03543149409074121,0.02896161053850271,-0.01180392889955821,180683.3995104167,0.850220018435655,0.6179109935349186,1.273369447974467,0.02068146504461765,0.04462215676903725,0.02019719034433365,0.0004317971470300108,-0.007071548141539097,-0.01270059403032064,XTrueNorthZVertical,0.4151386664932676,0.4563160711281143,0.4806001686026388,0.6232647248965066,0.1697800010442734,-0.9560937285423279,-0.2388710677623749,3.979637384414673,-39.74624633789062,9.969150543212891,2,0.0.0.0,10.83.46.32,1,0
2015-03-01 11:13:53.042,25,1425237230.218477,37.74680265057643,-122.4444073499602,174.3765,-1,-1,10,65,-9999,1425237232.993231,5.909160614013672,-40.32148742675781,10.69340515136719,200.3359222412109,186.5643005371094,10,180683.4875268333,0.10540771484375,-0.9898529052734375,-0.2175445556640625,180683.4512837917,0.01023719123026459,-0.06575930626845457,0.01509612863911416,180683.4512837917,0.8524593978763981,0.6151159065469421,1.274411543478169,-0.004487981554120779,-0.05015194788575172,0.04723916202783585,-0.002459972864016891,-0.0491250678896904,0.02075739204883575,XTrueNorthZVertical,0.4157019948185876,0.4559895141464222,0.4807111546684484,0.6230426219918614,0.1685366332530975,-0.956398606300354,-0.2385308295488358,3.932167530059814,-39.75712203979492,9.944574356079102,2,0.0.0.0,10.83.46.32,1,0
2015-03-01 11:13:53.113,26,1425237230.218477,37.74680265057643,-122.4444073499602,174.3765,-1,-1,10,65,-9999,1425237233.097056,5.414657592773438,-40.30451965332031,10.27736663818359,199.5487365722656,185.7771148681641,10,180683.5365655,0.127227783203125,-0.962554931640625,-0.2650299072265625,180683.5030590417,-0.1415315656033891,0.05886544747067545,0.1113028230182266,180683.5030590417,0.8780318532936776,0.5899481910996257,1.276483196848489,-0.1562508046627045,0.07447248697280884,0.143455982208252,-0.05996811017394066,-0.03179843351244926,0.02019386738538742,XTrueNorthZVertical,0.4167511129800232,0.4536449266463737,0.4834103113434655,0.6219639618125326,0.161378026008606,-0.9570016264915466,-0.241049587726593,3.856962919235229,-39.75895690917969,9.966679573059082,2,0.0.0.0,10.83.46.32,1,0
2015-03-01 11:13:53.141,27,1425237230.218477,37.74680265057643,-122.4444073499602,174.3765,-1,-1,10,65,-9999,1425237233.097056,5.414657592773438,-40.30451965332031,10.27736663818359,199.5487365722656,185.7771148681641,10,180683.5857432917,0.05474853515625,-0.9133453369140625,-0.237060546875,180683.5548340833,-0.1953255554102266,0.220311066441241,0.1232252625862934,180683.5548340833,0.9248355068381715,0.5558172272078031,1.272563419373328,-0.2100465893745422,0.2359165400266647,0.1553816199302673,-0.04116014763712883,0.01358120795339346,-0.02330267056822777,XTrueNorthZVertical,0.4129596432370409,0.4523979960581551,0.4909440979937822,0.6194951068523323,0.1550364941358566,-0.9558572173118591,-0.2496007680892944,3.416041612625122,-39.87182235717773,9.672313690185547,2,0.0.0.0,10.83.46.32,1,0
2015-03-01 11:13:53.208,28,1425237230.218477,37.74680265057643,-122.4444073499602,174.3765,-1,-1,10,65,-9999,1425237233.200753,5.005413055419922,-40.47444152832031,10.04438781738281,198.4862823486328,184.7146606445312,10,180683.6346818334,0.1292572021484375,-0.9624481201171875,-0.205322265625,180683.60660775,-0.1898032245738383,0.2978391478828648,-0.1123747453569835,180683.60660775,0.9528258075510309,0.5410203146399152,1.265479286249414,-0.2045260518789291,0.3134415745735168,-0.08020882308483124,-0.0729617178440094,-0.0185078214854002,0.04747559502720833,XTrueNorthZVertical,0.4075727704141731,0.452826379244919,0.4967943705457734,0.6180841116059296,0.1548098623752594,-0.9537516832351685,-0.2576654255390167,3.031892061233521,-39.98875427246094,9.310887336730957,2,0.0.0.0,10.83.46.32,1,0
2015-03-01 11:13:53.239,29,1425237230.218477,37.74680265057643,-122.4444073499602,174.3765,-1,-1,10,65,-9999,1425237233.200753,5.005413055419922,-40.47444152832031,10.04438781738281,198.4862823486328,184.7146606445312,10,180683.6838577917,0.110595703125,-0.8836822509765625,-0.2339324951171875,180683.6583827917,-0.1640901379330142,0.5234373880362401,0.01643703024796906,180683.6583827917,0.9678425594019793,0.5482176399259849,1.258470840112116,-0.1788040995597839,0.5390397310256958,0.04861180111765862,-0.04736240208148956,0.04381518810987473,0.03449026867747307,XTrueNorthZVertical,0.3996828345658875,0.4573096924161809,0.5031202646838714,0.6148100395966516,0.1601401120424271,-0.9516215920448303,-0.2622429430484772,2.846826553344727,-40.0639762878418,9.04205322265625,2,0.0.0.0,10.83.46.32,1,0
2015-03-01 11:13:53.309,30,1425237230.218477,37.74680265057643,-122.4444073499602,174.3765,-1,-1,10,65,-9999,1425237233.252619,4.800792694091797,-41.12017822265625,10.11094665527344,197.3392181396484,183.5675964355469,10,180683.7327841667,0.2603912353515625,-0.982269287109375,-0.2205047607421875,180683.7101580834,-0.1230396402583148,0.8508109924080836,0.1377589316031828,180683.7101580834,0.9987176148297364,0.5553626474735229,1.255392406525956,-0.1377533227205276,0.8664132356643677,0.1699335873126984,-0.008692103438079357,0.03374000638723373,0.03443881869316101,XTrueNorthZVertical,0.3895721730957933,0.4652348808681421,0.51406737853278,0.6062381268530314,0.1635535508394241,-0.9506711363792419,-0.2635800540447235,2.459679841995239,-40.1696662902832,8.679474830627441,2,0.0.0.0,10.83.46.32,1,0
2015-03-01 11:13:53.337,31,1425237230.218477,37.74680265057643,-122.4444073499602,174.3765,-1,-1,10,65,-9999,1425237233.304103,3.573066711425781,-40.81428527832031,9.27886962890625,194.0094909667969,180.2378692626953,10,180683.7819719167,0.2800140380859375,-1.020751953125,-0.224517822265625,180683.7619315,-0.07663752037310123,0.7098221790348527,0.2953594785918919,180683.7619315,1.040282556102427,0.5570930447313391,1.256306786277707,-0.09135104715824127,0.7254242300987244,0.3275338113307953,0.1299988478422165,-0.06840899586677551,0.0474860705435276,XTrueNorthZVertical,0.3797096722792195,0.4738577996812667,0.5268429444177548,0.5947400868655788,0.1635497361421585,-0.9509543776512146,-0.2625586986541748,1.82219409942627,-40.23923873901367,8.512855529785156,2,0.0.0.0,10.83.46.32,1,0
2015-03-01 11:13:53.406,32,1425237230.218477,37.74680265057643,-122.4444073499602,174.3765,-1,-1,10,65,-9999,1425237233.356676,2.243019104003906,-41.52798461914062,9.245590209960938,190.4110260009766,176.639404296875,10,180683.83090125,0.323577880859375,-0.984619140625,-0.2568511962890625,180683.8137067917,-0.040398555839848,0.6329396478414642,0.5443237615174045,180683.8137067917,1.114637330635204,0.5211755874671499,1.265952410104179,-0.05511192232370377,0.6485415101051331,0.5764977335929871,0.151370033621788,-0.03698143362998962,0.01041734591126442,XTrueNorthZVertical,0.3752093456405938,0.4786129010794133,0.5413970444387034,0.580548694500428,0.149441733956337,-0.9538938403129578,-0.2602952718734741,0.9850220680236816,-40.29717636108398,8.375712394714355,2,0.0.0.0,10.83.46.32,1,0
2015-03-01 11:13:53.438,33,1425237230.218477,37.74680265057643,-122.4444073499602,174.3765,-1,-1,10,65,-9999,1425237233.406826,0.7765579223632812,-41.49400329589844,9.079170227050781,187.1283569335938,173.3567352294922,10,180683.8799879584,0.309783935546875,-0.954803466796875,-0.269805908203125,180683.8654818333,-0.07472510439431533,0.2287306502275265,0.6071874127326159,180683.8654818333,1.210745139939914,0.4505891487404226,1.276816851819274,-0.08943832665681839,0.2443323731422424,0.6393610239028931,0.2042079269886017,-0.02004398219287395,0.009468685835599899,XTrueNorthZVertical,0.3755459080680176,0.4780630530265671,0.5549056815734122,0.5678913464481047,0.1261906325817108,-0.9570983648300171,-0.260841965675354,-0.6667685508728027,-40.33285903930664,8.234140396118164,2,0.0.0.0,10.83.46.32,1,0
2015-03-01 11:13:53.510,34,1425237230.218477,37.74680265057643,-122.4444073499602,174.3765,-1,-1,10,65,-9999,1425237233.459508,-0.7069549560546875,-41.61294555664062,8.663124084472656,184.1103973388672,170.3387756347656,10,180683.9290578333,0.1983795166015625,-0.9564666748046875,-0.302001953125,180683.9172555417,-0.1492163832449217,-0.2293285298922493,0.7265273896045927,180683.8654818333,1.210745139939914,0.4505891487404226,1.276816851819274,-0.08943832665681839,0.2443323731422424,0.6393610239028931,0.2042079269886017,-0.02004398219287395,0.009468685835599899,XTrueNorthZVertical,0.3755459080680176,0.4780630530265671,0.5549056815734122,0.5678913464481047,0.1261906325817108,-0.9570983648300171,-0.260841965675354,-0.6667685508728027,-40.33285903930664,8.234140396118164,2,0.0.0.0,10.83.46.32,1,0
2015-03-01 11:13:53.533,35,1425237230.218477,37.74680265057643,-122.4444073499602,174.3765,-1,-1,10,65,-9999,1425237233.511458,-1.866477966308594,-41.44302368164062,8.130592346191406,182.8271331787109,169.0555114746094,10,180683.9782025834,0.1074676513671875,-0.9851837158203125,-0.332000732421875,180683.9690305417,-0.3200517755868886,-0.3991599105032564,0.8326477011415251,180683.9690305417,1.480373490717777,0.1752544549216601,1.282774937299297,-0.3347657918930054,-0.3835581243038177,0.8648179173469543,0.07484684884548187,-0.02956501580774784,-0.04172205179929733,XTrueNorthZVertical,0.3927684548156882,0.4537408631184849,0.5769817057594043,0.554025441478968,0.04952753707766533,-0.9588077664375305,-0.2797043323516846,-3.187978506088257,-40.30006790161133,7.792718887329102,2,0.0.0.0,10.83.46.32,1,0
2015-03-01 11:13:53.577,36,1425237230.218477,37.74680265057643,-122.4444073499602,174.3765,-1,-1,10,65,-9999,1425237233.563594,-3.247673034667969,-41.0181884765625,7.947532653808594,182.2116241455078,168.4400024414062,10,180684.027182,0.0839080810546875,-0.9583282470703125,-0.3097686767578125,180684.020805875,-0.2555137949943444,-0.3046456549968893,0.8754044861266383,180683.9690305417,1.480373490717777,0.1752544549216601,1.282774937299297,-0.3347657918930054,-0.3835581243038177,0.8648179173469543,0.07484684884548187,-0.02956501580774784,-0.04172205179929733,XTrueNorthZVertical,0.3927684548156882,0.4537408631184849,0.5769817057594043,0.554025441478968,0.04952753707766533,-0.9588077664375305,-0.2797043323516846,-3.187978506088257,-40.30006790161133,7.792718887329102,2,0.0.0.0,10.83.46.32,1,0
2015-03-01 11:13:53.631,37,1425237230.218477,37.74680265057643,-122.4444073499602,174.3765,-1,-1,10,65,-9999,1425237233.615784,-4.867591857910156,-40.38943481445312,7.731185913085938,180.1199340820312,166.3483123779297,10,180684.076385125,0.1014404296875,-0.9499053955078125,-0.2682952880859375,180684.07257925,-0.01600719604803027,-0.301546001804146,0.9336105349114101,180684.020805875,1.640393562494756,0.005456445588061158,1.269346355241934,-0.2702276706695557,-0.2890440225601196,0.9075744152069092,0.07938887178897858,0.001415778184309602,-0.02739457413554192,XTrueNorthZVertical,0.4028053525404828,0.4350834552549111,0.5899757499202031,0.5480682055940551,0.001620037364773452,-0.9549070000648499,-0.2969004809856415,-5.083344459533691,-40.22934722900391,7.123506546020508,2,0.0.0.0,10.83.46.32,1,0
2015-03-01 11:13:53.710,38,1425237230.218477,37.74680265057643,-122.4444073499602,174.3765,-1,-1,10,65,-9999,1425237233.669834,-6.82855224609375,-39.76068115234375,7.2818603515625,177.0683288574219,163.2967071533203,10,180684.1254495,0.039398193359375,-0.8740692138671875,-0.3473052978515625,180684.1243545834,-0.1406045192279325,-0.4014235974298238,1.035435433926154,180684.07257925,1.791325143763013,-0.154330852156153,1.261180959400847,-0.03072096034884453,-0.2859445214271545,0.9657801389694214,0.1444474160671234,0.006192290224134922,0.03845170512795448,XTrueNorthZVertical,0.4160220472218594,0.4199884466104742,0.6002088657942267,0.5387806482325344,-0.04683694615960121,-0.9524508118629456,-0.3010707199573517,-6.619252681732178,-40.0710563659668,6.743978500366211,2,0.0.0.0,10.83.46.32,1,0
2015-03-01 11:13:53.729,39,1425237230.218477,37.74680265057643,-122.4444073499602,174.3765,-1,-1,10,65,-9999,1425237233.669834,-6.82855224609375,-39.76068115234375,7.2818603515625,177.0683288574219,163.2967071533203,10,180684.1745070833,-0.011688232421875,-0.9564971923828125,-0.326141357421875,180684.1761297917,-0.3881887520765659,0.09496885710444365,0.8105101745802414,180684.1243545834,1.946587399454503,-0.3173367844115272,1.2434020995238,-0.1553181260824203,-0.3858222663402557,1.067604780197144,0.1719992011785507,0.04315121471881866,-0.0466374084353447,XTrueNorthZVertical,0.42972733035577,0.4032050718574535,0.6118374518501237,0.527650388643924,-0.1003439202904701,-0.946883499622345,-0.3055201768875122,-8.240303993225098,-39.7683219909668,6.750057220458984,2,0.0.0.0,10.83.46.32,1,0
2015-03-01 11:13:53.777,40,1425237230.218477,37.74680265057643,-122.4444073499602,174.3765,-1,-1,10,65,-9999,1425237233.745243,-10.27302551269531,-39.28486633300781,6.849174499511719,172.4965515136719,158.7249298095703,10,180684.2234293333,0.2220458984375,-0.974334716796875,-0.4360809326171875,180684.1761297917,-0.3881887520765659,0.09496885710444365,0.8105101745802414,180684.1761297917,2.071294048822368,-0.4428234718818891,1.215053021519513,-0.4029024541378021,0.1105701997876167,0.8426781892776489,0.1375500857830048,-0.01910932920873165,-0.01144818775355816,XTrueNorthZVertical,0.4391059706572828,0.3870908959671187,0.6251006501830142,0.516329033158198,-0.1492383182048798,-0.9373878836631775,-0.3146931827068329,-10.59157180786133,-39.23295211791992,6.601470947265625,2,0.0.0.0,10.83.46.32,1,0
2015-03-01 11:13:53.827,41,1425237230.218477,37.74680265057643,-122.4444073499602,174.3765,-1,-1,10,65,-9999,1425237233.796896,-11.94410705566406,-38.84304809570312,6.183509826660156,170.1210784912109,156.3494567871094,10,180684.2725025833,0.131866455078125,-0.7797088623046875,-0.44049072265625,180684.2796785833,-0.7798990020625437,-0.5266744603412313,0.714370858176708,180684.2279031667,2.115424875224483,-0.4685087024007173,1.170690276488828,-0.8007251620292664,0.2756887972354889,0.6520714163780212,0.3979341983795166,-0.05331502482295036,-0.08853825181722641,XTrueNorthZVertical,0.4323526038746208,0.3732289980993458,0.6434091688974558,0.5097017665538219,-0.1758882999420166,-0.9210196733474731,-0.3475426733493805,-12.10024642944336,-38.91471481323242,5.849297523498535,2,0.0.0.0,10.83.46.32,1,0
2015-03-01 11:13:53.878,42,1425237230.218477,37.74680265057643,-122.4444073499602,174.3765,-1,-1,10,65,-9999,1425237233.848795,-13.18888092041016,-38.79206848144531,4.735679626464844,168.2579345703125,154.4863128662109,10,180684.321539625,0.05267333984375,-0.7445068359375,-0.36724853515625,180684.2796785833,-0.7798990020625437,-0.5266744603412313,0.714370858176708,180684.2796785833,2.147099450529191,-0.505106381448618,1.117624374106275,-0.7946125268936157,-0.5110732913017273,0.7465377449989319,0.3437274992465973,0.1193540245294571,-0.05734490603208542,XTrueNorthZVertical,0.4310867376725659,0.3501304274116103,0.6583723787089887,0.5080537647781617,-0.2118610441684723,-0.8990628719329834,-0.383145809173584,-13.31217956542969,-38.71395111083984,4.359053611755371,2,0.0.0.0,10.83.46.32,1,0
2015-03-01 11:13:53.928,43,1425237230.218477,37.74680265057643,-122.4444073499602,174.3765,-1,-1,10,65,-9999,1425237233.900893,-14.57008361816406,-38.7410888671875,3.653976440429688,167.2175140380859,153.4458923339844,10,180684.3707495,-0.01739501953125,-0.6797027587890625,-0.2916717529296875,180684.3314535417,-0.5837755635897294,-1.074591092485262,0.6177620264729935,180684.3314535417,2.171555961240302,-0.5690470959300485,1.069579032462145,-0.598488986492157,-1.058990120887756,0.6499285697937012,0.2851643860340118,0.1424859762191772,0.06010918319225311,XTrueNorthZVertical,0.4417165126529211,0.3201549107959484,0.6638452726904652,0.5115630147091463,-0.2589040100574493,-0.8769983053207397,-0.4047747254371643,-14.90014171600342,-38.26872253417969,2.911383628845215,2,0.0.0.0,10.83.46.32,1,0
2015-03-01 11:13:53.978,44,1425237230.218477,37.74680265057643,-122.4444073499602,174.3765,-1,-1,10,65,-9999,1425237233.952661,-15.78076934814453,-38.6561279296875,3.171363830566406,167.7576446533203,153.9860229492188,10,180684.4197677083,0.027252197265625,-0.6099395751953125,-0.3594818115234375,180684.3832272917,-0.464552499489607,-0.899525535067813,0.5152718698179481,180684.3832272917,2.192546543483964,-0.6369815405326291,1.031531271925033,-0.4792657196521759,-0.8839247226715088,0.5474380254745483,0.2956833243370056,0.2008750140666962,0.1112142950296402,XTrueNorthZVertical,0.4563199841974738,0.2921813522624884,0.6643191112652043,0.5148612981849567,-0.3054184317588806,-0.8580862879753113,-0.4128042459487915,-15.88861465454102,-37.89270401000977,2.58458137512207,2,0.0.0.0,10.83.46.32,1,0
2015-03-01 11:13:54.024,45,1425237230.218477,37.74680265057643,-122.4444073499602,174.3765,-1,-1,10,65,-9999,1425237234.004372,-16.61630249023438,-38.19732666015625,3.021591186523438,168.408935546875,154.6373138427734,10,180684.4687489583,-0.048248291015625,-0.5795135498046875,-0.3213348388671875,180684.4350023333,-0.2647674808340427,-1.047005537282003,0.381636843162753,180684.4350023333,2.205407993803628,-0.6933807040672757,1.000969910101507,-0.2794568240642548,-1.031455993652344,0.4139383733272552,0.3590438961982727,0.2396844476461411,0.05309655144810677,XTrueNorthZVertical,0.4696644701419348,0.2682513886988593,0.6628245081169934,0.5178031073059565,-0.3448074460029602,-0.8419946432113647,-0.4149129688739777,-16.7397346496582,-37.53424453735352,2.438648223876953,2,0.0.0.0,10.83.46.32,1,0
2015-03-01 11:13:54.063,46,1425237230.218477,37.74680265057643,-122.4444073499602,174.3765,-1,-1,10,65,-9999,1425237234.056173,-16.99144744873047,-37.95942687988281,3.587409973144531,169.2957763671875,155.5241546630859,10,180684.517889,-0.019287109375,-0.511749267578125,-0.2878570556640625,180684.4867776667,-0.04550277038509386,-1.380352345662785,0.1107669950069027,180684.4867776667,2.21438911998875,-0.7634614246204472,0.9868621467996884,-0.06019197031855583,-1.364802956581116,0.1430682092905045,0.3245651125907898,0.26136314868927,0.08971405029296875,XTrueNorthZVertical,0.4900170569091658,0.2464488012997902,0.6521476674706079,0.5233064118061523,-0.3811904788017273,-0.83430016040802,-0.3982925415039062,-17.49931144714355,-37.15825271606445,2.832602500915527,2,0.0.0.0,10.83.46.32,1,0
2015-03-01 11:13:54.121,47,1425237230.218477,37.74680265057643,-122.4444073499602,174.3765,-1,-1,10,65,-9999,1425237234.10745,-16.92324066162109,-37.51760864257812,4.785606384277344,171.3596954345703,157.5880737304688,10,180684.5668505,-0.0178680419921875,-0.48394775390625,-0.2592010498046875,180684.538551125,0.1488097185464666,-1.62742338736936,0.0726198755526077,180684.538551125,2.222459822817227,-0.8431112466072539,0.9844541098246931,0.1341206729412079,-1.611874103546143,0.1049207374453545,0.4159942269325256,0.3634114563465118,0.09581857174634933,XTrueNorthZVertical,0.5144591366127662,0.2265261838785241,0.634923704264178,0.529990078289532,-0.4131713509559631,-0.832970142364502,-0.3680353760719299,-17.551025390625,-37.04766845703125,3.796995162963867,2,0.0.0.0,10.83.46.32,1,0
2015-03-01 11:13:54.161,48,1425237230.218477,37.74680265057643,-122.4444073499602,174.3765,-1,-1,10,65,-9999,1425237234.10745,-16.92324066162109,-37.51760864257812,4.785606384277344,171.3596954345703,157.5880737304688,10,180684.6159941667,-0.2179107666015625,-0.3237457275390625,-0.06280517578125,180684.5903265,0.3563812875972046,-2.620764897105722,0.1707166153573494,180684.5903265,2.252651530605082,-0.971867859783163,0.9860694178032761,0.3416924178600311,-2.605215787887573,0.2030171602964401,0.3852778077125549,0.364380419254303,0.1370907425880432,XTrueNorthZVertical,0.5513891356399974,0.2009499675607517,0.6081987738809145,0.5344934907312444,-0.4558954834938049,-0.833862841129303,-0.3111782670021057,-17.40614128112793,-36.9423828125,5.222262382507324,2,0.0.0.0,10.83.46.32,1,0
2015-03-01 11:13:54.220,49,1425237230.218477,37.74680265057643,-122.4444073499602,174.3765,-1,-1,10,65,-9999,1425237234.211639,-14.09264373779297,-37.31367492675781,9.212295532226562,180.1332702636719,166.3616485595703,10,180684.6649691667,-0.5606231689453125,-0.4623565673828125,0.12030029296875,180684.6421015417,-0.008286692047890558,-3.679706988709569,-0.2630460135054155,180684.6421015417,2.265845245565259,-1.144354578483672,0.9891942523653094,-0.02297545038163662,-3.66415810585022,-0.2307457774877548,0.1274681091308594,0.5425538420677185,0.2217420339584351,XTrueNorthZVertical,0.6008251098986827,0.1593473757744535,0.56117873025619,0.5465308247536371,-0.5001640319824219,-0.8355836272239685,-0.2272351980209351,-16.74016189575195,-36.64566802978516,8.476278305053711,2,0.0.0.0,10.83.46.32,1,0
2015-03-01 11:13:54.260,50,1425237230.218477,37.74680265057643,-122.4444073499602,174.3765,-1,-1,10,65,-9999,1425237234.211639,-14.09264373779297,-37.31367492675781,9.212295532226562,180.1332702636719,166.3616485595703,10,180684.7141179167,-0.7772979736328125,-0.9477996826171875,0.3603363037109375,180684.6938752917,-0.3487907458582607,-3.508142422861138,-1.056959634488392,180684.6421015417,2.265845245565259,-1.144354578483672,0.9891942523653094,-0.02297545038163662,-3.66415810585022,-0.2307457774877548,0.1274681091308594,0.5425538420677185,0.2217420339584351,XTrueNorthZVertical,0.6008251098986827,0.1593473757744535,0.56117873025619,0.5465308247536371,-0.5001640319824219,-0.8355836272239685,-0.2272351980209351,-16.74016189575195,-36.64566802978516,8.476278305053711,2,0.0.0.0,10.83.46.32,1,0
2015-03-01 11:13:54.318,51,1425237230.218477,37.74680265057643,-122.4444073499602,174.3765,-1,-1,10,65,-9999,1425237234.263262,-10.78459167480469,-37.48362731933594,11.37570953369141,190.0999755859375,176.3283538818359,10,180684.7630917917,-0.77264404296875,-0.9209136962890625,0.1435699462890625,180684.7456503334,-0.7943216172619768,-0.7932417054399497,-1.465972708392724,180684.7456503334,2.139960003636501,-1.329135953563733,1.072051113167382,-0.8090086579322815,-0.7776937484741211,-1.433670401573181,-0.4230112433433533,-0.08533278852701187,0.4284349381923676,XTrueNorthZVertical,0.6581380207111417,0.0980780019227154,0.4424311437062263,0.6012400875364844,-0.4644246697425842,-0.8781834244728088,-0.1144701018929482,-11.29278182983398,-37.53012466430664,12.60745429992676,2,0.0.0.0,10.83.46.32,1,0
2015-03-01 11:13:54.357,52,1425237230.218477,37.74680265057643,-122.4444073499602,174.3765,-1,-1,10,65,-9999,1425237234.31576,-6.45343017578125,-38.4012451171875,11.94152069091797,200.9841461181641,187.2125244140625,10,180684.8122313333,-0.438140869140625,-1.092605590820312,-0.1198883056640625,180684.7974256667,-0.8484104190014862,1.187096332735659,-1.765403627659129,180684.7974256667,1.997205092872967,-1.17968686824474,1.136636411792991,-0.8630973696708679,1.202644109725952,-1.733101725578308,-0.1382006704807281,-0.1063260585069656,0.2183557897806168,XTrueNorthZVertical,0.6363112504680472,0.1221860367826763,0.4267303970357024,0.6309355289866744,-0.3888836801052094,-0.9072237610816956,-0.1603571325540543,-7.294485092163086,-38.85368347167969,11.49638748168945,2,0.0.0.0,10.83.46.32,1,0
2015-03-01 11:13:54.417,53,1425237230.218477,37.74680265057643,-122.4444073499602,174.3765,-1,-1,10,65,-9999,1425237234.367985,-2.326889038085938,-39.454833984375,11.37570953369141,207.245849609375,193.4742279052734,10,180684.8611914583,0.00537109375,-1.160415649414062,-0.36968994140625,180684.8491992083,-0.4788408913701002,0.1920354861995427,-1.880392531942134,180684.8491992083,1.799127880730889,-0.952646498069437,1.202263673977706,-0.4935276806354523,0.2075831294059753,-1.848091006278992,0.215641975402832,-0.2070508748292923,-0.06216182559728622,XTrueNorthZVertical,0.608706416863073,0.1583978613104545,0.4126110838277416,0.6588919620493932,-0.293583869934082,-0.9328569769859314,-0.2087732255458832,-4.687553405761719,-39.72874450683594,9.728263854980469,2,0.0.0.0,10.83.46.32,1,0
2015-03-01 11:13:54.455,54,1425237230.218477,37.74680265057643,-122.4444073499602,174.3765,-1,-1,10,65,-9999,1425237234.421157,0.8106460571289062,-40.03262329101562,9.911239624023438,210.6853790283203,196.9137573242188,10,180684.91034575,-0.39215087890625,-1.219070434570312,-0.06854248046875,180684.9009745417,-0.3108822456376368,-1.503969625561538,-1.303336123782675,180684.8491992083,1.799127880730889,-0.952646498069437,1.202263673977706,-0.4935276806354523,0.2075831294059753,-1.848091006278992,0.215641975402832,-0.2070508748292923,-0.06216182559728622,XTrueNorthZVertical,0.608706416863073,0.1583978613104545,0.4126110838277416,0.6588919620493932,-0.293583869934082,-0.9328569769859314,-0.2087732255458832,-4.687553405761719,-39.72874450683594,9.728263854980469,2,0.0.0.0,10.83.46.32,1,0
2015-03-01 11:13:54.514,55,1425237230.218477,37.74680265057643,-122.4444073499602,174.3765,-1,-1,10,65,-9999,1425237234.496754,5.670413970947266,-40.62734985351562,7.797744750976562,220.6754608154297,206.9038391113281,10,180684.9594187083,-0.5484466552734375,-1.11444091796875,-0.0447845458984375,180684.952749625,-0.4992894411680556,-0.5994517287142628,-1.076297646111785,180684.952749625,1.432956744630713,-0.7132909816257168,1.276090248696566,-0.5139759182929993,-0.5839043855667114,-1.043996691703796,-0.357079952955246,-0.1642977446317673,0.2030467092990875,XTrueNorthZVertical,0.6050879656662586,0.1550626177364411,0.3375108266270074,0.7042091229492523,-0.1900544613599777,-0.9568875432014465,-0.2196482717990875,2.35878324508667,-40.35264587402344,7.815735340118408,2,0.0.0.0,10.83.46.32,1,0
2015-03-01 11:13:54.554,56,1425237230.218477,37.74680265057643,-122.4444073499602,174.3765,-1,-1,10,65,-9999,1425237234.549033,8.773838043212891,-40.72930908203125,6.399856567382812,226.5954437255859,212.8238220214844,10,180685.0083466667,-0.21868896484375,-1.14202880859375,-0.098663330078125,180684.952749625,-0.4992894411680556,-0.5994517287142628,-1.076297646111785,180684.952749625,1.432956744630713,-0.7132909816257168,1.276090248696566,-0.5139759182929993,-0.5839043855667114,-1.043996691703796,-0.357079952955246,-0.1642977446317673,0.2030467092990875,XTrueNorthZVertical,0.6050879656662586,0.1550626177364411,0.3375108266270074,0.7042091229492523,-0.1900544613599777,-0.9568875432014465,-0.2196482717990875,2.35878324508667,-40.35264587402344,7.815735340118408,2,0.0.0.0,10.83.46.32,1,0
2015-03-01 11:13:54.612,57,1425237230.218477,37.74680265057643,-122.4444073499602,174.3765,-1,-1,10,65,-9999,1425237234.599245,10.76890182495117,-40.57637023925781,4.51934814453125,230.5963592529297,216.8247375488281,10,180685.0574069167,-0.286407470703125,-1.08074951171875,-0.2551727294921875,180685.0562984583,-0.248778394281425,-0.1179114572632583,-0.3072725970961434,180685.0045234167,1.239528169811571,-0.5349963972415211,1.275674602110094,-0.5525029301643372,-0.08668544888496399,-0.813060998916626,-0.08626864105463028,-0.224934920668602,0.1147778853774071,XTrueNorthZVertical,0.5908167402022078,0.1607113322626155,0.3219257813606667,0.7221295915715864,-0.1482894569635391,-0.9567667245864868,-0.2502149045467377,4.509255886077881,-40.35940933227539,6.765365600585938,2,0.0.0.0,10.83.46.32,1,0
2015-03-01 11:13:54.652,58,1425237230.218477,37.74680265057643,-122.4444073499602,174.3765,-1,-1,10,65,-9999,1425237234.599245,10.76890182495117,-40.57637023925781,4.51934814453125,230.5963592529297,216.8247375488281,10,180685.1064536667,-0.3880615234375,-1.109710693359375,-0.313629150390625,180685.1080737917,-0.1342438252803872,0.6636719941887606,0.02140568989372989,180685.0562984583,1.127466039045746,-0.4373471306325506,1.271889676612095,-0.2634645998477936,-0.1023644357919693,-0.2749722898006439,-0.1741372346878052,-0.151518702507019,0.004567039664834738,XTrueNorthZVertical,0.5833377409703653,0.1622888591995095,0.3107402063066994,0.7326799020531354,-0.1247214078903198,-0.955659031867981,-0.2667587995529175,6.031941890716553,-40.33428573608398,5.634389877319336,2,0.0.0.0,10.83.46.32,1,0
2015-03-01 11:13:54.711,59,1425237230.218477,37.74680265057643,-122.4444073499602,174.3765,-1,-1,10,65,-9999,1425237234.703488,11.24635314941406,-41.12014770507812,3.421005249023438,231.8100128173828,218.0383911132812,10,180685.1556455833,0.115631103515625,-1.1375732421875,-0.471343994140625,180685.1080737917,-0.1342438252803872,0.6636719941887606,0.02140568989372989,180685.1080737917,1.108441448116033,-0.4037829158935725,1.266276458931472,-0.1489298790693283,0.6792188286781311,0.05370563641190529,-0.2702564299106598,-0.155719667673111,-0.03790654987096786,XTrueNorthZVertical,0.5779679407564294,0.1676059625379203,0.3147718781254683,0.7340162628100854,-0.1178051009774208,-0.9539909958839417,-0.2757225930690765,6.837490081787109,-40.29587173461914,4.947407722473145,2,0.0.0.0,10.83.46.32,1,0
2015-03-01 11:13:54.750,60,1425237230.218477,37.74680265057643,-122.4444073499602,174.3765,-1,-1,10,65,-9999,1425237234.703488,11.24635314941406,-41.12014770507812,3.421005249023438,231.8100128173828,218.0383911132812,10,180685.2046727084,-0.587890625,-0.963623046875,0.097503662109375,180685.1598474167,-0.1319567025362272,-1.282108066733653,0.3090481265948992,180685.1598474167,1.128895131908683,-0.4278234704825084,1.247792815649519,-0.1466425955295563,-1.266561388969421,0.3413477540016174,0.2473242729902267,-0.1892869025468826,-0.1825364232063293,XTrueNorthZVertical,0.5745005441883512,0.1598291038028667,0.3194937664831014,0.7364288316138305,-0.1316931694746017,-0.9482863545417786,-0.2888075709342957,6.57237434387207,-40.36418533325195,4.745724678039551,2,0.0.0.0,10.83.46.32,1,0
2015-03-01 11:13:54.808,61,1425237230.218477,37.74680265057643,-122.4444073499602,174.3765,-1,-1,10,65,-9999,1425237234.755378,11.10993957519531,-41.32408142089844,3.1214599609375,231.7461700439453,217.9745483398438,10,180685.25362675,-0.218536376953125,-1.254867553710938,-0.4585113525390625,180685.26339775,0.4270687734628508,0.6920011039683694,0.3841998693958453,180685.2116226667,1.184894334376295,-0.5494781423450861,1.244217242107347,0.2444046586751938,-0.5506523847579956,0.2981086373329163,-0.4203529059886932,-0.01647771708667278,0.3710849285125732,XTrueNorthZVertical,0.5884133879944806,0.1303037079070281,0.3056060819832703,0.7371536201757275,-0.1675377190113068,-0.9471453428268433,-0.2735812664031982,6.137622833251953,-40.50066375732422,4.124495506286621,2,0.0.0.0,10.83.46.32,1,0
2015-03-01 11:13:54.848,62,1425237230.218477,37.74680265057643,-122.4444073499602,174.3765,-1,-1,10,65,-9999,1425237234.806972,11.04173278808594,-41.39204406738281,2.888473510742188,233.4561614990234,219.6845397949219,10,180685.3026772917,-0.095611572265625,-1.608840942382812,-0.7321624755859375,180685.26339775,0.4270687734628508,0.6920011039683694,0.3841998693958453,180685.26339775,1.247656378710325,-0.5897641438199065,1.255309819827542,0.4123831391334534,0.7075474858283997,0.4164988696575165,-0.04597016796469688,-0.3042220175266266,-0.200647383928299,XTrueNorthZVertical,0.5934775959166718,0.1373038857795953,0.3138797956786384,0.7282934631783654,-0.1725662052631378,-0.9506455659866333,-0.2578639686107635,5.621888637542725,-40.54103088378906,4.450222015380859,2,0.0.0.0,10.83.46.32,1,0
2015-03-01 11:13:54.906,63,1425237230.218477,37.74680265057643,-122.4444073499602,174.3765,-1,-1,10,65,-9999,1425237234.858984,10.37671279907227,-41.61294555664062,3.60406494140625,232.8480834960938,219.0764617919922,10,180685.351747875,-0.43670654296875,-1.534927368164062,-0.4412078857421875,180685.3151715,0.2261540418728749,0.07823967808489291,1.080159229692399,180685.3151715,1.37292101648539,-0.6937783903251782,1.246656843588463,0.2114685773849487,0.09378591179847717,1.112457871437073,-0.2549436092376709,-0.9990200400352478,-0.5800366997718811,XTrueNorthZVertical,0.5995794623066339,0.1344251622377887,0.3304523503441978,0.7164045622678832,-0.2036592811346054,-0.9479251503944397,-0.2448686808347702,4.724836826324463,-40.54908752441406,5.332245826721191,2,0.0.0.0,10.83.46.32,1,0
2015-03-01 11:13:54.946,64,1425237230.218477,37.74680265057643,-122.4444073499602,174.3765,-1,-1,10,65,-9999,1425237234.910792,8.518058776855469,-41.1881103515625,4.319656372070312,230.2442779541016,216.47265625,10,180685.4007825,0.1785736083984375,-1.01727294921875,0.0049896240234375,180685.3669467084,0.01434671510836586,0.9309686791100515,0.6749243824265633,180685.3669467084,1.489745523480141,-0.7677642218302743,1.208765438642436,-0.0003386129974387586,0.9465147256851196,0.7072227597236633,-0.001803559833206236,-0.704484224319458,-0.06244483590126038,XTrueNorthZVertical,0.5962665840846307,0.1306070736311595,0.3607337362190621,0.7051801423209514,-0.2459839135408401,-0.9351794719696045,-0.2548159062862396,2.845690727233887,-40.66870498657227,5.739665031433105,2,0.0.0.0,10.83.46.32,1,0
2015-03-01 11:13:55.008,65,1425237230.218477,37.74680265057643,-122.4444073499602,174.3765,-1,-1,10,65,-9999,1425237234.962447,6.812881469726562,-41.05215454101562,5.1517333984375,225.2430877685547,211.4714660644531,10,180685.449861125,-0.3922576904296875,-0.8625640869140625,-0.36541748046875,180685.4187219584,0.5368916778633204,0.2096184746645729,0.4071890748737363,180685.4187219584,1.568578977456725,-0.8175787092145153,1.205610483483612,0.5222065448760986,0.2251644134521484,0.439487099647522,0.04083730280399323,-0.09916097670793533,0.1724908351898193,XTrueNorthZVertical,0.599550291122748,0.1356663461130506,0.3743574707709292,0.6942553446490458,-0.2605181038379669,-0.9340574145317078,-0.2442681789398193,0.7080221176147461,-40.72087860107422,6.024446487426758,2,0.0.0.0,10.83.46.32,1,0
2015-03-01 11:13:55.043,66,1425237230.218477,37.74680265057643,-122.4444073499602,174.3765,-1,-1,10,65,-9999,1425237235.014088,5.278221130371094,-40.95018005371094,5.717552185058594,222.8602142333984,209.0885925292969,10,180685.4988981667,-0.3879852294921875,-0.9583587646484375,-0.2158966064453125,180685.470495375,0.4605441757329288,1.001994919066356,-0.0102206796315061,180685.470495375,1.62874908350269,-0.8141296045225588,1.217209551466611,0.445881575345993,1.017491459846497,0.02220676094293594,0.3718655705451965,0.1221882924437523,-0.1903435438871384,XTrueNorthZVertical,0.5965699471463267,0.1588982965727894,0.3925967118490119,0.6817062123101485,-0.2517789006233215,-0.9381367564201355,-0.2377112656831741,-0.05076408386230469,-40.58564376831055,6.912911415100098,2,0.0.0.0,10.83.46.32,1,0
2015-03-01 11:13:55.110,67,1425237230.218477,37.74680265057643,-122.4444073499602,174.3765,-1,-1,10,65,-9999,1425237235.069913,4.493843078613281,-40.50836181640625,6.815902709960938,219.5530853271484,205.7814636230469,10,180685.5479566667,-0.413848876953125,-0.9319000244140625,-0.2241973876953125,180685.5222708333,0.5519547833049175,-0.05213004675775604,0.3208059828075991,180685.5222708333,1.710762304146185,-0.8944793302764411,1.21895293431288,0.5372923612594604,-0.03663366287946701,0.3532330691814423,-0.3208447396755219,0.05408020690083504,0.08955200761556625,XTrueNorthZVertical,0.6062161938356075,0.1569907302242882,0.395653122947285,0.6717993389442906,-0.2687701284885406,-0.938739001750946,-0.2157116681337357,-0.5449657440185547,-40.43986892700195,7.70099925994873,2,0.0.0.0,10.83.46.32,1,0
2015-03-01 11:13:55.142,68,1425237230.218477,37.74680265057643,-122.4444073499602,174.3765,-1,-1,10,65,-9999,1425237235.069913,4.493843078613281,-40.50836181640625,6.815902709960938,219.5530853271484,205.7814636230469,10,180685.5970942917,-0.3382720947265625,-0.9177093505859375,-0.1640167236328125,180685.574046,0.655185831375223,0.719379997871038,0.133564452886308,180685.574046,1.811053906740532,-0.9555213950482789,1.230136063395031,0.6405234932899475,0.734876275062561,0.1659912765026093,0.1094016805291176,-0.07420462369918823,0.01666422933340073,XTrueNorthZVertical,0.6117387566997667,0.1713318127039625,0.4068498554133532,0.6564253249273241,-0.2728385627269745,-0.9425342679023743,-0.1928422003984451,-1.445630073547363,-40.14864349365234,8.999004364013672,2,0.0.0.0,10.83.46.32,1,0
2015-03-01 11:13:55.208,69,1425237230.218477,37.74680265057643,-122.4444073499602,174.3765,-1,-1,10,65,-9999,1425237235.195591,3.027381896972656,-39.72671508789062,10.24407958984375,214.9008636474609,201.1292419433594,10,180685.6460411667,-0.421661376953125,-0.96826171875,0.1422119140625,180685.6258194583,0.4230015938460818,0.3351055599646706,0.1926101963627818,180685.6258194583,1.895259317743423,-1.026354577431691,1.233704266108314,0.4083394110202789,0.3506016433238983,0.225036695599556,-0.3941848874092102,0.0075479531660676,0.2432356774806976,XTrueNorthZVertical,0.6193077276197992,0.1755137151019603,0.41131313046431,0.6453481940611359,-0.2829238772392273,-0.9437204599380493,-0.1713057458400726,-2.052538871765137,-39.85472106933594,10.11799335479736,2,0.0.0.0,10.83.46.32,1,0
2015-03-01 11:13:55.240,70,1425237230.218477,37.74680265057643,-122.4444073499602,174.3765,-1,-1,10,65,-9999,1425237235.195591,3.027381896972656,-39.72671508789062,10.24407958984375,214.9008636474609,201.1292419433594,10,180685.6950822083,-0.1256866455078125,-1.029510498046875,-0.2316741943359375,180685.6775946667,0.3740657424997668,1.078807675439184,-0.07071837853429111,180685.6775946667,1.956644877578763,-1.035401568767529,1.24028979556701,0.3594036996364594,1.094303607940674,-0.03829223290085793,0.05241088941693306,-0.08572287112474442,0.05757835134863853,XTrueNorthZVertical,0.6160908834717316,0.1940351042550746,0.4260260389912229,0.6334699079435457,-0.2791107296943665,-0.9458780884742737,-0.1655648052692413,-2.625450134277344,-39.61094284057617,10.91170215606689,2,0.0.0.0,10.83.46.32,1,0
2015-03-01 11:13:55.308,71,1425237230.218477,37.74680265057643,-122.4444073499602,174.3765,-1,-1,10,65,-9999,1425237235.299336,1.697334289550781,-39.28489685058594,11.54212951660156,215.5330505371094,201.7614288330078,10,180685.7441492083,-0.373321533203125,-1.042373657226562,0.0420989990234375,180685.7293699167,0.1944544354176617,-0.0638514176635218,0.02450321255760106,180685.7293699167,1.983496483663534,-1.041367713790903,1.247248171888171,0.1797925680875778,-0.04835565015673637,0.05692903324961662,0.1240154579281807,-0.001364835072308779,0.08577006310224533,XTrueNorthZVertical,0.6152222013162179,0.2030204921333726,0.4304189325017352,0.6285091676932242,-0.2744060754776001,-0.9481133222579956,-0.1605686396360397,2.154711723327637,-39.64795684814453,11.4642448425293,2,0.0.0.0,10.83.46.32,1,0
2015-03-01 11:13:55.338,72,1425237230.218477,37.74680265057643,-122.4444073499602,174.3765,-1,-1,10,65,-9999,1425237235.299336,1.697334289550781,-39.28489685058594,11.54212951660156,215.5330505371094,201.7614288330078,10,180685.79317425,-0.2671356201171875,-0.9864959716796875,0.030029296875,180685.78114375,-0.01034078819666867,0.2669645887333581,-0.1743009638684871,180685.7293699167,1.983496483663534,-1.041367713790903,1.247248171888171,0.1797925680875778,-0.04835565015673637,0.05692903324961662,0.1240154579281807,-0.001364835072308779,0.08577006310224533,XTrueNorthZVertical,0.6152222013162179,0.2030204921333726,0.4304189325017352,0.6285091676932242,-0.2744060754776001,-0.9481133222579956,-0.1605686396360397,2.154711723327637,-39.64795684814453,11.4642448425293,2,0.0.0.0,10.83.46.32,1,0
2015-03-01 11:13:55.408,73,1425237230.218477,37.74680265057643,-122.4444073499602,174.3765,-1,-1,10,65,-9999,1425237235.35129,1.901954650878906,-38.91104125976562,11.44227600097656,216.4665222167969,202.6949005126953,10,180685.84224475,-0.2081451416015625,-1.016250610351562,-0.099151611328125,180685.83291875,-0.1900844543849507,0.1543536209876845,-0.002332662798800405,180685.83291875,1.966257718602288,-1.008250342409423,1.249253273419647,-0.2047460377216339,0.1698490679264069,0.0300925076007843,-0.03302367031574249,0.007388421799987555,0.05261601135134697,XTrueNorthZVertical,0.6099871844320285,0.2089006671087538,0.4344979851894223,0.6288780132309832,-0.2673303186893463,-0.9487488865852356,-0.1685522943735123,2.104269981384277,-39.55197525024414,11.80023670196533,2,0.0.0.0,10.83.46.32,1,0
2015-03-01 11:13:55.436,74,1425237230.218477,37.74680265057643,-122.4444073499602,174.3765,-1,-1,10,65,-9999,1425237235.402611,1.765541076660156,-38.70713806152344,11.44227600097656,216.7471771240234,202.9755554199219,10,180685.89138825,-0.5250091552734375,-0.98333740234375,0.070465087890625,180685.8846939583,-0.2510098569588024,-0.5458646665241244,-0.2157330925273948,180685.83291875,1.966257718602288,-1.008250342409423,1.249253273419647,-0.2047460377216339,0.1698490679264069,0.0300925076007843,-0.03302367031574249,0.007388421799987555,0.05261601135134697,XTrueNorthZVertical,0.6099871844320285,0.2089006671087538,0.4344979851894223,0.6288780132309832,-0.2673303186893463,-0.9487488865852356,-0.1685522943735123,2.104269981384277,-39.55197525024414,11.80023670196533,2,0.0.0.0,10.83.46.32,1,0
2015-03-01 11:13:55.506,75,1425237230.218477,37.74680265057643,-122.4444073499602,174.3765,-1,-1,10,65,-9999,1425237235.456196,1.833747863769531,-39.01300048828125,11.14272308349609,217.0235900878906,203.2519683837891,10,180685.9403525833,0.0035247802734375,-0.98980712890625,-0.225738525390625,180685.9364676667,-0.2946233808665941,-0.04162360994128445,-0.2002502728980011,180685.8846939583,1.921395151829744,-0.9791131492918894,1.246541782335883,-0.2656712830066681,-0.5303693413734436,-0.1833082437515259,-0.1638277769088745,-0.07319915294647217,0.2088005095720291,XTrueNorthZVertical,0.6080802172845295,0.2034376998981953,0.430060465632474,0.6355308458730563,-0.264440655708313,-0.9478884935379028,-0.1777030974626541,2.158286094665527,-39.69760894775391,11.29043769836426,2,0.0.0.0,10.83.46.32,1,0
2015-03-01 11:13:55.536,76,1425237230.218477,37.74680265057643,-122.4444073499602,174.3765,-1,-1,10,65,-9999,1425237235.506506,2.260047912597656,-39.02998352050781,10.52699279785156,218.4681243896484,204.6965026855469,10,180685.9893885,-0.4136810302734375,-0.972076416015625,-0.1067352294921875,180685.988243,-0.3654067405314831,-0.125398934668016,-0.3068741881970676,180685.9364676667,1.870266836000971,-0.9276445106045293,1.247726196120941,-0.3092846870422363,-0.02612845040857792,-0.1678257137537003,0.1977143585681915,-0.002113232389092445,-0.006012388505041599,XTrueNorthZVertical,0.6023649959247565,0.204834175876665,0.4289368753958631,0.6412584795165986,-0.2540498077869415,-0.9482651948928833,-0.1903987377882004,2.662103652954102,-39.8048095703125,10.7945556640625,2,0.0.0.0,10.83.46.32,1,0
2015-03-01 11:13:55.607,77,1425237230.218477,37.74680265057643,-122.4444073499602,174.3765,-1,-1,10,65,-9999,1425237235.558489,2.737495422363281,-39.74371337890625,9.927894592285156,219.2167358398438,205.4451141357422,10,180686.0384491667,-0.0049285888671875,-0.93438720703125,-0.394378662109375,180686.0400180417,-0.5760172427021105,-0.4226311481384517,-0.2463945987896951,180685.988243,1.808466908907618,-0.8863657910994835,1.24329792863431,-0.38006791472435,-0.1099039316177368,-0.2744499444961548,-0.1747840046882629,-0.0511968657374382,0.05623280256986618,XTrueNorthZVertical,0.5992676727384778,0.1979686942814522,0.4227833256740898,0.6503390043476344,-0.2492272257804871,-0.9468500018119812,-0.2033732980489731,2.979279518127441,-39.9199104309082,10.27408599853516,2,0.0.0.0,10.83.46.32,1,0
2015-03-01 11:13:55.633,78,1425237230.218477,37.74680265057643,-122.4444073499602,174.3765,-1,-1,10,65,-9999,1425237235.611729,3.385475158691406,-40.18553161621094,8.8961181640625,220.6619720458984,206.8903503417969,10,180686.0875837083,-0.3218231201171875,-1.008193969726562,-0.2281341552734375,180686.0400180417,-0.5760172427021105,-0.4226311481384517,-0.2463945987896951,180686.0400180417,1.720944737330925,-0.807089189264835,1.238172405901194,-0.5906782746315002,-0.4071363210678101,-0.2139707207679749,0.2309122532606125,0.01080161705613136,-0.1685534119606018,XTrueNorthZVertical,0.5904599086321298,0.1960726133836223,0.4192596079878045,0.6611610365393412,-0.2358408421278,-0.9451888203620911,-0.2258252501487732,3.695156097412109,-40.10405731201172,9.275917053222656,2,0.0.0.0,10.83.46.32,1,0
2015-03-01 11:13:55.706,79,1425237230.218477,37.74680265057643,-122.4444073499602,174.3765,-1,-1,10,65,-9999,1425237235.662534,4.0845947265625,-40.6103515625,7.914260864257812,222.0322570800781,208.2606353759766,10,180686.1365399167,-0.2950286865234375,-0.977874755859375,-0.46551513671875,180686.1435669583,-0.7705252076576827,0.27583344779554,-0.01292032602851942,180686.0917918333,1.639692260117939,-0.7587703248634838,1.216819622376216,-0.8010331988334656,-0.3383438289165497,-0.07955384999513626,-0.08333107084035873,-0.07019228488206863,0.02340956963598728,XTrueNorthZVertical,0.5844235758123105,0.18076842088934,0.4127715508144144,0.6748269536933164,-0.2384920418262482,-0.9380016922950745,-0.2515437304973602,4.216732025146484,-40.29670715332031,8.150286674499512,2,0.0.0.0,10.83.46.32,1,0
2015-03-01 11:13:55.731,80,1425237230.218477,37.74680265057643,-122.4444073499602,174.3765,-1,-1,10,65,-9999,1425237235.714216,4.0845947265625,-41.18814086914062,6.649497985839844,222.4701385498047,208.6985168457031,10,180686.1855817084,0.0747528076171875,-0.890380859375,-0.5622100830078125,180686.1435669583,-0.7705252076576827,0.27583344779554,-0.01292032602851942,180686.1435669583,1.554854976275246,-0.6779068715771969,1.186911500673407,-0.7851859331130981,0.2913280129432678,0.01950293220579624,-0.06013993918895721,-0.05065808445215225,-0.1738022714853287,XTrueNorthZVertical,0.5692486417446714,0.1734922292855298,0.415897694397072,0.6876666682291607,-0.2348887473344803,-0.927216649055481,-0.2917128503322601,4.487551689147949,-40.53924942016602,6.668084144592285,2,0.0.0.0,10.83.46.32,1,0
2015-03-01 11:13:55.810,81,1425237230.218477,37.74680265057643,-122.4444073499602,174.3765,-1,-1,10,65,-9999,1425237235.770364,3.931137084960938,-41.64695739746094,5.035255432128906,222.6276550292969,208.8560333251953,10,180686.2346397083,-0.2970123291015625,-0.6803741455078125,-0.11260986328125,180686.1953421667,-0.4872647362141298,-0.2399351015657079,0.1133505275803886,180686.1953421667,1.509946210252003,-0.6266284433520212,1.159788758170046,-0.5019252896308899,-0.2244407087564468,0.1457734555006027,0.309045821428299,0.02633787132799625,-0.2385846376419067,XTrueNorthZVertical,0.5563095506296052,0.1694312791579238,0.4223403490055317,0.6952994057755933,-0.2342929989099503,-0.9167187213897705,-0.3236254453659058,4.461827278137207,-40.80534744262695,4.800856590270996,2,0.0.0.0,10.83.46.32,1,0
2015-03-01 11:13:55.831,82,1425237230.218477,37.74680265057643,-122.4444073499602,174.3765,-1,-1,10,65,-9999,1425237235.770364,3.931137084960938,-41.64695739746094,5.035255432128906,222.6276550292969,208.8560333251953,10,180686.2837465,-0.1972503662109375,-0.816619873046875,-0.4230194091796875,180686.2471158333,-0.1974510242762189,-0.8664765048882567,-0.2003959478096285,180686.2471158333,1.496460459232799,-0.655487995909671,1.146932419497721,-0.2121114283800125,-0.8509822487831116,-0.1679733693599701,-0.07155296206474304,0.251853883266449,0.197094663977623,XTrueNorthZVertical,0.5604361553222624,0.1512877128420301,0.4130844544949061,0.7017011370619868,-0.2506974041461945,-0.9115065932273865,-0.3260466754436493,4.310612678527832,-40.92208099365234,3.851548194885254,2,0.0.0.0,10.83.46.32,1,0
2015-03-01 11:13:55.912,83,1425237230.218477,37.74680265057643,-122.4444073499602,174.3765,-1,-1,10,65,-9999,1425237235.895761,4.988334655761719,-41.57901000976562,3.703926086425781,225.4123992919922,211.6407775878906,10,180686.332744,-0.2502899169921875,-1.175079345703125,-0.546356201171875,180686.2988912083,0.2534285398608124,0.1016797567353343,-0.2892528502123403,180686.2988912083,1.465041654065534,-0.6317429795790832,1.156202752278555,0.2387682795524597,0.1171738356351852,-0.2568305730819702,0.06628461927175522,0.08172298222780228,-0.09519908577203751,XTrueNorthZVertical,0.5601543670993354,0.1539162556108371,0.4061610964224043,0.7053863789300469,-0.2378849685192108,-0.9152801036834717,-0.3250737488269806,4.616595268249512,-40.93573760986328,3.314345359802246,2,0.0.0.0,10.83.46.32,1,0
2015-03-01 11:13:55.928,84,1425237230.218477,37.74680265057643,-122.4444073499602,174.3765,-1,-1,10,65,-9999,1425237235.895761,4.988334655761719,-41.57901000976562,3.703926086425781,225.4123992919922,211.6407775878906,10,180686.3818050417,-0.3094329833984375,-0.7720947265625,-0.2719879150390625,180686.3506662917,0.2135756657283216,-0.7820183456580287,-0.01366840797872268,180686.3506662917,1.475420163316984,-0.6619809977499681,1.168647112477376,0.1989155411720276,-0.7665244340896606,0.01875355280935764,-0.06051763519644737,-0.2818349599838257,-0.2003087252378464,XTrueNorthZVertical,0.5683727731874416,0.1503002176222161,0.3978890730726377,0.7043056363256932,-0.2405840456485748,-0.9202219247817993,-0.3087244629859924,5.245326995849609,-40.82752990722656,3.692112922668457,2,0.0.0.0,10.83.46.32,1,0
2015-03-01 11:13:56.009,85,1425237230.218477,37.74680265057643,-122.4444073499602,174.3765,-1,-1,10,65,-9999,1425237236.001413,5.67041015625,-41.13720703125,5.135101318359375,227.6414489746094,213.8698272705078,10,180686.4308367083,-0.3369293212890625,-0.9116058349609375,-0.2862091064453125,180686.4024399167,0.4950390360682891,-0.4088357073757323,0.06814576492127457,180686.4024399167,1.517258597673939,-0.7342602797208915,1.183054332744588,0.4803790748119354,-0.3933419585227966,0.1005673706531525,-0.2478800415992737,-0.03964315727353096,0.1540859043598175,XTrueNorthZVertical,0.5827150059363744,0.1417985024337697,0.3877199785078161,0.7000068095231793,-0.2533406615257263,-0.9257651567459106,-0.2806728184223175,5.345958709716797,-40.78229904174805,4.032011032104492,2,0.0.0.0,10.83.46.32,1,0
2015-03-01 11:13:56.026,86,1425237230.218477,37.74680265057643,-122.4444073499602,174.3765,-1,-1,10,65,-9999,1425237236.001413,5.67041015625,-41.13720703125,5.135101318359375,227.6414489746094,213.8698272705078,10,180686.4798695417,-0.5106964111328125,-0.9402008056640625,-0.1515655517578125,180686.4542152083,0.5629240775188449,0.1307841127082653,0.006696518561004244,180686.4542152083,1.55371278881549,-0.7610160914291377,1.191229414378228,0.5482584834098816,0.1462337523698807,0.03924132883548737,-0.04352641478180885,-0.0107957823202014,-0.07071444392204285,XTrueNorthZVertical,0.5869866507302579,0.1459246628221808,0.3902331952502341,0.694169018696679,-0.2555305957794189,-0.9288251996040344,-0.2683053314685822,5.274230003356934,-40.70975875854492,4.788577079772949,2,0.0.0.0,10.83.46.32,1,0
2015-03-01 11:13:56.113,87,1425237230.218477,37.74680265057643,-122.4444073499602,174.3765,-1,-1,10,65,-9999,1425237236.076894,4.954227447509766,-40.86531066894531,6.899116516113281,225.0245819091797,211.2529602050781,10,180686.5289325833,-0.132843017578125,-0.9360198974609375,-0.220428466796875,180686.5059905833,0.8763602946418677,1.482815071758603,-0.06714015529366064,180686.5059905833,1.633093122655313,-0.7960223547594447,1.216627179215603,0.8616948127746582,1.49826455116272,-0.03459563478827477,-0.1863344013690948,0.01351174339652061,0.04850616678595543,XTrueNorthZVertical,0.5925274017249361,0.1661465222243573,0.3996334534673337,0.679411232447941,-0.2478239238262177,-0.937934935092926,-0.2426132261753082,4.975092887878418,-40.59674835205078,5.931668281555176,2,0.0.0.0,10.83.46.32,1,0
2015-03-01 11:13:56.125,88,1425237230.218477,37.74680265057643,-122.4444073499602,174.3765,-1,-1,10,65,-9999,1425237236.076894,4.954227447509766,-40.86531066894531,6.899116516113281,225.0245819091797,211.2529602050781,10,180686.577969125,-0.0177001953125,-1.002105712890625,-0.188018798828125,180686.5577640834,0.4133716033443552,1.257440537136794,-0.2807978463835567,180686.5059905833,1.633093122655313,-0.7960223547594447,1.216627179215603,0.8616948127746582,1.49826455116272,-0.03459563478827477,-0.1863344013690948,0.01351174339652061,0.04850616678595543,XTrueNorthZVertical,0.5925274017249361,0.1661465222243573,0.3996334534673337,0.679411232447941,-0.2478239238262177,-0.937934935092926,-0.2426132261753082,4.975092887878418,-40.59674835205078,5.931668281555176,2,0.0.0.0,10.83.46.32,1,0
2015-03-01 11:13:56.209,89,1425237230.218477,37.74680265057643,-122.4444073499602,174.3765,-1,-1,10,65,-9999,1425237236.180265,4.016372680664062,-40.06660461425781,9.378707885742188,219.5689392089844,205.7973175048828,10,180686.627031125,-0.0526123046875,-0.9602508544921875,-0.175079345703125,180686.6095394584,0.5163294110868186,0.7262530840123145,0.07981893261130989,180686.6095394584,1.727140251935763,-0.7704509590733511,1.261861789440553,0.5016642212867737,0.7417022585868835,0.1123627722263336,0.0180129986256361,0.04006040096282959,0.06269358098506927,XTrueNorthZVertical,0.5858371554159275,0.2184136150121822,0.4248126567605365,0.654694154026405,-0.2117538452148438,-0.9526580572128296,-0.2181806415319443,4.472259521484375,-40.12711334228516,8.823034286499023,2,0.0.0.0,10.83.46.32,1,0
2015-03-01 11:13:56.220,90,1425237230.218477,37.74680265057643,-122.4444073499602,174.3765,-1,-1,10,65,-9999,1425237236.180265,4.016372680664062,-40.06660461425781,9.378707885742188,219.5689392089844,205.7973175048828,10,180686.6760594583,-0.3501739501953125,-1.047119140625,-0.112579345703125,180686.6613145417,0.03124846696655375,-0.09921500114646599,-0.1051937977936939,180686.6613145417,1.754237527035537,-0.7661578779769459,1.265941440470857,0.01658343896269798,-0.08376596868038177,-0.07265028357505798,0.1847269535064697,-0.113568589091301,0.02495538629591465,XTrueNorthZVertical,0.5825218450648832,0.2291847049355165,0.4336409828588211,0.648149733919463,-0.2081186771392822,-0.9538905024528503,-0.2162853479385376,3.882697105407715,-39.90750885009766,10.01736068725586,2,0.0.0.0,10.83.46.32,1,0
2015-03-01 11:13:56.306,91,1425237230.218477,37.74680265057643,-122.4444073499602,174.3765,-1,-1,10,65,-9999,1425237236.284516,3.965217590332031,-39.87969970703125,10.36056518554688,218.5361938476562,204.7645721435547,10,180686.7251101667,-0.0330810546875,-1.02545166015625,-0.134857177734375,180686.7130881667,0.1264964233532377,0.4095504998123095,0.08851362093820059,180686.7130881667,1.76818736414695,-0.7797052367627405,1.269801779181718,0.1118315234780312,0.4249993860721588,0.1210568398237228,-0.07656458765268326,0.02623961679637432,0.1110029518604279,XTrueNorthZVertical,0.5844396353246146,0.2302549443546802,0.4330137607585543,0.6464611085010432,-0.2084390819072723,-0.9550421237945557,-0.2108259499073029,3.939516067504883,-39.88124084472656,10.09945583343506,2,0.0.0.0,10.83.46.32,1,0
2015-03-01 11:13:56.319,92,1425237230.218477,37.74680265057643,-122.4444073499602,174.3765,-1,-1,10,65,-9999,1425237236.284516,3.965217590332031,-39.87969970703125,10.36056518554688,218.5361938476562,204.7645721435547,10,180686.7741465833,-0.2856292724609375,-0.969940185546875,-0.1478271484375,180686.7648635833,0.02589577949160349,-0.4234154490794801,-0.06030408709153626,180686.7130881667,1.76818736414695,-0.7797052367627405,1.269801779181718,0.1118315234780312,0.4249993860721588,0.1210568398237228,-0.07656458765268326,0.02623961679637432,0.1110029518604279,XTrueNorthZVertical,0.5844396353246146,0.2302549443546802,0.4330137607585543,0.6464611085010432,-0.2084390819072723,-0.9550421237945557,-0.2108259499073029,3.939516067504883,-39.88124084472656,10.09945583343506,2,0.0.0.0,10.83.46.32,1,0
2015-03-01 11:13:56.406,93,1425237230.218477,37.74680265057643,-122.4444073499602,174.3765,-1,-1,10,65,-9999,1425237236.38791,3.504829406738281,-39.65879821777344,11.00959014892578,217.1875152587891,203.4158935546875,10,180686.8231982917,-0.3070831298828125,-1.015472412109375,0.003631591796875,180686.8166388333,-0.008193481409737784,-0.2716847754494146,-0.05795704322284942,180686.8166388333,1.769545229221434,-0.7983300697361108,1.270946073135102,-0.02285807020962238,-0.25623619556427,-0.02541450783610344,-0.127259686589241,-0.02180737815797329,0.1735823601484299,XTrueNorthZVertical,0.5884609951486208,0.2250363211224512,0.4276373488717828,0.6482272115262454,-0.211546465754509,-0.9553807377815247,-0.2061446160078049,3.918015956878662,-39.82976531982422,10.30879592895508,2,0.0.0.0,10.83.46.32,1,0
2015-03-01 11:13:56.418,94,1425237230.218477,37.74680265057643,-122.4444073499602,174.3765,-1,-1,10,65,-9999,1425237236.38791,3.504829406738281,-39.65879821777344,11.00959014892578,217.1875152587891,203.4158935546875,10,180686.872241875,-0.1570587158203125,-0.9804229736328125,-0.1702423095703125,180686.8166388333,-0.008193481409737784,-0.2716847754494146,-0.05795704322284942,180686.8166388333,1.769545229221434,-0.7983300697361108,1.270946073135102,-0.02285807020962238,-0.25623619556427,-0.02541450783610344,-0.127259686589241,-0.02180737815797329,0.1735823601484299,XTrueNorthZVertical,0.5884609951486208,0.2250363211224512,0.4276373488717828,0.6482272115262454,-0.211546465754509,-0.9553807377815247,-0.2061446160078049,3.918015956878662,-39.82976531982422,10.30879592895508,2,0.0.0.0,10.83.46.32,1,0
2015-03-01 11:13:56.510,95,1425237230.218477,37.74680265057643,-122.4444073499602,174.3765,-1,-1,10,65,-9999,1425237236.491151,3.99932861328125,-39.50584411621094,10.52698516845703,218.6501617431641,204.8785400390625,10,180686.921297375,-0.095550537109375,-0.9797821044921875,-0.25994873046875,180686.9201877083,-0.1040489048410688,-0.06445515628264276,-0.08381127740144767,180686.8684125,1.757888697982322,-0.7834691425642323,1.274299217061643,0.02215401083230972,0.4083672165870667,-0.08508531749248505,-0.02822308987379074,-0.02507951110601425,0.1028840243816376,XTrueNorthZVertical,0.5870990849306306,0.2276341194255052,0.4271850123645908,0.6488530233472491,-0.2061976939439774,-0.9563658237457275,-0.2069947421550751,4.093892097473145,-39.82923126220703,10.24231243133545,2,0.0.0.0,10.83.46.32,1,0
2015-03-01 11:13:56.516,96,1425237230.218477,37.74680265057643,-122.4444073499602,174.3765,-1,-1,10,65,-9999,1425237236.491151,3.99932861328125,-39.50584411621094,10.52698516845703,218.6501617431641,204.8785400390625,10,180686.9704415833,-0.21923828125,-0.901611328125,-0.1695709228515625,180686.9719628333,-0.1337213130745137,-0.4284142024455588,-0.04031972627158165,180686.9201877083,1.74159685434295,-0.7574623178435785,1.273608934142771,-0.1187132149934769,-0.04900688678026199,-0.05126935988664627,0.09388376772403717,0.01098872069269419,-0.1059440225362778,XTrueNorthZVertical,0.5832902640644956,0.2310612821346812,0.4297196294708672,0.6494028798381472,-0.2011988312005997,-0.9561638832092285,-0.2127663046121597,4.150898933410645,-39.81858444213867,10.26074028015137,2,0.0.0.0,10.83.46.32,1,0
2015-03-01 11:13:56.578,97,1425237230.218477,37.74680265057643,-122.4444073499602,174.3765,-1,-1,10,65,-9999,1425237236.543964,4.289207458496094,-39.3529052734375,10.34391784667969,218.6736297607422,204.9020080566406,10,180687.0193919167,-0.52899169921875,-0.9608001708984375,0.0099639892578125,180686.9719628333,-0.1337213130745137,-0.4284142024455588,-0.04031972627158165,180686.9719628333,1.717037151792691,-0.7492284301321775,1.27030859642142,-0.1483854502439499,-0.4129661023616791,-0.007778168190270662,-0.01764999516308308,0.05358091369271278,0.047154251486063,XTrueNorthZVertical,0.5838064753770732,0.2254049952657612,0.4251300300148387,0.6539319181271346,-0.2015882879495621,-0.9551922678947449,-0.2167251706123352,4.304718017578125,-39.86695861816406,10.00636863708496,2,0.0.0.0,10.83.46.32,1,0
2015-03-01 11:13:56.614,98,1425237230.218477,37.74680265057643,-122.4444073499602,174.3765,-1,-1,10,65,-9999,1425237236.595512,4.255104064941406,-39.6927490234375,9.911239624023438,219.3218994140625,205.5502777099609,10,180687.0684167084,-0.0307464599609375,-1.044998168945312,-0.155914306640625,180687.0237364583,-0.1533450818828715,0.3647689134504091,-0.07254077966823234,180687.0237364583,1.696445118042897,-0.7330170150333666,1.263168542807391,-0.1680090725421906,0.3802168667316437,-0.03999955207109451,-0.3263848125934601,-0.007745616137981415,0.2349913716316223,XTrueNorthZVertical,0.5814772004948273,0.2221949064977756,0.4252732905444258,0.657005499010069,-0.2026068866252899,-0.9530545473098755,-0.2250273823738098,4.491271495819092,-39.93642425537109,9.640679359436035,2,0.0.0.0,10.83.46.32,1,0
2015-03-01 11:13:56.719,99,1425237236.643363,37.74683805102602,-122.4444176223743,174.6472,-1,-1,10,65,-9999,1425237236.7011,4.374465942382812,-39.94766235351562,9.428634643554688,217.9754028320312,204.2037811279297,10,180687.1174589167,-0.0425262451171875,-1.011428833007812,-0.160858154296875,180687.127287125,-0.01679735594345678,0.5064480181781885,-0.2977632477917975,180687.0755116667,1.660397104332227,-0.6571891717742483,1.266708079542646,-0.07378178089857101,0.8069168925285339,-0.3359484076499939,0.1521693170070648,-0.09087781608104706,0.08114273101091385,XTrueNorthZVertical,0.5699606545104736,0.2379418685352141,0.434213288879617,0.6557341289098199,-0.1829157769680023,-0.9541203379631042,-0.2370570451021194,4.429678916931152,-39.99643707275391,9.417818069458008,2,0.0.0.0,10.83.46.32,1,0
2015-03-01 11:13:56.721,100,1425237236.643363,37.74683805102602,-122.4444176223743,174.6472,-1,-1,10,65,-9999,1425237236.7011,4.374465942382812,-39.94766235351562,9.428634643554688,217.9754028320312,204.2037811279297,10,180687.1664942917,0.086029052734375,-1.055511474609375,-0.3480682373046875,180687.127287125,-0.01679735594345678,0.5064480181781885,-0.2977632477917975,180687.127287125,1.60432264612632,-0.5757618995122629,1.274468546807897,-0.03146106377243996,0.5218956470489502,-0.2652226686477661,0.0433301143348217,-0.1148585453629494,0.1049013882875443,XTrueNorthZVertical,0.560622780294572,0.2514685881723814,0.4365732315218954,0.6571676874624258,-0.158991739153862,-0.9564152359962463,-0.2449312955141068,4.734487056732178,-39.95715713500977,9.436239242553711,2,0.0.0.0,10.83.46.32,1,0
2015-03-01 11:13:56.781,101,1425237236.643363,37.74683805102602,-122.4444176223743,174.6472,-1,-1,10,65,-9999,1425237236.753555,4.459724426269531,-39.89668273925781,9.7115478515625,217.0119476318359,203.2403259277344,10,180687.2155483333,0.10357666015625,-0.8560333251953125,-0.488800048828125,180687.179060625,-0.01676246853317674,0.3245407999203262,-0.05464513609122688,180687.179060625,1.592100482310594,-0.531482283996798,1.276437658503573,-0.03142603114247322,0.3399882912635803,-0.02210487984120846,0.2897546589374542,-0.1426972597837448,-0.09300410747528076,XTrueNorthZVertical,0.5528594341639582,0.2632374123034618,0.4443384468552273,0.6539233624934799,-0.1470392197370529,-0.9569883942604065,-0.2501050233840942,4.937911510467529,-39.91859436035156,9.495004653930664,2,0.0.0.0,10.83.46.32,1,0
2015-03-01 11:13:56.819,102,1425237236.643363,37.74683805102602,-122.4444176223743,174.6472,-1,-1,10,65,-9999,1425237236.753555,4.459724426269531,-39.89668273925781,9.7115478515625,217.0119476318359,203.2403259277344,10,180687.26456725,-0.05072021484375,-0.67559814453125,-0.2237548828125,180687.230835875,-0.4981727777229853,-0.9759705088941015,1.008992641146648,180687.230835875,1.641669566315531,-0.5975988253429172,1.246059748287251,-0.512836217880249,-0.9605231881141663,1.041532635688782,0.1805589944124222,0.210018128156662,-0.3247384428977966,XTrueNorthZVertical,0.5550232108099568,0.2450876870912674,0.4508282817743595,0.6547022452990734,-0.1795213967561722,-0.9477348327636719,-0.2637625336647034,4.748600482940674,-39.94152069091797,9.49515438079834,2,0.0.0.0,10.83.46.32,1,0
2015-03-01 11:13:56.881,103,1425237236.643363,37.74683805102602,-122.4444176223743,174.6472,-1,-1,10,65,-9999,1425237236.8298,3.300201416015625,-39.9306640625,8.812896728515625,216.2018280029297,202.4302062988281,10,180687.3136168334,0.42547607421875,-0.735260009765625,-0.415618896484375,180687.282611125,-0.246525093683109,-0.4369469705781727,0.1814986893466442,180687.282611125,1.701590545556694,-0.6989983638577384,1.209567564077906,-0.2611883878707886,-0.4214997589588165,0.2140383273363113,0.2135254740715027,0.3395465016365051,0.132052555680275,XTrueNorthZVertical,0.5640258118857042,0.2158801014780208,0.4526830331408835,0.6560096381667662,-0.2274109721183777,-0.9354632496833801,-0.2705413401126862,3.073404788970947,-40.36952972412109,8.299857139587402,2,0.0.0.0,10.83.46.32,1,0
2015-03-01 11:13:56.919,104,1425237236.643363,37.74683805102602,-122.4444176223743,174.6472,-1,-1,10,65,-9999,1425237236.8298,3.300201416015625,-39.9306640625,8.812896728515625,216.2018280029297,202.4302062988281,10,180687.3626473334,-0.5352935791015625,-1.255752563476562,-0.3382415771484375,180687.3343847917,-0.3533332997296089,-1.722788522844008,-0.6102923922475393,180687.3343847917,1.607942054713443,-0.6505054995904965,1.210447306077326,-0.3679964244365692,-1.707341432571411,-0.5777530670166016,0.3599695861339569,-0.1376972496509552,-0.2837850451469421,XTrueNorthZVertical,0.5633056554503396,0.2058903813133996,0.4350103855532212,0.6716113179733754,-0.2135310024023056,-0.9357737898826599,-0.2805917859077454,2.955691814422607,-40.4964485168457,7.702864646911621,2,0.0.0.0,10.83.46.32,1,0
2015-03-01 11:13:56.986,105,1425237236.643363,37.74683805102602,-122.4444176223743,174.6472,-1,-1,10,65,-9999,1425237236.958689,4.493827819824219,-40.64439392089844,6.716041564941406,221.9127502441406,208.1411285400391,10,180687.4117622917,-0.765472412109375,-0.9029083251953125,-0.0405731201171875,180687.3861601667,0.0651150876007644,-1.965170536819281,0.4091161382385176,180687.3861601667,1.609879576314647,-0.7680023764175725,1.198049479833785,0.05045211315155029,-1.949723601341248,0.4416550993919373,-0.4960618019104004,0.138087123632431,0.4325899481773376,XTrueNorthZVertical,0.5853789803409184,0.1623452960149702,0.405519672103749,0.6830293978464735,-0.2529921531677246,-0.9313305020332336,-0.2619509100914001,4.541277885437012,-40.57592391967773,6.403383255004883,2,0.0.0.0,10.83.46.32,1,0
2015-03-01 11:13:57.022,106,1425237236.643363,37.74683805102602,-122.4444176223743,174.6472,-1,-1,10,65,-9999,1425237237.009487,4.851913452148438,-40.72935485839844,6.69940185546875,224.5861206054688,210.8144989013672,10,180687.4607421667,-0.2675018310546875,-0.901641845703125,-0.3323211669921875,180687.43793525,0.1154512290482431,0.3926982827503971,-0.06883472469527807,180687.43793525,1.622167784624859,-0.7960668151625264,1.197613844777293,0.1008098274469376,0.4080989360809326,-0.03617636859416962,-0.08503280580043793,-0.135478600859642,-0.08757320046424866,XTrueNorthZVertical,0.5899821643872829,0.1562205171025926,0.4015986082152362,0.6828137829375526,-0.2605329751968384,-0.9311717748641968,-0.2550323903560638,4.36542797088623,-40.64108276367188,6.105555534362793,2,0.0.0.0,10.83.46.32,1,0
2015-03-01 11:13:57.079,107,1425237236.643363,37.74683805102602,-122.4444176223743,174.6472,-1,-1,10,65,-9999,1425237237.061966,4.579086303710938,-40.96723937988281,7.032234191894531,223.918212890625,210.1465911865234,10,180687.5097995833,-0.4635162353515625,-0.9224090576171875,-0.051910400390625,180687.4897089167,0.4940632538448841,0.1499154630310675,0.06138160206858231,180687.4897089167,1.658507968704085,-0.823220220468794,1.205281169660188,0.479422003030777,0.1653159409761429,0.09403962641954422,-0.04565223678946495,0.04821282252669334,0.1338270604610443,XTrueNorthZVertical,0.5939303358079359,0.1604521957826494,0.40361127290949,0.6771998951600563,-0.2621175348758698,-0.9339397549629211,-0.2430036962032318,4.323332786560059,-40.60238647460938,6.386514663696289,2,0.0.0.0,10.83.46.32,1,0
2015-03-01 11:13:57.111,108,1425237236.643363,37.74683805102602,-122.4444176223743,174.6472,-1,-1,10,65,-9999,1425237237.061966,4.579086303710938,-40.96723937988281,7.032234191894531,223.918212890625,210.1465911865234,10,180687.5588353334,-0.09228515625,-0.9598388671875,-0.270599365234375,180687.5414842083,0.4278370954373386,1.324096529744278,-0.05498895018795611,180687.5414842083,1.72092401997937,-0.8376214669301083,1.218296730777021,0.4131959974765778,1.339496850967407,-0.02233128435909748,-0.1047929525375366,-0.02814687229692936,-0.02764875441789627,XTrueNorthZVertical,0.5937203415105853,0.1788065395729975,0.4163103388840536,0.6649887125128808,-0.2565351724624634,-0.9385126829147339,-0.2310487478971481,3.907451629638672,-40.43754196166992,7.587441444396973,2,0.0.0.0,10.83.46.32,1,0
2015-03-01 11:13:57.163,109,1425237236.643363,37.74683805102602,-122.4444176223743,174.6472,-1,-1,10,65,-9999,1425237237.113365,4.238044738769531,-40.55940246582031,8.1971435546875,222.7452239990234,208.9736022949219,10,180687.6079897917,-0.113616943359375,-0.974365234375,-0.3248138427734375,180687.5932595833,0.4038289645263833,0.8481584839623646,0.09529109959634324,180687.5932595833,1.767429449004326,-0.8292879406627625,1.232166075031901,0.3891879916191101,0.8635586500167847,0.1279484480619431,0.06950150430202484,0.01007458847016096,0.037490613758564,XTrueNorthZVertical,0.5896505232278838,0.2003241340745639,0.4298400698716299,0.6537736035095956,-0.2449775785207748,-0.9432106018066406,-0.2243650108575821,3.469095230102539,-40.28328323364258,8.558908462524414,2,0.0.0.0,10.83.46.32,1,0
2015-03-01 11:13:57.219,110,1425237236.643363,37.74683805102602,-122.4444176223743,174.6472,-1,-1,10,65,-9999,1425237237.171846,3.573028564453125,-40.1005859375,9.278854370117188,219.6039123535156,205.8322906494141,10,180687.6569180833,-0.16156005859375,-0.888824462890625,-0.2039031982421875,180687.645033125,0.2931543812093064,0.2699627754885693,0.08929179660872173,180687.5932595833,1.767429449004326,-0.8292879406627625,1.232166075031901,0.3891879916191101,0.8635586500167847,0.1279484480619431,0.06950150430202484,0.01007458847016096,0.037490613758564,XTrueNorthZVertical,0.5896505232278838,0.2003241340745639,0.4298400698716299,0.6537736035095956,-0.2449775785207748,-0.9432106018066406,-0.2243650108575821,3.469095230102539,-40.28328323364258,8.558908462524414,2,0.0.0.0,10.83.46.32,1,0
2015-03-01 11:13:57.261,111,1425237236.643363,37.74683805102602,-122.4444176223743,174.6472,-1,-1,10,65,-9999,1425237237.244436,2.856857299804688,-39.82868957519531,10.27735137939453,216.6366271972656,202.8650054931641,10,180687.7059782917,-0.0712890625,-0.926300048828125,-0.34625244140625,180687.6968085,-0.06005188573630575,0.4069922672691794,0.2785104573232877,180687.6968085,1.854961298306293,-0.8579682157338103,1.231656332996726,-0.07469253987073898,0.4223921000957489,0.3111671507358551,0.1220205649733543,0.02281406708061695,-0.09277117997407913,XTrueNorthZVertical,0.5867651964140433,0.2166231037103472,0.4498226840667727,0.637526859562686,-0.2516745030879974,-0.9430411458015442,-0.2175620645284653,2.253765106201172,-40.02931594848633,10.03028678894043,2,0.0.0.0,10.83.46.32,1,0
2015-03-01 11:13:57.313,112,1425237236.643363,37.74683805102602,-122.4444176223743,174.6472,-1,-1,10,65,-9999,1425237237.294449,1.782600402832031,-39.81167602539062,10.29399108886719,213.8669891357422,200.0953674316406,10,180687.755008625,-0.2127227783203125,-0.8800201416015625,-0.1884307861328125,180687.748583625,-0.2721875802632215,-0.2155421438772361,0.6089717306629691,180687.6968085,1.854961298306293,-0.8579682157338103,1.231656332996726,-0.07469253987073898,0.4223921000957489,0.3111671507358551,0.1220205649733543,0.02281406708061695,-0.09277117997407913,XTrueNorthZVertical,0.5867651964140433,0.2166231037103472,0.4498226840667727,0.637526859562686,-0.2516745030879974,-0.9430411458015442,-0.2175620645284653,2.253765106201172,-40.02931594848633,10.03028678894043,2,0.0.0.0,10.83.46.32,1,0
2015-03-01 11:13:57.360,113,1425237236.643363,37.74683805102602,-122.4444176223743,174.6472,-1,-1,10,65,-9999,1425237237.346761,0.8958969116210938,-39.879638671875,9.89459228515625,212.7904205322266,199.018798828125,10,180687.8040902083,-0.226165771484375,-0.8772125244140625,-0.1348114013671875,180687.8003574167,-0.3812602721846158,-0.220947828257879,0.9395706894310074,180687.748583625,1.881463268538725,-0.8856817229955559,1.207878857000351,-0.2868281006813049,-0.2001424431800842,0.641628086566925,0.0893637090921402,0.03070554696023464,0.06757359206676483,XTrueNorthZVertical,0.5873062532187524,0.2067733289699635,0.4575286250016497,0.6348099095081461,-0.2748953402042389,-0.9348651170730591,-0.2246323078870773,1.494655609130859,-40.08707809448242,9.94105339050293,2,0.0.0.0,10.83.46.32,1,0
2015-03-01 11:13:57.412,114,1425237236.643363,37.74683805102602,-122.4444176223743,174.6472,-1,-1,10,65,-9999,1425237237.400403,-1.082115173339844,-39.9476318359375,8.629829406738281,211.0610961914062,197.2894744873047,10,180687.8531283333,-0.0734405517578125,-0.7200469970703125,-0.314178466796875,180687.8521325,-1.07723561144771,0.3504253941353513,1.28479599522187,180687.8003574167,1.913806490262042,-0.9230738090814925,1.166779094369871,-0.3959006667137146,-0.2055482715368271,0.9722267389297485,0.1733874082565308,0.01034001260995865,0.1288571655750275,XTrueNorthZVertical,0.5879269577953654,0.1890624409332797,0.4695197446766738,0.6309900186479963,-0.3134936094284058,-0.9194892048835754,-0.2371945679187775,0.4377241134643555,-40.22736358642578,9.46570873260498,2,0.0.0.0,10.83.46.32,1,0
2015-03-01 11:13:57.457,115,1425237236.643363,37.74683805102602,-122.4444176223743,174.6472,-1,-1,10,65,-9999,1425237237.452996,-3.605789184570312,-40.15156555175781,7.298492431640625,207.6439666748047,193.8723449707031,10,180687.9021919167,-0.309661865234375,-0.8166656494140625,-0.0854034423828125,180687.903907875,-1.092380209618664,-0.3482184325400027,1.647405351344334,180687.8521325,1.927420311034181,-0.9341329501538914,1.09599947476769,-1.091875791549683,0.3658247888088226,1.31745171546936,0.1915066689252853,0.1814998686313629,-0.02766628563404083,XTrueNorthZVertical,0.5810343533750836,0.162804652693467,0.4921369900309497,0.6274510473745709,-0.3675931096076965,-0.8893855810165405,-0.2717874646186829,-1.913535118103027,-40.42850494384766,8.361029624938965,2,0.0.0.0,10.83.46.32,1,0
2015-03-01 11:13:57.512,116,1425237236.643363,37.74683805102602,-122.4444176223743,174.6472,-1,-1,10,65,-9999,1425237237.452996,-3.605789184570312,-40.15156555175781,7.298492431640625,207.6439666748047,193.8723449707031,10,180687.951234375,-0.49871826171875,-0.6681671142578125,-0.163421630859375,180687.903907875,-1.092380209618664,-0.3482184325400027,1.647405351344334,180687.903907875,1.920284872061762,-0.9395619585241245,1.001716449388967,-1.107020258903503,-0.3328191936016083,1.680060744285583,0.1253572553396225,0.02573149651288986,0.2325985878705978,XTrueNorthZVertical,0.570831145754054,0.1230885501409467,0.5161480226252539,0.6265717350393047,-0.4350191354751587,-0.842397153377533,-0.3180020153522491,-4.419439315795898,-40.60449981689453,6.306771278381348,2,0.0.0.0,10.83.46.32,1,0
2015-03-01 11:13:57.555,117,1425237236.643363,37.74683805102602,-122.4444176223743,174.6472,-1,-1,10,65,-9999,1425237237.52825,-8.891853332519531,-39.70974731445312,4.236434936523438,201.5964202880859,187.8247985839844,10,180688.000324375,-0.434722900390625,-0.7083740234375,-0.37774658203125,180688.00745675,-1.288239196195234,0.04098764707297353,2.600597843434988,180687.9556814167,1.93127244679783,-0.948821667197321,0.8831968082831119,-1.396728157997131,0.09139850735664368,2.146922826766968,0.01710808090865612,0.1046046763658524,0.2063713371753693,XTrueNorthZVertical,0.5559344287299177,0.07772020304398303,0.5503359720949732,0.6180830909826236,-0.5158263444900513,-0.7727717757225037,-0.3697929680347443,-7.41059684753418,-40.42906951904297,4.313426971435547,2,0.0.0.0,10.83.46.32,1,0
2015-03-01 11:13:57.612,118,1425237236.643363,37.74683805102602,-122.4444176223743,174.6472,-1,-1,10,65,-9999,1425237237.579545,-13.35942840576172,-38.28230285644531,1.6070556640625,196.3325347900391,182.5609130859375,10,180688.0493846667,-0.484222412109375,-0.5658111572265625,-0.316619873046875,180688.00745675,-1.288239196195234,0.04098764707297353,2.600597843434988,180688.00745675,1.958935826222318,-0.9585508171130884,0.7466234289273129,-1.302878975868225,0.05638659372925758,2.633252620697021,0.1659417450428009,-0.02920974418520927,0.04408010095357895,XTrueNorthZVertical,0.5368688680734328,0.02929976925695894,0.5921710655196383,0.6002055312350828,-0.6006646752357483,-0.6791642904281616,-0.4218266904354095,-12.73710155487061,-39.3036994934082,1.008841514587402,2,0.0.0.0,10.83.46.32,1,0
2015-03-01 11:13:57.653,119,1425237236.643363,37.74683805102602,-122.4444176223743,174.6472,-1,-1,10,65,-9999,1425237237.637544,-18.15099334716797,-36.15814208984375,-1.072250366210938,191.1417083740234,177.3700866699219,10,180688.09846425,-0.8653717041015625,-0.712646484375,-0.3482513427734375,180688.059231875,-1.364024505019509,-0.2103859976907337,2.676802333814842,180688.059231875,1.981047857959399,-0.9825868644853805,0.5981550977181824,-1.378664135932922,-0.1949872225522995,2.7094566822052,0.1661291420459747,0.04036799445748329,-0.002648565452545881,XTrueNorthZVertical,0.5194607645265075,-0.0298994406158824,0.6284555439014348,0.5781955339301379,-0.6874914169311523,-0.5631188750267029,-0.4585330784320831,-17.26585388183594,-37.52833557128906,-1.243658065795898,2,0.0.0.0,10.83.46.32,1,0
2015-03-01 11:13:57.711,120,1425237236.643363,37.74683805102602,-122.4444176223743,174.6472,-1,-1,10,65,-9999,1425237237.637544,-18.15099334716797,-36.15814208984375,-1.072250366210938,191.1417083740234,177.3700866699219,10,180688.1474935,-0.848968505859375,-0.3426361083984375,-0.3375244140625,180688.1110057083,-1.019162188085225,-0.5906300076033753,2.469274440605981,180688.1110057083,2.003871128380629,-1.017252813316364,0.4587550166064159,-1.033801674842834,-0.5752313733100891,2.501928567886353,-0.1785723268985748,-0.2141502350568771,0.1701408326625824,XTrueNorthZVertical,0.5065148688750484,-0.0881363796150741,0.6569466103916995,0.5514487517807147,-0.7627118229866028,-0.4428322017192841,-0.4713493287563324,-21.65299415588379,-35.05854034423828,-3.174712181091309,2,0.0.0.0,10.83.46.32,1,0
2015-03-01 11:13:57.754,121,1425237236.643363,37.74683805102602,-122.4444176223743,174.6472,-1,-1,10,65,-9999,1425237237.709746,-25.90956878662109,-31.17913818359375,-3.851402282714844,182.3143463134766,168.542724609375,10,180688.1965479167,-0.9605865478515625,-0.394287109375,-0.3773651123046875,180688.16278075,-1.123345316245233,0.01380529445875276,2.855415754436494,180688.16278075,2.026820444106193,-1.035866702861549,0.3114885114545888,-1.13798463344574,0.02920377627015114,2.888069629669189,0.03204002976417542,0.06714174896478653,0.04022645205259323,XTrueNorthZVertical,0.486354295658855,-0.1443432791604989,0.6877896019690556,0.5192012026444408,-0.818905234336853,-0.3064758479595184,-0.4852490425109863,-26.89058303833008,-31.01689529418945,-4.783426284790039,2,0.0.0.0,10.83.46.32,1,0
2015-03-01 11:13:57.810,122,1425237236.643363,37.74683805102602,-122.4444176223743,174.6472,-1,-1,10,65,-9999,1425237237.761779,-30.85460662841797,-26.96479797363281,-4.683486938476562,174.7479248046875,160.9763031005859,10,180688.2455881667,-0.9683074951171875,0.0294342041015625,-0.459136962890625,180688.2145559583,-0.8063455232675756,-0.632329783951836,2.617953930575143,180688.2145559583,2.058356261692351,-1.071588673901084,0.1713804108453782,-0.8209847211837769,-0.6169314384460449,2.650607585906982,-0.1385924071073532,-0.2283678203821182,0.0763615295290947,XTrueNorthZVertical,0.4737889138304747,-0.1991624629732537,0.7115675065208992,0.4790928622785024,-0.8651002049446106,-0.1705427020788193,-0.4717167615890503,-30.66298675537109,-27.0775146484375,-5.88401985168457,2,0.0.0.0,10.83.46.32,1,0
2015-03-01 11:13:57.853,123,1425237236.643363,37.74683805102602,-122.4444176223743,174.6472,-1,-1,10,65,-9999,1425237237.813704,-34.91294097900391,-21.76487731933594,-5.349151611328125,168.2866516113281,154.5150299072266,10,180688.29467425,-1.045196533203125,-0.029876708984375,-0.430328369140625,180688.2663296667,-0.9354387949997495,-0.03992850790744901,2.309660011200954,180688.2663296667,2.077558161980397,-1.086570011201528,0.03320736000473862,-0.9500778317451477,-0.02453034743666649,2.342313051223755,-0.1139419749379158,0.1727734059095383,-0.007907960563898087,XTrueNorthZVertical,0.452648861586411,-0.2499509230323999,0.7332458567017536,0.4415698884189228,-0.8845474123954773,-0.03320125862956047,-0.4652670919895172,-33.84537887573242,-22.96686935424805,-5.919920921325684,2,0.0.0.0,10.83.46.32,3,0
2015-03-01 11:13:57.916,124,1425237236.643363,37.74683805102602,-122.4444176223743,174.6472,-1,-1,10,65,-9999,1425237237.871257,-37.9652099609375,-16.44599914550781,-5.632064819335938,161.8748779296875,148.1032562255859,10,180688.3437180833,-1.048751831054688,0.337615966796875,-0.54351806640625,180688.3181050833,-0.6948248536721804,-0.04044675905557843,2.131875898942753,180688.3181050833,2.093043155635411,-1.094281797583135,-0.08038848394319512,-0.7094637751579285,-0.025048753246665,2.164528846740723,-0.1297430545091629,-0.00351970293559134,-0.01624623127281666,XTrueNorthZVertical,0.4328292824845196,-0.2899259807469993,0.7491780010113585,0.4090647494728217,-0.8857293725013733,0.08030193299055099,-0.4572034776210785,-36.77492904663086,-17.63205146789551,-6.689374923706055,2,0.0.0.0,10.83.46.32,3,0
2015-03-01 11:13:57.948,125,1425237236.643363,37.74683805102602,-122.4444176223743,174.6472,-1,-1,10,65,-9999,1425237237.944283,-40.55710601806641,-10.32846069335938,-6.430862426757812,155.4591827392578,141.6875610351562,10,180688.392777,-1.131027221679688,0.47113037109375,-0.7255859375,180688.3698802083,-0.5066043457341762,0.0161291688259559,1.193131322081888,180688.3698802083,2.105979861780335,-1.096257678060943,-0.1700510171294641,-0.5212430953979492,0.03152703493833542,1.225783824920654,-0.1531574428081512,0.2285487353801727,-0.1209058538079262,XTrueNorthZVertical,0.4152673153776453,-0.3199755338096291,0.7608379613339458,0.3824842737738409,-0.8766735196113586,0.1692326366901398,-0.4503374397754669,-38.26820373535156,-13.9492244720459,-6.999707221984863,2,0.0.0.0,10.83.46.32,3,0
2015-03-01 11:13:58.014,126,1425237236.643363,37.74683805102602,-122.4444176223743,174.6472,-1,-1,10,65,-9999,1425237237.995115,-41.17095947265625,-8.153350830078125,-6.563995361328125,153.0052032470703,139.2335815429688,10,180688.4418,-1.219573974609375,0.5132598876953125,-0.5409088134765625,180688.4216538334,0.1327165023952268,-0.02990197271940969,-0.1768490763994749,180688.3698802083,2.105979861780335,-1.096257678060943,-0.1700510171294641,-0.5212430953979492,0.03152703493833542,1.225783824920654,-0.1531574428081512,0.2285487353801727,-0.1209058538079262,XTrueNorthZVertical,0.4152673153776453,-0.3199755338096291,0.7608379613339458,0.3824842737738409,-0.8766735196113586,0.1692326366901398,-0.4503374397754669,-38.26820373535156,-13.9492244720459,-6.999707221984863,2,0.0.0.0,10.83.46.32,3,0
2015-03-01 11:13:58.046,127,1425237236.643363,37.74683805102602,-122.4444176223743,174.6472,-1,-1,10,65,-9999,1425237237.995115,-41.17095947265625,-8.153350830078125,-6.563995361328125,153.0052032470703,139.2335815429688,10,180688.490957375,-1.266921997070312,0.2655181884765625,-0.55621337890625,180688.473429125,0.8278811754225013,0.2679153372425164,-1.167852330698747,180688.473429125,2.114493083934875,-1.093702725111275,-0.1519498749076983,0.8132630586624146,0.2832683622837067,-1.135085463523865,-0.3342893719673157,0.2840132117271423,-0.005274474155157804,XTrueNorthZVertical,0.4197663889248407,-0.3111945471307371,0.7612276376710452,0.3840397437240927,-0.8780977129936218,0.1513658314943314,-0.4539082646369934,-38.87728881835938,-12.14730072021484,-7.002270698547363,2,0.0.0.0,10.83.46.32,3,0
2015-03-01 11:13:58.115,128,1425237236.643363,37.74683805102602,-122.4444176223743,174.6472,-1,-1,10,65,-9999,1425237238.10047,-40.28426361083984,-10.97421264648438,-6.231163024902344,152.3745422363281,138.6029205322266,10,180688.539892,-1.12237548828125,0.0423736572265625,-0.475067138671875,180688.5252045,1.2622952134879,0.8493931254437254,-1.942924619601631,180688.5252045,2.127704350368367,-1.059988933070326,-0.05973484838647265,1.247677326202393,0.8647459745407104,-1.910158157348633,-0.2380773425102234,0.1728141009807587,-0.0618101991713047,XTrueNorthZVertical,0.4292426392190436,-0.267854221051946,0.761289256826424,0.4055162745567777,-0.8707941174507141,0.05969933047890663,-0.4880097508430481,-38.0609016418457,-14.44448661804199,-7.124366760253906,2,0.0.0.0,10.83.46.32,3,0
2015-03-01 11:13:58.145,129,1425237236.643363,37.74683805102602,-122.4444176223743,174.6472,-1,-1,10,65,-9999,1425237238.10047,-40.28426361083984,-10.97421264648438,-6.231163024902344,152.3745422363281,138.6029205322266,10,180688.5889701667,-0.878265380859375,-0.086151123046875,-0.5973358154296875,180688.5769781667,1.438692617766497,1.296907252911224,-2.219975398331446,180688.5769781667,2.131570275045863,-1.003179342878164,0.06554889166718054,1.424074769020081,1.312259912490845,-2.187209367752075,-0.1995198428630829,-0.06489965319633484,0.05864067375659943,XTrueNorthZVertical,0.434473919722167,-0.2073585954634147,0.7593300863554121,0.4377814003278239,-0.8413736820220947,-0.06550195813179016,-0.5364696383476257,-36.40290451049805,-17.97858238220215,-7.722131729125977,2,0.0.0.0,10.83.46.32,3,0
2015-03-01 11:13:58.212,130,1425237236.643363,37.74683805102602,-122.4444176223743,174.6472,-1,-1,10,65,-9999,1425237238.153027,-38.30625152587891,-15.25650024414062,-6.3975830078125,155.8082733154297,142.0366516113281,10,180688.6380042083,-0.8308258056640625,-0.350677490234375,-0.619415283203125,180688.62875325,1.602295929852245,0.4355975468538295,-2.406470976831406,180688.5769781667,2.131570275045863,-1.003179342878164,0.06554889166718054,1.424074769020081,1.312259912490845,-2.187209367752075,-0.1995198428630829,-0.06489965319633484,0.05864067375659943,XTrueNorthZVertical,0.434473919722167,-0.2073585954634147,0.7593300863554121,0.4377814003278239,-0.8413736820220947,-0.06550195813179016,-0.5364696383476257,-36.40290451049805,-17.97858238220215,-7.722131729125977,2,0.0.0.0,10.83.46.32,3,0
2015-03-01 11:13:58.243,131,1425237236.643363,37.74683805102602,-122.4444176223743,174.6472,-1,-1,10,65,-9999,1425237238.229175,-33.49764251708984,-22.29168701171875,-6.4974365234375,162.8540344238281,149.0824127197266,10,180688.6872041667,-0.78729248046875,-0.3862152099609375,-0.4827728271484375,180688.6805285417,1.580235102330355,0.4033301544542114,-2.657598012878172,180688.6805285417,2.122379296168948,-0.9416993513107803,0.351888699996181,1.565617561340332,0.4186825752258301,-2.624832391738892,-0.07550503313541412,-0.06043420359492302,0.07593359798192978,XTrueNorthZVertical,0.4659861596202792,-0.08171606933943727,0.7271996524430625,0.4973529502170038,-0.7590134143829346,-0.3446713984012604,-0.5523587465286255,-30.22479820251465,-27.27718734741211,-7.102740287780762,2,0.0.0.0,10.83.46.32,3,0
2015-03-01 11:13:58.283,132,1425237236.643363,37.74683805102602,-122.4444176223743,174.6472,-1,-1,10,65,-9999,1425237238.229175,-33.49764251708984,-22.29168701171875,-6.4974365234375,162.8540344238281,149.0824127197266,10,180688.73612325,-0.70880126953125,-0.4090576171875,-0.360321044921875,180688.6805285417,1.580235102330355,0.4033301544542114,-2.657598012878172,180688.6805285417,2.122379296168948,-0.9416993513107803,0.351888699996181,1.565617561340332,0.4186825752258301,-2.624832391738892,-0.07550503313541412,-0.06043420359492302,0.07593359798192978,XTrueNorthZVertical,0.4659861596202792,-0.08171606933943727,0.7271996524430625,0.4973529502170038,-0.7590134143829346,-0.3446713984012604,-0.5523587465286255,-30.22479820251465,-27.27718734741211,-7.102740287780762,2,0.0.0.0,10.83.46.32,3,0
2015-03-01 11:13:58.340,133,1425237236.643363,37.74683805102602,-122.4444176223743,174.6472,-1,-1,10,65,-9999,1425237238.336923,-25.21045684814453,-31.8758544921875,-3.368812561035156,176.2965240478516,162.52490234375,10,180688.785189625,-0.632965087890625,-0.619903564453125,-0.32623291015625,180688.784077625,2.139368702669691,0.3511891887359861,-2.652392331895394,180688.7323022083,2.111953915762049,-0.9243130405985638,0.5037112137872413,1.781916379928589,-0.00176332809496671,-2.591366052627563,0.02559042163193226,0.1049783229827881,0.07068675756454468,XTrueNorthZVertical,0.4856708669012443,-0.01846886834488168,0.6997841429326728,0.5235310609641517,-0.6990675926208496,-0.4826791286468506,-0.5275654196739197,-26.74028968811035,-31.03337860107422,-5.469786643981934,2,0.0.0.0,10.83.46.32,3,0
2015-03-01 11:13:58.414,134,1425237236.643363,37.74683805102602,-122.4444176223743,174.6472,-1,-1,10,65,-9999,1425237238.386991,-20.16310882568359,-35.34248352050781,-0.5064468383789062,182.5425567626953,168.7709350585938,10,180688.834224625,-0.4614105224609375,-0.7998046875,-0.2085113525390625,180688.8358526667,2.697660477788452,0.6213354560236619,-2.799660080170705,180688.784077625,2.108779139696935,-0.9182380820769326,0.669829782994996,2.124752759933472,0.3665406703948975,-2.619626998901367,-0.06113438680768013,0.03183278441429138,0.2054177522659302,XTrueNorthZVertical,0.509444815886601,0.04957238346810986,0.6643116762493052,0.5447003430430429,-0.622856080532074,-0.620852530002594,-0.4760171175003052,-21.50436782836914,-35.23521423339844,-2.018439292907715,2,0.0.0.0,10.83.46.32,3,0
2015-03-01 11:13:58.441,135,1425237236.643363,37.74683805102602,-122.4444176223743,174.6472,-1,-1,10,65,-9999,1425237238.386991,-20.16310882568359,-35.34248352050781,-0.5064468383789062,182.5425567626953,168.7709350585938,10,180688.8832895833,-0.0184478759765625,-0.89678955078125,-0.0374908447265625,180688.8358526667,2.697660477788452,0.6213354560236619,-2.799660080170705,180688.8358526667,2.131192010406286,-0.9075345763489094,0.8486906488834364,2.683045864105225,0.6366865038871765,-2.766895294189453,0.05942303314805031,-0.0493890754878521,0.1984391510486603,XTrueNorthZVertical,0.5286747720924645,0.1304903667505635,0.6294138500254459,0.5543585152978548,-0.5208335518836975,-0.7504156231880188,-0.4069505035877228,-17.23442649841309,-37.54069137573242,1.305126190185547,2,0.0.0.0,10.83.46.32,3,0
2015-03-01 11:13:58.480,136,1425237236.643363,37.74683805102602,-122.4444176223743,174.6472,-1,-1,10,65,-9999,1425237238.462117,-11.60308837890625,-38.09536743164062,5.817375183105469,190.1724853515625,176.4008636474609,10,180688.93233,0.20880126953125,-0.5397491455078125,-0.0480804443359375,180688.887626375,2.474594371199524,0.7206724299480535,-3.064757526663808,180688.887626375,2.155374581270871,-0.8884678086176535,1.043017821353555,2.459979772567749,0.7360233068466187,-3.03199315071106,0.3724111616611481,-0.03286157175898552,0.2800898849964142,XTrueNorthZVertical,0.5411797620475842,0.2198501667367673,0.5882889586193001,0.5592015549436249,-0.3908590376377106,-0.863927960395813,-0.3175807297229767,-12.59835529327393,-38.98246002197266,5.448084831237793,2,0.0.0.0,10.83.46.32,3,0
2015-03-01 11:13:58.540,137,1425237236.643363,37.74683805102602,-122.4444176223743,174.6472,-1,-1,10,65,-9999,1425237238.513829,-5.856620788574219,-38.45225524902344,10.36054229736328,195.7574615478516,181.98583984375,10,180688.9814007083,-0.268646240234375,-0.86029052734375,-0.758453369140625,180688.9911770833,0.7468281339620487,-1.560714397856184,-1.433462435701691,180688.9394016667,2.168148310194005,-0.8746054301526847,1.242034465032899,2.568349123001099,0.1110325455665588,-2.798678874969482,0.4565373063087463,0.406693696975708,0.1589767634868622,XTrueNorthZVertical,0.5509720501768828,0.3047969767360935,0.5359384622093849,0.5624041928807718,-0.2477360367774963,-0.9464428424835205,-0.2070572078227997,-5.879117012023926,-39.35993576049805,11.14736652374268,2,0.0.0.0,10.83.46.32,3,0
2015-03-01 11:13:58.583,138,1425237236.643363,37.74683805102602,-122.4444176223743,174.6472,-1,-1,10,65,-9999,1425237238.571768,-0.8092880249023438,-37.60256958007812,13.58902740478516,204.1647338867188,190.3931121826172,10,180689.030425875,-0.41851806640625,-0.5575103759765625,-0.3143157958984375,180688.9911770833,0.7468281339620487,-1.560714397856184,-1.433462435701691,180688.9911770833,2.142508436148446,-0.9122391650369873,1.377521433378325,0.7322139143943787,-1.545363783836365,-1.40069854259491,-0.1167399808764458,0.1210899502038956,-0.64090895652771,XTrueNorthZVertical,0.5718350438478822,0.3379829663735492,0.474307382714783,0.5777582646054417,-0.1519062668085098,-0.9813804626464844,-0.1175443977117538,-0.9837055206298828,-38.39610290527344,15.25790786743164,2,0.0.0.0,10.83.46.32,3,0
2015-03-01 11:13:58.640,139,1425237236.643363,37.74683805102602,-122.4444176223743,174.6472,-1,-1,10,65,-9999,1425237238.571768,-0.8092880249023438,-37.60256958007812,13.58902740478516,204.1647338867188,190.3931121826172,10,180689.0795002083,-0.0851593017578125,-1.063629150390625,-0.221527099609375,180689.042950625,-1.015133091672044,-0.1994204319023324,0.918146890041865,180689.042950625,2.135375096384979,-0.9472070661292449,1.354861279754438,-1.029748916625977,-0.1840701848268509,0.9509122967720032,-0.1464852839708328,0.5177921056747437,-0.1100047081708908,XTrueNorthZVertical,0.5802924624208793,0.3173352677721424,0.4696613005345039,0.5847881301929321,-0.1739340275526047,-0.9767764806747437,-0.1251179724931717,2.181488037109375,-37.82303237915039,16.51338195800781,2,0.0.0.0,10.83.46.32,3,0
2015-03-01 11:13:58.683,140,1425237236.643363,37.74683805102602,-122.4444176223743,174.6472,-1,-1,10,65,-9999,1425237238.642625,1.015251159667969,-37.38166809082031,13.80536651611328,207.8315734863281,194.0599517822266,10,180689.1285424583,0.2212066650390625,-0.535980224609375,-0.1658172607421875,180689.094725875,-1.921651022497969,0.8731293476073836,1.412561947466749,180689.094725875,2.04106889951849,-0.8271667105088649,1.264751240428771,-1.936266660690308,0.888479471206665,1.445326924324036,0.2005443572998047,-0.1290479600429535,0.06493934988975525,XTrueNorthZVertical,0.5593386010413799,0.291820565522018,0.5053730122872347,0.5887097025903514,-0.2217540740966797,-0.9535325765609741,-0.2039621770381927,0.2061553001403809,-38.80878448486328,14.20802402496338,2,0.0.0.0,10.83.46.32,3,0
2015-03-01 11:13:58.735,141,1425237236.643363,37.74683805102602,-122.4444176223743,174.6472,-1,-1,10,65,-9999,1425237238.694463,-1.883560180664062,-38.36729431152344,10.97628784179688,203.6468048095703,189.8751831054688,10,180689.177726125,0.25714111328125,-0.94012451171875,-0.337738037109375,180689.1465011667,-1.968775657986921,-0.144589140850909,2.519655855791991,180689.1465011667,2.022487550413526,-0.7949394831833668,1.117924435348669,-1.983391046524048,-0.1292391866445541,2.552420616149902,0.567596435546875,0.4097380340099335,0.282792329788208,XTrueNorthZVertical,0.5376717826556225,0.2401977335173696,0.5535355011137999,0.5889078540014134,-0.3123321831226349,-0.8991942405700684,-0.3064281940460205,-2.974667072296143,-39.84980010986328,10.54404640197754,2,0.0.0.0,10.83.46.32,3,0
2015-03-01 11:13:58.807,142,1425237236.643363,37.74683805102602,-122.4444176223743,174.6472,-1,-1,10,65,-9999,1425237238.747781,-6.504600524902344,-38.69013977050781,7.7977294921875,198.0338134765625,184.2621917724609,10,180689.2266680417,-0.231842041015625,-0.8444976806640625,-0.1237945556640625,180689.1982750417,-1.844039051482008,-1.454966928871862,2.556181642774646,180689.1982750417,2.054954449002462,-0.8534853728099407,0.9555500792678321,-1.858654379844666,-1.439617156982422,2.588946104049683,0.7147493362426758,-0.1983527839183807,-0.05194874107837677,XTrueNorthZVertical,0.5310207847083239,0.1682734163162691,0.5935825332729723,0.5808275719273838,-0.4349336326122284,-0.8166313767433167,-0.3794019818305969,-7.372927188873291,-40.07600402832031,6.898260116577148,2,0.0.0.0,10.83.46.32,3,0
2015-03-01 11:13:58.830,143,1425237236.643363,37.74683805102602,-122.4444176223743,174.6472,-1,-1,10,65,-9999,1425237238.802855,-11.34731292724609,-38.21434020996094,4.269699096679688,193.5731506347656,179.8015289306641,10,180689.2757407917,-0.9007720947265625,-0.591796875,-0.2839813232421875,180689.250050125,-2.55698591742385,-1.531269157263722,2.791797363368354,180689.250050125,2.064731154128539,-0.9503268377347351,0.7761966984366685,-2.571600675582886,-1.515919923782349,2.824561834335327,-0.1756046265363693,-0.04543167725205421,0.1190063133835793,XTrueNorthZVertical,0.5361038702657672,0.0717488359404988,0.6178554626894881,0.5707006926584366,-0.580575168132782,-0.7005705237388611,-0.4148894846439362,-13.46962928771973,-38.94045257568359,3.200366973876953,2,0.0.0.0,10.83.46.32,3,0
2015-03-01 11:13:58.880,144,1425237236.643363,37.74683805102602,-122.4444176223743,174.6472,-1,-1,10,65,-9999,1425237238.876656,-18.50907897949219,-35.76728820800781,-0.6562347412109375,188.8343963623047,175.0627746582031,10,180689.32478725,-0.3625640869140625,-0.578704833984375,-0.4022979736328125,180689.3018255,-2.136196877811406,0.4987866363542486,2.305554482064488,180689.3018255,2.029608750320953,-0.9459716867005712,0.6090323133389206,-2.150809526443481,0.5141342282295227,2.338320970535278,-0.01203894894570112,-0.003670599311590195,0.1862326860427856,XTrueNorthZVertical,0.5100022530645848,-0.002658814597589435,0.6492493351845281,0.5642391708178754,-0.6652376651763916,-0.5720740556716919,-0.4797812700271606,-17.98425483703613,-37.20964813232422,-0.2026052474975586,2,0.0.0.0,10.83.46.32,3,0
2015-03-01 11:13:58.929,145,1425237236.643363,37.74683805102602,-122.4444176223743,174.6472,-1,-1,10,65,-9999,1425237238.876656,-18.50907897949219,-35.76728820800781,-0.6562347412109375,188.8343963623047,175.0627746582031,10,180689.3739772083,-1.095428466796875,-0.60015869140625,-0.367156982421875,180689.3535990417,-1.757030382875811,-1.037832811539443,2.412165347874213,180689.3535990417,2.012085036175144,-0.9411324006913155,0.4558812940077482,-1.771643042564392,-1.0224848985672,2.444930791854858,0.3253544867038727,-0.1272358447313309,-0.0461108461022377,XTrueNorthZVertical,0.4808791780368007,-0.06624544036560863,0.6786002686611257,0.5512425434264648,-0.7256841063499451,-0.4402537643909454,-0.528733491897583,-21.68645095825195,-34.95211791992188,-4.009969711303711,2,0.0.0.0,10.83.46.32,3,0
2015-03-01 11:13:59.010,146,1425237236.643363,37.74683805102602,-122.4444176223743,174.6472,-1,-1,10,65,-9999,1425237238.979866,-28.09220886230469,-29.20791625976562,-5.914993286132812,179.9996948242188,166.2280731201172,10,180689.4229234167,-0.9906768798828125,-0.2646484375,-0.524810791015625,180689.4053744167,-1.293581497341932,-0.2813579091608004,2.682137444426598,180689.4053744167,2.027415378473916,-0.9985612904519531,0.3053833801426015,-1.308194041252136,-0.266010195016861,2.714902400970459,-0.260475754737854,0.117629662156105,0.3130120933055878,XTrueNorthZVertical,0.4722717757306661,-0.1368598060796937,0.6980094324702197,0.5205876526190822,-0.8017953634262085,-0.3006588518619537,-0.5164574980735779,-26.85280609130859,-30.79601097106934,-6.21005916595459,2,0.0.0.0,10.83.46.32,3,0
2015-03-01 11:13:59.026,147,1425237236.643363,37.74683805102602,-122.4444176223743,174.6472,-1,-1,10,65,-9999,1425237238.979866,-28.09220886230469,-29.20791625976562,-5.914993286132812,179.9996948242188,166.2280731201172,10,180689.471997125,-0.9486541748046875,-0.2149810791015625,-0.5069732666015625,180689.4571495834,-0.8328493024360442,-0.7126640382340762,2.655502637732497,180689.4571495834,2.056066943774098,-1.020277374023076,0.1615006522461262,-0.8474425077438354,-0.6973593235015869,2.688377618789673,-0.1142204776406288,-0.317807674407959,-0.08946707099676132,XTrueNorthZVertical,0.4531179357126114,-0.1911101193165406,0.7244812342964657,0.4829988699070025,-0.8411628007888794,-0.1607995182275772,-0.516322135925293,-30.51669311523438,-26.86546897888184,-7.416894912719727,2,0.0.0.0,10.83.46.32,3,0
2015-03-01 11:13:59.079,148,1425237236.643363,37.74683805102602,-122.4444176223743,174.6472,-1,-1,10,65,-9999,1425237239.036549,-32.47452545166016,-24.466796875,-7.262962341308594,173.7170104980469,159.9453887939453,10,180689.521141,-1.142562866210938,-0.007965087890625,-0.6471099853515625,180689.508923375,-1.026290405058931,-0.260876336165328,2.151490879319513,180689.4571495834,2.056066943774098,-1.020277374023076,0.1615006522461262,-0.8474425077438354,-0.6973593235015869,2.688377618789673,-0.1142204776406288,-0.317807674407959,-0.08946707099676132,XTrueNorthZVertical,0.4531179357126114,-0.1911101193165406,0.7244812342964657,0.4829988699070025,-0.8411628007888794,-0.1607995182275772,-0.516322135925293,-30.51669311523438,-26.86546897888184,-7.416894912719727,2,0.0.0.0,10.83.46.32,3,0
