loggingTime,loggingSample,locationTimestamp_since1970,locationLatitude,locationLongitude,locationAltitude,locationSpeed,locationCourse,locationVerticalAccuracy,locationHorizontalAccuracy,locationFloor,locationHeadingTimestamp_since1970,locationHeadingX,locationHeadingY,locationHeadingZ,locationTrueHeading,locationMagneticHeading,locationHeadingAccuracy,accelerometerTimestamp_sinceReboot,accelerometerAccelerationX,accelerometerAccelerationY,accelerometerAccelerationZ,gyroTimestamp_sinceReboot,gyroRotationX,gyroRotationY,gyroRotationZ,motionTimestamp_sinceReboot,motionYaw,motionRoll,motionPitch,motionRotationRateX,motionRotationRateY,motionRotationRateZ,motionUserAccelerationX,motionUserAccelerationY,motionUserAccelerationZ,motionAttitudeReferenceFrame,motionQuaternionX,motionQuaternionY,motionQuaternionZ,motionQuaternionW,motionGravityX,motionGravityY,motionGravityZ,motionMagneticFieldX,motionMagneticFieldY,motionMagneticFieldZ,motionMagneticFieldCalibrationAccuracy,IP_en0,IP_pdp_ip0,deviceOrientation,state
2015-03-01 20:03:47.251,1,1425269023.493973,37.76574651847054,-122.4602872590715,81.95122,-1,-1,10,65,-9999,1425269027.21536,38.28395843505859,-20.3155517578125,-4.70709228515625,264.615966796875,250.8388977050781,10,196148.5046047917,0.70220947265625,-0.465087890625,-0.64019775390625,196148.4742849167,-0.04927354017253706,0.2203550085992273,-0.03850158619538455,196148.4742849167,0.4380278324474127,0.8671722897141192,0.5063407623373432,-0.06956040114164352,0.2408711612224579,-0.007010891567915678,-0.06138928607106209,0.007273497059941292,0.03699621185660362,XTrueNorthZVertical,0.1334969548044132,0.44640358434448,0.2935950244777875,0.8346881914685766,0.6668274998664856,-0.4849804043769836,-0.5658047795295715,37.93772888183594,-20.65002250671387,-6.802945137023926,2,0.0.0.0,10.83.46.32,1,0
2015-03-01 20:03:47.317,2,1425269023.493973,37.76574651847054,-122.4602872590715,81.95122,-1,-1,10,65,-9999,1425269027.274389,38.38627243041992,-20.24755859375,-5.073219299316406,265.1105041503906,251.3334503173828,10,196148.5536734583,0.65765380859375,-0.520111083984375,-0.54595947265625,196148.5260559584,0.003265035496437146,-0.1362742192954636,-0.04427105838093222,196148.5260559584,0.4397138788261265,0.8737332168659329,0.5023679120329876,-0.01702160388231277,-0.1157582849264145,-0.01278071012347937,-0.005905430763959885,0.0206257663667202,-0.04303223639726639,XTrueNorthZVertical,0.1304077121085117,0.4490754514682647,0.2940373488096882,0.8335868985588809,0.6719973683357239,-0.4815022349357605,-0.5626501441001892,38.03496170043945,-20.58021545410156,-6.463057518005371,2,0.0.0.0,10.83.46.32,1,0
2015-03-01 20:03:47.330,3,1425269023.493973,37.76574651847054,-122.4602872590715,81.95122,-1,-1,10,65,-9999,1425269027.274389,38.38627243041992,-20.24755859375,-5.073219299316406,265.1105041503906,251.3334503173828,10,196148.6028235,0.6229248046875,-0.4658966064453125,-0.5317535400390625,196148.577827,-0.009081379317170202,-0.1179876236704345,0.03357473817873796,196148.577827,0.4405561601245179,0.8645931045188301,0.5027242939642049,-0.02936781570315361,-0.09747189283370972,0.06506477296352386,-0.02660512365400791,-0.007717921398580074,0.0245441235601902,XTrueNorthZVertical,0.1317195699630307,0.4453328116704431,0.2938519743473256,0.8354517767911424,0.6666960716247559,-0.4818145632743835,-0.5686572790145874,38.00454711914062,-20.5475902557373,-6.739867210388184,2,0.0.0.0,10.83.46.32,1,0
2015-03-01 20:03:47.412,4,1425269023.493973,37.76574651847054,-122.4602872590715,81.95122,-1,-1,10,65,-9999,1425269027.397172,38.13050079345703,-20.50247192382812,-5.322837829589844,264.3030395507812,250.5259704589844,10,196148.6517615833,0.6655426025390625,-0.4685516357421875,-0.5634307861328125,196148.629595125,-0.04278075343492387,0.1685298937862854,0.01783971719411379,196148.629595125,0.4446470486446759,0.866298577427144,0.5030103406666371,-0.0630670040845871,0.1890454441308975,0.04932946711778641,-0.03485419973731041,0.007898314855992794,0.02247774973511696,XTrueNorthZVertical,0.1306822408464124,0.4463262048989642,0.2957212574366817,0.8344243651049279,0.6675598621368408,-0.4820651710033417,-0.5674301385879517,37.93514251708984,-20.63562202453613,-6.860818862915039,2,0.0.0.0,10.83.46.32,1,0
2015-03-01 20:03:47.426,5,1425269023.493973,37.76574651847054,-122.4602872590715,81.95122,-1,-1,10,65,-9999,1425269027.397172,38.13050079345703,-20.50247192382812,-5.322837829589844,264.3030395507812,250.5259704589844,10,196148.7007922917,0.660614013671875,-0.4770355224609375,-0.563262939453125,196148.6813660417,-0.007405984675401354,0.01028965550373915,0.04378849359140986,196148.6813660417,0.4498621573472612,0.8713107998747094,0.5040195154725476,-0.02769201435148716,0.03080497682094574,0.0752778947353363,0.006216026842594147,0.01706776581704617,-0.0160704143345356,XTrueNorthZVertical,0.1292147171045581,0.4488003700825638,0.2983953213098588,0.8323713290056154,0.6700229644775391,-0.4829491078853607,-0.5637635588645935,37.92594146728516,-20.75051879882812,-6.558474540710449,2,0.0.0.0,10.83.46.32,1,0
2015-03-01 20:03:47.513,6,1425269023.493973,37.76574651847054,-122.4602872590715,81.95122,-1,-1,10,65,-9999,1425269027.501608,38.09639739990234,-20.77436828613281,-4.923439025878906,263.581787109375,249.8047180175781,10,196148.7499055417,0.6291046142578125,-0.4793243408203125,-0.54876708984375,196148.73313725,0.004090615434361709,-0.06034802924952256,0.06022951858101404,196148.73313725,0.4535327386473542,0.8665867999570084,0.506928877890002,-0.01619660295546055,-0.03983573988080025,0.09171903133392334,-0.02685908228158951,0.005025893915444613,0.01066674012690783,XTrueNorthZVertical,0.1303787977893588,0.4472093301138305,0.3001203647842822,0.8324259505930457,0.6662786602973938,-0.4854946434497833,-0.5660103559494019,37.85155487060547,-20.87261199951172,-6.600644111633301,2,0.0.0.0,10.83.46.32,1,0
2015-03-01 20:03:47.525,7,1425269023.493973,37.76574651847054,-122.4602872590715,81.95122,-1,-1,10,65,-9999,1425269027.501608,38.09639739990234,-20.77436828613281,-4.923439025878906,263.581787109375,249.8047180175781,10,196148.7989046667,0.6492156982421875,-0.4796905517578125,-0.561187744140625,196148.784905125,-0.01268516890426543,0.0749999426188115,0.09353927223128912,196148.73313725,0.4535327386473542,0.8665867999570084,0.506928877890002,-0.01619660295546055,-0.03983573988080025,0.09171903133392334,-0.02685908228158951,0.005025893915444613,0.01066674012690783,XTrueNorthZVertical,0.1303787977893588,0.4472093301138305,0.3001203647842822,0.8324259505930457,0.6662786602973938,-0.4854946434497833,-0.5660103559494019,37.85155487060547,-20.87261199951172,-6.600644111633301,2,0.0.0.0,10.83.46.32,1,0
2015-03-01 20:03:47.614,8,1425269023.493973,37.76574651847054,-122.4602872590715,81.95122,-1,-1,10,65,-9999,1425269027.604197,38.09639739990234,-21.01228332519531,-4.623893737792969,263.7545166015625,249.9774627685547,10,196148.84796325,0.63568115234375,-0.490875244140625,-0.5462493896484375,196148.836676375,0.04199112617171538,-0.02959011655576141,0.08751866395494698,196148.836676375,0.4642690748193865,0.8638886577272216,0.5158495780835698,0.02170694433152676,-0.009086604230105877,0.1190167441964149,-0.02620610035955906,0.002414067508652806,0.01447924133390188,XTrueNorthZVertical,0.1323095388097788,0.4472235445295387,0.3059341086758967,0.8299937474101295,0.6614294648170471,-0.493274062871933,-0.5649705529212952,37.59070587158203,-21.34316444396973,-6.586572647094727,2,0.0.0.0,10.83.46.32,1,0
2015-03-01 20:03:47.622,9,1425269023.493973,37.76574651847054,-122.4602872590715,81.95122,-1,-1,10,65,-9999,1425269027.604197,38.09639739990234,-21.01228332519531,-4.623893737792969,263.7545166015625,249.9774627685547,10,196148.8969911667,0.615081787109375,-0.518829345703125,-0.54718017578125,196148.88844725,0.04558745890775839,-0.01823599556431758,0.0566457027020944,196148.836676375,0.4642690748193865,0.8638886577272216,0.5158495780835698,0.02170694433152676,-0.009086604230105877,0.1190167441964149,-0.02620610035955906,0.002414067508652806,0.01447924133390188,XTrueNorthZVertical,0.1323095388097788,0.4472235445295387,0.3059341086758967,0.8299937474101295,0.6614294648170471,-0.493274062871933,-0.5649705529212952,37.59070587158203,-21.34316444396973,-6.586572647094727,2,0.0.0.0,10.83.46.32,1,0
2015-03-01 20:03:47.711,10,1425269023.493973,37.76574651847054,-122.4602872590715,81.95122,-1,-1,10,65,-9999,1425269027.707946,37.92588043212891,-21.760009765625,-4.590614318847656,262.8560791015625,249.0790252685547,10,196148.946036875,0.6102294921875,-0.5411376953125,-0.535858154296875,196148.9402154583,0.03591991783466174,0.1615635970068561,0.1108378350918988,196148.88844725,0.4676094415157209,0.8618115601044742,0.5222256060834016,0.02530871145427227,0.002262870781123638,0.08815257251262665,-0.03338799253106117,-0.01161142345517874,0.01058835256844759,XTrueNorthZVertical,0.1346840946440667,0.4468983989718178,0.3082629183035642,0.8289246053038543,0.6578539609909058,-0.4988103210926056,-0.5642840266227722,37.45563507080078,-21.58542633056641,-6.566544532775879,2,0.0.0.0,10.83.46.32,1,0
2015-03-01 20:03:47.721,11,1425269023.493973,37.76574651847054,-122.4602872590715,81.95122,-1,-1,10,65,-9999,1425269027.707946,37.92588043212891,-21.760009765625,-4.590614318847656,262.8560791015625,249.0790252685547,10,196148.9950796667,0.642242431640625,-0.560821533203125,-0.524169921875,196148.9919865,-0.03800623823262982,0.2103045049613773,0.2124898949518963,196148.9402154583,0.4711658157035892,0.8627133952876666,0.5307785776862836,0.0156512875109911,0.1820557117462158,0.1423603147268295,-0.05803662538528442,-0.03088916651904583,0.02880599163472652,XTrueNorthZVertical,0.1375054489181204,0.4479337443051281,0.3112395298475564,0.826787505785938,0.6550977826118469,-0.5062049627304077,-0.5608952045440674,37.30464935302734,-21.85903930664062,-6.520753860473633,2,0.0.0.0,10.83.46.32,1,0
2015-03-01 20:03:47.785,12,1425269023.493973,37.76574651847054,-122.4602872590715,81.95122,-1,-1,10,65,-9999,1425269027.760365,37.87472534179688,-22.25283813476562,-3.708610534667969,261.5274963378906,247.7504425048828,10,196149.0441286667,0.6437835693359375,-0.53753662109375,-0.50872802734375,196149.0437575833,-0.1243701555389184,0.299226921126905,0.4648278703463212,196148.9919865,0.4795183600654748,0.8699157620953858,0.538754846559901,-0.05827084183692932,0.2307951897382736,0.2440172135829926,-0.02069880068302155,-0.04094849899411201,0.02187898196280003,XTrueNorthZVertical,0.1379933518413268,0.4518709438270521,0.3165235837330456,0.8225468487241807,0.6560137271881104,-0.5130676031112671,-0.5535409450531006,37.11594772338867,-22.3011474609375,-6.086040496826172,2,0.0.0.0,10.83.46.32,1,0
2015-03-01 20:03:47.819,13,1425269023.493973,37.76574651847054,-122.4602872590715,81.95122,-1,-1,10,65,-9999,1425269027.812094,37.73831176757812,-22.59268188476562,-3.375770568847656,261.2259521484375,247.4488830566406,10,196149.0932689584,0.599945068359375,-0.6103057861328125,-0.4961700439453125,196149.0437575833,-0.1243701555389184,0.299226921126905,0.4648278703463212,196149.0437575833,0.4980444619397063,0.8737189842943686,0.5520533229454417,-0.1446254551410675,0.3197211027145386,0.4963612258434296,-0.005135017447173595,-0.02007325366139412,0.0359472781419754,XTrueNorthZVertical,0.1389950756071444,0.4553831161770102,0.3266088519819121,0.8164761213273678,0.6528248190879822,-0.5244366526603699,-0.5466131567955017,36.85763549804688,-22.81502151489258,-5.741450309753418,2,0.0.0.0,10.83.46.32,1,0
2015-03-01 20:03:47.915,14,1425269023.493973,37.76574651847054,-122.4602872590715,81.95122,-1,-1,10,65,-9999,1425269027.863219,37.14149856567383,-23.45932006835938,-2.859878540039062,259.3624572753906,245.5853881835938,10,196149.14226625,0.534820556640625,-0.585784912109375,-0.47027587890625,196149.1472967083,-0.2044021410374347,0.3629379902009797,0.7765048032532377,196149.0955254583,0.5251633453263521,0.8751500589937139,0.5675968622072174,-0.1799663603305817,0.2804530560970306,0.5475702881813049,-0.04732514917850494,-0.07269849628210068,0.04421840980648994,XTrueNorthZVertical,0.1393359080645434,0.4586842899004196,0.3402961374575144,0.8089454729378978,0.6472702026367188,-0.5376073122024536,-0.5403884649276733,36.41537857055664,-23.60617637634277,-5.351941108703613,2,0.0.0.0,10.83.46.32,1,0
2015-03-01 20:03:47.919,15,1425269023.493973,37.76574651847054,-122.4602872590715,81.95122,-1,-1,10,65,-9999,1425269027.914717,36.22069549560547,-24.546875,-2.726753234863281,257.1128540039062,243.3357849121094,10,196149.191251625,0.5613250732421875,-0.6189422607421875,-0.45635986328125,196149.1472967083,-0.2044021410374347,0.3629379902009797,0.7765048032532377,196149.1472967083,0.5610332261600077,0.8726176076296358,0.588111539914562,-0.2246521711349487,0.383432537317276,0.8080421090126038,-0.102495513856411,-0.03099407814443111,0.0645468682050705,XTrueNorthZVertical,0.140441205217475,0.4613728374172381,0.3578420535231354,0.7996001812992669,0.6373160481452942,-0.5547908544540405,-0.5348227620124817,35.61566925048828,-24.88658905029297,-4.914947509765625,2,0.0.0.0,10.83.46.32,1,0
2015-03-01 20:03:47.985,16,1425269023.493973,37.76574651847054,-122.4602872590715,81.95122,-1,-1,10,65,-9999,1425269027.971889,35.57273101806641,-26.21220397949219,-2.027809143066406,254.1728820800781,240.3958129882812,10,196149.2403268334,0.5610198974609375,-0.6954193115234375,-0.4232940673828125,196149.199067625,-0.3424388403423128,0.4594839713029683,0.9565733750945093,196149.199067625,0.6106459146584609,0.8681615588119111,0.613508259068885,-0.3626887202262878,0.4799783527851105,0.988110363483429,-0.0626453161239624,-0.04320279508829117,0.07201976329088211,XTrueNorthZVertical,0.1407658487567272,0.464752795516707,0.3811175609578827,0.7867269107165229,0.6239703893661499,-0.5757394433021545,-0.5283796191215515,34.73009872436523,-26.17841720581055,-4.526081085205078,2,0.0.0.0,10.83.46.32,1,0
2015-03-01 20:03:48.016,17,1425269023.493973,37.76574651847054,-122.4602872590715,81.95122,-1,-1,10,65,-9999,1425269027.971889,35.57273101806641,-26.21220397949219,-2.027809143066406,254.1728820800781,240.3958129882812,10,196149.2893614584,0.5048828125,-0.71368408203125,-0.4051971435546875,196149.2508357083,-0.4434906236926064,0.5536978222383744,1.344580499584732,196149.2508357083,0.6772060305573004,0.8537487316195135,0.6439783245059488,-0.4637402594089508,0.5741919875144958,1.37611722946167,-0.05670195072889328,-0.09596839547157288,0.1078474223613739,XTrueNorthZVertical,0.1412412746474598,0.4661331844766275,0.4104045608969091,0.7709337620661709,0.6027835011482239,-0.6003817319869995,-0.5255414843559265,33.593994140625,-27.66519546508789,-4.249156951904297,2,0.0.0.0,10.83.46.32,1,0
2015-03-01 20:03:48.083,18,1425269023.493973,37.76574651847054,-122.4602872590715,81.95122,-1,-1,10,65,-9999,1425269028.044987,33.16842269897461,-29.38993835449219,-1.611763000488281,247.6474761962891,233.8704071044922,10,196149.3384225834,0.4758148193359375,-0.7005157470703125,-0.4030303955078125,196149.3026067917,-0.4666670493951299,0.7608025391500215,1.67699972895784,196149.3026067917,0.7654920317487922,0.8321322032643322,0.685950872330557,-0.4869160652160645,0.7812966704368591,1.708536267280579,-0.07065602391958237,-0.09428255259990692,0.1220553889870644,XTrueNorthZVertical,0.1431911422003572,0.4679641579250501,0.4477936613736417,0.7483225861614023,0.5721361041069031,-0.6334090828895569,-0.5210117101669312,31.29244422912598,-30.28917121887207,-3.914573669433594,2,0.0.0.0,10.83.46.32,1,0
2015-03-01 20:03:48.118,19,1425269023.493973,37.76574651847054,-122.4602872590715,81.95122,-1,-1,10,65,-9999,1425269028.096988,30.47423553466797,-32.0408935546875,-1.445343017578125,241.054443359375,227.2773742675781,10,196149.3874589167,0.5022125244140625,-0.699310302734375,-0.42181396484375,196149.3543778333,-0.529989829582271,1.309428104776231,2.044904780907926,196149.3543778333,0.8784740857031622,0.8126715775073284,0.7399198859317162,-0.5502386689186096,1.329922080039978,2.076441049575806,-0.05200799182057381,-0.02598182298243046,0.1009952574968338,XTrueNorthZVertical,0.1439028724458162,0.4747655266770861,0.4935409820103684,0.7143577321552268,0.5362609028816223,-0.6742287278175354,-0.5077793002128601,28.86635971069336,-32.66724395751953,-3.399869918823242,2,0.0.0.0,10.83.46.32,1,0
2015-03-01 20:03:48.186,20,1425269023.493973,37.76574651847054,-122.4602872590715,81.95122,-1,-1,10,65,-9999,1425269028.148243,27.47311401367188,-34.99771118164062,-0.3469924926757812,233.8208465576172,220.0437774658203,10,196149.4365143334,0.5891265869140625,-0.7654571533203125,-0.4505767822265625,196149.406146125,-0.6206568825779096,1.680133736928645,2.1017627375489,196149.406146125,1.011231328967565,0.7980238272316846,0.7952307091314327,-0.6408979892730713,1.700518369674683,2.133391618728638,0.02700405940413475,0.009450563229620457,0.06181371957063675,XTrueNorthZVertical,0.1386658936057379,0.4861962797098983,0.5430964440447569,0.6703963099880266,0.5012704730033875,-0.7140251398086548,-0.4887698888778687,25.86745262145996,-35.15963363647461,-2.578718185424805,2,0.0.0.0,10.83.46.32,1,0
2015-03-01 20:03:48.216,21,1425269023.493973,37.76574651847054,-122.4602872590715,81.95122,-1,-1,10,65,-9999,1425269028.200061,24.19916534423828,-37.78457641601562,0.5849380493164062,225.7493133544922,211.9722442626953,10,196149.4855515,0.5067596435546875,-0.8296356201171875,-0.455657958984375,196149.4579170417,-0.5028335759467331,1.490466599886509,2.076981757289603,196149.4579170417,1.151500941859867,0.7767095933073934,0.8494719218633492,-0.5230743885040283,1.51085102558136,2.108610391616821,0.1128603741526604,-0.05142112821340561,0.0128534222021699,XTrueNorthZVertical,0.1320555665346468,0.4970533629692335,0.5900300105775446,0.6223856366907071,0.462884247303009,-0.7509317994117737,-0.4709985554218292,21.39929389953613,-38.0988883972168,-1.587368011474609,2,0.0.0.0,10.83.46.32,1,0
2015-03-01 20:03:48.286,22,1425269023.493973,37.76574651847054,-122.4602872590715,81.95122,-1,-1,10,65,-9999,1425269028.251845,20.66944122314453,-40.14663696289062,1.367095947265625,217.8791809082031,204.1021118164062,10,196149.53461325,0.443511962890625,-0.8742523193359375,-0.4043731689453125,196149.50968825,-0.2188151688569435,1.234293938838479,2.029118094598154,196149.50968825,1.290304291713503,0.7377834861511152,0.9075147552538592,-0.239055797457695,1.254678249359131,2.060746192932129,0.06495644897222519,-0.06856086850166321,0.01780868321657181,XTrueNorthZVertical,0.1317964443994505,0.50480728740713,0.6304024267306455,0.5747974361714543,0.4141542613506317,-0.7879759669303894,-0.4555985927581787,17.79641151428223,-39.92470932006836,-1.131404876708984,2,0.0.0.0,10.83.46.32,1,0
2015-03-01 20:03:48.316,23,1425269023.493973,37.76574651847054,-122.4602872590715,81.95122,-1,-1,10,65,-9999,1425269028.304344,16.74752044677734,-41.71000671386719,1.566795349121094,210.4386291503906,196.6615600585938,10,196149.5836516667,0.408233642578125,-0.8950347900390625,-0.3839111328125,196149.5614562917,-0.1941923803663979,1.418104252011313,1.962050110970035,196149.5614562917,1.433122837220562,0.6894389397074169,0.9668727240917232,-0.2144328355789185,1.438488364219666,1.993677973747253,0.05851009860634804,-0.04378374665975571,0.04202648624777794,XTrueNorthZVertical,0.1333716346187971,0.5129565517890369,0.6657661849407727,0.5252075613298678,0.3612286746501923,-0.8231138586997986,-0.4381751716136932,14.06192016601562,-41.39811706542969,-0.6578407287597656,2,0.0.0.0,10.83.46.32,1,0
2015-03-01 20:03:48.369,24,1425269023.493973,37.76574651847054,-122.4602872590715,81.95122,-1,-1,10,65,-9999,1425269028.355583,12.87675857543945,-42.78059387207031,2.182540893554688,203.1252593994141,189.3481903076172,10,196149.6328164584,0.3581085205078125,-0.890533447265625,-0.3757476806640625,196149.6132275,-0.2519174622583014,1.614362979067503,1.919279743863362,196149.6132275,1.587089098722753,0.638600551395098,1.016178841496187,-0.2721576690673828,1.634746789932251,1.950907230377197,0.06228764355182648,-0.05265379697084427,0.02824562415480614,XTrueNorthZVertical,0.1284575687272826,0.5216125941706661,0.6984185695104327,0.4728958329643763,0.3139025270938873,-0.8501019477844238,-0.4228379130363464,9.109338760375977,-42.76605987548828,-0.2419986724853516,2,0.0.0.0,10.83.46.32,1,0
2015-03-01 20:03:48.415,25,1425269023.493973,37.76574651847054,-122.4602872590715,81.95122,-1,-1,10,65,-9999,1425269028.355583,12.87675857543945,-42.78059387207031,2.182540893554688,203.1252593994141,189.3481903076172,10,196149.6817529167,0.3905487060546875,-0.9183197021484375,-0.3646240234375,196149.6649984583,-0.2310569214397107,1.590517567299151,1.648291385039003,196149.6649984583,1.750187453614988,0.5801292372944052,1.058151725588384,-0.2512969374656677,1.610901117324829,1.679918646812439,0.1122995093464851,-0.03476905822753906,0.03912747278809547,XTrueNorthZVertical,0.1204558686115562,0.5295017878161968,0.7274950199511002,0.4193676773377769,0.268849790096283,-0.8714504241943359,-0.4102364778518677,5.404829025268555,-43.39022064208984,-0.2265949249267578,2,0.0.0.0,10.83.46.32,1,0
2015-03-01 20:03:48.466,26,1425269023.493973,37.76574651847054,-122.4602872590715,81.95122,-1,-1,10,65,-9999,1425269028.459445,4.470207214355469,-44.22502136230469,1.899627685546875,185.955810546875,172.1787414550781,10,196149.7309241667,0.3490753173828125,-0.913970947265625,-0.3646697998046875,196149.7167667917,-0.1458355002410661,1.294493630015285,1.467237443594402,196149.7167667917,1.901933658432047,0.5200639661817649,1.08971620411197,-0.1660753488540649,1.314877152442932,1.498864412307739,0.1428369730710983,-0.04100986570119858,0.0338052473962307,XTrueNorthZVertical,0.1119760871079106,0.5354275809997978,0.7501223906641872,0.3716114541800314,0.2299505025148392,-0.8864956498146057,-0.4015573263168335,2.163132190704346,-43.67030334472656,-0.4473686218261719,2,0.0.0.0,10.83.46.32,1,0
2015-03-01 20:03:48.515,27,1425269023.493973,37.76574651847054,-122.4602872590715,81.95122,-1,-1,10,65,-9999,1425269028.459445,4.470207214355469,-44.22502136230469,1.899627685546875,185.955810546875,172.1787414550781,10,196149.7798461667,0.323486328125,-0.8809051513671875,-0.3338775634765625,196149.7685377084,-0.08197556046205605,1.073189737119662,1.246415849172193,196149.7167667917,1.901933658432047,0.5200639661817649,1.08971620411197,-0.1660753488540649,1.314877152442932,1.498864412307739,0.1428369730710983,-0.04100986570119858,0.0338052473962307,XTrueNorthZVertical,0.1119760871079106,0.5354275809997978,0.7501223906641872,0.3716114541800314,0.2299505025148392,-0.8864956498146057,-0.4015573263168335,2.163132190704346,-43.67030334472656,-0.4473686218261719,2,0.0.0.0,10.83.46.32,1,0
2015-03-01 20:03:48.564,28,1425269023.493973,37.76574651847054,-122.4602872590715,81.95122,-1,-1,10,65,-9999,1425269028.511569,0.9745941162109375,-43.93612670898438,1.583427429199219,178.6532897949219,164.876220703125,10,196149.8289083334,0.3280029296875,-0.8828582763671875,-0.3411712646484375,196149.8203089584,-0.1291832865770186,0.9378284494458776,1.01506145263872,196149.8203089584,2.16751526613089,0.3927300834263486,1.13404669265413,-0.1494279205799103,0.9582119584083557,1.046680450439453,0.1690162420272827,0.01890905015170574,0.05192556977272034,XTrueNorthZVertical,0.1011126151132951,0.5425678395607814,0.7801434196334517,0.2945719534761727,0.1618858575820923,-0.9061313271522522,-0.3907927572727203,-3.920617580413818,-43.53418731689453,-1.173871040344238,2,0.0.0.0,10.83.46.32,1,0
2015-03-01 20:03:48.613,29,1425269023.493973,37.76574651847054,-122.4602872590715,81.95122,-1,-1,10,65,-9999,1425269028.562878,-1.975372314453125,-44.05509948730469,1.200675964355469,172.6911468505859,158.9140777587891,10,196149.8779434584,0.295745849609375,-0.872467041015625,-0.3705596923828125,196149.8203089584,-0.1291832865770186,0.9378284494458776,1.01506145263872,196149.8203089584,2.16751526613089,0.3927300834263486,1.13404669265413,-0.1494279205799103,0.9582119584083557,1.046680450439453,0.1690162420272827,0.01890905015170574,0.05192556977272034,XTrueNorthZVertical,0.1011126151132951,0.5425678395607814,0.7801434196334517,0.2945719534761727,0.1618858575820923,-0.9061313271522522,-0.3907927572727203,-3.920617580413818,-43.53418731689453,-1.173871040344238,2,0.0.0.0,10.83.46.32,1,0
2015-03-01 20:03:48.663,30,1425269023.493973,37.76574651847054,-122.4602872590715,81.95122,-1,-1,10,65,-9999,1425269028.614065,-4.158004760742188,-43.783203125,0.6681442260742188,167.9510650634766,154.1739959716797,10,196149.9271059167,0.237457275390625,-0.82867431640625,-0.404205322265625,196149.92384825,-0.06619819521609963,0.4479998880503285,0.6848150963990086,196149.872077,2.279391852460796,0.3335037167253433,1.14465408050037,-0.1370607167482376,0.728935718536377,0.8995396494865417,0.1656482219696045,0.03394973650574684,0.02942517213523388,XTrueNorthZVertical,0.09641139327338573,0.5435182773228869,0.7906996672568412,0.2647390679439166,0.1353161334991455,-0.9105671644210815,-0.3905854523181915,-5.830882549285889,-43.30380630493164,-1.66010856628418,2,0.0.0.0,10.83.46.32,1,0
2015-03-01 20:03:48.711,31,1425269023.493973,37.76574651847054,-122.4602872590715,81.95122,-1,-1,10,65,-9999,1425269028.666184,-5.743827819824219,-43.59628295898438,0.51837158203125,164.4704895019531,150.6934204101562,10,196149.9760382917,0.2119903564453125,-0.8081512451171875,-0.43255615234375,196149.97561925,-0.05409838911943361,0.255097276599856,0.4584764974625912,196149.92384825,2.37523720233824,0.2757577207350845,1.151432969037688,-0.0864492803812027,0.4683816432952881,0.7164264321327209,0.1374716609716415,0.07947079092264175,-0.01219618692994118,XTrueNorthZVertical,0.09468977788268644,0.5432642909318558,0.7985665349389236,0.2412244968309051,0.1108651384711266,-0.913348376750946,-0.3917955160140991,-7.990247249603271,-42.93069458007812,-2.255252838134766,2,0.0.0.0,10.83.46.32,1,0
2015-03-01 20:03:48.760,32,1425269023.493973,37.76574651847054,-122.4602872590715,81.95122,-1,-1,10,65,-9999,1425269028.718589,-7.397857666015625,-43.13748168945312,0.5017242431640625,161.6407165527344,147.8636474609375,10,196150.0250984167,0.1320648193359375,-0.809814453125,-0.3748626708984375,196150.0273875417,0.1711078337214821,-0.03723738362592394,0.2746315631955872,196149.97561925,2.443894948171366,0.2313923166255054,1.153801440624555,-0.07435401529073715,0.2754758596420288,0.4900852143764496,0.1247681528329849,0.09390612691640854,-0.02945527620613575,XTrueNorthZVertical,0.09426257106492171,0.5422217603410137,0.8039282827194048,0.2254095361460981,0.09288321435451508,-0.9143101572990417,-0.3942202627658844,-9.203411102294922,-42.66782760620117,-2.593878746032715,2,0.0.0.0,10.83.46.32,1,0
2015-03-01 20:03:48.810,33,1425269023.493973,37.76574651847054,-122.4602872590715,81.95122,-1,-1,10,65,-9999,1425269028.770382,-8.472122192382812,-42.98454284667969,0.2853775024414062,159.6431732177734,145.8661041259766,10,196150.074135625,0.218719482421875,-0.93707275390625,-0.2987518310546875,196150.0273875417,0.1711078337214821,-0.03723738362592394,0.2746315631955872,196150.0273875417,2.491960557138241,0.1925498510848152,1.16039421857724,0.1508524268865585,-0.01685901544988155,0.3062399625778198,0.05571547523140907,0.1071460098028183,0.01674210280179977,XTrueNorthZVertical,0.0979440760511783,0.5427748804127475,0.8057675667402463,0.2157336969083834,0.07634934037923813,-0.9169604778289795,-0.3916047811508179,-10.03802490234375,-42.46556091308594,-2.808698654174805,2,0.0.0.0,10.83.46.32,1,0
2015-03-01 20:03:48.859,34,1425269023.493973,37.76574651847054,-122.4602872590715,81.95122,-1,-1,10,65,-9999,1425269028.822016,-9.324714660644531,-42.6107177734375,0.01911163330078125,157.6921691894531,143.9151000976562,10,196150.1233042917,0.2131500244140625,-0.818450927734375,-0.401580810546875,196150.1309297917,0.1330557891181029,-0.01752466523715742,0.5090584486786842,196150.0791585417,2.514921282518631,0.1695316123341069,1.170784911338003,0.1410540491342545,-0.02471075020730495,0.2709823250770569,0.1530147790908813,-0.01601620577275753,0.085094153881073,XTrueNorthZVertical,0.1025643240366611,0.5454883744071574,0.8044850291196541,0.2114872175256356,0.06570471078157425,-0.9210565686225891,-0.3838459849357605,-10.72851657867432,-42.32062530517578,-2.416231155395508,2,0.0.0.0,10.83.46.32,1,0
2015-03-01 20:03:48.914,35,1425269023.493973,37.76574651847054,-122.4602872590715,81.95122,-1,-1,10,65,-9999,1425269028.874396,-10.36487579345703,-42.18588256835938,0.8678436279296875,156.4825134277344,142.7054443359375,10,196150.1722279583,0.1830291748046875,-0.7008819580078125,-0.4320220947265625,196150.1309297917,0.1330557891181029,-0.01752466523715742,0.5090584486786842,196150.1309297917,2.551739430337998,0.1393172502572237,1.180671335463454,0.1127772703766823,0.002852817764505744,0.5406322479248047,0.1603383421897888,0.1064106076955795,-0.02496152371168137,XTrueNorthZVertical,0.1060801159120959,0.548121670378203,0.8042186223621818,0.2038187021561227,0.05281168594956398,-0.9248615503311157,-0.376619279384613,-11.06743717193604,-42.24919128417969,-2.119587898254395,2,0.0.0.0,10.83.46.32,1,0
2015-03-01 20:03:48.957,36,1425269023.493973,37.76574651847054,-122.4602872590715,81.95122,-1,-1,10,65,-9999,1425269028.926327,-11.04695129394531,-41.30224609375,1.167396545410156,155.4710540771484,141.6939849853516,10,196150.221396125,0.1742401123046875,-0.7753448486328125,-0.3785400390625,196150.182697875,0.3779219997582015,-0.5133288274866263,0.3070736589627145,196150.182697875,2.60255457264616,0.08232308685620636,1.193130560395379,0.3576332628726959,-0.4929589331150055,0.3386425673961639,0.1456418484449387,0.2206503599882126,-0.05801891535520554,XTrueNorthZVertical,0.1166505965427313,0.5501283219307003,0.8028851432397258,0.1978052752929212,0.03032250702381134,-0.9295279383659363,-0.3675029277801514,-11.96716117858887,-42.01346969604492,-1.905315399169922,2,0.0.0.0,10.83.46.32,1,0
2015-03-01 20:03:49.010,37,1425269023.493973,37.76574651847054,-122.4602872590715,81.95122,-1,-1,10,65,-9999,1425269028.976463,-11.91659545898438,-41.11531066894531,2.082687377929688,155.0587463378906,141.2816772460938,10,196150.2703187084,0.1478729248046875,-0.8681182861328125,-0.286865234375,196150.2344691667,0.8234845627788895,-1.302454617461859,-0.001624528264948335,196150.2344691667,2.618858807643469,0.02086934723156671,1.222783882758696,0.8031960129737854,-1.282084822654724,0.02994405850768089,0.16947340965271,0.1446117162704468,-0.02079953253269196,XTrueNorthZVertical,0.1400621944172021,0.5566908143078957,0.7925444108131251,0.205794286320038,0.007116558961570263,-0.9400523900985718,-0.3409558236598969,-12.70260906219482,-41.83864593505859,-0.3826580047607422,2,0.0.0.0,10.83.46.32,1,0
2015-03-01 20:03:49.055,38,1425269023.493973,37.76574651847054,-122.4602872590715,81.95122,-1,-1,10,65,-9999,1425269029.028967,-11.98480224609375,-40.84341430664062,3.946548461914062,156.5656127929688,142.7885437011719,10,196150.3193882917,0.1457977294921875,-0.89129638671875,-0.2144012451171875,196150.2862401667,1.118692241188647,-1.767977306536581,0.08176676863259384,196150.2862401667,2.631425211676123,-0.07020676923890626,1.272917380049463,1.098403930664062,-1.747607707977295,0.1133350729942322,0.154255285859108,0.08642379939556122,0.01383957453072071,XTrueNorthZVertical,0.1771893864171762,0.5676431997898053,0.7724404488870397,0.2229818029112059,-0.02058828994631767,-0.9559611678123474,-0.2927702367305756,-12.70014953613281,-41.78870010375977,2.094128608703613,2,0.0.0.0,10.83.46.32,1,0
2015-03-01 20:03:49.110,39,1425269023.493973,37.76574651847054,-122.4602872590715,81.95122,-1,-1,10,65,-9999,1425269029.080373,-11.26862335205078,-40.12968444824219,6.975318908691406,160.1691589355469,146.39208984375,10,196150.368408375,0.0775146484375,-1.041763305664062,-0.0275726318359375,196150.3380085833,1.204815142416283,-1.987683036462047,0.1360872653869401,196150.3380085833,2.685311206636233,-0.2138648511158059,1.32841686526476,1.184527039527893,-1.967313766479492,0.1676552593708038,0.2085785418748856,0.06253597885370255,0.0508294366300106,XTrueNorthZVertical,0.2204822400133108,0.5780267754504933,0.7477413976562683,0.241154397357617,-0.05093999952077866,-0.9707696437835693,-0.2345452606678009,-12.62448120117188,-41.54545974731445,5.154788970947266,2,0.0.0.0,10.83.46.32,1,0
2015-03-01 20:03:49.153,40,1425269023.493973,37.76574651847054,-122.4602872590715,81.95122,-1,-1,10,65,-9999,1425269029.133232,-10.53540802001953,-39.46694946289062,10.38684844970703,164.5391540527344,150.7620849609375,10,196150.4174627917,-0.187103271484375,-1.0634765625,0.1675872802734375,196150.3897797083,1.095255890963732,-2.33408412787418,0.2636798458448544,196150.3897797083,2.832502905235064,-0.4653646010268716,1.37867942446672,1.074976921081543,-2.313817977905273,0.2953377962112427,0.06396961212158203,-0.08625359833240509,0.2312863618135452,XTrueNorthZVertical,0.2710821672670384,0.5841216660471343,0.719346200923526,0.2604945172049951,-0.08568286895751953,-0.9816022515296936,-0.1706326752901077,-12.24018478393555,-40.87539291381836,9.557971000671387,2,0.0.0.0,10.83.46.32,1,0
2015-03-01 20:03:49.211,41,1425269023.493973,37.76574651847054,-122.4602872590715,81.95122,-1,-1,10,65,-9999,1425269029.186008,-9.682815551757812,-38.9571533203125,13.44891357421875,168.973388671875,155.1963195800781,10,196150.4664975,-0.3045196533203125,-1.001251220703125,0.1826324462890625,196150.441550875,0.6284953646143399,-1.947096994081458,0.02600789857349583,196150.441550875,3.009557312915617,-0.7509005917964461,1.408351759875634,0.6082165837287903,-1.926831126213074,0.05766555294394493,-0.1472653895616531,-0.06153549253940582,0.3123751282691956,XTrueNorthZVertical,0.3185975991172748,0.5825605533500552,0.6918506307853421,0.2836573436947437,-0.1103487387299538,-0.9868348836898804,-0.1182375401258469,-11.55489253997803,-40.23910140991211,12.62037658691406,2,0.0.0.0,10.83.46.32,1,0
2015-03-01 20:03:49.251,42,1425269023.493973,37.76574651847054,-122.4602872590715,81.95122,-1,-1,10,65,-9999,1425269029.236601,-8.915481567382812,-38.36239624023438,15.49584197998047,172.3706817626953,158.5936126708984,10,196150.5155548333,-0.2191619873046875,-0.934478759765625,0.1524810791015625,196150.4933189167,0.3119581627180288,-0.3574095340940842,0.4475945549324185,196150.4933189167,-3.129970155999476,-0.9474484064205162,1.412263428937492,0.2916796207427979,-0.3371439576148987,0.4792519211769104,-0.1695505231618881,0.01516991760581732,0.2635137140750885,XTrueNorthZVertical,0.3437535975118187,0.5794434432067347,0.6787952671453444,0.2920886133630248,-0.1281789690256119,-0.9874599575996399,-0.0921575203537941,-10.66398429870605,-39.8423957824707,14.52025032043457,2,0.0.0.0,10.83.46.32,1,0
2015-03-01 20:03:49.311,43,1425269023.493973,37.76574651847054,-122.4602872590715,81.95122,-1,-1,10,65,-9999,1425269029.288001,-9.120101928710938,-37.41079711914062,16.16150665283203,172.7164306640625,158.9393615722656,10,196150.5645792084,-0.110931396484375,-0.8632659912109375,0.0589599609375,196150.54509025,0.1611508070378938,0.4337759446682153,0.7728370977999806,196150.54509025,-2.973822174999708,-1.089694207535729,1.386881556256282,0.1408724784851074,0.4540413022041321,0.8044941425323486,0.01882497221231461,0.1132927685976028,0.1775548309087753,XTrueNorthZVertical,0.351386950190074,0.5781114178683664,0.6831421870035401,0.2750112080174443,-0.1621202677488327,-0.9831352829933167,-0.08462879806756973,-11.78630256652832,-39.24684906005859,15.25591087341309,2,0.0.0.0,10.83.46.32,1,0
2015-03-01 20:03:49.349,44,1425269023.493973,37.76574651847054,-122.4602872590715,81.95122,-1,-1,10,65,-9999,1425269029.340121,-10.50130462646484,-36.71406555175781,16.61083221435547,170.4012908935547,156.6242218017578,10,196150.6136484167,-0.13775634765625,-0.883880615234375,0.0046844482421875,196150.5968615,0.109903065549281,0.1785963763906759,0.7683621882203204,196150.5968615,-2.861178968106011,-1.182616737073378,1.352336440271177,0.08962494134902954,0.1988615393638611,0.800018846988678,0.08402474969625473,0.1050470843911171,0.1040044873952866,XTrueNorthZVertical,0.3579228434674689,0.5752176292307296,0.689943405801874,0.2549392601575904,-0.2006018906831741,-0.9762324094772339,-0.08203183114528656,-13.49643898010254,-38.69417953491211,15.2506217956543,2,0.0.0.0,10.83.46.32,1,0
2015-03-01 20:03:49.410,45,1425269023.493973,37.76574651847054,-122.4602872590715,81.95122,-1,-1,10,65,-9999,1425269029.391666,-12.25764465332031,-36.18728637695312,16.3612060546875,167.3775787353516,153.6005096435547,10,196150.6626769583,-0.2875823974609375,-0.9127044677734375,-0.00262451171875,196150.6486295,0.1916583825891875,-0.3504951689559114,0.6152155118386597,196150.5968615,-2.861178968106011,-1.182616737073378,1.352336440271177,0.08962494134902954,0.1988615393638611,0.800018846988678,0.08402474969625473,0.1050470843911171,0.1040044873952866,XTrueNorthZVertical,0.3579228434674689,0.5752176292307296,0.689943405801874,0.2549392601575904,-0.2006018906831741,-0.9762324094772339,-0.08203183114528656,-13.49643898010254,-38.69417953491211,15.2506217956543,2,0.0.0.0,10.83.46.32,1,0
2015-03-01 20:03:49.447,46,1425269023.493973,37.76574651847054,-122.4602872590715,81.95122,-1,-1,10,65,-9999,1425269029.442848,-13.62178802490234,-35.54154968261719,16.3612060546875,165.2611999511719,151.484130859375,10,196150.7117393333,-0.480712890625,-0.9178314208984375,-0.0290985107421875,196150.7004007084,0.1527264295616461,-0.4274946129211544,0.44475669047483,196150.7004007084,-2.726122771561171,-1.340180099996506,1.296028254900891,0.1324486881494522,-0.4072298407554626,0.4764128029346466,-0.1534771323204041,0.03533361107110977,0.044943917542696,XTrueNorthZVertical,0.3869420232807347,0.5650368307581292,0.6887645186331551,0.2379342363156407,-0.2641406655311584,-0.9624881744384766,-0.0620185025036335,-16.0093936920166,-37.40388107299805,16.01948928833008,2,0.0.0.0,10.83.46.32,1,0
2015-03-01 20:03:49.510,47,1425269023.493973,37.76574651847054,-122.4602872590715,81.95122,-1,-1,10,65,-9999,1425269029.495401,-14.20155334472656,-35.09970092773438,16.32791900634766,164.262939453125,150.4858703613281,10,196150.7607705417,-0.5057373046875,-1.035552978515625,0.0223846435546875,196150.7521719167,0.2544743632208865,-0.03563176380471517,0.04692436577497816,196150.7004007084,-2.726122771561171,-1.340180099996506,1.296028254900891,0.1324486881494522,-0.4072298407554626,0.4764128029346466,-0.1534771323204041,0.03533361107110977,0.044943917542696,XTrueNorthZVertical,0.3869420232807347,0.5650368307581292,0.6887645186331551,0.2379342363156407,-0.2641406655311584,-0.9624881744384766,-0.0620185025036335,-16.0093936920166,-37.40388107299805,16.01948928833008,2,0.0.0.0,10.83.46.32,1,0
2015-03-01 20:03:49.545,48,1425269023.493973,37.76574651847054,-122.4602872590715,81.95122,-1,-1,10,65,-9999,1425269029.495401,-14.20155334472656,-35.09970092773438,16.32791900634766,164.262939453125,150.4858703613281,10,196150.8099399167,-0.3913116455078125,-1.020782470703125,-0.00689697265625,196150.8039403333,0.1775859730730998,0.4818715686906103,0.007087204292918869,196150.7521719167,-2.678333093107546,-1.396678473229164,1.285666836537763,0.2341968566179276,-0.01536721736192703,0.07858011871576309,-0.2319587171077728,-0.0572967603802681,0.06653609126806259,XTrueNorthZVertical,0.3954697251369713,0.5650125268082844,0.6851431428017978,0.2344001436738669,-0.2770287096500397,-0.959625244140625,-0.04872908070683479,-16.42118453979492,-36.98648834228516,16.56258010864258,2,0.0.0.0,10.83.46.32,1,0
2015-03-01 20:03:49.609,49,1425269023.493973,37.76574651847054,-122.4602872590715,81.95122,-1,-1,10,65,-9999,1425269029.599183,-15.13941192626953,-35.11669921875,16.74394989013672,162.2174224853516,148.4403533935547,10,196150.858872875,-0.279266357421875,-1.183486938476562,0.0372314453125,196150.8557114167,0.1533139228981176,0.4096370525477371,-0.2442496888477453,196150.8039403333,-2.646661340550637,-1.412459954681497,1.284432246513577,0.1573086529970169,0.5021359324455261,0.03874264284968376,-0.1302010118961334,-0.04974070563912392,0.04028084129095078,XTrueNorthZVertical,0.3922206902345213,0.5691167792108832,0.6858923317751939,0.227641699645346,-0.2789328992366791,-0.9592772126197815,-0.04453804343938828,-16.60396957397461,-36.75800323486328,16.88586235046387,2,0.0.0.0,10.83.46.32,1,0
2015-03-01 20:03:49.644,50,1425269023.493973,37.76574651847054,-122.4602872590715,81.95122,-1,-1,10,65,-9999,1425269029.599183,-15.13941192626953,-35.11669921875,16.74394989013672,162.2174224853516,148.4403533935547,10,196150.9079417083,-0.332489013671875,-0.9827423095703125,0.1063079833984375,196150.907482625,0.06711751842439498,0.0917573511459171,0.2189637732457699,196150.8557114167,-2.620592371790716,-1.410738868844006,1.291476573969595,0.1330367773771286,0.4299012124538422,-0.2125945389270782,-0.05429916456341743,-0.2122949957847595,0.08303298801183701,XTrueNorthZVertical,0.3822994896442485,0.5760877683503587,0.6880466682242172,0.2203673708906379,-0.2721778750419617,-0.961243212223053,-0.04393996670842171,-17.0676441192627,-36.61419296264648,16.73532676696777,2,0.0.0.0,10.83.46.32,1,0
2015-03-01 20:03:49.685,51,1425269023.493973,37.76574651847054,-122.4602872590715,81.95122,-1,-1,10,65,-9999,1425269029.651667,-15.48043823242188,-34.98075866699219,16.81053161621094,160.9712524414062,147.1941833496094,10,196150.9569667084,-0.2724151611328125,-1.023727416992188,0.1611328125,196150.907482625,0.06711751842439498,0.0917573511459171,0.2189637732457699,196150.907482625,-2.601066001303027,-1.416865649183843,1.290693685829837,0.04684058576822281,0.1120213121175766,0.2506186068058014,-0.02931994199752808,-0.07251174747943878,0.1307658553123474,XTrueNorthZVertical,0.3789804430192426,0.5789476225221597,0.6891262771994722,0.2151707709957861,-0.2731855511665344,-0.9610270857810974,-0.04238694906234741,-17.14387321472168,-36.61029434204102,16.66579437255859,2,0.0.0.0,10.83.46.32,1,0
2015-03-01 20:03:49.743,52,1425269023.493973,37.76574651847054,-122.4602872590715,81.95122,-1,-1,10,65,-9999,1425269029.702461,-15.94083404541016,-35.09970092773438,16.32792663574219,159.8226623535156,146.0455932617188,10,196151.0061493333,-0.2560882568359375,-0.93475341796875,0.168182373046875,196151.0110222917,-0.131212082695441,0.2499086398480546,0.8354943540307108,196150.9592509167,-2.569463446072055,-1.448484561197747,1.278311864656017,-0.1911620199680328,0.06508062034845352,0.1287000924348831,0.01376288011670113,-0.06619693338871002,0.196311354637146,XTrueNorthZVertical,0.38409076845733,0.5786925007301893,0.6882455270761144,0.2095408744781475,-0.2861780524253845,-0.9575304985046387,-0.035178542137146,-17.68522262573242,-36.15496063232422,17.08878898620605,2,0.0.0.0,10.83.46.32,1,0
2015-03-01 20:03:49.782,53,1425269023.493973,37.76574651847054,-122.4602872590715,81.95122,-1,-1,10,65,-9999,1425269029.754938,-16.70816802978516,-35.18466186523438,15.67890930175781,157.6167602539062,143.8396911621094,10,196151.0550884583,-0.37451171875,-0.94451904296875,0.0679779052734375,196151.0110222917,-0.131212082695441,0.2499086398480546,0.8354943540307108,196151.0110222917,-2.561213058709946,-1.447485831014836,1.259544009076974,-0.1514043360948563,0.2702158689498901,0.8671372532844543,0.04783740639686584,0.0171973742544651,0.2058507055044174,XTrueNorthZVertical,0.3865058654269458,0.5760026442589183,0.691856303119613,0.2004221496337467,-0.3039256632328033,-0.9519507884979248,-0.03766833990812302,-18.1505184173584,-35.99343872070312,16.94124603271484,2,0.0.0.0,10.83.46.32,1,0
2015-03-01 20:03:49.840,54,1425269023.493973,37.76574651847054,-122.4602872590715,81.95122,-1,-1,10,65,-9999,1425269029.806512,-17.78242492675781,-34.75984191894531,15.26287078857422,155.6982269287109,141.9211578369141,10,196151.1042516667,-0.6595001220703125,-1.108322143554688,0.1292266845703125,196151.0627933333,0.2502167675861768,-0.6835386432885336,0.6479825132587768,196151.0627933333,-2.534519182164867,-1.488875615540058,1.217358770066875,0.2300279140472412,-0.6632302403450012,0.6796268820762634,-0.02954753488302231,-0.006330608855932951,0.09630100429058075,XTrueNorthZVertical,0.4047649287658575,0.567453789502371,0.6915961308162635,0.1893577394599721,-0.3449641764163971,-0.9381884336471558,-0.02832309901714325,-19.55850219726562,-35.28282165527344,16.86897659301758,2,0.0.0.0,10.83.46.32,1,0
2015-03-01 20:03:49.882,55,1425269023.493973,37.76574651847054,-122.4602872590715,81.95122,-1,-1,10,65,-9999,1425269029.859464,-18.856689453125,-33.75724792480469,16.07830047607422,153.8506927490234,140.0736236572266,10,196151.1531762083,-0.620269775390625,-1.314743041992188,-0.106109619140625,196151.1145618334,0.3477699562124333,-0.3337199172495023,1.009608896622892,196151.1145618334,-2.473505996513038,-1.572797289316686,1.17754289402908,0.327581524848938,-0.3134116530418396,1.041252970695496,-0.4000388383865356,-0.2792899012565613,0.1684532165527344,XTrueNorthZVertical,0.4274787225159792,0.5636003207210984,0.6838624205106275,0.1787423355709967,-0.3831948041915894,-0.9236672520637512,0.0007667594472877681,-20.21604537963867,-34.39538955688477,17.89534759521484,2,0.0.0.0,10.83.46.32,1,0
2015-03-01 20:03:49.937,56,1425269029.924163,37.76573819582102,-122.4603423879355,81.76209,-1,-1,10,65,-9999,1425269029.911833,-20.35725402832031,-32.56770324707031,16.27799987792969,151.1286010742188,137.3515319824219,10,196151.2022294167,-0.48834228515625,-0.931304931640625,-0.3303680419921875,196151.1663329167,-0.1428599503551206,1.300743003829265,0.3600692330747463,196151.1663329167,-2.471193720453646,-1.553207710846158,1.140808387271707,-0.1630481481552124,1.321051001548767,0.3917129933834076,-0.1376784890890121,-0.4691420197486877,-0.1198046207427979,XTrueNorthZVertical,0.4303697929657949,0.5577777659999509,0.6914492722671586,0.1598865890959808,-0.416795402765274,-0.9089707732200623,-0.007331610191613436,-21.90447998046875,-33.01696395874023,18.49455833435059,2,0.0.0.0,10.83.46.32,1,0
2015-03-01 20:03:49.978,57,1425269029.924163,37.76573819582102,-122.4603423879355,81.76209,-1,-1,10,65,-9999,1425269029.911833,-20.35725402832031,-32.56770324707031,16.27799987792969,151.1286010742188,137.3515319824219,10,196151.2512539167,-0.407928466796875,-0.9410858154296875,-0.0493621826171875,196151.2181041667,-0.3760601838401271,0.8782735095689806,0.3821617522136077,196151.2181041667,-2.513357429153774,-1.442976997385111,1.108984334492073,-0.3962482213973999,0.8985813856124878,0.4138051867485046,0.01488844584673643,0.08807191252708435,-0.2704270780086517,XTrueNorthZVertical,0.4119179556650558,0.5494768224284498,0.7145430597031701,0.1335179676205919,-0.4419361650943756,-0.8952466249465942,-0.05679763853549957,-23.86893463134766,-32.67081832885742,16.57909774780273,2,0.0.0.0,10.83.46.32,1,0
2015-03-01 20:03:50.043,58,1425269029.924163,37.76573819582102,-122.4603423879355,81.76209,-1,-1,10,65,-9999,1425269029.987631,-22.98323059082031,-31.6160888671875,14.91338348388672,145.3434143066406,131.5663452148438,10,196151.3003152084,-0.60174560546875,-0.82122802734375,-0.0229949951171875,196151.2698725,-0.003243463891607504,-0.8860986757999605,-0.1366425344742216,196151.2698725,-2.527233853733349,-1.444703763790736,1.109658869245961,-0.02343128435313702,-0.8657910227775574,-0.1049993857741356,-0.01843497343361378,-0.112997978925705,0.06500694155693054,XTrueNorthZVertical,0.416159373179107,0.5466554095137308,0.7131705919314665,0.1391652205168959,-0.4414344131946564,-0.8955469727516174,-0.05595847964286804,-24.76313400268555,-32.56627655029297,15.4337100982666,2,0.0.0.0,10.83.46.32,1,0
2015-03-01 20:03:50.086,59,1425269029.924163,37.76573819582102,-122.4603423879355,81.76209,-1,-1,10,65,-9999,1425269030.042851,-23.25606536865234,-31.78604125976562,14.48070526123047,144.2318878173828,130.4548187255859,10,196151.3493505,-0.45050048828125,-0.8054046630859375,0.0657806396484375,196151.3216437083,0.3057998690133296,-0.01880537940537652,-0.2067968554896339,196151.3216437083,-2.51089132565142,-1.480941316516473,1.11115092709099,0.2856122851371765,0.001502065220847726,-0.175154060125351,-0.1048665046691895,0.1189118921756744,0.04969648644328117,XTrueNorthZVertical,0.4241549800443832,0.5478942936877056,0.7065646696115496,0.1437733491908972,-0.441840648651123,-0.8962098360061646,-0.03980879113078117,-24.05519866943359,-32.59264755249023,16.46333694458008,2,0.0.0.0,10.83.46.32,1,0
2015-03-01 20:03:50.141,60,1425269029.924163,37.76573819582102,-122.4603423879355,81.76209,-1,-1,10,65,-9999,1425269030.093181,-22.88092803955078,-31.78604125976562,14.51399230957031,144.756591796875,130.9795227050781,10,196151.398522,-0.642974853515625,-1.0269775390625,-0.170562744140625,196151.373415,0.6709621313567434,0.2543955336526201,-0.8345164412784337,196151.373415,-2.460893504086205,-1.512903267027217,1.139978592675764,0.6507775187492371,0.2746019959449768,-0.8027884364128113,-0.1362015008926392,0.0163363479077816,0.08210106939077377,XTrueNorthZVertical,0.41368466520557,0.5628350323144179,0.7008108067976843,0.1447271559929568,-0.4169143438339233,-0.908624529838562,-0.02416344918310642,-23.70225143432617,-32.6749153137207,16.80857086181641,2,0.0.0.0,10.83.46.32,1,0
2015-03-01 20:03:50.190,61,1425269029.924163,37.76573819582102,-122.4603423879355,81.76209,-1,-1,10,65,-9999,1425269030.169166,-22.14769744873047,-31.73506164550781,15.29615020751953,143.9034118652344,130.1263427734375,10,196151.447449625,-0.36004638671875,-0.8695068359375,-0.108001708984375,196151.4251832917,0.1669117571079532,0.7698399763092054,-0.5053486652802038,196151.4251832917,-2.418877697036697,-1.52409156809498,1.169443746926923,0.1467272937297821,0.790046215057373,-0.4736210107803345,-0.07062339037656784,0.00677610794082284,-0.1325786411762238,XTrueNorthZVertical,0.3973502182769134,0.5770556216825161,0.6990094668316398,0.1431970363956167,-0.3902378082275391,-0.9205334186553955,-0.01823922619223595,-22.91848754882812,-32.98432159423828,17.28445053100586,2,0.0.0.0,10.83.46.32,1,0
2015-03-01 20:03:50.232,62,1425269029.924163,37.76573819582102,-122.4603423879355,81.76209,-1,-1,10,65,-9999,1425269030.222324,-21.43152618408203,-32.44877624511719,15.72882843017578,145.3001708984375,131.5231018066406,10,196151.496506375,-0.4681549072265625,-0.8578643798828125,0.017425537109375,196151.4769545833,0.004747084643066242,-0.2309176381146996,-0.583766242525914,196151.4769545833,-2.414707913397833,-1.514302963995958,1.196678939406366,-0.01543715130537748,-0.2107115834951401,-0.5520389080047607,-0.114257849752903,0.09496933221817017,-0.05089861899614334,XTrueNorthZVertical,0.3849233847180664,0.5843942983152323,0.6988385763415959,0.1481281493961654,-0.3648681342601776,-0.9308305382728577,-0.02063458412885666,-22.47856330871582,-33.53007125854492,16.80545425415039,2,0.0.0.0,10.83.46.32,1,0
2015-03-01 20:03:50.273,63,1425269029.924163,37.76573819582102,-122.4603423879355,81.76209,-1,-1,10,65,-9999,1425269030.222324,-21.43152618408203,-32.44877624511719,15.72882843017578,145.3001708984375,131.5231018066406,10,196151.5455463333,-0.28314208984375,-0.9744110107421875,0.1132965087890625,196151.528726,0.0607895813582577,0.05617032844751526,-0.4516683924519127,196151.528726,-2.421320082160612,-1.517284196589419,1.221807870084929,0.04060554504394531,0.07637617737054825,-0.4199413657188416,-0.00192581198643893,-0.07615005224943161,0.1269169300794601,XTrueNorthZVertical,0.3806518603583703,0.5881830997356073,0.6954225030993764,0.1597884758265397,-0.3414579629898071,-0.9397190809249878,-0.0182896051555872,-21.48478317260742,-34.08470916748047,16.98857116699219,2,0.0.0.0,10.83.46.32,1,0
2015-03-01 20:03:50.330,64,1425269029.924163,37.76573819582102,-122.4603423879355,81.76209,-1,-1,10,65,-9999,1425269030.324771,-19.98211669921875,-33.82524108886719,15.31278991699219,147.6969451904297,133.9198760986328,10,196151.5946037083,-0.304290771484375,-0.770721435546875,0.0322418212890625,196151.5804942083,0.01884985419558085,0.09611375005706871,-0.3474056357753105,196151.5804942083,-2.421039953500729,-1.501898158276991,1.236894239434225,-0.001333999680355191,0.1163194105029106,-0.3156788945198059,0.009358135983347893,0.1548231840133667,0.006677883677184582,XTrueNorthZVertical,0.3708423730758143,0.5926169021671881,0.6968584115729102,0.1602170660391429,-0.326954573392868,-0.9447706937789917,-0.02256228402256966,-21.02093887329102,-34.43245315551758,16.86715507507324,2,0.0.0.0,10.83.46.32,1,0
2015-03-01 20:03:50.373,65,1425269029.924163,37.76573819582102,-122.4603423879355,81.76209,-1,-1,10,65,-9999,1425269030.324771,-19.98211669921875,-33.82524108886719,15.31278991699219,147.6969451904297,133.9198760986328,10,196151.643640125,-0.195465087890625,-0.869171142578125,0.1485443115234375,196151.6322654583,0.05049406690012037,-0.08725501100702913,-0.6523056226563023,196151.5804942083,-2.421039953500729,-1.501898158276991,1.236894239434225,-0.001333999680355191,0.1163194105029106,-0.3156788945198059,0.009358135983347893,0.1548231840133667,0.006677883677184582,XTrueNorthZVertical,0.3708423730758143,0.5926169021671881,0.6968584115729102,0.1602170660391429,-0.326954573392868,-0.9447706937789917,-0.02256228402256966,-21.02093887329102,-34.43245315551758,16.86715507507324,2,0.0.0.0,10.83.46.32,1,0
2015-03-01 20:03:50.429,66,1425269029.924163,37.76573819582102,-122.4603423879355,81.76209,-1,-1,10,65,-9999,1425269030.376287,-19.07836151123047,-34.48799133300781,15.29615020751953,149.4487609863281,135.6716918945312,10,196151.69276075,-0.250946044921875,-1.183975219726562,0.011199951171875,196151.68403675,0.1642784234220828,0.3287941344972918,-1.20978753048757,196151.68403675,-2.408585794482721,-1.513617414376917,1.308921182745463,0.1440949887037277,0.3489993512630463,-1.178061366081238,0.06471306085586548,-0.207845613360405,0.106561467051506,XTrueNorthZVertical,0.3499627907414548,0.6083818607413655,0.6882775566239548,0.1834981582957485,-0.2584691643714905,-0.9659062027931213,-0.01479511335492134,-19.10432052612305,-35.47554016113281,16.9848690032959,2,0.0.0.0,10.83.46.32,1,0
2015-03-01 20:03:50.487,67,1425269029.924163,37.76573819582102,-122.4603423879355,81.76209,-1,-1,10,65,-9999,1425269030.479178,-16.02608489990234,-35.422607421875,15.61235046386719,154.2446594238281,140.4675903320312,10,196151.7417263333,-0.4520721435546875,-0.8270263671875,0.0550537109375,196151.7358052917,0.02088956927447254,-0.2768313342559927,-0.7575553468328878,196151.68403675,-2.408585794482721,-1.513617414376917,1.308921182745463,0.1440949887037277,0.3489993512630463,-1.178061366081238,0.06471306085586548,-0.207845613360405,0.106561467051506,XTrueNorthZVertical,0.3499627907414548,0.6083818607413655,0.6882775566239548,0.1834981582957485,-0.2584691643714905,-0.9659062027931213,-0.01479511335492134,-19.10432052612305,-35.47554016113281,16.9848690032959,2,0.0.0.0,10.83.46.32,1,0
2015-03-01 20:03:50.526,68,1425269029.924163,37.76573819582102,-122.4603423879355,81.76209,-1,-1,10,65,-9999,1425269030.479178,-16.02608489990234,-35.422607421875,15.61235046386719,154.2446594238281,140.4675903320312,10,196151.7907927917,-0.461944580078125,-1.030014038085938,0.0582427978515625,196151.7875764167,-0.1898668741238912,0.6091477656110232,-1.119595851746511,196151.7358052917,-2.416229089673986,-1.510588582009975,1.345885014937001,0.0007063416996970773,-0.2566262781620026,-0.7258296012878418,-0.2088111340999603,0.1558136492967606,0.01685264520347118,XTrueNorthZVertical,0.3401860604817271,0.6144621511503766,0.6838945205459076,0.1974791286635216,-0.2226158678531647,-0.9748138785362244,-0.01341941766440868,-17.63757705688477,-36.22133636474609,16.99721527099609,2,0.0.0.0,10.83.46.32,1,0
2015-03-01 20:03:50.566,69,1425269029.924163,37.76573819582102,-122.4603423879355,81.76209,-1,-1,10,65,-9999,1425269030.531746,-14.13333892822266,-36.3232421875,15.36272430419922,157.2120513916016,143.4349822998047,10,196151.8399242917,0.07550048828125,-0.9308929443359375,0.089599609375,196151.8393476667,-0.1618032815049632,1.259017661134339,-0.9232135540157408,196151.7875764167,-2.449853273087439,-1.47484177660275,1.396436643297221,-0.2100481688976288,0.629352867603302,-1.087866544723511,-0.3345072567462921,-0.02976484037935734,0.06593684107065201,XTrueNorthZVertical,0.3232181905736236,0.6222698636052979,0.6799491425118708,0.214428062904962,-0.1726796180009842,-0.9848378300666809,-0.01662043668329716,-15.6222038269043,-37.06151962280273,17.15707397460938,2,0.0.0.0,10.83.46.32,1,0
2015-03-01 20:03:50.624,70,1425269029.924163,37.76573819582102,-122.4603423879355,81.76209,-1,-1,10,65,-9999,1425269030.583025,-12.30879211425781,-37.42778015136719,14.58056640625,159.9066925048828,146.1296234130859,10,196151.8888780834,0.225311279296875,-1.125350952148438,0.02520751953125,196151.8911160833,-0.06394729146276465,0.5456974200076674,-0.6925430572502005,196151.8393476667,-2.604598970125132,-1.266117590151431,1.445420191895929,-0.1819843649864197,1.27922260761261,-0.8914844989776611,0.09357766807079315,0.07271710783243179,0.105368584394455,XTrueNorthZVertical,0.2863593815054732,0.6318559421668859,0.6868202787218914,0.2168739037815043,-0.1192887276411057,-0.9921507239341736,-0.03751274570822716,-14.39538192749023,-37.98705291748047,16.17812156677246,2,0.0.0.0,10.83.46.32,1,0
2015-03-01 20:03:50.663,71,1425269029.924163,37.76573819582102,-122.4603423879355,81.76209,-1,-1,10,65,-9999,1425269030.641497,-11.09811401367188,-38.36239624023438,13.79841613769531,160.1510314941406,146.3739624023438,10,196151.9379155,0.0789947509765625,-1.05889892578125,0.1177978515625,196151.8911160833,-0.06394729146276465,0.5456974200076674,-0.6925430572502005,196151.8911160833,-2.788176222200824,-1.032511484223757,1.477197969113779,-0.08412816375494003,0.565902054309845,-0.6608143448829651,0.3055566549301147,-0.1297280788421631,0.07312207669019699,XTrueNorthZVertical,0.2563835872041721,0.6405545873508912,0.6914551568848826,0.2141192548235638,-0.08024536818265915,-0.9956228733062744,-0.04791455343365669,-13.56289100646973,-38.82220458984375,14.86133766174316,2,0.0.0.0,10.83.46.32,1,0
2015-03-01 20:03:50.722,72,1425269029.924163,37.76573819582102,-122.4603423879355,81.76209,-1,-1,10,65,-9999,1425269030.641497,-11.09811401367188,-38.36239624023438,13.79841613769531,160.1510314941406,146.3739624023438,10,196151.9869697083,0.144561767578125,-1.084228515625,0.1438446044921875,196151.9946587083,0.1845884888433541,0.6878239357985801,-0.5400062447581681,196151.9428875417,-3.009122199382089,-0.8127089204599112,1.499358863904983,0.03380826488137245,-0.2241120785474777,-0.4967440068721771,0.1308252364397049,-0.06144949793815613,0.1668718755245209,XTrueNorthZVertical,0.2472343447393526,0.6436910490242537,0.6886588054048938,0.2242455670877556,-0.05183048918843269,-0.9974494576454163,-0.04907402396202087,-12.62698841094971,-39.21765518188477,14.64615249633789,2,0.0.0.0,10.83.46.32,1,0
2015-03-01 20:03:50.763,73,1425269029.924163,37.76573819582102,-122.4603423879355,81.76209,-1,-1,10,65,-9999,1425269030.713053,-9.614608764648438,-39.025146484375,13.01625061035156,161.0994873046875,147.3224182128906,10,196152.0360360834,0.246856689453125,-1.017044067382812,-0.05316162109375,196151.9946587083,0.1845884888433541,0.6878239357985801,-0.5400062447581681,196151.9946587083,3.020861945257916,-0.5479714861497662,1.520418747482541,0.1644079983234406,0.7080281972885132,-0.5082781314849854,0.1707953363656998,-0.08549720048904419,0.1868280619382858,XTrueNorthZVertical,0.2357434568196558,0.6503332155351728,0.6851423308618294,0.2281923097575083,-0.02623356506228447,-0.9987313151359558,-0.04298346117138863,-11.70530700683594,-39.43983459472656,14.81417655944824,2,0.0.0.0,10.83.46.32,1,0
2015-03-01 20:03:50.824,74,1425269029.924163,37.76573819582102,-122.4603423879355,81.76209,-1,-1,10,65,-9999,1425269030.76513,-8.625595092773438,-39.60293579101562,13.04953002929688,161.4566497802734,147.6795806884766,10,196152.0850475834,0.20098876953125,-0.98394775390625,-0.0929718017578125,196152.0464270417,0.1639053145533627,0.2637980901972539,-0.4570951158051672,196152.0464270417,2.536867089138513,-0.0326417447138865,1.535017630817887,0.1437250375747681,0.2840021252632141,-0.4253673851490021,0.2595140039920807,-0.01907260715961456,-0.02163596265017986,XTrueNorthZVertical,0.2179439802680981,0.659260381042625,0.6835307213142249,0.225082067044296,-0.001167433452792466,-0.9993600249290466,-0.03575234115123749,-11.11020946502686,-39.63652420043945,14.74733448028564,2,0.0.0.0,10.83.46.32,1,0
2015-03-01 20:03:50.861,75,1425269029.924163,37.76573819582102,-122.4603423879355,81.76209,-1,-1,10,65,-9999,1425269030.81689,-7.755950927734375,-40.12971496582031,13.39900970458984,162.0023498535156,148.2252807617188,10,196152.134085125,0.0870208740234375,-0.998779296875,-0.050750732421875,196152.0981984167,0.05308265947967739,-0.6503428729329139,-0.05462409711861525,196152.0981984167,2.193986841998741,0.2938061132051484,1.537729842330154,0.03290259465575218,-0.6301390528678894,-0.02289669215679169,0.1549154222011566,0.01665000803768635,-0.05057023465633392,XTrueNorthZVertical,0.2202279461011528,0.6600587791453169,0.6790782599387368,0.2338264081336499,0.009574325755238533,-0.9994533658027649,-0.03164412081241608,-10.47098636627197,-39.72222900390625,14.98258590698242,2,0.0.0.0,10.83.46.32,1,0
2015-03-01 20:03:50.923,76,1425269029.924163,37.76573819582102,-122.4603423879355,81.76209,-1,-1,10,65,-9999,1425269030.874137,-7.312606811523438,-39.72187805175781,13.49886322021484,162.8436584472656,149.0665893554688,10,196152.183125,-0.0016326904296875,-0.9839935302734375,-0.0566864013671875,196152.149969875,-0.1035437031822808,-0.3227391714428876,0.1612341639800133,196152.149969875,2.360952752642633,0.1034161336777209,1.53531402812831,-0.1237235814332962,-0.3025355041027069,0.1929612755775452,0.05854791030287743,0.01177596487104893,-0.01424437016248703,XTrueNorthZVertical,0.2294823888096358,0.655511253638524,0.6781885820588038,0.2402146731100905,0.003662171307951212,-0.9993705749511719,-0.03528565913438797,-10.12223339080811,-39.71786880493164,15.23173522949219,2,0.0.0.0,10.83.46.32,1,0
2015-03-01 20:03:50.959,77,1425269029.924163,37.76573819582102,-122.4603423879355,81.76209,-1,-1,10,65,-9999,1425269030.947143,-7.500167846679688,-39.16108703613281,13.18267059326172,163.6613159179688,149.8842468261719,10,196152.2321582084,0.037322998046875,-1.001388549804688,-0.071319580078125,196152.20173825,-0.2290409084945207,-0.06658461989027012,0.3568223070737217,196152.20173825,2.693387638168648,-0.237823007403217,1.525526157411853,-0.2492205947637558,-0.0463811568915844,0.3885491192340851,0.03275623172521591,-2.180262981710257e-06,-0.01041639689356089,XTrueNorthZVertical,0.2360778423315621,0.6498281767882031,0.6816595560045636,0.2394386250225734,-0.01066150423139334,-0.9989754557609558,-0.04398118704557419,-10.42524814605713,-39.71197128295898,15.04154777526855,2,0.0.0.0,10.83.46.32,1,0
2015-03-01 20:03:51.019,78,1425269029.924163,37.76573819582102,-122.4603423879355,81.76209,-1,-1,10,65,-9999,1425269030.998273,-8.403915405273438,-39.34799194335938,12.99961853027344,163.3043212890625,149.5272521972656,10,196152.281211125,-0.1208648681640625,-0.982177734375,-0.0855712890625,196152.2535094167,-0.1886535379312511,-0.2312542616764856,0.4820047267451143,196152.2535094167,3.015247455448293,-0.5630989996808747,1.504596863410994,-0.2088330090045929,-0.2110510319471359,0.5137311816215515,0.01358366198837757,0.02324601635336876,-0.009171389974653721,XTrueNorthZVertical,0.2438949972340951,0.6422976714705347,0.6879878250236071,0.2337556343702585,-0.03531217947602272,-0.9978095889091492,-0.05593786388635635,-11.20962047576904,-39.65874099731445,14.61176109313965,2,0.0.0.0,10.83.46.32,1,0
2015-03-01 20:03:51.056,79,1425269029.924163,37.76573819582102,-122.4603423879355,81.76209,-1,-1,10,65,-9999,1425269030.998273,-8.403915405273438,-39.34799194335938,12.99961853027344,163.3043212890625,149.5272521972656,10,196152.3302394584,-0.05792236328125,-0.9745635986328125,-0.0774078369140625,196152.30528075,-0.18045020282548,0.02032071806563161,0.352094663506613,196152.30528075,-3.113998125203622,-0.7232005777370382,1.483277265226965,-0.2006294578313828,0.04052375257015228,0.3838207721710205,-0.03436366468667984,-0.04284407198429108,0.04164865985512733,XTrueNorthZVertical,0.252116012815466,0.6353528023891253,0.6929102712757936,0.2294334347292667,-0.05784519761800766,-0.9961726665496826,-0.06552866846323013,-11.95375156402588,-39.53736877441406,14.34849262237549,2,0.0.0.0,10.83.46.32,1,0
2015-03-01 20:03:51.121,80,1425269029.924163,37.76573819582102,-122.4603423879355,81.76209,-1,-1,10,65,-9999,1425269031.101676,-10.24551391601562,-39.959716796875,12.23410034179688,160.8174438476562,147.0403747558594,10,196152.3792946667,-0.08642578125,-0.99420166015625,-0.1262664794921875,196152.3570491667,-0.2475858307452875,0.1613830346849487,0.4355019393706957,196152.3570491667,-3.024995160835378,-0.8017368178895574,1.45844836886382,-0.2677648961544037,0.181585893034935,0.4672277867794037,0.008370338007807732,0.0001653301296755672,-0.03955390304327011,XTrueNorthZVertical,0.2547437014992326,0.629381443976588,0.7005576219522616,0.2195533540665058,-0.08055967092514038,-0.9936956167221069,-0.07796929031610489,-13.11569595336914,-39.38515472412109,13.73910522460938,2,0.0.0.0,10.83.46.32,1,0
2015-03-01 20:03:51.156,81,1425269029.924163,37.76573819582102,-122.4603423879355,81.76209,-1,-1,10,65,-9999,1425269031.101676,-10.24551391601562,-39.959716796875,12.23410034179688,160.8174438476562,147.0403747558594,10,196152.4283229584,-0.1577606201171875,-0.9851531982421875,-0.0250091552734375,196152.4088206667,-0.1805226408071302,-0.3508102209128678,0.5290438747630749,196152.4088206667,-2.957418874515583,-0.875960928394009,1.432176405966747,-0.2006187736988068,-0.3307452797889709,0.560875415802002,-0.04440168663859367,0.02754752710461617,0.03378124162554741,XTrueNorthZVertical,0.2639190493269469,0.6213794049691752,0.7058799909313632,0.2144010758324182,-0.1061415299773216,-0.9904076457023621,-0.08846873790025711,-13.96174430847168,-39.23915863037109,13.31664848327637,2,0.0.0.0,10.83.46.32,1,0
2015-03-01 20:03:51.219,82,1425269029.924163,37.76573819582102,-122.4603423879355,81.76209,-1,-1,10,65,-9999,1425269031.156654,-11.20042419433594,-39.85775756835938,12.06768798828125,160.2665557861328,146.4894866943359,10,196152.4773646667,-0.01513671875,-1.060470581054688,0.1218719482421875,196152.4605918333,-0.1468799920205952,0.3680059857554004,0.4961586289905584,196152.4605918333,-2.89395722076196,-0.9366850842868906,1.404520201420651,-0.1669759154319763,0.3880707323551178,0.5279898643493652,0.009769798256456852,-0.04252435266971588,0.1249754801392555,XTrueNorthZVertical,0.2707747587861158,0.6145335979797255,0.7119775892240545,0.2052252709438164,-0.1333354711532593,-0.9862079620361328,-0.09805897623300552,-14.83609962463379,-38.99204635620117,13.09523963928223,2,0.0.0.0,10.83.46.32,1,0
2015-03-01 20:03:51.256,83,1425269029.924163,37.76573819582102,-122.4603423879355,81.76209,-1,-1,10,65,-9999,1425269031.232675,-13.04201507568359,-38.90615844726562,11.53514862060547,157.5693664550781,143.7922973632812,10,196152.5265062083,-0.0843048095703125,-0.960906982421875,-0.284454345703125,196152.5123604167,-0.2247441643917869,0.8579336167435004,0.5940191464066101,196152.4605918333,-2.89395722076196,-0.9366850842868906,1.404520201420651,-0.1669759154319763,0.3880707323551178,0.5279898643493652,0.009769798256456852,-0.04252435266971588,0.1249754801392555,XTrueNorthZVertical,0.2707747587861158,0.6145335979797255,0.7119775892240545,0.2052252709438164,-0.1333354711532593,-0.9862079620361328,-0.09805897623300552,-14.83609962463379,-38.99204635620117,13.09523963928223,2,0.0.0.0,10.83.46.32,1,0
2015-03-01 20:03:51.320,84,1425269029.924163,37.76573819582102,-122.4603423879355,81.76209,-1,-1,10,65,-9999,1425269031.282931,-14.40616607666016,-38.66825866699219,10.96932983398438,154.5408935546875,140.7638244628906,10,196152.5754549583,-0.3114013671875,-0.980560302734375,-0.0325469970703125,196152.564131625,0.03248577160900457,-0.8312748415995893,0.6056206750633223,196152.564131625,-2.785460959457861,-1.008932535235856,1.347500014945292,0.01239022240042686,-0.8112104535102844,0.6374512910842896,-0.02835813909769058,0.04437140375375748,-0.01675691641867161,XTrueNorthZVertical,0.2750052793062169,0.6044691891567079,0.7267373723098004,0.1756186204109155,-0.1874011307954788,-0.9751728177070618,-0.1179781928658485,-17.77036476135254,-38.24880981445312,11.54199028015137,2,0.0.0.0,10.83.46.32,1,0
2015-03-01 20:03:51.350,85,1425269029.924163,37.76573819582102,-122.4603423879355,81.76209,-1,-1,10,65,-9999,1425269031.341546,-15.65093994140625,-38.073486328125,11.28551483154297,152.9944000244141,139.2173309326172,10,196152.62448225,-0.243896484375,-0.976715087890625,-0.1217193603515625,196152.615903125,-0.08403205345581524,0.3335247075415995,0.496916032004577,196152.564131625,-2.785460959457861,-1.008932535235856,1.347500014945292,0.01239022240042686,-0.8112104535102844,0.6374512910842896,-0.02835813909769058,0.04437140375375748,-0.01675691641867161,XTrueNorthZVertical,0.2750052793062169,0.6044691891567079,0.7267373723098004,0.1756186204109155,-0.1874011307954788,-0.9751728177070618,-0.1179781928658485,-17.77036476135254,-38.24880981445312,11.54199028015137,2,0.0.0.0,10.83.46.32,1,0
2015-03-01 20:03:51.419,86,1425269029.924163,37.76573819582102,-122.4603423879355,81.76209,-1,-1,10,65,-9999,1425269031.341546,-15.65093994140625,-38.073486328125,11.28551483154297,152.9944000244141,139.2173309326172,10,196152.6735320833,-0.287353515625,-0.9380340576171875,-0.1168060302734375,196152.6676714167,-0.02465767590082565,-0.1359234809799002,0.4952054836364191,196152.615903125,-2.731462906458206,-1.075704164272163,1.322828977694402,-0.1041273772716522,0.3535888493061066,0.5287463068962097,-0.06005271151661873,-0.01363417971879244,0.02322504855692387,XTrueNorthZVertical,0.2883748659023253,0.598778354215286,0.7275849973562255,0.1700720532422529,-0.2159635275602341,-0.9694132804870605,-0.1166088357567787,-18.44589614868164,-37.7679443359375,12.05429935455322,2,0.0.0.0,10.83.46.32,1,0
2015-03-01 20:03:51.448,87,1425269029.924163,37.76573819582102,-122.4603423879355,81.76209,-1,-1,10,65,-9999,1425269031.413147,-17.49253845214844,-37.0198974609375,11.18567657470703,150.2686004638672,136.4915313720703,10,196152.7226384583,-0.3970489501953125,-0.935791015625,-0.067169189453125,196152.719442875,-0.1527184400783759,0.1174009292822901,0.484147239842083,196152.6676714167,-2.700317072756707,-1.095443129431789,1.297023408474989,-0.04475280269980431,-0.1158595308661461,0.5270354747772217,-0.0128442132845521,0.02504405938088894,0.006729193031787872,XTrueNorthZVertical,0.2921133784806749,0.5939722049812993,0.7327367793037987,0.1579987927504515,-0.2403906434774399,-0.9627577066421509,-0.1237335875630379,-19.81827545166016,-37.22594833374023,11.55160331726074,2,0.0.0.0,10.83.46.32,1,0
2015-03-01 20:03:51.519,88,1425269029.924163,37.76573819582102,-122.4603423879355,81.76209,-1,-1,10,65,-9999,1425269031.465366,-18.32807922363281,-36.42514038085938,10.30367279052734,148.3934478759766,134.6163787841797,10,196152.771611125,-0.3988189697265625,-0.909515380859375,-0.098236083984375,196152.771214125,-0.2947685231460034,0.2516247808545017,0.5030314488157259,196152.719442875,-2.674164219364454,-1.126604053302276,1.271339363552483,-0.1728133857250214,0.1374646872282028,0.5159769058227539,-0.1385333240032196,0.02677063085138798,0.04951531812548637,XTrueNorthZVertical,0.301743024243706,0.587848503376818,0.7352750894448552,0.1508503883740515,-0.2663739025592804,-0.9554968476295471,-0.1267705708742142,-20.60548782348633,-36.78164672851562,11.59737396240234,2,0.0.0.0,10.83.46.32,1,0
2015-03-01 20:03:51.546,89,1425269029.924163,37.76573819582102,-122.4603423879355,81.76209,-1,-1,10,65,-9999,1425269031.519407,-19.38528442382812,-35.7794189453125,9.970832824707031,146.3818054199219,132.604736328125,10,196152.8206447084,-0.301849365234375,-0.898468017578125,-0.109954833984375,196152.771214125,-0.2947685231460034,0.2516247808545017,0.5030314488157259,196152.771214125,-2.674259159247327,-1.112164636859105,1.245712085525034,-0.3148632645606995,0.2716883420944214,0.5348607897758484,-0.1048068329691887,0.02197990380227566,0.05715648457407951,XTrueNorthZVertical,0.3023645769096749,0.5812706197853932,0.7423923558624204,0.1398346580588213,-0.2863827347755432,-0.9476238489151001,-0.1414002627134323,-21.48721694946289,-36.4266357421875,11.10739326477051,2,0.0.0.0,10.83.46.32,1,0
2015-03-01 20:03:51.618,90,1425269029.924163,37.76573819582102,-122.4603423879355,81.76209,-1,-1,10,65,-9999,1425269031.573578,-20.71532440185547,-35.26962280273438,9.138755798339844,144.4385528564453,130.6614837646484,10,196152.8697045833,-0.1976165771484375,-0.92626953125,-0.1943817138671875,196152.8747539167,-1.058406263592523,0.8626649887361353,1.06266199501447,196152.8229827083,-2.688808747688587,-1.078443971901656,1.202968191401016,-0.6427990794181824,0.4893085360527039,0.6706418991088867,0.0150294890627265,0.03464251011610031,0.06002327799797058,XTrueNorthZVertical,0.3035566145087804,0.5682115146674848,0.7546726503659907,0.124331249529897,-0.3168788552284241,-0.9331105351448059,-0.1699781119823456,-23.11314010620117,-35.80062866210938,9.801651000976562,2,0.0.0.0,10.83.46.32,1,0
2015-03-01 20:03:51.645,91,1425269029.924163,37.76573819582102,-122.4603423879355,81.76209,-1,-1,10,65,-9999,1425269031.573578,-20.71532440185547,-35.26962280273438,9.138755798339844,144.4385528564453,130.6614837646484,10,196152.9187428333,-0.2828369140625,-0.7942657470703125,-0.1143341064453125,196152.8747539167,-1.058406263592523,0.8626649887361353,1.06266199501447,196152.8747539167,-2.727463314558443,-1.006626232515262,1.14097594425264,-1.078494548797607,0.8827283978462219,1.094505906105042,0.1545149087905884,-0.01722891815006733,0.02843794226646423,XTrueNorthZVertical,0.3000178425291491,0.5464242550855523,0.7750679403900663,0.1033418009843943,-0.3521314859390259,-0.909040629863739,-0.2228196561336517,-24.67373657226562,-35.22304916381836,7.906855583190918,2,0.0.0.0,10.83.46.32,1,0
2015-03-01 20:03:51.720,92,1425269029.924163,37.76573819582102,-122.4603423879355,81.76209,-1,-1,10,65,-9999,1425269031.64781,-23.00027465820312,-34.69189453125,6.209831237792969,139.8929443359375,126.1158752441406,10,196152.9678077083,-0.3081817626953125,-0.9163970947265625,-0.1529083251953125,196152.9265254167,-1.279125858944982,0.4367437713869996,1.378389329623288,196152.9265254167,-2.760889056881672,-0.9500959464783163,1.059046883552891,-1.299213886260986,0.4568069875240326,1.410232901573181,0.1155226975679398,0.0776233896613121,0.1704798191785812,XTrueNorthZVertical,0.3026230996412176,0.5157637980033563,0.7973333024495075,0.08164913637326476,-0.398359626531601,-0.8718891143798828,-0.2848139405250549,-26.56747436523438,-34.31052017211914,5.378872871398926,2,0.0.0.0,10.83.46.32,1,0
2015-03-01 20:03:51.744,93,1425269029.924163,37.76573819582102,-122.4603423879355,81.76209,-1,-1,10,65,-9999,1425269031.723732,-25.83087921142578,-32.51675415039062,2.249114990234375,135.6208190917969,121.84375,10,196153.0168412084,-0.297271728515625,-0.818359375,-0.38043212890625,196152.97829375,-1.539971568757774,0.9235405901976025,1.466872057892844,196152.97829375,-2.790534296003599,-0.8883464100427736,0.9628199109531257,-1.560059428215027,0.9436035752296448,1.498715281486511,0.1368930041790009,-0.05219551548361778,0.1627944707870483,XTrueNorthZVertical,0.3020068969121102,0.478186784521171,0.8227858147468127,0.05614934381707112,-0.4432742297649384,-0.8208056092262268,-0.3602584600448608,-29.32717132568359,-32.38791275024414,1.707352638244629,2,0.0.0.0,10.83.46.32,1,0
2015-03-01 20:03:51.821,94,1425269029.924163,37.76573819582102,-122.4603423879355,81.76209,-1,-1,10,65,-9999,1425269031.775744,-28.30339050292969,-30.052734375,-1.062568664550781,132.1241149902344,118.3470458984375,10,196153.0658929583,-0.4240264892578125,-0.7554473876953125,-0.4062957763671875,196153.0300650834,-1.636194774735645,0.3934655394604489,1.475533456706108,196153.0300650834,-2.81118159779961,-0.8301070394879999,0.8507920710984992,-1.656282424926758,0.4135283529758453,1.507376432418823,0.1992923766374588,-0.05227422714233398,0.09120830148458481,XTrueNorthZVertical,0.3001941761642442,0.4329053599622285,0.8495551501582953,0.02706409402516177,-0.4866306483745575,-0.751802921295166,-0.4449528157711029,-31.48395156860352,-30.28316116333008,-1.914590835571289,2,0.0.0.0,10.83.46.32,1,0
2015-03-01 20:03:51.843,95,1425269029.924163,37.76573819582102,-122.4603423879355,81.76209,-1,-1,10,65,-9999,1425269031.828005,-31.04873657226562,-26.60310363769531,-4.50738525390625,124.5846633911133,110.8076019287109,10,196153.1149220833,-0.496795654296875,-0.60198974609375,-0.4854583740234375,196153.0818364584,-1.923940009454892,0.477860581772842,1.740578971557955,196153.0818364584,-2.823349380647461,-0.7986606118511802,0.7266615091891655,-1.944027423858643,0.4979231953620911,1.772421598434448,0.06122367084026337,-0.03169727325439453,0.06681350618600845,XTrueNorthZVertical,0.3069473644031395,0.3808758104910536,0.8721908875536122,-2.387538147590428e-05,-0.5354515910148621,-0.6643781661987305,-0.5214338898658752,-33.49127197265625,-27.69425010681152,-4.830964088439941,2,0.0.0.0,10.83.46.32,1,0
2015-03-01 20:03:51.921,96,1425269029.924163,37.76573819582102,-122.4603423879355,81.76209,-1,-1,10,65,-9999,1425269031.878468,-33.43598937988281,-22.86459350585938,-7.436317443847656,121.7699813842773,107.992919921875,10,196153.1639738333,-0.5573577880859375,-0.4877471923828125,-0.6342620849609375,196153.133605125,-1.952289891891003,0.4918560259334264,1.713365726275089,196153.133605125,-2.830045063521172,-0.767845233112973,0.5937093139580684,-1.972377061843872,0.5119184255599976,1.745208024978638,0.03218961879611015,-0.0293820034712553,0.007872767746448517,XTrueNorthZVertical,0.3117624593548751,0.3235049362579749,0.8929104153322088,-0.02932111488037484,-0.5757229328155518,-0.5594394207000732,-0.5962974429130554,-36.01036071777344,-23.14573287963867,-8.916475296020508,2,0.0.0.0,10.83.46.32,1,0
2015-03-01 20:03:51.943,97,1425269029.924163,37.76573819582102,-122.4603423879355,81.76209,-1,-1,10,65,-9999,1425269031.931583,-35.17527770996094,-18.4803466796875,-9.865997314453125,118.4377212524414,104.6606597900391,10,196153.2130139167,-0.5551300048828125,-0.40264892578125,-0.70672607421875,196153.1853762917,-1.877559993806726,0.3069950957105572,1.558881077761773,196153.1853762917,-2.837192649697758,-0.743827608600974,0.4671519645394112,-1.897647142410278,0.3270573019981384,1.590723037719727,0.08748571574687958,-0.0690181702375412,-0.04790501296520233,XTrueNorthZVertical,0.3167511644548812,0.26674108882013,0.9086101174643103,-0.05427299720728869,-0.6045603156089783,-0.4503452479839325,-0.657035768032074,-37.42428970336914,-19.45021820068359,-11.53630447387695,2,0.0.0.0,10.83.46.32,1,0
2015-03-01 20:03:52.012,98,1425269029.924163,37.76573819582102,-122.4603423879355,81.76209,-1,-1,10,65,-9999,1425269031.982888,-36.91455841064453,-14.23202514648438,-11.86299133300781,113.4422454833984,99.66518402099609,10,196153.2620725833,-0.72442626953125,-0.145599365234375,-0.675079345703125,196153.237147625,-1.704071294070713,-0.1390170089021362,1.623650487053045,196153.237147625,-2.83829602756815,-0.7409319977573479,0.3445263376025987,-1.72415828704834,-0.1189549788832664,1.655491590499878,-0.03989013656973839,0.0397619940340519,-0.001136628561653197,XTrueNorthZVertical,0.3284595353177227,0.2118343929661609,0.9171977679520551,-0.07738727616432672,-0.6353113055229187,-0.3377508819103241,-0.6944810748100281,-38.59159851074219,-15.62157154083252,-13.36524200439453,2,0.0.0.0,10.83.46.32,1,0
2015-03-01 20:03:52.038,99,1425269029.924163,37.76573819582102,-122.4603423879355,81.76209,-1,-1,10,65,-9999,1425269031.982888,-36.91455841064453,-14.23202514648438,-11.86299133300781,113.4422454833984,99.66518402099609,10,196153.3111008334,-0.639404296875,-0.172698974609375,-0.6779327392578125,196153.2889162917,-1.544261122325565,0.2145535784805987,1.396706285284744,196153.2889162917,-2.83869561801065,-0.7341802115684054,0.2287831231855373,-1.564347624778748,0.2346153855323792,1.428547859191895,-0.1122340336441994,0.05987662822008133,-0.01620643958449364,XTrueNorthZVertical,0.3364006678532974,0.1591117010634444,0.9228420378682065,-0.09940142266914581,-0.6525211930274963,-0.2267925292253494,-0.7230361104011536,-39.80210494995117,-10.36454582214355,-14.84396457672119,2,0.0.0.0,10.83.46.32,1,0
2015-03-01 20:03:52.109,100,1425269029.924163,37.76573819582102,-122.4603423879355,81.76209,-1,-1,10,65,-9999,1425269032.036876,-38.10818481445312,-9.94970703125,-13.12776184082031,109.3329391479492,95.55587768554688,10,196153.3601582917,-0.714874267578125,0.036346435546875,-0.80511474609375,196153.3406874583,-1.495250702468728,0.2303682279818162,1.365638913272315,196153.3406874583,-2.837254650443933,-0.7216281048474368,0.1242517782659166,-1.515336990356445,0.2504298090934753,1.397480130195618,0.03411605209112167,0.1015934497117996,-0.05808073654770851,XTrueNorthZVertical,0.3394781639359273,0.1108277848260195,0.9263367811313717,-0.1198831042193186,-0.6555149555206299,-0.1239323168992996,-0.7449435591697693,-40.17698287963867,-6.738459587097168,-15.88640594482422,2,0.0.0.0,10.83.46.32,1,0
2015-03-01 20:03:52.136,101,1425269029.924163,37.76573819582102,-122.4603423879355,81.76209,-1,-1,10,65,-9999,1425269032.115057,-39.62580108642578,-3.33935546875,-14.44245910644531,104.9731597900391,91.19609832763672,10,196153.409300375,-0.7084197998046875,0.069061279296875,-0.7844085693359375,196153.3924589167,-1.241177677624116,0.03613163914132304,1.169480321073112,196153.3924589167,-2.834008208786172,-0.7205285816693151,0.03104966050211687,-1.261188268661499,0.0560624748468399,1.201420545578003,-0.03615371882915497,0.07045812159776688,0.0271263774484396,XTrueNorthZVertical,0.3460934335577365,0.06835124905658081,0.9254855455086622,-0.1379273703366992,-0.6594639420509338,-0.03104467131197453,-0.7510948777198792,-40.38573455810547,-3.2197425365448,-16.44993782043457,2,0.0.0.0,10.83.46.32,1,0
2015-03-01 20:03:52.217,102,1425269029.924163,37.76573819582102,-122.4603423879355,81.76209,-1,-1,10,65,-9999,1425269032.189938,-39.43822479248047,2.45538330078125,-15.19132232666016,100.9853668212891,87.20830535888672,10,196153.4582528333,-0.741668701171875,0.1792449951171875,-0.7963714599609375,196153.4442275417,-1.058466717349268,0.07247393432487134,1.069154781752083,196153.4442275417,-2.829865040662288,-0.711023807670498,-0.05130413034213707,-1.078477025032043,0.09240458905696869,1.101094603538513,-0.01379143819212914,0.07174999266862869,-0.03451681137084961,XTrueNorthZVertical,0.3474704478220156,0.03026051156693136,0.9244136978757962,-0.1542981430300197,-0.6517511606216431,0.05128162726759911,-0.7566971778869629,-40.33938598632812,0.8522188663482666,-16.85177993774414,2,0.0.0.0,10.83.46.32,3,0
2015-03-01 20:03:52.233,103,1425269029.924163,37.76573819582102,-122.4603423879355,81.76209,-1,-1,10,65,-9999,1425269032.189938,-39.43822479248047,2.45538330078125,-15.19132232666016,100.9853668212891,87.20830535888672,10,196153.5073881667,-0.6799163818359375,0.2454833984375,-0.79364013671875,196153.49599875,-0.8380741581786706,0.1653783089522856,0.8951643424666992,196153.4442275417,-2.829865040662288,-0.711023807670498,-0.05130413034213707,-1.078477025032043,0.09240458905696869,1.101094603538513,-0.01379143819212914,0.07174999266862869,-0.03451681137084961,XTrueNorthZVertical,0.3474704478220156,0.03026051156693136,0.9244136978757962,-0.1542981430300197,-0.6517511606216431,0.05128162726759911,-0.7566971778869629,-40.33938598632812,0.8522188663482666,-16.85177993774414,2,0.0.0.0,10.83.46.32,3,0
2015-03-01 20:03:52.310,104,1425269029.924163,37.76573819582102,-122.4603423879355,81.76209,-1,-1,10,65,-9999,1425269032.29271,-39.62580871582031,8.41998291015625,-15.60736846923828,96.27995300292969,82.50289154052734,10,196153.5563627083,-0.6140289306640625,0.2569122314453125,-0.82611083984375,196153.54777025,-0.5944905259195541,0.06969439309515565,0.6011260580915956,196153.54777025,-2.815367139217788,-0.6940277017120512,-0.171877338266789,-0.6145005226135254,0.08962462842464447,0.6330652832984924,0.03301507234573364,0.05600319802761078,-0.05508909747004509,XTrueNorthZVertical,0.3474461792768736,-0.02462151312960193,0.9197454985909805,-0.180950722163743,-0.6302135586738586,0.1710323244333267,-0.7573498487472534,-39.81745147705078,5.719826221466064,-17.14143753051758,2,0.0.0.0,10.83.46.32,3,0
2015-03-01 20:03:52.332,105,1425269029.924163,37.76573819582102,-122.4603423879355,81.76209,-1,-1,10,65,-9999,1425269032.29271,-39.62580871582031,8.41998291015625,-15.60736846923828,96.27995300292969,82.50289154052734,10,196153.6054771667,-0.623046875,0.3339080810546875,-0.9174957275390625,196153.54777025,-0.5944905259195541,0.06969439309515565,0.6011260580915956,196153.54777025,-2.815367139217788,-0.6940277017120512,-0.171877338266789,-0.6145005226135254,0.08962462842464447,0.6330652832984924,0.03301507234573364,0.05600319802761078,-0.05508909747004509,XTrueNorthZVertical,0.3474461792768736,-0.02462151312960193,0.9197454985909805,-0.180950722163743,-0.6302135586738586,0.1710323244333267,-0.7573498487472534,-39.81745147705078,5.719826221466064,-17.14143753051758,2,0.0.0.0,10.83.46.32,3,0
2015-03-01 20:03:52.411,106,1425269029.924163,37.76573819582102,-122.4603423879355,81.76209,-1,-1,10,65,-9999,1425269032.397343,-39.21656036376953,10.86700439453125,-15.04155731201172,94.49727630615234,80.72021484375,10,196153.654479875,-0.7925262451171875,0.531158447265625,-0.8676910400390625,196153.6513099583,0.2362231876383555,-0.09164576469624278,-0.2378597001282091,196153.5995387917,-2.812948110209214,-0.688036641721702,-0.2069150970233826,-0.3550010919570923,-0.00715750502422452,0.2448386549949646,-0.007613062858581543,0.1164271160960197,-0.1554520428180695,XTrueNorthZVertical,0.346854280755969,-0.04103504088389778,0.9180620567688439,-0.1875374781080204,-0.6214762926101685,0.2054417878389359,-0.7560164928436279,-39.44834899902344,7.674932479858398,-17.23072052001953,2,0.0.0.0,10.83.46.32,3,0
2015-03-01 20:03:52.430,107,1425269029.924163,37.76573819582102,-122.4603423879355,81.76209,-1,-1,10,65,-9999,1425269032.397343,-39.21656036376953,10.86700439453125,-15.04155731201172,94.49727630615234,80.72021484375,10,196153.7035802917,-0.6842803955078125,0.3528900146484375,-0.8946533203125,196153.7030813333,0.9547725455653978,0.2405050180389849,-0.799202126275656,196153.6513099583,-2.813556979539284,-0.693418575264633,-0.2108506219940942,0.216213583946228,-0.07171590626239777,-0.205921083688736,-0.1584480404853821,0.3048226237297058,-0.1439781934022903,XTrueNorthZVertical,0.3495429060890247,-0.04246384820546258,0.9168835127412981,-0.187992592658437,-0.6250144839286804,0.2092917561531067,-0.7520331740379333,-39.45988464355469,8.104318618774414,-17.00624847412109,2,0.0.0.0,10.83.46.32,3,0
2015-03-01 20:03:52.510,108,1425269029.924163,37.76573819582102,-122.4603423879355,81.76209,-1,-1,10,65,-9999,1425269032.501761,-38.77320861816406,8.182037353515625,-15.87362670898438,94.99282073974609,81.21575927734375,10,196153.7525880834,-0.757049560546875,0.229461669921875,-0.8898162841796875,196153.7548499167,1.563109644940601,0.3548465078609919,-1.007456263513781,196153.7030813333,-2.815090210076217,-0.6868662413265337,-0.1701184165087595,0.9347631335258484,0.2604346573352814,-0.7672638297080994,-0.09212328493595123,0.2073488980531693,-0.1599677503108978,XTrueNorthZVertical,0.3440449484189491,-0.02440341772322977,0.9210763883694374,-0.1807092855721103,-0.6249635219573975,0.1692990511655807,-0.7620750665664673,-39.56052398681641,7.227554321289062,-17.16689300537109,2,0.0.0.0,10.83.46.32,3,0
2015-03-01 20:03:52.529,109,1425269029.924163,37.76573819582102,-122.4603423879355,81.76209,-1,-1,10,65,-9999,1425269032.501761,-38.77320861816406,8.182037353515625,-15.87362670898438,94.99282073974609,81.21575927734375,10,196153.8016212917,-0.5900115966796875,0.192962646484375,-0.8918914794921875,196153.7548499167,1.563109644940601,0.3548465078609919,-1.007456263513781,196153.7548499167,-2.811450800555616,-0.6649449683474665,-0.09376373170658869,1.543100476264954,0.3747759461402893,-0.9755183458328247,-0.1427440345287323,0.1358352601528168,-0.1063222959637642,XTrueNorthZVertical,0.3288699742246267,0.009876623342749429,0.928851464922934,-0.1702408908229711,-0.6143054962158203,0.09362640231847763,-0.7834939956665039,-39.45050048828125,4.152921199798584,-18.39527130126953,2,0.0.0.0,10.83.46.32,3,0
2015-03-01 20:03:52.614,110,1425269029.924163,37.76573819582102,-122.4603423879355,81.76209,-1,-1,10,65,-9999,1425269032.605071,-38.51744079589844,0.04229736328125,-17.05516815185547,99.60935974121094,85.83229827880859,10,196153.850687625,-0.658233642578125,-0.06744384765625,-0.75665283203125,196153.8583926667,1.953251026728413,-0.2378226821890571,-1.607246213686484,196153.80662125,-2.806227176326588,-0.6580215392591664,0.01027226473535169,1.792161583900452,-0.01930338144302368,-1.331756949424744,0.02150882408022881,0.2032347321510315,-0.1007295101881027,XTrueNorthZVertical,0.317759737078631,0.05871766365327496,0.9333535746652166,-0.1563077175296278,-0.6115204095840454,-0.01027208380401134,-0.7911619544029236,-39.38478851318359,0.8030229806900024,-18.97810363769531,2,0.0.0.0,10.83.46.32,3,0
2015-03-01 20:03:52.626,111,1425269029.924163,37.76573819582102,-122.4603423879355,81.76209,-1,-1,10,65,-9999,1425269032.605071,-38.51744079589844,0.04229736328125,-17.05516815185547,99.60935974121094,85.83229827880859,10,196153.899715,-0.5556182861328125,-0.1575775146484375,-0.7044677734375,196153.8583926667,1.953251026728413,-0.2378226821890571,-1.607246213686484,196153.8583926667,-2.806668700606834,-0.6695988532107079,0.1309330923090187,1.933242201805115,-0.2178936153650284,-1.575308799743652,-0.0428747683763504,0.06311545521020889,0.02070662751793861,XTrueNorthZVertical,0.3129904495569504,0.1155735643146551,0.9328519164553246,-0.1358935028476808,-0.6153588891029358,-0.1305593103170395,-0.7773594856262207,-39.41658782958984,-3.241446733474731,-18.6494140625,2,0.0.0.0,10.83.46.32,3,0
2015-03-01 20:03:52.713,112,1425269029.924163,37.76573819582102,-122.4603423879355,81.76209,-1,-1,10,65,-9999,1425269032.657288,-38.07408905029297,-5.395538330078125,-16.05667114257812,104.3982315063477,90.62117004394531,10,196153.9487795834,-0.60052490234375,-0.343780517578125,-0.6417236328125,196153.9101613333,1.981925282185296,-0.7123668294564234,-1.654032095084778,196153.9101613333,-2.806943975488321,-0.691705255832803,0.2569743548907905,1.96191668510437,-0.692438006401062,-1.622095108032227,0.0479978583753109,0.05460098385810852,0.09414369612932205,XTrueNorthZVertical,0.3114326557089217,0.174856213054724,0.9272351790675661,-0.1125608317605556,-0.6169065237045288,-0.2541554272174835,-0.7448700070381165,-39.20137023925781,-9.053342819213867,-17.12496185302734,2,0.0.0.0,10.83.46.32,3,0
2015-03-01 20:03:52.723,113,1425269029.924163,37.76573819582102,-122.4603423879355,81.76209,-1,-1,10,65,-9999,1425269032.708139,-37.46023559570312,-10.32357788085938,-14.29265594482422,106.9143447875977,93.13728332519531,10,196153.99785625,-0.5328369140625,-0.4597320556640625,-0.578521728515625,196153.961932625,1.902911156855408,-0.6450533023757986,-1.65314313191291,196153.961932625,-2.807152698867037,-0.7237379578549837,0.3828000471186758,1.88290274143219,-0.6251246929168701,-1.621206521987915,0.0258988905698061,-4.635713048628531e-05,0.06775075942277908,XTrueNorthZVertical,0.3130977247862212,0.2332798924039784,0.9165605474941375,-0.08641227773740737,-0.6142625212669373,-0.3735193312168121,-0.6951006054878235,-38.85067749023438,-13.33213424682617,-14.99512386322021,2,0.0.0.0,10.83.46.32,3,0
2015-03-01 20:03:52.782,114,1425269029.924163,37.76573819582102,-122.4603423879355,81.76209,-1,-1,10,65,-9999,1425269032.760349,-36.45417022705078,-15.43853759765625,-11.61334991455078,112.7066802978516,98.92961883544922,10,196154.04690125,-0.5035400390625,-0.6023406982421875,-0.5026397705078125,196154.013704125,1.777447241056794,-0.8115767705968182,-1.629142724169116,196154.013704125,-2.80542345794359,-0.7602701046356024,0.5043732563396008,1.757439017295837,-0.7916483283042908,-1.597206354141235,0.09450230747461319,-0.01384199503809214,0.07164005190134048,XTrueNorthZVertical,0.3154819208998768,0.2885546801828611,0.9020574389083638,-0.05915862974083706,-0.6033066511154175,-0.483258843421936,-0.6344147324562073,-38.13980484008789,-17.30218505859375,-12.56838798522949,2,0.0.0.0,10.83.46.32,3,0
2015-03-01 20:03:52.822,115,1425269029.924163,37.76573819582102,-122.4603423879355,81.76209,-1,-1,10,65,-9999,1425269032.812171,-34.88540649414062,-19.85678100585938,-8.884124755859375,116.3619155883789,102.5848541259766,10,196154.09594525,-0.4886932373046875,-0.6566619873046875,-0.498077392578125,196154.0654725417,1.62657250740108,-1.048096101748391,-1.687730936570314,196154.0654725417,-2.803634567788941,-0.8076868818963436,0.6205523768991822,1.606564998626709,-1.028167843818665,-1.655795454978943,0.06176599115133286,-0.05264011770486832,0.1092135608196259,XTrueNorthZVertical,0.3216447366348008,0.3396919788831539,0.8833534864828048,-0.02899402057475222,-0.5879500508308411,-0.5814846158027649,-0.5623080730438232,-36.78268814086914,-22.01504516601562,-8.622437477111816,2,0.0.0.0,10.83.46.32,3,0
2015-03-01 20:03:52.882,116,1425269029.924163,37.76573819582102,-122.4603423879355,81.76209,-1,-1,10,65,-9999,1425269032.864109,-32.95854949951172,-23.51033020019531,-5.605720520019531,120.5075149536133,106.7304534912109,10,196154.1449935,-0.532501220703125,-0.7674102783203125,-0.267425537109375,196154.1172440833,1.450047537706268,-1.301180827512474,-1.679801907056821,196154.1172440833,-2.801656765841451,-0.8644840769091531,0.7310626516040094,1.430040240287781,-1.28125274181366,-1.647867560386658,0.1036980897188187,-0.02365357801318169,0.04929868131875992,XTrueNorthZVertical,0.3306931296055735,0.3860710823191112,0.8611469721481135,0.004132580501004666,-0.56635981798172,-0.6676611304283142,-0.4831823408603668,-35.38435363769531,-25.14511871337891,-5.257872581481934,2,0.0.0.0,10.83.46.32,3,0
2015-03-01 20:03:52.920,117,1425269029.924163,37.76573819582102,-122.4603423879355,81.76209,-1,-1,10,65,-9999,1425269032.864109,-32.95854949951172,-23.51033020019531,-5.605720520019531,120.5075149536133,106.7304534912109,10,196154.1940395417,-0.377532958984375,-0.7479248046875,-0.2923736572265625,196154.169015375,1.173334181486566,-0.642650598440329,-1.716724238725788,196154.169015375,-2.805274976949572,-0.9149712950079437,0.8362119349308035,1.153327703475952,-0.6227227449417114,-1.684790968894958,-0.07962893694639206,-0.07173338532447815,0.1615220457315445,XTrueNorthZVertical,0.3369844165561274,0.4266954787512909,0.8383347509466822,0.03958950870543188,-0.5312261581420898,-0.7421094179153442,-0.4087449312210083,-33.59695816040039,-27.93632888793945,-1.667570114135742,2,0.0.0.0,10.83.46.32,3,0
2015-03-01 20:03:52.982,118,1425269029.924163,37.76573819582102,-122.4603423879355,81.76209,-1,-1,10,65,-9999,1425269032.971442,-28.71266174316406,-29.47494506835938,0.8013153076171875,130.7914276123047,117.0143661499023,10,196154.243117875,-0.3861083984375,-0.891815185546875,-0.1552276611328125,196154.2207840834,1.24906622708904,-1.163821902705021,-1.59606120342426,196154.2207840834,-2.806495597285573,-0.9549289910089046,0.938148514228125,1.22906231880188,-1.143894672393799,-1.564128875732422,0.1311460733413696,0.04521900415420532,0.04232394322752953,XTrueNorthZVertical,0.3371967556849071,0.464237353184636,0.8157790320826378,0.07270908547664896,-0.4826475381851196,-0.8064647316932678,-0.3415640592575073,-30.63348007202148,-31.14480590820312,1.888310432434082,2,0.0.0.0,10.83.46.32,3,0
2015-03-01 20:03:53.018,119,1425269029.924163,37.76573819582102,-122.4603423879355,81.76209,-1,-1,10,65,-9999,1425269032.971442,-28.71266174316406,-29.47494506835938,0.8013153076171875,130.7914276123047,117.0143661499023,10,196154.292155,-0.4166107177734375,-0.8183441162109375,-0.1476898193359375,196154.272555375,1.179177156918199,-0.9774072843021993,-1.544374040355784,196154.272555375,-2.792665184748355,-1.023915036357127,1.037102045667848,1.159176230430603,-0.9574805498123169,-1.512444615364075,0.03611418977379799,-0.02644127234816551,0.167408749461174,XTrueNorthZVertical,0.3440247144442226,0.4993734995859285,0.7878312081728734,0.1076805628912825,-0.4345211684703827,-0.8609336018562317,-0.2645462155342102,-28.16160011291504,-33.03899383544922,5.22722053527832,2,0.0.0.0,10.83.46.32,3,0
2015-03-01 20:03:53.082,120,1425269029.924163,37.76573819582102,-122.4603423879355,81.76209,-1,-1,10,65,-9999,1425269033.024334,-25.89910888671875,-31.87100219726562,4.246131896972656,137.2485198974609,123.4714508056641,10,196154.341219625,-0.244873046875,-0.867401123046875,-0.106597900390625,196154.3243269583,1.214567638328154,-0.9464919787880144,-1.603932176025989,196154.3243269583,-2.760042468843294,-1.097268681065001,1.131769190465589,1.194568157196045,-0.9265656471252441,-1.572003722190857,0.05907389521598816,0.008406583219766617,0.1181555092334747,XTrueNorthZVertical,0.3454917646894662,0.5326498763088362,0.7601852926062302,0.1379778356764572,-0.3782877624034882,-0.9051656126976013,-0.1938391029834747,-25.62134552001953,-34.48567962646484,8.139978408813477,2,0.0.0.0,10.83.46.32,3,0
2015-03-01 20:03:53.116,121,1425269029.924163,37.76573819582102,-122.4603423879355,81.76209,-1,-1,10,65,-9999,1425269033.09666,-21.05638122558594,-34.45394897460938,8.805946350097656,146.1373901367188,132.3603210449219,10,196154.3902524583,-0.2978668212890625,-0.95306396484375,0.037017822265625,196154.3760953333,1.135642995210892,-0.8885011134193209,-1.548986635363802,196154.3243269583,-2.760042468843294,-1.097268681065001,1.131769190465589,1.194568157196045,-0.9265656471252441,-1.572003722190857,0.05907389521598816,0.008406583219766617,0.1181555092334747,XTrueNorthZVertical,0.3454917646894662,0.5326498763088362,0.7601852926062302,0.1379778356764572,-0.3782877624034882,-0.9051656126976013,-0.1938391029834747,-25.62134552001953,-34.48567962646484,8.139978408813477,2,0.0.0.0,10.83.46.32,3,0
2015-03-01 20:03:53.182,122,1425269029.924163,37.76573819582102,-122.4603423879355,81.76209,-1,-1,10,65,-9999,1425269033.149257,-17.78242492675781,-35.74545288085938,11.26891326904297,152.3292846679688,138.5522155761719,10,196154.439314125,-0.2493133544921875,-0.8695831298828125,-0.019866943359375,196154.4278669167,0.7510873274934124,0.1634879972105473,-1.267827930652539,196154.4278669167,-2.634597481765534,-1.278177225082335,1.307005236973281,0.7311572432518005,0.1832898408174515,-1.235805869102478,-0.05887403339147568,0.02999887429177761,0.05757484957575798,XTrueNorthZVertical,0.3360519521253817,0.5911531779648127,0.7078421938886668,0.1912235514745554,-0.2496586889028549,-0.9654084444046021,-0.07521401345729828,-19.05597305297852,-36.72220993041992,14.15358352661133,2,0.0.0.0,10.83.46.32,3,0
2015-03-01 20:03:53.215,123,1425269029.924163,37.76573819582102,-122.4603423879355,81.76209,-1,-1,10,65,-9999,1425269033.203857,-14.96887969970703,-36.51016235351562,13.31583404541016,156.3931121826172,142.6160430908203,10,196154.4883494583,-0.1366729736328125,-1.032272338867188,-0.1572113037109375,196154.4796382083,0.3031018205129703,0.1739867108598577,-0.6813716291095362,196154.4278669167,-2.634597481765534,-1.278177225082335,1.307005236973281,0.7311572432518005,0.1832898408174515,-1.235805869102478,-0.05887403339147568,0.02999887429177761,0.05757484957575798,XTrueNorthZVertical,0.3360519521253817,0.5911531779648127,0.7078421938886668,0.1912235514745554,-0.2496586889028549,-0.9654084444046021,-0.07521401345729828,-19.05597305297852,-36.72220993041992,14.15358352661133,2,0.0.0.0,10.83.46.32,1,0
2015-03-01 20:03:53.285,124,1425269029.924163,37.76573819582102,-122.4603423879355,81.76209,-1,-1,10,65,-9999,1425269033.278096,-13.14433288574219,-37.0709228515625,14.49739074707031,159.8344879150391,146.0574188232422,10,196154.5374347084,-0.1809844970703125,-0.942108154296875,-0.008026123046875,196154.5314069167,-0.2817243601267952,-0.09622826598394212,0.2659243580115732,196154.4796382083,-2.591855016970086,-1.300907146832934,1.35946945150904,0.2831719517707825,0.1937883198261261,-0.6493499279022217,0.08796758949756622,-0.02686996012926102,-0.08739928901195526,XTrueNorthZVertical,0.3175045932556694,0.6092844785159753,0.6990113900948453,0.1983591350343614,-0.2021643668413162,-0.9777534604072571,-0.05592651665210724,-17.34171295166016,-37.23683166503906,14.98860359191895,2,0.0.0.0,10.83.46.32,1,0
2015-03-01 20:03:53.323,125,1425269029.924163,37.76573819582102,-122.4603423879355,81.76209,-1,-1,10,65,-9999,1425269033.278096,-13.14433288574219,-37.0709228515625,14.49739074707031,159.8344879150391,146.0574188232422,10,196154.5864747917,-0.2581939697265625,-0.9029388427734375,-0.2293548583984375,196154.5831782084,-0.8099090991222105,0.1816534190059778,0.924060439242386,196154.5314069167,-2.605475314721541,-1.294137898788285,1.364446813025606,-0.3016540110111237,-0.07642684131860733,0.2979457378387451,-0.0004126555868424475,0.02418027445673943,0.008783559314906597,XTrueNorthZVertical,0.3179640186966871,0.6090295684556885,0.6978323281499101,0.2025140039173764,-0.1970971077680588,-0.9787853956222534,-0.05596373602747917,-16.46829986572266,-37.50985336303711,15.28989028930664,2,0.0.0.0,10.83.46.32,1,0
2015-03-01 20:03:53.371,126,1425269029.924163,37.76573819582102,-122.4603423879355,81.76209,-1,-1,10,65,-9999,1425269033.330771,-13.79229736328125,-36.96896362304688,13.76515960693359,158.9970550537109,145.2199859619141,10,196154.6355459584,-0.2332763671875,-0.731597900390625,0.0510101318359375,196154.6349497917,-1.408344565564499,1.750180466236018,2.084282547101946,196154.5831782084,-2.688914370599042,-1.20202030879147,1.328157483783928,-0.8298385739326477,0.2014546543359756,0.9560815095901489,0.03543692827224731,0.05183831602334976,-0.08042865991592407,XTrueNorthZVertical,0.3198707829899863,0.5952965890695677,0.7111366510483362,0.1938796771198772,-0.2241118550300598,-0.9707073569297791,-0.08660930395126343,-17.26062393188477,-37.49550247192383,14.4268045425415,2,0.0.0.0,10.83.46.32,1,0
2015-03-01 20:03:53.414,127,1425269029.924163,37.76573819582102,-122.4603423879355,81.76209,-1,-1,10,65,-9999,1425269033.382101,-16.26481628417969,-36.13627624511719,11.88465118408203,154.9224700927734,141.1454010009766,10,196154.6845885417,-0.051910400390625,-0.9209747314453125,-0.1660919189453125,196154.6349497917,-1.408344565564499,1.750180466236018,2.084282547101946,196154.6349497917,-2.753579431915178,-1.11386286774938,1.224857340767,-1.428273797035217,1.769981503486633,2.116303443908691,0.1052887365221977,0.1626965701580048,0.2539259493350983,XTrueNorthZVertical,0.3303223543481408,0.5622155677343184,0.7401513929642638,0.1642459300591001,-0.3042938709259033,-0.9407574534416199,-0.1496015936136246,-19.49148368835449,-37.01295852661133,12.73175239562988,2,0.0.0.0,10.83.46.32,1,0
2015-03-01 20:03:53.471,128,1425269029.924163,37.76573819582102,-122.4603423879355,81.76209,-1,-1,10,65,-9999,1425269033.436217,-20.27198791503906,-34.82778930664062,8.240135192871094,147.8032379150391,134.0261688232422,10,196154.7337984584,-0.0043182373046875,-0.864776611328125,-0.2746734619140625,196154.7384897917,-1.903199310885355,0.532071089974168,2.062100279434349,196154.68671825,-2.819540490597428,-0.9621713872673709,1.107987308883706,-1.869079232215881,1.746917247772217,2.050400018692017,0.3143837749958038,-0.0261728260666132,0.08916900306940079,XTrueNorthZVertical,0.313664638043618,0.5234348434329994,0.7831790271575177,0.1194197779879069,-0.3662941753864288,-0.894801914691925,-0.2552609145641327,-24.43887329101562,-35.5176887512207,7.294523239135742,2,0.0.0.0,10.83.46.32,1,0
2015-03-01 20:03:53.517,129,1425269029.924163,37.76573819582102,-122.4603423879355,81.76209,-1,-1,10,65,-9999,1425269033.492581,-24.41558074951172,-33.04350280761719,4.196212768554688,140.7611541748047,126.9840927124023,10,196154.78271475,-0.4057159423828125,-0.8632965087890625,-0.1764373779296875,196154.7384897917,-1.903199310885355,0.532071089974168,2.062100279434349,196154.7384897917,-2.839230213606767,-0.8822809220562146,0.9664115661452188,-1.923128128051758,0.5518718957901001,2.094119071960449,0.4344834089279175,-0.04192474484443665,0.08639153093099594,XTrueNorthZVertical,0.3104989937730773,0.4722900354574414,0.8214798135585895,0.07552102768170042,-0.438801646232605,-0.8228518962860107,-0.361065000295639,-28.08143043518066,-33.41921234130859,2.562091827392578,2,0.0.0.0,10.83.46.32,1,0
2015-03-01 20:03:53.567,130,1425269029.924163,37.76573819582102,-122.4603423879355,81.76209,-1,-1,10,65,-9999,1425269033.563968,-29.82099914550781,-28.370361328125,-1.145759582519531,131.3199157714844,117.542854309082,10,196154.8317899167,-0.48162841796875,-0.6807098388671875,-0.44818115234375,196154.7902610833,-1.926305162818991,0.3167222915920716,2.286533120294706,196154.7902610833,-2.840929415252492,-0.8706129754813094,0.8190264574745995,-1.946233868598938,0.3365229070186615,2.318551778793335,0.1165391206741333,-0.1328151971101761,0.2636156976222992,XTrueNorthZVertical,0.3283880400519321,0.414891253847377,0.8475314550280362,0.041436551530043,-0.5222550630569458,-0.7304813265800476,-0.4400530755519867,-31.22591400146484,-30.60211372375488,-0.6540336608886719,2,0.0.0.0,10.83.46.32,1,0
2015-03-01 20:03:53.614,131,1425269029.924163,37.76573819582102,-122.4603423879355,81.76209,-1,-1,10,65,-9999,1425269033.563968,-29.82099914550781,-28.370361328125,-1.145759582519531,131.3199157714844,117.542854309082,10,196154.8808310417,-0.50225830078125,-0.6173553466796875,-0.5037078857421875,196154.8420297917,-2.0206551012861,0.6853200317416877,2.325102617097888,196154.8420297917,-2.837926491040239,-0.8426797633692017,0.6651108141653649,-2.040583610534668,0.7051204442977905,2.357120752334595,0.1058354526758194,-0.007746858056634665,0.02719060517847538,XTrueNorthZVertical,0.3370697434239199,0.3529503702878645,0.8728159744941711,0.001520290242927246,-0.5873265266418457,-0.6171463131904602,-0.523620069026947,-35.09175872802734,-25.62693786621094,-4.878849983215332,2,0.0.0.0,10.83.46.32,1,0
2015-03-01 20:03:53.666,132,1425269029.924163,37.76573819582102,-122.4603423879355,81.76209,-1,-1,10,65,-9999,1425269033.615227,-32.99263763427734,-24.02009582519531,-4.773635864257812,126.0609893798828,112.2839279174805,10,196154.9300136667,-0.74639892578125,-0.3830108642578125,-0.5962066650390625,196154.89380125,-2.085381101051604,0.4023253437749246,2.090167067846586,196154.89380125,-2.841451603867689,-0.8113525565862963,0.5154219931977712,-2.105309247970581,0.422125518321991,2.122184991836548,0.1361138075590134,-0.1083400025963783,0.05811460316181183,XTrueNorthZVertical,0.3423065368220951,0.2886029092994951,0.8935435006881947,-0.03338593122047401,-0.6310021281242371,-0.4929020702838898,-0.5990691781044006,-37.25628280639648,-21.39137649536133,-8.145750045776367,2,0.0.0.0,10.83.46.32,1,0
2015-03-01 20:03:53.709,133,1425269029.924163,37.76573819582102,-122.4603423879355,81.76209,-1,-1,10,65,-9999,1425269033.670272,-35.94261169433594,-19.2449951171875,-8.052040100097656,121.2273025512695,107.4502410888672,10,196154.978953375,-0.7814483642578125,-0.214080810546875,-0.6827239990234375,196154.9455726667,-1.642141080817574,0.208077835973962,1.946267153085789,196154.9455726667,-2.837814102953831,-0.7983054921343008,0.3759992854805116,-1.662069201469421,0.2278778553009033,1.97828483581543,-0.07712751626968384,-0.001160237938165665,0.09632410854101181,XTrueNorthZVertical,0.351339233993016,0.227987047854094,0.9057246587002025,-0.06515753005768571,-0.6661433577537537,-0.3672021925449371,-0.6491652727127075,-38.91886901855469,-16.9230785369873,-10.53118896484375,2,0.0.0.0,10.83.46.32,1,0
2015-03-01 20:03:53.764,134,1425269029.924163,37.76573819582102,-122.4603423879355,81.76209,-1,-1,10,65,-9999,1425269033.745452,-38.73912048339844,-11.8359375,-11.34708404541016,113.1529006958008,99.37583923339844,10,196155.0280387917,-0.64324951171875,-0.2164154052734375,-0.69873046875,196154.9973412083,-1.452504037495757,0.6970752247932974,1.643681453192076,196154.9973412083,-2.827259439198182,-0.7735275491704563,0.2538323026663138,-1.472431898117065,0.7168750762939453,1.675698757171631,-0.06900880485773087,0.03044269233942032,-0.01015698723495007,XTrueNorthZVertical,0.3511995356054131,0.1743448660879167,0.9148354323965157,-0.09663797350963699,-0.6762762069702148,-0.2511152923107147,-0.6925255060195923,-40.25286102294922,-11.16637802124023,-12.9226188659668,2,0.0.0.0,10.83.46.32,1,0
2015-03-01 20:03:53.812,135,1425269029.924163,37.76573819582102,-122.4603423879355,81.76209,-1,-1,10,65,-9999,1425269033.797013,-39.43824768066406,-7.06085205078125,-12.89475250244141,109.3460388183594,95.56897735595703,10,196155.0770774584,-0.6858673095703125,-0.063751220703125,-0.791229248046875,196155.0491125,-1.38273747273506,0.3259631942585375,1.546505634492284,196155.0491125,-2.817913512563055,-0.7521696270102677,0.1469473839572658,-1.402665138244629,0.3457628190517426,1.578522562980652,0.04614632949233055,0.03861575946211815,0.006350377574563026,XTrueNorthZVertical,0.3505025614859076,0.1264068269957357,0.9198233229639546,-0.1228590063653314,-0.6758612990379333,-0.1464191079139709,-0.7223385572433472,-40.58824157714844,-7.301713943481445,-14.53459548950195,2,0.0.0.0,10.83.46.32,1,0
2015-03-01 20:03:53.862,136,1425269029.924163,37.76573819582102,-122.4603423879355,81.76209,-1,-1,10,65,-9999,1425269033.849197,-39.79634094238281,-2.489654541015625,-13.71019744873047,105.1034545898438,91.32639312744141,10,196155.126286875,-0.7452392578125,0.0813140869140625,-0.707305908203125,196155.1008841667,-1.166029396932587,0.02417031742134115,1.430191008618637,196155.1008841667,-2.806000819661492,-0.7478770194056498,0.04802632791320491,-1.185956835746765,0.04396972432732582,1.462207674980164,-0.06577171385288239,0.06531133502721786,-0.03023847378790379,XTrueNorthZVertical,0.3563175038505161,0.08302614248905366,0.9190219101352768,-0.1467761466903681,-0.6792997121810913,-0.04800786823034286,-0.7322890162467957,-40.81610107421875,-3.523507833480835,-15.28415870666504,2,0.0.0.0,10.83.46.32,1,0
2015-03-01 20:03:53.917,137,1425269029.924163,37.76573819582102,-122.4603423879355,81.76209,-1,-1,10,65,-9999,1425269033.905365,-39.84750366210938,1.571746826171875,-14.25936889648438,101.9799957275391,88.20293426513672,10,196155.1751957083,-0.70587158203125,0.1280364990234375,-0.765411376953125,196155.1526525417,-0.9569403586927223,0.351994262333517,1.19524613830352,196155.1526525417,-2.795531853987515,-0.7349304524225495,-0.03535403808300702,-0.9768676161766052,0.3717934787273407,1.227262496948242,-0.07182680815458298,0.09626038372516632,-0.04098060727119446,XTrueNorthZVertical,0.356671343698637,0.04559223846491957,0.9180684748568684,-0.166904728161879,-0.6701165437698364,0.03534667193889618,-0.7414137721061707,-40.77454376220703,0.8706543445587158,-15.76874160766602,2,0.0.0.0,10.83.46.32,3,0
2015-03-01 20:03:53.960,138,1425269029.924163,37.76573819582102,-122.4603423879355,81.76209,-1,-1,10,65,-9999,1425269033.905365,-39.84750366210938,1.571746826171875,-14.25936889648438,101.9799957275391,88.20293426513672,10,196155.224392875,-0.66119384765625,0.1958465576171875,-0.8071441650390625,196155.204424125,-0.7318262812255234,0.2752922934620359,1.01574348819389,196155.204424125,-2.78099488970396,-0.7202603540998099,-0.1031144827260506,-0.7517533302307129,0.295091301202774,1.047759532928467,-0.04980987310409546,0.09419644623994827,-0.01020135637372732,XTrueNorthZVertical,0.3548716163974094,0.01566222520154465,0.9162009587695928,-0.1854633283421428,-0.656076967716217,0.1029318496584892,-0.7476416826248169,-40.43904876708984,3.617244482040405,-16.23495101928711,2,0.0.0.0,10.83.46.32,3,0
2015-03-01 20:03:54.019,139,1425269029.924163,37.76573819582102,-122.4603423879355,81.76209,-1,-1,10,65,-9999,1425269033.97836,-39.83045959472656,6.414825439453125,-14.44242095947266,97.80841827392578,84.03135681152344,10,196155.2733353333,-0.7010498046875,0.3117828369140625,-0.9091033935546875,196155.2561954167,-0.5588968453184271,0.07726815691923199,0.6400138026450416,196155.2561954167,-2.772300861899554,-0.7075124261911848,-0.153858579688913,-0.5788236856460571,0.0970669686794281,0.6720295548439026,0.01810677163302898,0.1081918329000473,-0.1032903864979744,XTrueNorthZVertical,0.3527643929044835,-0.007454233281405436,0.9145166174238073,-0.1978916026350679,-0.6422675251960754,0.1532522588968277,-0.7510034441947937,-40.03634643554688,5.832758903503418,-16.58446884155273,2,0.0.0.0,10.83.46.32,3,0
2015-03-01 20:03:54.058,140,1425269029.924163,37.76573819582102,-122.4603423879355,81.76209,-1,-1,10,65,-9999,1425269034.030229,-39.55763244628906,8.589935302734375,-14.87509918212891,95.61083984375,81.83377838134766,10,196155.3224136667,-0.694976806640625,0.3885498046875,-0.8610382080078125,196155.307964,-0.1654161258397647,0.1455587978038069,0.08224640394491711,196155.307964,-2.770967364658658,-0.7047559696693451,-0.1788192667376574,-0.1853427886962891,0.1653574109077454,0.1142618134617805,-0.1650794148445129,0.1179390922188759,-0.1134448349475861,XTrueNorthZVertical,0.3533078014279738,-0.01903159454359747,0.9131224862508835,-0.2025308208522965,-0.6375176310539246,0.1778677850961685,-0.7496227622032166,-39.77259826660156,7.481741428375244,-16.5571403503418,2,0.0.0.0,10.83.46.32,3,0
2015-03-01 20:03:54.119,141,1425269029.924163,37.76573819582102,-122.4603423879355,81.76209,-1,-1,10,65,-9999,1425269034.081849,-39.02902221679688,9.45660400390625,-15.22457885742188,94.6119384765625,80.83487701416016,10,196155.3714441667,-0.80767822265625,0.3921356201171875,-0.8837890625,196155.3597354583,0.3764692453835632,0.05494261118498873,-0.3910436607651309,196155.307964,-2.770967364658658,-0.7047559696693451,-0.1788192667376574,-0.1853427886962891,0.1653574109077454,0.1142618134617805,-0.1650794148445129,0.1179390922188759,-0.1134448349475861,XTrueNorthZVertical,0.3533078014279738,-0.01903159454359747,0.9131224862508835,-0.2025308208522965,-0.6375176310539246,0.1778677850961685,-0.7496227622032166,-39.77259826660156,7.481741428375244,-16.5571403503418,2,0.0.0.0,10.83.46.32,3,0
2015-03-01 20:03:54.156,142,1425269029.924163,37.76573819582102,-122.4603423879355,81.76209,-1,-1,10,65,-9999,1425269034.134658,-39.13134002685547,8.912841796875,-15.79038238525391,94.85890197753906,81.08184051513672,10,196155.42061775,-0.706085205078125,0.2678070068359375,-0.8939208984375,196155.4115070833,1.019834103628252,0.0396795023455266,-0.8566326625509968,196155.4115070833,-2.776207118756751,-0.6929612906491023,-0.1230202894314857,0.9999715089797974,0.05935950577259064,-0.8245284557342529,-0.08813176304101944,0.1720895767211914,-0.1503971517086029,XTrueNorthZVertical,0.343811069620871,0.004723228053202932,0.9193789846298058,-0.1910861967197472,-0.6339904069900513,0.1227102279663086,-0.7635433077812195,-39.73669052124023,6.230846405029297,-17.15070343017578,2,0.0.0.0,10.83.46.32,3,0
2015-03-01 20:03:54.213,143,1425269029.924163,37.76573819582102,-122.4603423879355,81.76209,-1,-1,10,65,-9999,1425269034.186848,-38.85850524902344,7.00958251953125,-16.02336883544922,96.01029968261719,82.23323822021484,10,196155.469546625,-0.6820068359375,0.088836669921875,-0.8129119873046875,196155.4632755417,1.359843075791976,-0.1753795441099691,-1.320303123087569,196155.4115070833,-2.776207118756751,-0.6929612906491023,-0.1230202894314857,0.9999715089797974,0.05935950577259064,-0.8245284557342529,-0.08813176304101944,0.1720895767211914,-0.1503971517086029,XTrueNorthZVertical,0.343811069620871,0.004723228053202932,0.9193789846298058,-0.1910861967197472,-0.6339904069900513,0.1227102279663086,-0.7635433077812195,-39.73669052124023,6.230846405029297,-17.15070343017578,2,0.0.0.0,10.83.46.32,3,0
2015-03-01 20:03:54.254,144,1425269029.924163,37.76573819582102,-122.4603423879355,81.76209,-1,-1,10,65,-9999,1425269034.23812,-38.79029846191406,3.712860107421875,-15.99008941650391,97.19020843505859,83.41314697265625,10,196155.5187274167,-0.68511962890625,-0.0071258544921875,-0.761444091796875,196155.5150471667,1.581647909288642,-0.1242678901530594,-1.613115288096801,196155.4632755417,-2.778275982696767,-0.6963490338387572,-0.04164106470731813,1.339980721473694,-0.1556997448205948,-1.288199186325073,-0.03245962038636208,0.06589965522289276,-0.0730297788977623,XTrueNorthZVertical,0.3390311935874907,0.04237714177668882,0.9230462460637004,-0.1767700984047682,-0.6408649682998657,0.04162903130054474,-0.766524076461792,-39.97967147827148,2.84778618812561,-17.47829437255859,2,0.0.0.0,10.83.46.32,3,0
2015-03-01 20:03:54.315,145,1425269029.924163,37.76573819582102,-122.4603423879355,81.76209,-1,-1,10,65,-9999,1425269034.289457,-38.80734252929688,-0.5184326171875,-15.67390441894531,99.40700531005859,85.62994384765625,10,196155.5676576667,-0.6507720947265625,-0.1052093505859375,-0.7580718994140625,196155.5668184167,1.736126166215343,-0.4837957025781926,-1.644682801761946,196155.5150471667,-2.787548265389693,-0.7033435424204596,0.06137246672599236,1.561785697937012,-0.1045882627367973,-1.581011652946472,-0.07644642889499664,0.09102755039930344,0.01954882591962814,XTrueNorthZVertical,0.3338526194622085,0.0889854254336831,0.9255531241427867,-0.1548400767274973,-0.6455537080764771,-0.06133394688367844,-0.7612480521202087,-40.16303634643555,-0.7608789205551147,-17.27212524414062,2,0.0.0.0,10.83.46.32,3,0
2015-03-01 20:03:54.352,146,1425269029.924163,37.76573819582102,-122.4603423879355,81.76209,-1,-1,10,65,-9999,1425269034.341901,-38.58566284179688,-5.429473876953125,-14.55891418457031,104.0499114990234,90.27285003662109,10,196155.616727625,-0.59014892578125,-0.3668060302734375,-0.6597442626953125,196155.6185871667,1.638722114610131,-0.6317076695211935,-1.742300172570473,196155.5668184167,-2.794715983805461,-0.7169612475763588,0.1762762323637812,1.716264247894287,-0.4641162753105164,-1.612579464912415,0.01095858868211508,0.1048843860626221,-0.01452819630503654,XTrueNorthZVertical,0.3300219608134621,0.1415033119577991,0.9241311226666082,-0.1305526661451533,-0.6469144225120544,-0.1753647327423096,-0.742124617099762,-40.09949111938477,-4.85585355758667,-16.74592971801758,2,0.0.0.0,10.83.46.32,3,0
2015-03-01 20:03:54.414,147,1425269029.924163,37.76573819582102,-122.4603423879355,81.76209,-1,-1,10,65,-9999,1425269034.392825,-37.86949157714844,-10.45947265625,-12.79489898681641,109.0813980102539,95.30433654785156,10,196155.6657589167,-0.6614990234375,-0.40533447265625,-0.5997314453125,196155.6185871667,1.638722114610131,-0.6317076695211935,-1.742300172570473,196155.6185871667,-2.801414949763443,-0.7427295392184217,0.2954376725609695,1.618860363960266,-0.6120284795761108,-1.71019721031189,0.05685127526521683,-0.07564744353294373,0.04496661573648453,XTrueNorthZVertical,0.3305406686050442,0.1959270947698115,0.9174253866872141,-0.1033736534512055,-0.6470001935958862,-0.2911585867404938,-0.7047109007835388,-39.80277633666992,-10.44637870788574,-14.78468036651611,2,0.0.0.0,10.83.46.32,3,0
2015-03-01 20:03:54.450,148,1425269029.924163,37.76573819582102,-122.4603423879355,81.76209,-1,-1,10,65,-9999,1425269034.445821,-36.59060668945312,-15.54043579101562,-10.51499938964844,113.4314193725586,99.65435791015625,10,196155.7148242917,-0.5567474365234375,-0.5160064697265625,-0.5460662841796875,196155.722130125,1.581140310784873,-0.8553327736229291,-1.746337258466925,196155.6703585,-2.809721948429496,-0.7730572536890862,0.4116986868767909,1.607219099998474,-0.7182669639587402,-1.729512453079224,-0.02152272500097752,-0.005167819559574127,0.05623882636427879,XTrueNorthZVertical,0.3326772010526612,0.247670637754007,0.9069421243265968,-0.07376402001716566,-0.6399763226509094,-0.4001666605472565,-0.6559702754020691,-39.23593139648438,-14.47146224975586,-12.77079486846924,2,0.0.0.0,10.83.46.32,3,0
