loggingTime,loggingSample,locationTimestamp_since1970,locationLatitude,locationLongitude,locationAltitude,locationSpeed,locationCourse,locationVerticalAccuracy,locationHorizontalAccuracy,locationFloor,locationHeadingTimestamp_since1970,locationHeadingX,locationHeadingY,locationHeadingZ,locationTrueHeading,locationMagneticHeading,locationHeadingAccuracy,accelerometerTimestamp_sinceReboot,accelerometerAccelerationX,accelerometerAccelerationY,accelerometerAccelerationZ,gyroTimestamp_sinceReboot,gyroRotationX,gyroRotationY,gyroRotationZ,motionTimestamp_sinceReboot,motionYaw,motionRoll,motionPitch,motionRotationRateX,motionRotationRateY,motionRotationRateZ,motionUserAccelerationX,motionUserAccelerationY,motionUserAccelerationZ,motionAttitudeReferenceFrame,motionQuaternionX,motionQuaternionY,motionQuaternionZ,motionQuaternionW,motionGravityX,motionGravityY,motionGravityZ,motionMagneticFieldX,motionMagneticFieldY,motionMagneticFieldZ,motionMagneticFieldCalibrationAccuracy,IP_en0,IP_pdp_ip0,deviceOrientation,state
2015-03-01 17:30:48.329,1,1425259847.269546,37.77925485366548,-122.4387348340554,56.15644,-1,-1,10,65,-9999,1425259848.326185,13.65979766845703,-33.01712036132812,-28.84780883789062,351.1304321289062,337.3533325195312,10,191199.4126363333,0.0685882568359375,-0.975830078125,-0.1897735595703125,191199.417807875,0.03006309396535948,-0.09597020567431344,-0.001301220508612716,191199.3660345417,-1.523630836140653,0.3650361256550433,1.361439836318243,-0.01923962868750095,0.007760906126350164,0.009165688417851925,-0.008487544022500515,-0.01306133810430765,-0.01904400624334812,XTrueNorthZVertical,0.5451848288547463,-0.3251234146681398,-0.4448304300812504,0.6318180962928998,0.07419189065694809,-0.9781648516654968,-0.1941365301609039,12.52341461181641,-33.1779670715332,-29.49654769897461,1,192.168.1.8,10.83.46.32,1,0
2015-03-01 17:30:48.380,2,1425259847.269546,37.77925485366548,-122.4387348340554,56.15644,-1,-1,10,65,-9999,1425259848.326185,13.65979766845703,-33.01712036132812,-28.84780883789062,351.1304321289062,337.3533325195312,10,191199.4616796667,0.05902099609375,-0.9676055908203125,-0.16998291015625,191199.417807875,0.03006309396535948,-0.09597020567431344,-0.001301220508612716,191199.417807875,-1.517559355275711,0.3553448534935943,1.361087425485411,0.007144033908843994,-0.08846192061901093,0.02622012794017792,-0.003838675562292337,0.002261477522552013,0.005396030377596617,XTrueNorthZVertical,0.5439323912024653,-0.3264242008060342,-0.445644330046097,0.6316532883908541,0.0724269300699234,-0.9780915379524231,-0.1951695829629898,12.44780921936035,-33.14612197875977,-29.56427574157715,1,192.168.1.8,10.83.46.32,1,0
2015-03-01 17:30:48.425,3,1425259847.269546,37.77925485366548,-122.4387348340554,56.15644,-1,-1,10,65,-9999,1425259848.377708,13.19940185546875,-32.86419677734375,-28.69802856445312,351.6252136230469,337.8481140136719,10,191199.5108565833,0.0806884765625,-0.983428955078125,-0.2022857666015625,191199.469579125,0.05402142376393032,0.001014930691429198,-0.01724769648378918,191199.469579125,-1.505184510185946,0.3407956416428837,1.364509303240634,0.03101495280861855,0.008367450907826424,0.01017240900546312,-0.009439739398658276,0.01119258720427752,0.02306417003273964,XTrueNorthZVertical,0.5435448875075195,-0.3286874131104729,-0.4447968584071192,0.6314105203325683,0.06846073269844055,-0.9787981510162354,-0.1930470764636993,12.27185440063477,-33.18621444702148,-29.59284591674805,1,192.168.1.8,10.83.46.32,1,0
2015-03-01 17:30:48.471,4,1425259847.269546,37.77925485366548,-122.4387348340554,56.15644,-1,-1,10,65,-9999,1425259848.429567,13.14824295043945,-32.81321716308594,-28.84780120849609,351.6630859375,337.885986328125,10,191199.5597987917,0.065216064453125,-0.9912567138671875,-0.1941375732421875,191199.5213526667,0.04298208841333386,-0.002356098616393102,-0.02815174325100961,191199.5213526667,-1.507924456152629,0.3450547341015766,1.365459725577695,0.01997962035238743,0.004997819662094116,-0.0007382648182101548,0.01484890468418598,-0.007854515686631203,-0.005951977800577879,XTrueNorthZVertical,0.5442715191244271,-0.3283738759010545,-0.444255623925243,0.6313287593756558,0.06896762549877167,-0.9789924025535583,-0.1918782293796539,12.20538139343262,-33.29845809936523,-29.49408340454102,1,192.168.1.8,10.83.46.32,1,0
2015-03-01 17:30:48.523,5,1425259847.269546,37.77925485366548,-122.4387348340554,56.15644,-1,-1,10,65,-9999,1425259848.481463,13.09709167480469,-33.00015258789062,-28.69802093505859,351.6639709472656,337.8868713378906,10,191199.6088777917,0.0708160400390625,-0.99066162109375,-0.19647216796875,191199.5731259584,0.01727486072690799,-0.01344496876326503,-0.00213825203922462,191199.5731259584,-1.507144551632482,0.3438208933123009,1.365826463691431,-0.005728786811232567,-0.006090710405260324,0.02527231350541115,-0.001883108750917017,-0.006498066708445549,-0.0006050875526852906,XTrueNorthZVertical,0.5442141742274487,-0.3286614733289578,-0.4442494197602841,0.6312328985961757,0.06860979646444321,-0.9790671467781067,-0.1916251331567764,12.23606014251709,-33.29919815063477,-29.48053359985352,1,192.168.1.8,10.83.46.32,1,0
2015-03-01 17:30:48.627,6,1425259847.269546,37.77925485366548,-122.4387348340554,56.15644,-1,-1,10,65,-9999,1425259848.584077,13.18234252929688,-32.60931396484375,-28.78121948242188,351.6572875976562,337.8801879882812,10,191199.6579157083,0.0748443603515625,-0.98333740234375,-0.1891326904296875,191199.624897125,0.03187377719050435,0.01046622308401141,0.01068699913837898,191199.624897125,-1.49894401434967,0.3364807138082452,1.366099652332222,0.008827304467558861,0.01771056838333607,0.03800920769572258,0.002192337531596422,-0.006732415873557329,-0.002922601066529751,XTrueNorthZVertical,0.5439992381893556,-0.3288301670173345,-0.4435858466891038,0.6317967216076443,0.06711307913064957,-0.9791226983070374,-0.1918711066246033,12.19262599945068,-33.30969619750977,-29.48666763305664,1,192.168.1.8,10.83.46.32,1,0
2015-03-01 17:30:48.703,7,1425259847.269546,37.77925485366548,-122.4387348340554,56.15644,-1,-1,10,65,-9999,1425259848.687753,13.13119125366211,-32.18447875976562,-28.36518096923828,351.6187438964844,337.8416442871094,10,191199.7069924167,0.0738372802734375,-0.980712890625,-0.1893310546875,191199.6766705833,0.02692535756902812,0.01653210509888489,0.01298876926853446,191199.6766705833,-1.491134511231539,0.3300926351572577,1.366916351286406,0.003880916861817241,0.02377710677683353,0.04030760377645493,0.006333628203719854,-0.00090572121553123,0.00103338249027729,XTrueNorthZVertical,0.5440681417971321,-0.3289683497378114,-0.4426441136225899,0.632325724081959,0.06562682241201401,-0.9792883992195129,-0.1915393620729446,12.15650272369385,-33.33671569824219,-29.47104454040527,1,192.168.1.8,10.83.46.32,1,0
2015-03-01 17:30:48.707,8,1425259847.269546,37.77925485366548,-122.4387348340554,56.15644,-1,-1,10,65,-9999,1425259848.687753,13.13119125366211,-32.18447875976562,-28.36518096923828,351.6187438964844,337.8416442871094,10,191199.7560371667,0.0676727294921875,-0.9860687255859375,-0.1912841796875,191199.728444,0.0405298496815889,-0.0003281014462977622,-0.00128790470316232,191199.728444,-1.488342121614987,0.328201966698082,1.368010192067031,0.01748776622116566,0.006918546743690968,0.0260225348174572,0.008338206447660923,-0.005933860316872597,-0.001779613899998367,XTrueNorthZVertical,0.544378543463844,-0.3291314538370186,-0.4419935666254896,0.6324287511501187,0.06491924077272415,-0.9795092344284058,-0.1906489729881287,12.14951992034912,-33.3623161315918,-29.4449405670166,1,192.168.1.8,10.83.46.32,1,0
2015-03-01 17:30:48.719,9,1425259847.269546,37.77925485366548,-122.4387348340554,56.15644,-1,-1,10,65,-9999,1425259848.687753,13.13119125366211,-32.18447875976562,-28.36518096923828,351.6187438964844,337.8416442871094,10,191199.80510825,0.06890869140625,-0.9891815185546875,-0.1945648193359375,191199.7802152083,0.03067668628051374,0.005608350939597868,0.01203509128217709,191199.7802152083,-1.484209100958316,0.3248879086493408,1.36923917344599,0.007609287276864052,0.01277239806950092,0.03929642587900162,0.007981397211551666,-0.006388988345861435,-0.001073793508112431,XTrueNorthZVertical,0.5446304168733677,-0.3294186645815801,-0.4412724463597867,0.6325659105844903,0.06390275806188583,-0.9797560572624207,-0.1897221058607101,12.13856029510498,-33.39958190917969,-29.40719032287598,1,192.168.1.8,10.83.46.32,1,0
2015-03-01 17:30:48.799,10,1425259847.269546,37.77925485366548,-122.4387348340554,56.15644,-1,-1,10,65,-9999,1425259848.739404,12.87541580200195,-32.09950256347656,-28.68138122558594,351.6109008789062,337.8338012695312,10,191199.8541500417,0.0699920654296875,-0.9851531982421875,-0.189849853515625,191199.831988625,0.03198003731799852,-0.008646218795051255,-0.007178817034417594,191199.831988625,-1.48230102025877,0.3232312773278412,1.36990013388759,0.008911906741559505,-0.001481217565014958,0.02007667347788811,0.007372340653091669,-0.008148971013724804,-0.00487817544490099,XTrueNorthZVertical,0.5447429093332499,-0.3296184947937437,-0.4409503162843056,0.6325895825083828,0.06338266283273697,-0.9798881411552429,-0.1892136186361313,12.12255382537842,-33.43774795532227,-29.37040138244629,1,192.168.1.8,10.83.46.32,1,0
2015-03-01 17:30:48.817,11,1425259847.269546,37.77925485366548,-122.4387348340554,56.15644,-1,-1,10,65,-9999,1425259848.791072,12.5173225402832,-31.77664184570312,-29.03085327148438,351.6277770996094,337.8506774902344,10,191199.9032215,0.067169189453125,-0.98486328125,-0.188446044921875,191199.8837620833,0.01482208936294501,-0.01560186293012021,-0.017981131047997,191199.8837620833,-1.482159397669562,0.322940770545944,1.369875693863424,-0.008246297016739845,-0.008435866795480251,0.009268363937735558,0.003574496135115623,-0.004278115928173065,0.001296973205171525,XTrueNorthZVertical,0.544696147899318,-0.3296645841590404,-0.4409909186939818,0.6325775278593408,0.06333529204130173,-0.9798832535743713,-0.1892547309398651,12.1132698059082,-33.44743728637695,-29.36319732666016,1,192.168.1.8,10.83.46.32,1,0
2015-03-01 17:30:48.884,12,1425259847.269546,37.77925485366548,-122.4387348340554,56.15644,-1,-1,10,65,-9999,1425259848.842869,12.53437805175781,-32.16749572753906,-28.94765472412109,351.6465454101562,337.8694458007812,10,191199.95225575,0.063201904296875,-0.98480224609375,-0.1905517578125,191199.9355333333,0.0283898298524627,-0.02431812286184055,-0.01044624937583581,191199.8837620833,-1.482159397669562,0.322940770545944,1.369875693863424,-0.008246297016739845,-0.008435866795480251,0.009268363937735558,0.003574496135115623,-0.004278115928173065,0.001296973205171525,XTrueNorthZVertical,0.544696147899318,-0.3296645841590404,-0.4409909186939818,0.6325775278593408,0.06333529204130173,-0.9798832535743713,-0.1892547309398651,12.1132698059082,-33.44743728637695,-29.36319732666016,1,192.168.1.8,10.83.46.32,1,0
2015-03-01 17:30:48.915,13,1425259847.269546,37.77925485366548,-122.4387348340554,56.15644,-1,-1,10,65,-9999,1425259848.900928,13.26760482788086,-32.49037170410156,-28.76459503173828,351.6286010742188,337.8515014648438,10,191200.0013286667,0.0648193359375,-0.9841156005859375,-0.1910247802734375,191199.9873067917,0.02342409968390095,-0.01787220775941276,-0.03261786439907249,191199.9873067917,-1.477045551415949,0.3167086786744578,1.370102581461788,0.0003516443830449134,-0.01069703232496977,-0.005362551659345627,0.0008113519288599491,-0.002478100126609206,-0.002765207784250379,XTrueNorthZVertical,0.5442220757709813,-0.330310585171317,-0.441011853735619,0.6326339740642178,0.06208537518978119,-0.9799284934997559,-0.1894344985485077,12.04932403564453,-33.45691299438477,-29.37870788574219,1,192.168.1.8,10.83.46.32,1,0
2015-03-01 17:30:48.999,14,1425259847.269546,37.77925485366548,-122.4387348340554,56.15644,-1,-1,10,65,-9999,1425259848.972193,13.608642578125,-32.45639038085938,-28.33193206787109,351.56884765625,337.791748046875,10,191200.0503613334,0.0595245361328125,-0.9880523681640625,-0.190582275390625,191200.03908025,0.02717622734371359,-0.02777330806010935,-0.02136600879348771,191200.03908025,-1.476100700455167,0.3150121373423605,1.370252853549775,0.004103917628526688,-0.020597904920578,0.005887460894882679,0.0004155098577030003,0.0001916159380925819,-0.0004197911766823381,XTrueNorthZVertical,0.5440415144919536,-0.3306343269099826,-0.4411362097645951,0.6325334517011073,0.06171827763319016,-0.9799584746360779,-0.1893995404243469,12.03192901611328,-33.45314407348633,-29.3901252746582,1,192.168.1.8,10.83.46.32,1,0
2015-03-01 17:30:49.013,15,1425259847.269546,37.77925485366548,-122.4387348340554,56.15644,-1,-1,10,65,-9999,1425259848.972193,13.608642578125,-32.45639038085938,-28.33193206787109,351.56884765625,337.791748046875,10,191200.0994290417,0.0622711181640625,-0.9852294921875,-0.191986083984375,191200.0908515417,0.02832644661851881,-0.01558455238303469,-0.0265682276668485,191200.03908025,-1.476100700455167,0.3150121373423605,1.370252853549775,0.004103917628526688,-0.020597904920578,0.005887460894882679,0.0004155098577030003,0.0001916159380925819,-0.0004197911766823381,XTrueNorthZVertical,0.5440415144919536,-0.3306343269099826,-0.4411362097645951,0.6325334517011073,0.06171827763319016,-0.9799584746360779,-0.1893995404243469,12.03192901611328,-33.45314407348633,-29.3901252746582,1,192.168.1.8,10.83.46.32,1,0
2015-03-01 17:30:49.081,16,1425259847.269546,37.77925485366548,-122.4387348340554,56.15644,-1,-1,10,65,-9999,1425259849.025211,13.38697814941406,-32.37142944335938,-28.24872589111328,351.5276794433594,337.7505798339844,10,191200.1484637917,0.062896728515625,-0.9819183349609375,-0.1881866455078125,191200.1426249583,0.03322692934037361,-0.01325854748695949,-0.02296603597640732,191200.0908515417,-1.475349848545588,0.3136123790043547,1.370629594512722,0.005252346396446228,-0.008303479291498661,0.0007215593941509724,0.000474147847853601,-0.005928474478423595,-0.001432463992387056,XTrueNorthZVertical,0.5439509858570653,-0.3309834567880071,-0.4411834031277653,0.6323957873283927,0.06133920699357986,-0.9800334572792053,-0.1891345530748367,11.99599075317383,-33.46481704711914,-29.39152526855469,1,192.168.1.8,10.83.46.32,1,0
2015-03-01 17:30:49.111,17,1425259847.269546,37.77925485366548,-122.4387348340554,56.15644,-1,-1,10,65,-9999,1425259849.076948,13.31877136230469,-32.47337341308594,-28.0157470703125,351.4870910644531,337.7099914550781,10,191200.1975192083,0.0614776611328125,-0.980926513671875,-0.1938323974609375,191200.1943984167,0.04557307783787196,-0.02315751725878402,-0.01662238625983857,191200.1943984167,-1.476352063980785,0.3135728377249639,1.371454608323076,0.02249849028885365,-0.01587639190256596,0.01066557876765728,0.002790986094623804,-0.003399655921384692,-0.0005360106006264687,XTrueNorthZVertical,0.543982190841564,-0.331510900356616,-0.4413005342519039,0.6320108291550444,0.06108230352401733,-0.9801971316337585,-0.1883677989244461,11.96225738525391,-33.4876594543457,-29.37925338745117,1,192.168.1.8,10.83.46.32,1,0
2015-03-01 17:30:49.185,18,1425259847.269546,37.77925485366548,-122.4387348340554,56.15644,-1,-1,10,65,-9999,1425259849.129075,13.21645736694336,-32.37142944335938,-27.94918060302734,351.4526977539062,337.6755981445312,10,191200.2465607917,0.056549072265625,-0.9810943603515625,-0.1849212646484375,191200.1943984167,0.04557307783787196,-0.02315751725878402,-0.01662238625983857,191200.1943984167,-1.476352063980785,0.3135728377249639,1.371454608323076,0.02249849028885365,-0.01587639190256596,0.01066557876765728,0.002790986094623804,-0.003399655921384692,-0.0005360106006264687,XTrueNorthZVertical,0.543982190841564,-0.331510900356616,-0.4413005342519039,0.6320108291550444,0.06108230352401733,-0.9801971316337585,-0.1883677989244461,11.96225738525391,-33.4876594543457,-29.37925338745117,1,192.168.1.8,10.83.46.32,1,0
2015-03-01 17:30:49.209,19,1425259847.269546,37.77925485366548,-122.4387348340554,56.15644,-1,-1,10,65,-9999,1425259849.18072,13.09709548950195,-32.42239379882812,-27.93254089355469,351.4229431152344,337.6458435058594,10,191200.2956248334,0.0648956298828125,-0.9874420166015625,-0.1894073486328125,191200.2979431667,0.04683008987238935,-0.02799861148833006,-0.0177257338994584,191200.2461697083,-1.476389394347474,0.3126087539688435,1.372409275577548,0.01385599654167891,-0.01067889574915171,0.004476779140532017,0.0001781556638889015,-0.002234492916613817,0.003103118622675538,XTrueNorthZVertical,0.544001417516056,-0.3321060172405638,-0.4413309787949027,0.6316604854804275,0.06061286106705666,-0.9803857207298279,-0.1875361055135727,11.93433856964111,-33.50446701049805,-29.37145233154297,1,192.168.1.8,10.83.46.32,1,0
2015-03-01 17:30:49.250,20,1425259847.269546,37.77925485366548,-122.4387348340554,56.15644,-1,-1,10,65,-9999,1425259849.232016,13.16530227661133,-32.38841247558594,-28.19879913330078,351.398681640625,337.62158203125,10,191200.3446642084,0.06683349609375,-0.9896240234375,-0.1908416748046875,191200.2979431667,0.04683008987238935,-0.02799861148833006,-0.0177257338994584,191200.2979431667,-1.477310554189158,0.3129636996099762,1.373295833012658,0.02374383993446827,-0.02053795009851456,0.009599438868463039,0.00448383204638958,-0.006881925743073225,-0.002719796029850841,XTrueNorthZVertical,0.5441477086890923,-0.332504879324874,-0.4412989833126463,0.631346920788476,0.06041179597377777,-0.9805600643157959,-0.186687558889389,11.90487480163574,-33.54212951660156,-29.34039688110352,1,192.168.1.8,10.83.46.32,1,0
2015-03-01 17:30:49.307,21,1425259847.269546,37.77925485366548,-122.4387348340554,56.15644,-1,-1,10,65,-9999,1425259849.284122,12.90953063964844,-32.67730712890625,-28.41514587402344,351.3857116699219,337.6086120605469,10,191200.3937502083,0.0588836669921875,-0.9799346923828125,-0.1891326904296875,191200.349716625,0.0505252258848743,-0.02825800337850377,-0.003047455235377672,191200.349716625,-1.475627952716031,0.3103449998825643,1.374649602743903,0.02743839472532272,-0.02079720608890057,0.02427607774734497,0.007316225674003363,-0.008799195289611816,-0.005260772537440062,XTrueNorthZVertical,0.5441876261118661,-0.3332707253005432,-0.4411349941331729,0.6310232316672749,0.0595172718167305,-0.9808248281478882,-0.1855809092521667,11.86503601074219,-33.57892608642578,-29.31443786621094,1,192.168.1.8,10.83.46.32,1,0
2015-03-01 17:30:49.355,22,1425259847.269546,37.77925485366548,-122.4387348340554,56.15644,-1,-1,10,65,-9999,1425259849.336195,12.72196197509766,-32.86422729492188,-28.43179321289062,351.378662109375,337.6015625,10,191200.4427874167,0.0453643798828125,-0.982330322265625,-0.182586669921875,191200.4014879584,0.05428028302188603,-0.03927683238870662,0.002116680434394978,191200.4014879584,-1.472160535372732,0.3056808012074126,1.376050253527891,0.03118817321956158,-0.03181609511375427,0.02943800389766693,0.0006461177254095674,0.001162148080766201,-0.004586497787386179,XTrueNorthZVertical,0.544087846525336,-0.3342084962960506,-0.4409535392673741,0.6307400599159972,0.05823754891753197,-0.9810968637466431,-0.1845461875200272,11.81723213195801,-33.61229705810547,-29.29549980163574,1,192.168.1.8,10.83.46.32,1,0
2015-03-01 17:30:49.407,23,1425259847.269546,37.77925485366548,-122.4387348340554,56.15644,-1,-1,10,65,-9999,1425259849.389136,12.6367073059082,-32.71128845214844,-28.51499938964844,351.37841796875,337.601318359375,10,191200.4918532083,0.051300048828125,-0.9862518310546875,-0.18798828125,191200.5050349583,0.05635062445331362,0.02580709622730385,0.02371092213330248,191200.4532615,-1.464981692629724,0.2980526314824725,1.377399717067101,0.01868185214698315,0.001257741823792458,0.0262022577226162,-0.00477301562204957,-0.0008511602063663304,0.000445998361101374,XTrueNorthZVertical,0.5439473837349876,-0.3350546027686953,-0.4404222869987183,0.6307834943262991,0.05643927678465843,-0.9813570976257324,-0.1837193071842194,11.72518730163574,-33.66770553588867,-29.26884269714355,1,192.168.1.8,10.83.46.32,1,0
2015-03-01 17:30:49.455,24,1425259847.269546,37.77925485366548,-122.4387348340554,56.15644,-1,-1,10,65,-9999,1425259849.389136,12.6367073059082,-32.71128845214844,-28.51499938964844,351.37841796875,337.601318359375,10,191200.5408925,0.0609130859375,-0.9873809814453125,-0.18658447265625,191200.5050349583,0.05635062445331362,0.02580709622730385,0.02371092213330248,191200.5050349583,-1.455070140455689,0.2892604285949829,1.379527850671765,0.0332360602915287,0.03346416354179382,0.05105424672365189,-0.004009298514574766,-0.00801272876560688,-0.006071878597140312,XTrueNorthZVertical,0.5442155176316622,-0.3357473910072175,-0.4391514471348611,0.6310698194244514,0.05422597378492355,-0.9817638993263245,-0.182206317782402,11.66769599914551,-33.725830078125,-29.2248649597168,1,192.168.1.8,10.83.46.32,1,0
2015-03-01 17:30:49.505,25,1425259847.269546,37.77925485366548,-122.4387348340554,56.15644,-1,-1,10,65,-9999,1425259849.466532,12.48324203491211,-32.59234619140625,-28.13224792480469,351.3684692382812,337.5913696289062,10,191200.5899618333,0.0560455322265625,-0.97943115234375,-0.183502197265625,191200.55680625,0.04780693736023042,0.01945838650466395,0.04712783128226022,191200.55680625,-1.44072928212412,0.2769126906457822,1.381379734291927,0.02468855120241642,0.02711565047502518,0.07446831464767456,0.006127005908638239,-0.004015510901808739,-0.006417701486498117,XTrueNorthZVertical,0.5443931055988028,-0.3362733092387196,-0.4375222971676709,0.6317678357273022,0.0514749214053154,-0.9821142554283142,-0.1811128109693527,11.61803436279297,-33.78793716430664,-29.1728687286377,1,192.168.1.8,10.83.46.32,1,0
2015-03-01 17:30:49.561,26,1425259847.269546,37.77925485366548,-122.4387348340554,56.15644,-1,-1,10,65,-9999,1425259849.51766,12.50029373168945,-32.67730712890625,-28.28202819824219,351.3526611328125,337.5755615234375,10,191200.6390037083,0.046173095703125,-0.97735595703125,-0.17266845703125,191200.6085799167,0.04798483652104771,-0.006475476190527667,0.07836244981114555,191200.6085799167,-1.421305023446692,0.2582925972766676,1.383350649347059,0.02483499050140381,0.001366916694678366,0.1056853830814362,0.006355741992592812,0.002380898455157876,-0.001686222851276398,XTrueNorthZVertical,0.5441115209333517,-0.3374294595830067,-0.4359651899376549,0.6324700123041751,0.04759933799505234,-0.982483446598053,-0.180168017745018,11.51933193206787,-33.86811065673828,-29.11899566650391,1,192.168.1.8,10.83.46.32,1,0
2015-03-01 17:30:49.609,27,1425259847.269546,37.77925485366548,-122.4387348340554,56.15644,-1,-1,10,65,-9999,1425259849.570206,12.67081451416016,-32.91519165039062,-28.2154541015625,351.315185546875,337.5380859375,10,191200.6880635417,0.048797607421875,-0.97955322265625,-0.1738739013671875,191200.6603532917,0.06513239814784991,0.002809901266142604,0.09522212372411018,191200.6603532917,-1.395440485359142,0.233421273018679,1.386654440720745,0.04198369383811951,0.01065285410732031,0.1225417852401733,0.002217903500422835,0.004349228926002979,3.657292472780682e-05,XTrueNorthZVertical,0.5439567500052692,-0.3391791188915971,-0.4337500858038593,0.633189855576567,0.04235301911830902,-0.9830937385559082,-0.1781371533870697,11.38291072845459,-33.95422744750977,-29.07231330871582,1,192.168.1.8,10.83.46.32,1,0
2015-03-01 17:30:49.677,28,1425259847.269546,37.77925485366548,-122.4387348340554,56.15644,-1,-1,10,65,-9999,1425259849.626446,12.79018020629883,-33.34002685546875,-28.16552734375,351.2611999511719,337.4841003417969,10,191200.7371067083,0.0564727783203125,-0.9677734375,-0.1784515380859375,191200.7121246667,0.07497863733009087,0.003311108183295517,0.1355572963300143,191200.7121246667,-1.361210040788082,0.200619243645035,1.390648310313648,0.05183159932494164,0.01115521974861622,0.1628708392381668,0.009491227567195892,0.00838383287191391,0.001737939077429473,XTrueNorthZVertical,0.543779313343824,-0.3413405879349471,-0.4308885182426312,0.6341338162899988,0.03570530563592911,-0.9838171601295471,-0.1755813211202621,11.14628791809082,-34.1276741027832,-28.960693359375,1,192.168.1.8,10.83.46.32,1,0
2015-03-01 17:30:49.701,29,1425259847.269546,37.77925485366548,-122.4387348340554,56.15644,-1,-1,10,65,-9999,1425259849.626446,12.79018020629883,-33.34002685546875,-28.16552734375,351.2611999511719,337.4841003417969,10,191200.78617575,0.0731658935546875,-0.971893310546875,-0.1850433349609375,191200.763898125,0.09710311440203315,0.009047024539108181,0.2222208192589368,191200.763898125,-1.317472301315971,0.1586756395902747,1.395087218427981,0.07391580194234848,0.01709755510091782,0.2494833767414093,0.04058555886149406,0.01374711655080318,0.003313856199383736,XTrueNorthZVertical,0.543522405996117,-0.3439161725804686,-0.4274086512951733,0.6353163431898624,0.02762122638523579,-0.9846028089523315,-0.1726101189851761,10.93090343475342,-34.27246475219727,-28.87166213989258,1,192.168.1.8,10.83.46.32,1,0
2015-03-01 17:30:49.773,30,1425259847.269546,37.77925485366548,-122.4387348340554,56.15644,-1,-1,10,65,-9999,1425259849.701015,12.0399055480957,-33.50994873046875,-28.19879913330078,349.1741943359375,335.3970947265625,10,191200.8352123333,0.059295654296875,-0.959716796875,-0.1748504638671875,191200.8156718333,0.1114357147566216,-0.1255235706070318,0.2182532418669368,191200.8156718333,-1.275114487883707,0.1156019909572906,1.399162668076622,0.08824099600315094,-0.1174662485718727,0.2454772591590881,0.04814062640070915,0.02111944369971752,-0.004054008983075619,XTrueNorthZVertical,0.5428502436026486,-0.3471132238492007,-0.4247704011396956,0.6359214415896719,0.0196999479085207,-0.9853070378303528,-0.1696520447731018,10.69951725006104,-34.4351921081543,-28.7645149230957,1,192.168.1.8,10.83.46.32,1,0
2015-03-01 17:30:49.799,31,1425259847.269546,37.77925485366548,-122.4387348340554,56.15644,-1,-1,10,65,-9999,1425259849.776295,11.18731689453125,-33.98574829101562,-27.666259765625,348.3564147949219,334.5793151855469,10,191200.8842814583,0.0338592529296875,-0.9811859130859375,-0.158843994140625,191200.8674430833,0.1184843032137343,-0.2755255863735268,0.1975631433581112,191200.8674430833,-1.225824923082053,0.0566490122386863,1.404444349584149,0.09528712183237076,-0.2674636244773865,0.2247619777917862,0.03267798200249672,0.01460725348442793,0.006323345005512238,XTrueNorthZVertical,0.5405688274981202,-0.3537306591581097,-0.424013366992432,0.6347224423548626,0.009375241585075855,-0.9861953854560852,-0.1653199195861816,10.30781173706055,-34.60101318359375,-28.7085132598877,1,192.168.1.8,10.83.46.32,1,0
2015-03-01 17:30:49.844,32,1425259847.269546,37.77925485366548,-122.4387348340554,56.15644,-1,-1,10,65,-9999,1425259849.828381,10.43703842163086,-33.98574829101562,-27.30013275146484,347.9971923828125,334.2200927734375,10,191200.9333215,0.0239410400390625,-0.9965057373046875,-0.1554412841796875,191200.9192167083,0.1026608652809195,-0.2974199663272863,0.2115996001994828,191200.8674430833,-1.225824923082053,0.0566490122386863,1.404444349584149,0.09528712183237076,-0.2674636244773865,0.2247619777917862,0.03267798200249672,0.01460725348442793,0.006323345005512238,XTrueNorthZVertical,0.5405688274981202,-0.3537306591581097,-0.424013366992432,0.6347224423548626,0.009375241585075855,-0.9861953854560852,-0.1653199195861816,10.30781173706055,-34.60101318359375,-28.7085132598877,1,192.168.1.8,10.83.46.32,1,0
2015-03-01 17:30:49.896,33,1425259847.269546,37.77925485366548,-122.4387348340554,56.15644,-1,-1,10,65,-9999,1425259849.880025,9.448036193847656,-34.42758178710938,-27.1669921875,348.681396484375,334.904296875,10,191200.9823775417,0.019866943359375,-0.9718780517578125,-0.1463470458984375,191200.9709901667,0.1015255597082187,-0.3099317634445876,0.2376048356118886,191200.9709901667,-1.095989329553741,-0.1000626717929024,1.413036775164642,0.07833501696586609,-0.3018643260002136,0.2647771835327148,0.03752952441573143,0.002092857845127583,0.01058316044509411,XTrueNorthZVertical,0.533618378217886,-0.3702586921045911,-0.4234851525531905,0.6315221323314135,-0.01569419726729393,-0.987581729888916,-0.1563198566436768,8.789615631103516,-35.07944107055664,-28.63276290893555,1,192.168.1.8,10.83.46.32,1,0
2015-03-01 17:30:49.974,34,1425259847.269546,37.77925485366548,-122.4387348340554,56.15644,-1,-1,10,65,-9999,1425259849.933592,8.765968322753906,-34.66549682617188,-26.76760101318359,348.5619506835938,334.7848510742188,10,191201.0314180834,0.0400390625,-0.9272918701171875,-0.129058837890625,191201.0227616667,0.08052866504181601,-0.2820244983816472,0.3250092499560712,191200.9709901667,-1.095989329553741,-0.1000626717929024,1.413036775164642,0.07833501696586609,-0.3018643260002136,0.2647771835327148,0.03752952441573143,0.002092857845127583,0.01058316044509411,XTrueNorthZVertical,0.533618378217886,-0.3702586921045911,-0.4234851525531905,0.6315221323314135,-0.01569419726729393,-0.987581729888916,-0.1563198566436768,8.789615631103516,-35.07944107055664,-28.63276290893555,1,192.168.1.8,10.83.46.32,1,0
2015-03-01 17:30:49.997,35,1425259847.269546,37.77925485366548,-122.4387348340554,56.15644,-1,-1,10,65,-9999,1425259849.983755,7.913375854492188,-34.05372619628906,-26.80087280273438,348.4039306640625,334.6268310546875,10,191201.0806005,0.045806884765625,-0.935333251953125,-0.075286865234375,191201.0745352083,-0.04447825231374038,-0.3131411388742421,0.4471167838328582,191201.0227616667,-1.016660611514701,-0.1921621580477294,1.415177579995994,0.05734412372112274,-0.2739516496658325,0.3521547913551331,0.06391748785972595,0.04597551003098488,0.02062279731035233,XTrueNorthZVertical,0.5297138051311463,-0.3785949480789561,-0.4226398728435515,0.6304321046184632,-0.0296004693955183,-0.9879158139228821,-0.1521382927894592,8.009623527526855,-35.27753829956055,-28.61819458007812,1,192.168.1.8,10.83.46.32,1,0
2015-03-01 17:30:50.043,36,1425259847.269546,37.77925485366548,-122.4387348340554,56.15644,-1,-1,10,65,-9999,1425259850.034689,6.583339691162109,-34.46156311035156,-26.66773223876953,348.4201965332031,334.6430969238281,10,191201.1295347917,0.021148681640625,-1.048263549804688,-0.0561676025390625,191201.1263087917,-0.09752016542873956,-0.4835192664570424,0.3671114299452428,191201.0745352083,-0.8892865376685171,-0.3315325178321329,1.410389941620974,-0.067660853266716,-0.3050668835639954,0.4742549955844879,0.09977789968252182,0.07609067857265472,0.0667625293135643,XTrueNorthZVertical,0.5230874875359426,-0.3884182016373545,-0.4196077378288474,0.6320127198740538,-0.05198737233877182,-0.9871624708175659,-0.1510215550661087,6.933578491210938,-35.51581573486328,-28.60440444946289,1,192.168.1.8,10.83.46.32,1,0
2015-03-01 17:30:50.094,37,1425259847.269546,37.77925485366548,-122.4387348340554,56.15644,-1,-1,10,65,-9999,1425259850.086888,5.065723419189453,-34.47854614257812,-26.88407897949219,348.7115478515625,334.9344482421875,10,191201.178792375,0.0108795166015625,-1.00872802734375,-0.0883331298828125,191201.17808,0.026148247162943,-0.4091196003479347,0.5020109254860076,191201.1263087917,-0.7878694520551724,-0.452436939986719,1.398385468739286,-0.1206922605633736,-0.4754423201084137,0.3942393064498901,0.1006784662604332,-0.047464519739151,0.09919685125350952,XTrueNorthZVertical,0.5132725108003796,-0.3992532511967892,-0.4195790760812492,0.6333257619018637,-0.0749979242682457,-0.9851740002632141,-0.154296338558197,5.795979976654053,-35.56314468383789,-28.79807090759277,1,192.168.1.8,10.83.46.32,1,0
2015-03-01 17:30:50.142,38,1425259847.269546,37.77925485366548,-122.4387348340554,56.15644,-1,-1,10,65,-9999,1425259850.137927,3.769790649414062,-34.78443908691406,-27.08377075195312,347.8235168457031,334.0464172363281,10,191201.227639875,-0.016998291015625,-0.897674560546875,-0.0993194580078125,191201.17808,0.026148247162943,-0.4091196003479347,0.5020109254860076,191201.17808,-0.6864998801955134,-0.5742223414162959,1.385818476409638,0.00298099615611136,-0.401041567325592,0.5291340351104736,0.1239981278777122,-0.05033909529447556,0.07509534806013107,XTrueNorthZVertical,0.5035664290506824,-0.4113489459157879,-0.4186775218680465,0.6339731694778961,-0.09990449994802475,-0.9829403162002563,-0.1544257998466492,4.56267786026001,-35.52790451049805,-29.06216621398926,1,192.168.1.8,10.83.46.32,1,0
2015-03-01 17:30:50.193,39,1425259847.269546,37.77925485366548,-122.4387348340554,56.15644,-1,-1,10,65,-9999,1425259850.137927,3.769790649414062,-34.78443908691406,-27.08377075195312,347.8235168457031,334.0464172363281,10,191201.27695675,-0.0234527587890625,-0.8322906494140625,-0.0955657958984375,191201.281627375,-0.0985936856641505,-0.4544750979247472,0.9168246305606407,191201.2298535834,-0.5536890807837821,-0.7227244236198186,1.367302300882416,-0.005904769990593195,-0.3327447474002838,0.7402610778808594,0.1166717037558556,0.08169188350439072,0.05225106701254845,XTrueNorthZVertical,0.4934209796473957,-0.4251475913270108,-0.413021607268843,0.6365519343070211,-0.1336699873209,-0.9793664216995239,-0.1515705287456512,2.747104167938232,-35.65121841430664,-29.13938331604004,1,192.168.1.8,10.83.46.32,1,0
2015-03-01 17:30:50.241,40,1425259847.269546,37.77925485366548,-122.4387348340554,56.15644,-1,-1,10,65,-9999,1425259850.19266,2.388587951660156,-34.46156311035156,-27.53308868408203,347.3952026367188,333.6181030273438,10,191201.3257547917,-0.1201629638671875,-0.835235595703125,-0.0809478759765625,191201.281627375,-0.0985936856641505,-0.4544750979247472,0.9168246305606407,191201.281627375,-0.4254232007247763,-0.8656343069012207,1.33412229201128,-0.1217584311962128,-0.4463965594768524,0.9439441561698914,0.1550980657339096,0.13983254134655,0.05640795454382896,XTrueNorthZVertical,0.4794061328566266,-0.440661871945644,-0.4042083192356208,0.6423413887971353,-0.1785508245229721,-0.9721232056617737,-0.1519737541675568,1.093135356903076,-35.69611358642578,-29.19336128234863,1,192.168.1.8,10.83.46.32,1,0
2015-03-01 17:30:50.291,41,1425259847.269546,37.77925485366548,-122.4387348340554,56.15644,-1,-1,10,65,-9999,1425259850.273109,-1.260505676269531,-34.12167358398438,-28.03233337402344,345.3717956542969,331.5946960449219,10,191201.37493925,-0.23822021484375,-0.7949371337890625,-0.0606689453125,191201.333398625,-0.0956359789575085,-0.7420142039756215,0.8592481530575636,191201.333398625,-0.3357233284991384,-0.9835121692602643,1.293098768882878,-0.1188005208969116,-0.7339357137680054,0.8863674402236938,0.1080461516976357,0.1264535933732986,0.0709548220038414,XTrueNorthZVertical,0.4606198616106554,-0.4603020674933367,-0.3980084209606715,0.6461738135392338,-0.2282091230154037,-0.9616891741752625,-0.1519027054309845,-0.9918174743652344,-35.54898834228516,-29.37592887878418,1,192.168.1.8,10.83.46.32,1,0
2015-03-01 17:30:50.328,42,1425259847.269546,37.77925485366548,-122.4387348340554,56.15644,-1,-1,10,65,-9999,1425259850.273109,-1.260505676269531,-34.12167358398438,-28.03233337402344,345.3717956542969,331.5946960449219,10,191201.4239676667,-0.3340911865234375,-0.79315185546875,-0.0462493896484375,191201.3851724167,-0.002368349157407466,-0.5379926286579592,0.7793147045193803,191201.3851724167,-0.2738493762135594,-1.076112161748687,1.255092590074991,-0.02553263679146767,-0.5299142003059387,0.8064336776733398,-0.00148577697109431,0.1682447344064713,0.08606375008821487,XTrueNorthZVertical,0.4428565072009126,-0.4797666877187968,-0.3929633882802384,0.647519702839041,-0.2732639908790588,-0.9505780935287476,-0.1474040746688843,-4.108529567718506,-35.21274185180664,-29.51003646850586,1,192.168.1.8,10.83.46.32,1,0
2015-03-01 17:30:50.387,43,1425259847.269546,37.77925485366548,-122.4387348340554,56.15644,-1,-1,10,65,-9999,1425259850.348556,-4.636756896972656,-33.95172119140625,-27.6329345703125,345.0444641113281,331.2673645019531,10,191201.4729308333,-0.2655792236328125,-0.7528533935546875,-0.147857666015625,191201.4369457917,0.1531045984364374,-0.07675869420269983,0.5667853947833508,191201.4369457917,-0.2183425406972732,-1.142668449038166,1.226090836270939,0.1299405544996262,-0.06868039816617966,0.5939040780067444,-0.00343172182328999,0.1335120499134064,0.09868272393941879,XTrueNorthZVertical,0.4329122454193414,-0.492382236701652,-0.3842378894146185,0.6500060890431446,-0.3074203431606293,-0.9411750435829163,-0.1402934342622757,-5.970406055450439,-35.02713775634766,-29.41280746459961,1,192.168.1.8,10.83.46.32,1,0
2015-03-01 17:30:50.427,44,1425259847.269546,37.77925485366548,-122.4387348340554,56.15644,-1,-1,10,65,-9999,1425259850.399093,-5.932701110839844,-34.01971435546875,-27.26680755615234,342.5833435058594,328.8062438964844,10,191201.5219709583,-0.3250274658203125,-0.7789154052734375,-0.123931884765625,191201.4887174584,0.3620125417221771,0.3262851704343281,0.7947615714740579,191201.4887174584,-0.147866070727736,-1.1983950427513,1.196852281004566,0.3388486802577972,0.3343633711338043,0.8218799829483032,0.06125963851809502,0.202393501996994,-0.04135883972048759,XTrueNorthZVertical,0.4295117112827491,-0.4990629159775187,-0.3672436919591871,0.65695351219966,-0.3402513265609741,-0.9308938980102539,-0.1329117864370346,-7.042799949645996,-35.01308441162109,-29.19147872924805,1,192.168.1.8,10.83.46.32,1,0
2015-03-01 17:30:50.485,45,1425259847.269546,37.77925485366548,-122.4387348340554,56.15644,-1,-1,10,65,-9999,1425259850.449962,-6.887611389160156,-33.81581115722656,-27.26680755615234,339.4653015136719,325.6882019042969,10,191201.571042125,-0.3408966064453125,-0.9077301025390625,-0.1131591796875,191201.5404908333,0.1986289404263609,-0.1103456829224522,0.3632754127110927,191201.5404908333,-0.083794795433269,-1.250226540801017,1.173437635276428,0.175465315580368,-0.1022675409913063,0.3903936147689819,0.04582791402935982,0.1002327129244804,-0.001853023306466639,XTrueNorthZVertical,0.428132521919674,-0.5056992955363384,-0.3519792663171297,0.6611212543549851,-0.3672695755958557,-0.9220863580703735,-0.1219415292143822,-8.150229454040527,-35.20938491821289,-28.66238975524902,1,192.168.1.8,10.83.46.32,1,0
2015-03-01 17:30:50.524,46,1425259847.269546,37.77925485366548,-122.4387348340554,56.15644,-1,-1,10,65,-9999,1425259850.502122,-7.757255554199219,-33.83279418945312,-27.01718139648438,338.8324584960938,325.0553588867188,10,191201.62008825,-0.469482421875,-0.740814208984375,-0.0484771728515625,191201.5922646667,-0.01891137321676168,-0.9072468380162797,0.1415877583023897,191201.5922646667,-0.06894558259238745,-1.292418970638446,1.162178623752658,-0.04207707941532135,-0.8991675972938538,0.1686991602182388,-0.02380876801908016,0.03929875046014786,-0.01965753547847271,XTrueNorthZVertical,0.4206461108941407,-0.5181341614397549,-0.3533529146725317,0.6555421485606286,-0.3820444941520691,-0.9176709651947021,-0.1091876775026321,-8.974569320678711,-35.26668930053711,-28.34391021728516,1,192.168.1.8,10.83.46.32,1,0
2015-03-01 17:30:50.583,47,1425259847.269546,37.77925485366548,-122.4387348340554,56.15644,-1,-1,10,65,-9999,1425259850.554031,-8.984992980957031,-33.69686889648438,-26.71763610839844,339.9735412597656,326.1964416503906,10,191201.6691507083,-0.3902740478515625,-0.8558502197265625,-0.0997161865234375,191201.644036,-0.1619385700883392,-0.678072238835037,-0.4914472307060992,191201.644036,-0.08366450611979272,-1.324006874121763,1.164360635508096,-0.1851041913032532,-0.6699936985969543,-0.4643323123455048,-0.2164937853813171,0.06874328106641769,0.03317756950855255,XTrueNorthZVertical,0.4118467496183323,-0.531124594732979,-0.3652461567666975,0.6441149861430049,-0.3833597302436829,-0.9185357689857483,-0.09657783806324005,-10.32844734191895,-35.16718673706055,-28.00449562072754,1,192.168.1.8,10.83.46.32,1,0
2015-03-01 17:30:50.623,48,1425259847.269546,37.77925485366548,-122.4387348340554,56.15644,-1,-1,10,65,-9999,1425259850.604459,-10.00810241699219,-34.13868713378906,-26.35150909423828,342.7075500488281,328.9304504394531,10,191201.7182465833,-0.444000244140625,-0.7693634033203125,-0.073333740234375,191201.6958095834,-0.04669426865679532,-0.4032646406913955,-0.06924458518704127,191201.6958095834,-0.09766391331814128,-1.337868684211151,1.17136952399623,-0.06985974311828613,-0.3951881229877472,-0.04211882501840591,-0.03590323030948639,0.100117065012455,0.04360855743288994,XTrueNorthZVertical,0.4078959111831722,-0.5373432120735856,-0.374302545237138,0.636223823363912,-0.3783881366252899,-0.9212840795516968,-0.08976639807224274,-11.05946254730225,-35.11145782470703,-27.79448509216309,1,192.168.1.8,10.83.46.32,1,0
2015-03-01 17:30:50.684,49,1425259847.269546,37.77925485366548,-122.4387348340554,56.15644,-1,-1,10,65,-9999,1425259850.657511,-10.33208465576172,-34.29164123535156,-26.30158233642578,343.6959533691406,329.9188537597656,10,191201.767245625,-0.430450439453125,-0.8084259033203125,-0.07427978515625,191201.74758325,-0.1255203748137237,-0.581980859331125,-0.2223854026143037,191201.74758325,-0.1215601124099947,-1.337692073293955,1.176032399471162,-0.1486856192350388,-0.5739044547080994,-0.1952599138021469,-0.09880340099334717,0.1345284283161163,-0.002773853484541178,XTrueNorthZVertical,0.4030493241804579,-0.5414159992189975,-0.382981919039959,0.6306700868632852,-0.3741885423660278,-0.9230873584747314,-0.08883991837501526,-11.4934663772583,-35.0127067565918,-27.7429313659668,1,192.168.1.8,10.83.46.32,1,0
2015-03-01 17:30:50.721,50,1425259847.269546,37.77925485366548,-122.4387348340554,56.15644,-1,-1,10,65,-9999,1425259850.710581,-10.99710845947266,-33.96878051757812,-26.0186767578125,346.1868896484375,332.4097900390625,10,191201.8163937917,-0.4773101806640625,-0.845245361328125,-0.0255126953125,191201.799354875,-0.1448168411241108,-0.8462018595094835,-0.2866272396936311,191201.74758325,-0.1215601124099947,-1.337692073293955,1.176032399471162,-0.1486856192350388,-0.5739044547080994,-0.1952599138021469,-0.09880340099334717,0.1345284283161163,-0.002773853484541178,XTrueNorthZVertical,0.4030493241804579,-0.5414159992189975,-0.382981919039959,0.6306700868632852,-0.3741885423660278,-0.9230873584747314,-0.08883991837501526,-11.4934663772583,-35.0127067565918,-27.7429313659668,1,192.168.1.8,10.83.46.32,1,0
2015-03-01 17:30:50.782,51,1425259847.269546,37.77925485366548,-122.4387348340554,56.15644,-1,-1,10,65,-9999,1425259850.760724,-11.54277038574219,-33.83282470703125,-26.0186767578125,349.1483764648438,335.3712768554688,10,191201.865346375,-0.5154266357421875,-0.89312744140625,-0.021942138671875,191201.851128375,-0.2097766664333236,-0.6769470532744785,-0.381301018549294,191201.851128375,-0.1840509989213674,-1.357267668769601,1.197267358898186,-0.2329793125391006,-0.6685702204704285,-0.3541858196258545,-0.1777468174695969,0.05729663372039795,0.07006335258483887,XTrueNorthZVertical,0.3891463745026716,-0.5566882695217392,-0.4113332212442054,0.6078389602497409,-0.3566159605979919,-0.9310454130172729,-0.07732653617858887,-12.73755645751953,-34.80581283569336,-27.4585075378418,1,192.168.1.8,10.83.46.32,1,0
2015-03-01 17:30:50.818,52,1425259847.269546,37.77925485366548,-122.4387348340554,56.15644,-1,-1,10,65,-9999,1425259850.81358,-11.49161529541016,-33.50994873046875,-25.66919708251953,351.2232666015625,337.4461669921875,10,191201.9143802917,-0.4574432373046875,-0.9821014404296875,-0.0189666748046875,191201.9029022084,-0.1508100188412251,-0.287192362476946,-0.4634153297041432,191201.9029022084,-0.2214916613475096,-1.34517391750752,1.213773830239629,-0.1740116029977798,-0.2788174748420715,-0.4362901747226715,-0.1448454260826111,0.002996869152411819,0.05952305719256401,XTrueNorthZVertical,0.3868137949750192,-0.5579272447137781,-0.4241473079046411,0.5993256957019816,-0.3406282067298889,-0.9369415640830994,-0.07818455249071121,-12.95572948455811,-34.74407196044922,-27.43461227416992,1,192.168.1.8,10.83.46.32,1,0
2015-03-01 17:30:50.878,53,1425259847.269546,37.77925485366548,-122.4387348340554,56.15644,-1,-1,10,65,-9999,1425259850.867829,-11.35520172119141,-33.37399291992188,-25.70247650146484,353.7386474609375,339.9615478515625,10,191201.9635741667,-0.4483642578125,-1.0679931640625,-0.0430755615234375,191201.9546735417,-0.06843365263511214,-0.1044840653631878,-0.4914168706696723,191201.9029022084,-0.2214916613475096,-1.34517391750752,1.213773830239629,-0.1740116029977798,-0.2788174748420715,-0.4362901747226715,-0.1448454260826111,0.002996869152411819,0.05952305719256401,XTrueNorthZVertical,0.3868137949750192,-0.5579272447137781,-0.4241473079046411,0.5993256957019816,-0.3406282067298889,-0.9369415640830994,-0.07818455249071121,-12.95572948455811,-34.74407196044922,-27.43461227416992,1,192.168.1.8,10.83.46.32,1,0
2015-03-01 17:30:50.918,54,1425259847.269546,37.77925485366548,-122.4387348340554,56.15644,-1,-1,10,65,-9999,1425259850.867829,-11.35520172119141,-33.37399291992188,-25.70247650146484,353.7386474609375,339.9615478515625,10,191202.0124874167,-0.492401123046875,-1.191986083984375,-0.025970458984375,191202.0064473333,-0.04562580842745553,-0.2479237858876186,-0.7875228333151135,191201.9546735417,-0.2514402571911736,-1.32466696257608,1.231876059609499,-0.09163133800029755,-0.09611247479915619,-0.4642758071422577,-0.1084132790565491,-0.09472760558128357,0.04311906173825264,XTrueNorthZVertical,0.3890355198291501,-0.5551108425004369,-0.4331791244101323,0.5940194556858316,-0.3224491477012634,-0.9431142210960388,-0.08100663125514984,-12.59844017028809,-34.80109405517578,-27.5285758972168,1,192.168.1.8,10.83.46.32,1,0
2015-03-01 17:30:50.976,55,1425259847.269546,37.77925485366548,-122.4387348340554,56.15644,-1,-1,10,65,-9999,1425259850.968739,-9.8717041015625,-34.17266845703125,-25.78567504882812,356.6721496582031,342.8950500488281,10,191202.0616567083,-0.4122772216796875,-1.17816162109375,-0.0901336669921875,191202.058220875,0.1218292335428738,0.09213871581401645,-0.6948818453195081,191202.058220875,-0.3153288710057437,-1.276193708290223,1.29733593523721,0.09863199293613434,0.1005101427435875,-0.6677412986755371,-0.1552055925130844,-0.2872799336910248,0.0363931730389595,XTrueNorthZVertical,0.4047027916024403,-0.5449841385519835,-0.4558959704749431,0.5756446421265086,-0.2584296464920044,-0.9628421068191528,-0.0784158781170845,-11.00245475769043,-35.33702087402344,-27.52999687194824,1,192.168.1.8,10.83.46.32,1,0
2015-03-01 17:30:51.016,56,1425259847.269546,37.77925485366548,-122.4387348340554,56.15644,-1,-1,10,65,-9999,1425259850.968739,-9.8717041015625,-34.17266845703125,-25.78567504882812,356.6721496582031,342.8950500488281,10,191202.1105862917,-0.2882537841796875,-1.008041381835938,-0.11029052734375,191202.058220875,0.1218292335428738,0.09213871581401645,-0.6948818453195081,191202.058220875,-0.3153288710057437,-1.276193708290223,1.29733593523721,0.09863199293613434,0.1005101427435875,-0.6677412986755371,-0.1552055925130844,-0.2872799336910248,0.0363931730389595,XTrueNorthZVertical,0.4047027916024403,-0.5449841385519835,-0.4558959704749431,0.5756446421265086,-0.2584296464920044,-0.9628421068191528,-0.0784158781170845,-11.00245475769043,-35.33702087402344,-27.52999687194824,1,192.168.1.8,10.83.46.32,1,0
2015-03-01 17:30:51.076,57,1425259847.269546,37.77925485366548,-122.4387348340554,56.15644,-1,-1,10,65,-9999,1425259851.023044,-8.814491271972656,-34.54652404785156,-25.65253448486328,359.7479553222656,345.9708557128906,10,191202.1596452083,-0.29620361328125,-0.9605712890625,-0.0509490966796875,191202.1617660834,-0.1161178182690899,-0.1182906914024855,-0.2781440063572928,191202.109992375,-0.3198865452063153,-1.26715360362817,1.324140165788688,0.07726035267114639,0.008985205553472042,-0.380384624004364,-0.06932942569255829,-0.06591024994850159,-0.03067930601537228,XTrueNorthZVertical,0.4147463094972234,-0.5398920407705368,-0.4605402015065291,0.5695654102696946,-0.2329929620027542,-0.9697343111038208,-0.07300416380167007,-9.511944770812988,-35.93888854980469,-27.30528259277344,1,192.168.1.8,10.83.46.32,1,0
2015-03-01 17:30:51.114,58,1425259847.269546,37.77925485366548,-122.4387348340554,56.15644,-1,-1,10,65,-9999,1425259851.098671,-7.944854736328125,-34.86940002441406,-25.90216827392578,1.118544578552246,347.3414306640625,10,191202.2086822917,-0.2232208251953125,-0.9746246337890625,-0.0203399658203125,191202.1617660834,-0.1161178182690899,-0.1182906914024855,-0.2781440063572928,191202.1617660834,-0.3418339040903594,-1.248192536201951,1.332225830288731,-0.1393283158540726,-0.109922781586647,-0.2509706318378448,-0.07208063453435898,0.01110548991709948,0.02397110126912594,XTrueNorthZVertical,0.4159970866780697,-0.5380393340033859,-0.464355420578833,0.567304233218745,-0.2241229861974716,-0.971676766872406,-0.07492019981145859,-9.022897720336914,-36.078369140625,-27.28732681274414,1,192.168.1.8,10.83.46.32,1,0
2015-03-01 17:30:51.172,59,1425259847.269546,37.77925485366548,-122.4387348340554,56.15644,-1,-1,10,65,-9999,1425259851.149946,-7.5185546875,-34.68246459960938,-25.98537445068359,1.131056785583496,347.3539428710938,10,191202.2577739167,-0.1902618408203125,-0.973785400390625,-0.0491943359375,191202.213539875,-0.1870862676297395,-0.169693428866541,-0.362343838961783,191202.213539875,-0.3944902199282554,-1.205167397485656,1.342043240574315,-0.2102885544300079,-0.1613287776708603,-0.3351598978042603,-0.01144700404256582,-0.0006747274892404675,0.06073615700006485,XTrueNorthZVertical,0.4153524262051316,-0.5356718211133009,-0.4720268575728243,0.5636742486125268,-0.2117738276720047,-0.9739499092102051,-0.08107612282037735,-8.879513740539551,-35.99008178710938,-27.45046424865723,1,192.168.1.8,10.83.46.32,1,0
2015-03-01 17:30:51.211,60,1425259847.269546,37.77925485366548,-122.4387348340554,56.15644,-1,-1,10,65,-9999,1425259851.202224,-6.597755432128906,-34.58050537109375,-26.08522796630859,1.959639549255371,348.1825256347656,10,191202.3069376667,-0.154937744140625,-0.92633056640625,-0.0480804443359375,191202.2653113334,-0.1747840612902274,0.02450614203480014,-0.3892862407617876,191202.2653113334,-0.4550204238871467,-1.1486575551029,1.355524107328824,-0.1979718208312988,0.03286728262901306,-0.3620971441268921,0.004599235486239195,0.003132880199700594,0.03832562640309334,XTrueNorthZVertical,0.41742634912205,-0.5310322604426412,-0.4793912824828824,0.5603069965791385,-0.1948610693216324,-0.9769182801246643,-0.08751996606588364,-8.40757942199707,-35.92792129516602,-27.67953300476074,1,192.168.1.8,10.83.46.32,1,0
2015-03-01 17:30:51.270,61,1425259847.269546,37.77925485366548,-122.4387348340554,56.15644,-1,-1,10,65,-9999,1425259851.254765,-5.318870544433594,-34.73342895507812,-26.46798706054688,2.603957176208496,348.8268432617188,10,191202.3559155417,-0.0809173583984375,-0.952239990234375,-0.067169189453125,191202.36885875,-0.2599753887685541,0.08219899967751371,-0.5459371045057745,191202.3170849583,-0.5278301482436069,-1.078021775247325,1.371494507063947,-0.1426490992307663,0.02006244286894798,-0.4267049133777618,0.02707516774535179,0.05918453633785248,0.05809285491704941,XTrueNorthZVertical,0.4210209167140408,-0.5252721594936425,-0.4870540551654571,0.5564250571328904,-0.1744292974472046,-0.9802050590515137,-0.09366109222173691,-7.771461963653564,-35.86349487304688,-27.94769668579102,1,192.168.1.8,10.83.46.32,1,0
2015-03-01 17:30:51.309,62,1425259847.269546,37.77925485366548,-122.4387348340554,56.15644,-1,-1,10,65,-9999,1425259851.254765,-5.318870544433594,-34.73342895507812,-26.46798706054688,2.603957176208496,348.8268432617188,10,191202.404969875,-0.0556488037109375,-0.97271728515625,-0.0618743896484375,191202.36885875,-0.2599753887685541,0.08219899967751371,-0.5459371045057745,191202.36885875,-0.6331289047005628,-0.9699243191374337,1.387993809547261,-0.2831324636936188,0.09055667370557785,-0.5187641382217407,0.06840181350708008,0.03730843216180801,0.02931900136172771,XTrueNorthZVertical,0.4261903781177632,-0.5166956126062435,-0.4950612864541064,0.5534452808327164,-0.1499447822570801,-0.9833381175994873,-0.1027748137712479,-7.035505294799805,-35.84468078613281,-28.16593742370605,1,192.168.1.8,10.83.46.32,1,0
2015-03-01 17:30:51.369,63,1425259847.269546,37.77925485366548,-122.4387348340554,56.15644,-1,-1,10,65,-9999,1425259851.358461,-3.22149658203125,-34.44451904296875,-27.05046081542969,4.687941551208496,350.9108276367188,10,191202.45404525,-0.0679473876953125,-1.043594360351562,-0.13153076171875,191202.4206305,-0.2331871839956651,0.2954715976737843,-0.7947879367688496,191202.4206305,-0.8339659704824076,-0.7612606839497359,1.405291157095055,-0.2563410103321075,0.3038288056850433,-0.7676162123680115,0.07820434123277664,-0.01888325251638889,0.02030530199408531,XTrueNorthZVertical,0.4337557298759502,-0.5022141604645941,-0.5064627074175575,0.5505745912519069,-0.1136505082249641,-0.986335277557373,-0.11927380412817,-5.418452739715576,-35.63438034057617,-28.78351211547852,1,192.168.1.8,10.83.46.32,1,0
2015-03-01 17:30:51.408,64,1425259847.269546,37.77925485366548,-122.4387348340554,56.15644,-1,-1,10,65,-9999,1425259851.358461,-3.22149658203125,-34.44451904296875,-27.05046081542969,4.687941551208496,350.9108276367188,10,191202.5031863333,-0.590240478515625,-1.1416015625,-0.16448974609375,191202.4724041667,-0.006407032950512631,-0.006631271114297303,-0.5062301716010201,191202.4724041667,-1.023198374846609,-0.5654231203050964,1.419518531574753,-0.02955728396773338,0.001725252601318061,-0.4790586531162262,-0.0187456663697958,-0.06687112152576447,0.03389306738972664,XTrueNorthZVertical,0.4420668642579661,-0.4908703675407608,-0.5151179666365454,0.5461470506668151,-0.08074163645505905,-0.9885793328285217,-0.1272463351488113,-3.888831853866577,-35.49129867553711,-29.20452308654785,1,192.168.1.8,10.83.46.32,1,0
2015-03-01 17:30:51.473,65,1425259847.269546,37.77925485366548,-122.4387348340554,56.15644,-1,-1,10,65,-9999,1425259851.461514,-0.4249954223632812,-34.07069396972656,-26.85077667236328,5.157362937927246,351.3802490234375,10,191202.5521495,-0.203704833984375,-2.521957397460938,-0.162628173828125,191202.5241778333,0.4866178543853495,0.9662331930004447,0.09338507520417352,191202.5241778333,-0.989335146156518,-0.5873530123046101,1.427674497514516,0.4634678661823273,0.9745896458625793,0.1205563023686409,-0.6993396878242493,-0.4915629625320435,-0.1487417668104172,XTrueNorthZVertical,0.4477086910606063,-0.4900940292346033,-0.5102808511771721,0.5467889666842171,-0.07904167473316193,-0.989775538444519,-0.1187295392155647,-3.327422142028809,-35.5740852355957,-29.17314338684082,1,192.168.1.8,10.83.46.32,1,0
2015-03-01 17:30:51.506,66,1425259847.269546,37.77925485366548,-122.4387348340554,56.15644,-1,-1,10,65,-9999,1425259851.461514,-0.4249954223632812,-34.07069396972656,-26.85077667236328,5.157362937927246,351.3802490234375,10,191202.6012958334,0.199737548828125,-1.091995239257812,0.01953125,191202.57594925,-0.9105869746554571,1.904024091874952,0.1725214396280961,191202.57594925,-1.010705725474164,-0.4438128316855554,1.433736618797753,-0.9337367415428162,1.912380456924438,0.1996923983097076,1.10204803943634,0.09932562708854675,0.04983141645789146,XTrueNorthZVertical,0.4804805305147587,-0.4554573964815789,-0.4825402121256496,0.5734561135575362,-0.05866730213165283,-0.9906219840049744,-0.1233940422534943,-0.4051692485809326,-36.22304153442383,-28.55497360229492,1,192.168.1.8,10.83.46.32,1,0
2015-03-01 17:30:51.569,67,1425259847.269546,37.77925485366548,-122.4387348340554,56.15644,-1,-1,10,65,-9999,1425259851.565764,2.542015075683594,-34.81838989257812,-26.4180908203125,358.2891845703125,344.5120849609375,10,191202.650271125,-0.3423309326171875,-0.809906005859375,-0.0562591552734375,191202.627723125,0.0748550666555112,-0.3488818259675414,0.4196710445868286,191202.627723125,-0.9159248302142771,-0.542767161532789,1.433011154039384,0.05170550942420959,-0.3405255377292633,0.4468417465686798,-0.2188834995031357,-0.3808610439300537,0.2799175679683685,XTrueNorthZVertical,0.4781443997985239,-0.4610564152237759,-0.4791149525070092,0.5738063505354575,-0.07094193249940872,-0.9905226230621338,-0.117609828710556,0.647982120513916,-35.93799591064453,-28.90848159790039,1,192.168.1.8,10.83.46.32,1,0
2015-03-01 17:30:51.604,68,1425259847.269546,37.77925485366548,-122.4387348340554,56.15644,-1,-1,10,65,-9999,1425259851.565764,2.542015075683594,-34.81838989257812,-26.4180908203125,358.2891845703125,344.5120849609375,10,191202.6994305833,-0.0252227783203125,-0.9644622802734375,-0.073974609375,191202.6794968334,0.1682284239508884,1.199239282041985,-0.06482666725470881,191202.6794968334,-0.8498345367178682,-0.5747404104686061,1.439523543455995,0.1450790911912918,1.207595467567444,-0.03765622898936272,-0.2705481648445129,-0.09107766300439835,0.1206989213824272,XTrueNorthZVertical,0.4880940987986308,-0.4547873810982535,-0.4675056421946725,0.5799750114756625,-0.07115714251995087,-0.9913960695266724,-0.1098651811480522,0.06459927558898926,-36.16349029541016,-28.63315200805664,1,192.168.1.8,10.83.46.32,1,0
2015-03-01 17:30:51.677,69,1425259847.269546,37.77925485366548,-122.4387348340554,56.15644,-1,-1,10,65,-9999,1425259851.669618,3.377555847167969,-34.90338134765625,-25.80233764648438,355.6377258300781,341.8606262207031,10,191202.74840275,-0.0756072998046875,-1.007568359375,-0.0913238525390625,191202.7312682084,0.1119260027133052,-0.006573214202533576,0.2054636770479402,191202.7312682084,-0.7919790781462924,-0.6048334563945386,1.43829228681769,0.08877693116664886,0.001782883191481233,0.2326338142156601,0.06822767853736877,-0.04796565324068069,0.08801805973052979,XTrueNorthZVertical,0.4937541391886918,-0.4492968081008591,-0.4580448526746556,0.5869702649291276,-0.07512465119361877,-0.9912341833114624,-0.1086784601211548,1.482208728790283,-36.40384292602539,-28.28820991516113,1,192.168.1.8,10.83.46.32,1,0
2015-03-01 17:30:51.702,70,1425259847.269546,37.77925485366548,-122.4387348340554,56.15644,-1,-1,10,65,-9999,1425259851.669618,3.377555847167969,-34.90338134765625,-25.80233764648438,355.6377258300781,341.8606262207031,10,191202.7975552917,-0.158538818359375,-0.9707794189453125,-0.05499267578125,191202.783042,0.008265386759169924,0.4658712968614143,0.1166608368153571,191202.7312682084,-0.7919790781462924,-0.6048334563945386,1.43829228681769,0.08877693116664886,0.001782883191481233,0.2326338142156601,0.06822767853736877,-0.04796565324068069,0.08801805973052979,XTrueNorthZVertical,0.4937541391886918,-0.4492968081008591,-0.4580448526746556,0.5869702649291276,-0.07512465119361877,-0.9912341833114624,-0.1086784601211548,1.482208728790283,-36.40384292602539,-28.28820991516113,1,192.168.1.8,10.83.46.32,1,0
2015-03-01 17:30:51.770,71,1425259847.269546,37.77925485366548,-122.4387348340554,56.15644,-1,-1,10,65,-9999,1425259851.722099,3.7015380859375,-35.09030151367188,-25.55270385742188,353.4794616699219,339.7023620605469,10,191202.8465184583,-0.115325927734375,-0.99896240234375,-0.074859619140625,191202.8348158333,0.1027250474631904,0.676966760666545,0.04877845852589133,191202.8348158333,-0.698447379101747,-0.657845264230278,1.433088773928124,0.07968496531248093,0.6855378746986389,0.07599376887083054,-0.06557545065879822,-0.006170812528580427,0.06826574355363846,XTrueNorthZVertical,0.5007069622338003,-0.441565305166491,-0.4435403973674631,0.5979836836028559,-0.08393016457557678,-0.9905332922935486,-0.108625240623951,1.615150928497314,-36.50710296630859,-28.14750671386719,1,192.168.1.8,10.83.46.32,1,0
2015-03-01 17:30:51.800,72,1425259847.269546,37.77925485366548,-122.4387348340554,56.15644,-1,-1,10,65,-9999,1425259851.772449,3.906158447265625,-35.09030151367188,-25.65255737304688,352.574462890625,338.79736328125,10,191202.8955641667,-0.093719482421875,-0.992462158203125,-0.0848846435546875,191202.8865874167,-0.01960406141629129,0.814728621746927,0.2192159746010004,191202.8348158333,-0.698447379101747,-0.657845264230278,1.433088773928124,0.07968496531248093,0.6855378746986389,0.07599376887083054,-0.06557545065879822,-0.006170812528580427,0.06826574355363846,XTrueNorthZVertical,0.5007069622338003,-0.441565305166491,-0.4435403973674631,0.5979836836028559,-0.08393016457557678,-0.9905332922935486,-0.108625240623951,1.615150928497314,-36.50710296630859,-28.14750671386719,1,192.168.1.8,10.83.46.32,1,0
2015-03-01 17:30:51.873,73,1425259847.269546,37.77925485366548,-122.4387348340554,56.15644,-1,-1,10,65,-9999,1425259851.824791,5.253253936767578,-35.07330322265625,-25.20323181152344,348.5262451171875,334.7491455078125,10,191202.9446365417,-0.1436767578125,-1.006576538085938,-0.041839599609375,191202.938361,-0.002815760220540778,0.8780407492897078,0.1906770077274933,191202.8865874167,-0.6392756795247611,-0.6760942434173992,1.428523823764728,-0.04264388233423233,0.8232997059822083,0.246430978178978,0.0360536240041256,-0.01852652430534363,-0.003717314451932907,XTrueNorthZVertical,0.5079457315815006,-0.4320768069881485,-0.4302264692369798,0.6084454803080114,-0.0887269601225853,-0.9898963570594788,-0.1106015369296074,2.593481302261353,-36.63251113891602,-27.91043472290039,1,192.168.1.8,10.83.46.32,1,0
2015-03-01 17:30:51.899,74,1425259847.269546,37.77925485366548,-122.4387348340554,56.15644,-1,-1,10,65,-9999,1425259851.876897,5.986480712890625,-35.29420471191406,-25.08673858642578,345.3850708007812,331.6079711914062,10,191202.9936844167,-0.165496826171875,-1.002334594726562,-0.05572509765625,191202.9901349167,-0.04020680824136229,0.7606022694360476,0.1264322411709668,191202.938361,-0.5902047952520292,-0.6813296702882937,1.420618568495366,-0.02585535310208797,0.8866117000579834,0.217891737818718,-0.05417639017105103,-0.01607727818191051,0.06756523996591568,XTrueNorthZVertical,0.5143555715093412,-0.4211095049487179,-0.4162773787436144,0.6203371869828495,-0.09423059225082397,-0.9887444972991943,-0.1162102594971657,3.267537355422974,-36.60639190673828,-27.8739128112793,1,192.168.1.8,10.83.46.32,1,0
2015-03-01 17:30:51.969,75,1425259847.269546,37.77925485366548,-122.4387348340554,56.15644,-1,-1,10,65,-9999,1425259851.928637,6.498035430908203,-35.66806030273438,-24.58749389648438,342.7616271972656,328.9845275878906,10,191203.0427625,-0.1804046630859375,-1.014190673828125,-0.0697174072265625,191203.0419064167,-0.1050811460795835,0.7248466686406437,0.1237815969380109,191202.9901349167,-0.5442492904393943,-0.6844974556444307,1.412128994976058,-0.06324619054794312,0.7691731452941895,0.1536467224359512,-0.0505494698882103,-0.009494258090853691,0.07545879483222961,XTrueNorthZVertical,0.5200834440400075,-0.4102537817533521,-0.402400931375694,0.6318848684126214,-0.0999021902680397,-0.9874387383460999,-0.1224100887775421,4.007486343383789,-36.60959625244141,-27.7729549407959,1,192.168.1.8,10.83.46.32,1,0
2015-03-01 17:30:51.997,76,1425259847.269546,37.77925485366548,-122.4387348340554,56.15644,-1,-1,10,65,-9999,1425259851.985158,7.367683410644531,-35.85496520996094,-24.73726654052734,340.3753967285156,326.5982971191406,10,191203.0919152084,-0.1581268310546875,-1.015228271484375,-0.1458282470703125,191203.0419064167,-0.1050811460795835,0.7248466686406437,0.1237815969380109,191203.0419064167,-0.5328262275657325,-0.6567246113639809,1.40388673418597,-0.1281203031539917,0.7334175109863281,0.1509958207607269,-0.0970410630106926,-0.03316894918680191,0.02913111634552479,XTrueNorthZVertical,0.524810181647428,-0.3984783052933962,-0.39118004708569,0.6424697930020041,-0.1014300063252449,-0.9861028790473938,-0.1315786242485046,5.004909038543701,-36.52625274658203,-27.72081184387207,1,192.168.1.8,10.83.46.32,1,0
2015-03-01 17:30:52.070,77,1425259847.269546,37.77925485366548,-122.4387348340554,56.15644,-1,-1,10,65,-9999,1425259852.057264,8.203224182128906,-35.46412658691406,-25.15330505371094,337.10302734375,323.325927734375,10,191203.1408854584,-0.250335693359375,-0.9669036865234375,-0.2347412109375,191203.1454538333,-0.02519669970545769,-0.0988490828126891,-0.01947756126451252,191203.0936803333,-0.5236269299693879,-0.6327626635012983,1.39164533645455,-0.1610015779733658,0.6897913813591003,0.1692810356616974,-0.05274739861488342,-0.0312329363077879,-0.002133189234882593,XTrueNorthZVertical,0.5266322805498321,-0.3883438065843658,-0.3814438852878494,0.6529533230294963,-0.1053794324398041,-0.9839953184127808,-0.143695056438446,5.601302623748779,-36.35742568969727,-27.82845306396484,1,192.168.1.8,10.83.46.32,1,0
2015-03-01 17:30:52.095,78,1425259847.269546,37.77925485366548,-122.4387348340554,56.15644,-1,-1,10,65,-9999,1425259852.057264,8.203224182128906,-35.46412658691406,-25.15330505371094,337.10302734375,323.325927734375,10,191203.190038375,0.0283660888671875,-1.017929077148438,-0.0592193603515625,191203.1454538333,-0.02519669970545769,-0.0988490828126891,-0.01947756126451252,191203.1454538333,-0.5278706590050497,-0.6121030465723005,1.38279663031272,-0.04823635146021843,-0.09027834981679916,0.007736531086266041,-0.1429482847452164,0.01547635905444622,-0.08177942782640457,XTrueNorthZVertical,0.5263795277683978,-0.3826796313761484,-0.3770907795008555,0.6590018112265514,-0.1073874086141586,-0.9823800325393677,-0.152961790561676,6.124961376190186,-36.17703247070312,-27.95294189453125,1,192.168.1.8,10.83.46.32,1,0
2015-03-01 17:30:52.168,79,1425259847.269546,37.77925485366548,-122.4387348340554,56.15644,-1,-1,10,65,-9999,1425259852.16181,8.203224182128906,-35.02224731445312,-25.35301208496094,335.4163818359375,321.6392822265625,10,191203.2390019167,0.0264892578125,-1.032943725585938,-0.1764068603515625,191203.1972256667,-0.1079776000811537,0.398542589762576,0.1467028918081049,191203.1972256667,-0.5159329338136796,-0.6172617424230383,1.373825771427071,-0.1310170441865921,0.4071132242679596,0.1739167273044586,0.1416376233100891,-0.03726514056324959,0.1003667265176773,XTrueNorthZVertical,0.5242799571875786,-0.381231532381074,-0.3741894566945175,0.6631555220434611,-0.113271526992321,-0.9806639552116394,-0.1595860868692398,6.023967266082764,-36.02009963989258,-28.17665863037109,1,192.168.1.8,10.83.46.32,1,0
2015-03-01 17:30:52.192,80,1425259847.269546,37.77925485366548,-122.4387348340554,56.15644,-1,-1,10,65,-9999,1425259852.16181,8.203224182128906,-35.02224731445312,-25.35301208496094,335.4163818359375,321.6392822265625,10,191203.2880548333,-0.08642578125,-0.973480224609375,-0.144683837890625,191203.2489992917,-0.1228707958452038,-0.1915665035315798,-0.003506051575089317,191203.2489992917,-0.5237006491851758,-0.6057495537531727,1.367271806049595,-0.1459099948406219,-0.182995930314064,0.02370749600231647,0.09311133623123169,-0.04931098595261574,-0.02675719186663628,XTrueNorthZVertical,0.5224560767945506,-0.3794203586754241,-0.3735282267901041,0.6660003406473638,-0.1150839924812317,-0.9793602824211121,-0.1661596745252609,6.178927898406982,-35.89326477050781,-28.30466461181641,1,192.168.1.8,10.83.46.32,1,0
2015-03-01 17:30:52.271,81,1425259847.269546,37.77925485366548,-122.4387348340554,56.15644,-1,-1,10,65,-9999,1425259852.265633,7.742824554443359,-35.03924560546875,-26.26828002929688,338.4490661621094,324.6719665527344,10,191203.33713125,-0.001312255859375,-0.9952850341796875,-0.1569061279296875,191203.3007732083,-0.04744741061306972,-0.2672050721797923,0.06554412285237617,191203.3007732083,-0.535571250870579,-0.6112560555019174,1.361986991999401,-0.07048637419939041,-0.2586345970630646,0.09275739639997482,0.0002372710587223992,-0.01241371128708124,0.02042191289365292,XTrueNorthZVertical,0.5171349309038015,-0.3843066779734681,-0.3787307100715461,0.6644116498535568,-0.1189659088850021,-0.9782783985137939,-0.169759675860405,5.861678123474121,-35.72479248046875,-28.58390426635742,1,192.168.1.8,10.83.46.32,1,0
2015-03-01 17:30:52.293,82,1425259847.269546,37.77925485366548,-122.4387348340554,56.15644,-1,-1,10,65,-9999,1425259852.265633,7.742824554443359,-35.03924560546875,-26.26828002929688,338.4490661621094,324.6719665527344,10,191203.3862973333,-0.1073150634765625,-0.960205078125,-0.1361541748046875,191203.35254475,-0.05283125707277391,-0.000209590777789236,-0.03537343717897748,191203.35254475,-0.5309829401578821,-0.6164114003291022,1.356207112266657,-0.07587000727653503,0.008360807783901691,-0.008160407654941082,0.1394332051277161,0.007886705920100212,0.006274501793086529,XTrueNorthZVertical,0.5148296567549745,-0.3848024678535824,-0.3783355189940329,0.6661378768957439,-0.1231063082814217,-0.9770639538764954,-0.1737549751996994,5.404342174530029,-35.59262847900391,-28.8377799987793,1,192.168.1.8,10.83.46.32,1,0
2015-03-01 17:30:52.370,83,1425259847.269546,37.77925485366548,-122.4387348340554,56.15644,-1,-1,10,65,-9999,1425259852.317724,8.0838623046875,-34.83534240722656,-25.86888122558594,338.4762573242188,324.6991577148438,10,191203.435241625,-0.283599853515625,-0.9556121826171875,-0.19146728515625,191203.404318625,0.01953748238903931,-0.3892273849016968,-0.07338739857876853,191203.404318625,-0.5440353750716862,-0.6164229126384917,1.35558872064047,-0.00350104202516377,-0.3806570768356323,-0.04617464169859886,-0.05320867151021957,0.02402070350944996,0.0175540205091238,XTrueNorthZVertical,0.5120683622781853,-0.388152972101616,-0.3826570215978113,0.6638499959573824,-0.1234575882554054,-0.9769321084022522,-0.1742465198040009,5.294171810150146,-35.51279067993164,-28.95639610290527,1,192.168.1.8,10.83.46.32,1,0
2015-03-01 17:30:52.388,84,1425259847.269546,37.77925485366548,-122.4387348340554,56.15644,-1,-1,10,65,-9999,1425259852.369041,7.845138549804688,-34.90330505371094,-25.76904296875,338.1012268066406,324.3241271972656,10,191203.4842862917,-0.163726806640625,-0.97357177734375,-0.2115936279296875,191203.4560922917,-0.06311611888655091,-0.1239632245243543,-0.01999847557373202,191203.4560922917,-0.5508493935590771,-0.6232836611025353,1.355735720110534,-0.08615438640117645,-0.1153930053114891,0.007213983219116926,-0.1101596429944038,0.0312084574252367,-0.0596313439309597,XTrueNorthZVertical,0.5094758247426789,-0.3921670281167619,-0.386671273235425,0.6611540540778936,-0.1245663091540337,-0.9769634604454041,-0.17327880859375,4.893502235412598,-35.50220108032227,-29.03974533081055,1,192.168.1.8,10.83.46.32,1,0
2015-03-01 17:30:52.473,85,1425259847.269546,37.77925485366548,-122.4387348340554,56.15644,-1,-1,10,65,-9999,1425259852.421538,7.333576202392578,-34.90330505371094,-25.90216827392578,337.8457641601562,324.0686645507812,10,191203.5333669583,-0.192657470703125,-0.968353271484375,-0.1373138427734375,191203.507864125,-0.1571067969226085,-0.41141604415591,0.04858697724351463,191203.507864125,-0.558234525719652,-0.6263413422800647,1.348070365903829,-0.1801448464393616,-0.4028459191322327,0.07579915970563889,-0.01611771993339062,-0.01484388392418623,-0.006404549349099398,XTrueNorthZVertical,0.5044908387063323,-0.3949802317995963,-0.3896292423080426,0.6615652759899693,-0.1294816434383392,-0.9752989411354065,-0.1789592206478119,4.537176132202148,-35.34086990356445,-29.29328536987305,1,192.168.1.8,10.83.46.32,1,0
2015-03-01 17:30:52.486,86,1425259847.269546,37.77925485366548,-122.4387348340554,56.15644,-1,-1,10,65,-9999,1425259852.472744,6.617401123046875,-34.35952758789062,-26.46797943115234,338.8531494140625,325.0760498046875,10,191203.582425625,-0.1207275390625,-0.9541168212890625,-0.2254638671875,191203.5596377917,-0.1797226272156704,-0.322482975346022,0.1087661620799262,191203.5596377917,-0.5625725862955473,-0.6439848022721419,1.337473969643129,-0.2027604579925537,-0.3139129281044006,0.135978102684021,-0.07920155674219131,-0.03921188041567802,0.005824491381645203,XTrueNorthZVertical,0.4960935640110392,-0.4017964109954026,-0.3950976402356788,0.6605668968746023,-0.1388160288333893,-0.9729036092758179,-0.1849016398191452,3.81104850769043,-35.12814712524414,-29.65044784545898,1,192.168.1.8,10.83.46.32,1,0
2015-03-01 17:30:52.569,87,1425259847.269546,37.77925485366548,-122.4387348340554,56.15644,-1,-1,10,65,-9999,1425259852.525186,5.935329437255859,-34.22360229492188,-26.56783294677734,338.9130554199219,325.1359558105469,10,191203.631538875,-0.2210693359375,-0.9626007080078125,-0.1293182373046875,191203.61141175,-0.1577930935355219,-0.09885334387043322,0.05415298392178024,191203.61141175,-0.5637178038561893,-0.6490112497799051,1.325329445105112,-0.1808306872844696,-0.09028337150812149,0.08136465400457382,0.03867436200380325,-6.879930151626468e-05,-0.02513383701443672,XTrueNorthZVertical,0.4901874757170287,-0.4036282780910541,-0.3962468438584075,0.6631657720479652,-0.1468744426965714,-0.9700239896774292,-0.1936009079217911,3.226404666900635,-34.88195419311523,-30.00831985473633,1,192.168.1.8,10.83.46.32,1,0
2015-03-01 17:30:52.585,88,1425259847.269546,37.77925485366548,-122.4387348340554,56.15644,-1,-1,10,65,-9999,1425259852.57668,5.287361145019531,-33.78176879882812,-27.16693115234375,339.5613098144531,325.7842102050781,10,191203.68060375,-0.28497314453125,-1.006118774414062,-0.165985107421875,191203.6631832917,0.07250828910293337,-0.01416189172871436,-0.06460296172314216,191203.61141175,-0.5637178038561893,-0.6490112497799051,1.325329445105112,-0.1808306872844696,-0.09028337150812149,0.08136465400457382,0.03867436200380325,-6.879930151626468e-05,-0.02513383701443672,XTrueNorthZVertical,0.4901874757170287,-0.4036282780910541,-0.3962468438584075,0.6631657720479652,-0.1468744426965714,-0.9700239896774292,-0.1936009079217911,3.226404666900635,-34.88195419311523,-30.00831985473633,1,192.168.1.8,10.83.46.32,1,0
2015-03-01 17:30:52.672,89,1425259847.269546,37.77925485366548,-122.4387348340554,56.15644,-1,-1,10,65,-9999,1425259852.627794,5.202106475830078,-33.90072631835938,-26.88400268554688,339.2376403808594,325.4605407714844,10,191203.72970325,-0.1078643798828125,-0.984130859375,-0.2249603271484375,191203.7149572083,0.1013572479273257,0.2811603026079165,-0.13571681967931,191203.7149572083,-0.5701252065732529,-0.6389376734050397,1.329279578200355,0.07832012325525284,0.2897300720214844,-0.1085057258605957,-0.004174193367362022,0.022337406873703,-0.02126358449459076,XTrueNorthZVertical,0.4924171242766854,-0.4019063944706087,-0.3960459930283832,0.6626795212749383,-0.1426306217908859,-0.9709762930870056,-0.1919932514429092,3.0694260597229,-34.76846313476562,-30.15613174438477,1,192.168.1.8,10.83.46.32,1,0
2015-03-01 17:30:52.683,90,1425259847.269546,37.77925485366548,-122.4387348340554,56.15644,-1,-1,10,65,-9999,1425259852.627794,5.202106475830078,-33.90072631835938,-26.88400268554688,339.2376403808594,325.4605407714844,10,191203.7787633333,-0.1832427978515625,-0.961639404296875,-0.1344451904296875,191203.766730875,0.1552050335881829,-0.09402210333692049,-0.1960653815610506,191203.766730875,-0.583259559833796,-0.6198207871330951,1.338498114693792,0.1321681141853333,-0.08545239269733429,-0.1688545346260071,0.02774155326187611,-0.002262948546558619,0.0001041630457621068,XTrueNorthZVertical,0.4971252221481682,-0.3989627094149679,-0.3959668584413429,0.6609882508220556,-0.133729100227356,-0.9731398820877075,-0.18739053606987,3.623363494873047,-34.87322616577148,-29.97313690185547,1,192.168.1.8,10.83.46.32,1,0
2015-03-01 17:30:52.743,91,1425259847.269546,37.77925485366548,-122.4387348340554,56.15644,-1,-1,10,65,-9999,1425259852.733251,5.679553985595703,-34.61444091796875,-26.55117797851562,339.8422241210938,326.0651245117188,10,191203.8278704167,-0.15325927734375,-0.9745635986328125,-0.149261474609375,191203.8185027917,0.09723387561155604,0.1495705836699023,-0.1654145279431107,191203.766730875,-0.583259559833796,-0.6198207871330951,1.338498114693792,0.1321681141853333,-0.08545239269733429,-0.1688545346260071,0.02774155326187611,-0.002262948546558619,0.0001041630457621068,XTrueNorthZVertical,0.4971252221481682,-0.3989627094149679,-0.3959668584413429,0.6609882508220556,-0.133729100227356,-0.9731398820877075,-0.18739053606987,3.623363494873047,-34.87322616577148,-29.97313690185547,1,192.168.1.8,10.83.46.32,1,0
2015-03-01 17:30:52.781,92,1425259847.269546,37.77925485366548,-122.4387348340554,56.15644,-1,-1,10,65,-9999,1425259852.733251,5.679553985595703,-34.61444091796875,-26.55117797851562,339.8422241210938,326.0651245117188,10,191203.8769349167,-0.077392578125,-0.9995574951171875,-0.1570892333984375,191203.8702764584,0.09903683566953969,0.05306747946146394,-0.1947849337089405,191203.8185027917,-0.5978503395281876,-0.6046781825936596,1.348029932096686,0.07431299239397049,0.1583405882120132,-0.1381372064352036,-0.04881079494953156,-0.02344351448118687,0.05458768829703331,XTrueNorthZVertical,0.5008853228655206,-0.3977897382082648,-0.397253091273877,0.6580783765599325,-0.1255971640348434,-0.9752900004386902,-0.1817544400691986,3.960477352142334,-35.05828475952148,-29.71347999572754,1,192.168.1.8,10.83.46.32,1,0
2015-03-01 17:30:52.871,93,1425259847.269546,37.77925485366548,-122.4387348340554,56.15644,-1,-1,10,65,-9999,1425259852.860948,6.924335479736328,-34.56344604492188,-26.26828002929688,339.7099914550781,325.9328918457031,10,191203.9260257084,-0.0955963134765625,-0.9911651611328125,-0.1250762939453125,191203.9220504167,0.08039177856178593,-0.1020605887712157,-0.1052105757085614,191203.9220504167,-0.6306699801433207,-0.5679048013656575,1.364864429133133,0.05749547109007835,-0.09329213947057724,-0.0779481902718544,0.01250948291271925,-0.002513421699404716,0.04103444144129753,XTrueNorthZVertical,0.5081488173188693,-0.3944537107219687,-0.3990146891682335,0.6534357490154528,-0.1099826246500015,-0.9788708686828613,-0.1723821014165878,4.700981616973877,-35.19675064086914,-29.44060134887695,1,192.168.1.8,10.83.46.32,1,0
2015-03-01 17:30:52.880,94,1425259847.269546,37.77925485366548,-122.4387348340554,56.15644,-1,-1,10,65,-9999,1425259852.860948,6.924335479736328,-34.56344604492188,-26.26828002929688,339.7099914550781,325.9328918457031,10,191203.9750855833,-0.098052978515625,-0.9971160888671875,-0.1096038818359375,191203.9220504167,0.08039177856178593,-0.1020605887712157,-0.1052105757085614,191203.9220504167,-0.6306699801433207,-0.5679048013656575,1.364864429133133,0.05749547109007835,-0.09329213947057724,-0.0779481902718544,0.01250948291271925,-0.002513421699404716,0.04103444144129753,XTrueNorthZVertical,0.5081488173188693,-0.3944537107219687,-0.3990146891682335,0.6534357490154528,-0.1099826246500015,-0.9788708686828613,-0.1723821014165878,4.700981616973877,-35.19675064086914,-29.44060134887695,1,192.168.1.8,10.83.46.32,1,0
2015-03-01 17:30:52.977,95,1425259847.269546,37.77925485366548,-122.4387348340554,56.15644,-1,-1,10,65,-9999,1425259852.913625,7.163063049316406,-34.46148681640625,-25.93544769287109,339.7579650878906,325.9808654785156,10,191204.0241763333,-0.06768798828125,-0.9844970703125,-0.1729278564453125,191204.0255959583,0.09129502638067934,-0.07787029764169891,-0.1082870593998209,191203.973822125,-0.6480353925892343,-0.551894343938599,1.373923721132562,0.0002622994652483612,0.02766776643693447,-0.1102764829993248,0.01150575838983059,-0.01560901291668415,0.05415096506476402,XTrueNorthZVertical,0.5113768701247566,-0.3939701320055884,-0.4006486457404698,0.6502013881587293,-0.1025549545884132,-0.9806830883026123,-0.1665624678134918,4.948097229003906,-35.45430755615234,-29.08896636962891,1,192.168.1.8,10.83.46.32,1,0
2015-03-01 17:30:52.983,96,1425259847.269546,37.77925485366548,-122.4387348340554,56.15644,-1,-1,10,65,-9999,1425259852.977526,7.350631713867188,-34.51248168945312,-25.85224151611328,340.3411865234375,326.5640869140625,10,191204.0732237917,-0.1049346923828125,-1.003662109375,-0.0965118408203125,191204.0773696667,0.06135390519324549,-0.002415220792592861,-0.1125846024508818,191204.0255959583,-0.6686626676355212,-0.532076790576483,1.381396316640132,0.06843657791614532,-0.06910210847854614,-0.08106373995542526,0.02782564423978329,-0.002379698446020484,-0.01068565621972084,XTrueNorthZVertical,0.5141313923812502,-0.3931256940658701,-0.4022511239043755,0.6475454301122938,-0.09551363438367844,-0.9821173548698425,-0.162242203950882,5.144952297210693,-35.54093170166016,-28.94877243041992,1,192.168.1.8,10.83.46.32,1,0
2015-03-01 17:30:53.048,97,1425259847.269546,37.77925485366548,-122.4387348340554,56.15644,-1,-1,10,65,-9999,1425259853.041495,8.015651702880859,-34.49549865722656,-26.13515472412109,340.4020080566406,326.6249084472656,10,191204.1223,-0.0565643310546875,-1.001907348632812,-0.1337890625,191204.0773696667,0.06135390519324549,-0.002415220792592861,-0.1125846024508818,191204.0773696667,-0.6640250236900651,-0.540116343114637,1.390025595143761,0.03853550180792809,0.006348538212478161,-0.08536528795957565,-0.01248149294406176,-0.01995669305324554,0.05768276005983353,XTrueNorthZVertical,0.5166909102364591,-0.3948837829914968,-0.4027872008082649,0.644096050898226,-0.09245319664478302,-0.9837054014205933,-0.1541946083307266,5.27485179901123,-35.56594085693359,-28.89462280273438,1,192.168.1.8,10.83.46.32,1,0
2015-03-01 17:30:53.086,98,1425259847.269546,37.77925485366548,-122.4387348340554,56.15644,-1,-1,10,65,-9999,1425259853.041495,8.015651702880859,-34.49549865722656,-26.13515472412109,340.4020080566406,326.6249084472656,10,191204.1713434584,-0.058502197265625,-1.009796142578125,-0.09271240234375,191204.1291414167,0.01924932835909273,0.05480758891772172,-0.1066145942352511,191204.1291414167,-0.6756994075703072,-0.5258859799027693,1.400799410499296,-0.00352725014090538,0.06356866657733917,-0.07942055910825729,0.02836008369922638,-0.01632205955684185,0.01253044605255127,XTrueNorthZVertical,0.5213156926550827,-0.3937895307714267,-0.4027745056519463,0.6410400941840568,-0.08492441475391388,-0.9855852723121643,-0.1463195085525513,5.491588592529297,-35.9316520690918,-28.39750289916992,1,192.168.1.8,10.83.46.32,1,0
2015-03-01 17:30:53.177,99,1425259847.269546,37.77925485366548,-122.4387348340554,56.15644,-1,-1,10,65,-9999,1425259853.148639,8.578365325927734,-34.44448852539062,-26.2183837890625,340.462646484375,326.685546875,10,191204.220431625,-0.07830810546875,-1.011306762695312,-0.104736328125,191204.2326890834,0.03520725592695654,0.06324901062494588,-0.03468714056606406,191204.18091525,-0.6924257332111626,-0.5079447109535671,1.402394676078855,-0.0262431800365448,-0.03359853476285934,-0.0524638295173645,0.02301870286464691,-0.02394222281873226,0.05373317375779152,XTrueNorthZVertical,0.5222433261964344,-0.3924781786704185,-0.4034334483297358,0.6406747934700706,-0.08152090013027191,-0.985853910446167,-0.1464455723762512,5.735871315002441,-35.91723251342773,-28.3674430847168,1,192.168.1.8,10.83.46.32,1,0
2015-03-01 17:30:53.180,100,1425259847.269546,37.77925485366548,-122.4387348340554,56.15644,-1,-1,10,65,-9999,1425259853.148639,8.578365325927734,-34.44448852539062,-26.2183837890625,340.462646484375,326.685546875,10,191204.269475125,-0.080352783203125,-0.99432373046875,-0.130706787109375,191204.2326890834,0.03520725592695654,0.06324901062494588,-0.03468714056606406,191204.2326890834,-0.6910162200143086,-0.5088949794694266,1.404897493783968,0.0124517260119319,0.07200776040554047,-0.007494210265576839,0.01942245848476887,-0.02415143139660358,0.03645526245236397,XTrueNorthZVertical,0.5232673745006903,-0.3925364174158414,-0.4031915719236958,0.639955406902304,-0.08045761287212372,-0.9862703084945679,-0.1442128270864487,5.77350902557373,-35.976318359375,-28.28481674194336,1,192.168.1.8,10.83.46.32,1,0
2015-03-01 17:30:53.243,101,1425259847.269546,37.77925485366548,-122.4387348340554,56.15644,-1,-1,10,65,-9999,1425259853.223863,8.578369140625,-34.75038146972656,-26.18508911132812,340.5413208007812,326.7642211914062,10,191204.3185475417,-0.0875091552734375,-1.00653076171875,-0.15338134765625,191204.2844610417,-0.004955876472528454,0.002032524543948475,-0.05019419496137745,191204.2844610417,-0.6928348837515895,-0.504547710694816,1.406827294079359,-0.02768791653215885,0.01078929752111435,-0.02300804667174816,-0.0003139373438898474,-0.01588475331664085,0.03069695085287094,XTrueNorthZVertical,0.5245100175196702,-0.3917165145698631,-0.4026035226530899,0.6398107282551465,-0.07890969514846802,-0.9865871667861938,-0.142894834280014,5.928720951080322,-35.97991180419922,-28.24811172485352,1,192.168.1.8,10.83.46.32,1,0
2015-03-01 17:30:53.278,102,1425259847.269546,37.77925485366548,-122.4387348340554,56.15644,-1,-1,10,65,-9999,1425259853.274561,8.646572113037109,-34.78436279296875,-26.41807556152344,340.5655517578125,326.7884521484375,10,191204.3675933334,-0.082427978515625,-0.9827423095703125,-0.1894073486328125,191204.3362347083,-0.01109153330796201,0.005114334557388169,-0.01111843123497181,191204.3362347083,-0.6834045883795546,-0.5137980167522671,1.407727994340252,-0.03380637615919113,0.01386914867907763,0.01607084088027477,0.008410726673901081,-0.02915060333907604,-0.01791691593825817,XTrueNorthZVertical,0.5248351553665566,-0.3922443610549288,-0.4020002006692116,0.6396000393075277,-0.0797913447022438,-0.9867337942123413,-0.1413848400115967,5.911932468414307,-36.08441543579102,-28.11802864074707,1,192.168.1.8,10.83.46.32,1,0
2015-03-01 17:30:53.344,103,1425259847.269546,37.77925485366548,-122.4387348340554,56.15644,-1,-1,10,65,-9999,1425259853.327565,8.595413208007812,-34.66542053222656,-26.20172882080078,340.5968322753906,326.8197326660156,10,191204.4166692917,-0.0982818603515625,-0.975860595703125,-0.144256591796875,191204.38800875,-0.009809487559197866,-0.2002635887034515,0.02586701735183063,191204.38800875,-0.6900591905659695,-0.511613513704727,1.403777328625888,-0.0325344130396843,-0.1915077120065689,0.05305449292063713,-0.0104829678311944,-0.02368090488016605,-0.01529099512845278,XTrueNorthZVertical,0.5224867813620967,-0.3931019709782706,-0.4036129938016614,0.6399803947447448,-0.08139020204544067,-0.9860846996307373,-0.1449568122625351,5.891717433929443,-35.98619842529297,-28.24784660339355,1,192.168.1.8,10.83.46.32,1,0
2015-03-01 17:30:53.376,104,1425259847.269546,37.77925485366548,-122.4387348340554,56.15644,-1,-1,10,65,-9999,1425259853.327565,8.595413208007812,-34.66542053222656,-26.20172882080078,340.5968322753906,326.8197326660156,10,191204.4657087917,-0.0981292724609375,-0.981781005859375,-0.1741485595703125,191204.4397804167,0.00664964692581885,-0.08358996871486209,-0.005241367341384948,191204.4397804167,-0.6762760390401545,-0.5340797277284863,1.401527549016419,-0.01607260480523109,-0.07483512908220291,0.02195511199533939,-0.0374748632311821,-0.01326944772154093,0.009930212050676346,XTrueNorthZVertical,0.5198206898899437,-0.3965929194339318,-0.4050854086124518,0.6390667172172251,-0.0857551172375679,-0.9857082366943359,-0.145001009106636,5.502059936523438,-35.93901443481445,-28.38616180419922,1,192.168.1.8,10.83.46.32,1,0
2015-03-01 17:30:53.429,105,1425259847.269546,37.77925485366548,-122.4387348340554,56.15644,-1,-1,10,65,-9999,1425259853.381352,8.288478851318359,-34.25755310058594,-26.73426055908203,341.4410400390625,327.6639404296875,10,191204.5147845,-0.106903076171875,-0.9880828857421875,-0.139190673828125,191204.4915544167,0.01625460371329863,-0.04946289092604169,-0.02324486894253861,191204.4915544167,-0.6772401554591057,-0.5339812159553112,1.399084916598963,-0.006473931949585676,-0.04070749878883362,0.003952276427298784,0.008902058005332947,-0.005688272416591644,-0.006177709903568029,XTrueNorthZVertical,0.5187307050389577,-0.3967085479442661,-0.4053875571663576,0.639688723396571,-0.08696602284908295,-0.9852938055992126,-0.1470815688371658,5.345746994018555,-35.93358993530273,-28.42286682128906,1,192.168.1.8,10.83.46.32,1,0
2015-03-01 17:30:53.477,106,1425259847.269546,37.77925485366548,-122.4387348340554,56.15644,-1,-1,10,65,-9999,1425259853.432474,8.612464904785156,-34.27455139160156,-26.684326171875,339.7399291992188,325.9628295898438,10,191204.5638350833,-0.0705413818359375,-1.0035400390625,-0.13336181640625,191204.543328125,0.01695181928668138,0.03874206964181871,-0.007124488548179978,191204.543328125,-0.6741615182144776,-0.53836512392886,1.398111971887712,-0.005774141289293766,0.04749676957726479,0.020076684653759,0.003964497707784176,-0.01673450134694576,0.01037587504833937,XTrueNorthZVertical,0.5180868397594682,-0.3972720614928512,-0.4055461875077201,0.6397602489460601,-0.08810146152973175,-0.9851270914077759,-0.1475218683481216,5.249398231506348,-35.89338684082031,-28.49154663085938,1,192.168.1.8,10.83.46.32,1,0
2015-03-01 17:30:53.527,107,1425259847.269546,37.77925485366548,-122.4387348340554,56.15644,-1,-1,10,65,-9999,1425259853.48288,8.305530548095703,-34.24057006835938,-26.7841796875,340.104736328125,326.32763671875,10,191204.6130024167,-0.0399627685546875,-1.000518798828125,-0.1499786376953125,191204.595100125,0.01970606048604132,-0.009772203303936756,-0.005905027085032695,191204.595100125,-0.6770172570554174,-0.5341774233397869,1.399743729654242,-0.003007607767358422,-0.001017701113596559,0.02128108404576778,0.02900140546262264,-0.008841296657919884,-0.002511559054255486,XTrueNorthZVertical,0.5189830185714805,-0.39674140068437,-0.405361941752165,0.6394798935890458,-0.08666437119245529,-0.9854061603546143,-0.1465057730674744,5.351531982421875,-35.91861343383789,-28.44071006774902,1,192.168.1.8,10.83.46.32,1,0
2015-03-01 17:30:53.573,108,1425259847.269546,37.77925485366548,-122.4387348340554,56.15644,-1,-1,10,65,-9999,1425259853.5347,8.083858489990234,-34.12159729003906,-26.16844177246094,339.9232482910156,326.1461486816406,10,191204.661946625,-0.0170135498046875,-0.9910736083984375,-0.2342376708984375,191204.6468738333,-0.06877373830631525,-0.1806914852202412,0.2028441917997383,191204.595100125,-0.6770172570554174,-0.5341774233397869,1.399743729654242,-0.003007607767358422,-0.001017701113596559,0.02128108404576778,0.02900140546262264,-0.008841296657919884,-0.002511559054255486,XTrueNorthZVertical,0.5189830185714805,-0.39674140068437,-0.405361941752165,0.6394798935890458,-0.08666437119245529,-0.9854061603546143,-0.1465057730674744,5.351531982421875,-35.91861343383789,-28.44071006774902,1,192.168.1.8,10.83.46.32,1,0
2015-03-01 17:30:53.626,109,1425259847.269546,37.77925485366548,-122.4387348340554,56.15644,-1,-1,10,65,-9999,1425259853.586618,7.487045288085938,-33.90066528320312,-26.21836853027344,340.6099243164062,326.8328247070312,10,191204.7111338333,-0.1375274658203125,-0.95849609375,-0.109405517578125,191204.6986478333,-0.1277116237586409,-0.7679166413699502,0.3596670957501443,191204.6986478333,-0.620363575079646,-0.6166435294123842,1.378475309059618,-0.1504410356283188,-0.7591587901115417,0.3868272304534912,0.05584729462862015,0.01115003786981106,-0.03968316689133644,XTrueNorthZVertical,0.5055607250700545,-0.4079719335296466,-0.4082244907397128,0.6413423193485122,-0.1105347946286201,-0.9815632700920105,-0.1559345126152039,4.666771411895752,-35.73374176025391,-28.79202270507812,1,192.168.1.8,10.83.46.32,1,0
2015-03-01 17:30:53.674,110,1425259847.269546,37.77925485366548,-122.4387348340554,56.15644,-1,-1,10,65,-9999,1425259853.637964,6.480983734130859,-34.15557861328125,-26.63440704345703,341.16455078125,327.387451171875,10,191204.760071625,-0.1771087646484375,-0.9273529052734375,-0.0462493896484375,191204.7504195833,-0.3647404176267453,-0.3485145760532195,0.5611197858803162,191204.6986478333,-0.620363575079646,-0.6166435294123842,1.378475309059618,-0.1504410356283188,-0.7591587901115417,0.3868272304534912,0.05584729462862015,0.01115003786981106,-0.03968316689133644,XTrueNorthZVertical,0.5055607250700545,-0.4079719335296466,-0.4082244907397128,0.6413423193485122,-0.1105347946286201,-0.9815632700920105,-0.1559345126152039,4.666771411895752,-35.73374176025391,-28.79202270507812,1,192.168.1.8,10.83.46.32,1,0
2015-03-01 17:30:53.724,111,1425259847.269546,37.77925485366548,-122.4387348340554,56.15644,-1,-1,10,65,-9999,1425259853.693101,4.74169921875,-33.98562622070312,-27.16693878173828,340.8958435058594,327.1187438964844,10,191204.8092673334,-0.245147705078125,-0.9728546142578125,-0.1313323974609375,191204.8021935833,-0.5061649241543131,0.3079176147121606,0.8188013940019851,191204.8021935833,-0.5086235685873949,-0.7628276431376898,1.312030595274452,-0.5288936495780945,0.3166751563549042,0.8459616899490356,-0.08490866422653198,0.02127197757363319,0.08931984752416611,XTrueNorthZVertical,0.4737150456216254,-0.4279082342609166,-0.4047789760199699,0.6547079729802711,-0.176810085773468,-0.9667065739631653,-0.1849772036075592,1.111880779266357,-35.01599502563477,-30.00505638122559,1,192.168.1.8,10.83.46.32,1,0
2015-03-01 17:30:53.770,112,1425259847.269546,37.77925485366548,-122.4387348340554,56.15644,-1,-1,10,65,-9999,1425259853.693101,4.74169921875,-33.98562622070312,-27.16693878173828,340.8958435058594,327.1187438964844,10,191204.8581905834,-0.1895599365234375,-0.7998046875,-0.2971038818359375,191204.8539673334,-0.8678269938770359,0.2471251038767038,1.2662332297918,191204.8021935833,-0.5086235685873949,-0.7628276431376898,1.312030595274452,-0.5288936495780945,0.3166751563549042,0.8459616899490356,-0.08490866422653198,0.02127197757363319,0.08931984752416611,XTrueNorthZVertical,0.4737150456216254,-0.4279082342609166,-0.4047789760199699,0.6547079729802711,-0.176810085773468,-0.9667065739631653,-0.1849772036075592,1.111880779266357,-35.01599502563477,-30.00505638122559,1,192.168.1.8,10.83.46.32,1,0
2015-03-01 17:30:53.821,113,1425259847.269546,37.77925485366548,-122.4387348340554,56.15644,-1,-1,10,65,-9999,1425259853.767701,2.439712524414062,-32.88108825683594,-28.44834899902344,340.2369079589844,326.4598083496094,10,191204.9072689167,-0.213226318359375,-0.8470306396484375,-0.2817535400390625,191204.9057392917,-1.053589936761115,-0.2879851855334625,1.41462856047265,191204.8539673334,-0.4675066806652832,-0.7862431873733122,1.245906134657997,-0.8905555009841919,0.2561384737491608,1.293454766273499,0.1094015389680862,0.1272359490394592,0.07392486184835434,XTrueNorthZVertical,0.452209323828242,-0.427488319499305,-0.3911912485372377,0.6780337911274379,-0.2259023934602737,-0.9476857781410217,-0.2255209237337112,0.05805206298828125,-34.20671844482422,-30.94440841674805,1,192.168.1.8,10.83.46.32,1,0
2015-03-01 17:30:53.878,114,1425259847.269546,37.77925485366548,-122.4387348340554,56.15644,-1,-1,10,65,-9999,1425259853.819959,0.9220962524414062,-31.67459106445312,-29.59662628173828,335.244140625,321.467041015625,10,191204.95631225,-0.3212890625,-0.7972412109375,-0.1795501708984375,191204.9057392917,-1.053589936761115,-0.2879851855334625,1.41462856047265,191204.9057392917,-0.4320495571793915,-0.8241365485248734,1.160484255632272,-1.076318264007568,-0.2789719104766846,1.441849708557129,0.08366747945547104,0.06068839877843857,0.1085573956370354,XTrueNorthZVertical,0.4188641427550574,-0.4348445085879761,-0.3787247997770036,0.701448900496056,-0.2927739322185516,-0.9169963598251343,-0.2709261775016785,-2.473618507385254,-32.33841705322266,-32.79889297485352,1,192.168.1.8,10.83.46.32,1,0
2015-03-01 17:30:53.920,115,1425259847.269546,37.77925485366548,-122.4387348340554,56.15644,-1,-1,10,65,-9999,1425259853.872477,-1.36285400390625,-29.53343200683594,-31.26078796386719,330.382080078125,316.60498046875,10,191205.0054953333,-0.2783966064453125,-0.8271484375,-0.3179168701171875,191205.0092870833,-1.431956950737469,0.1828654236180729,1.970990342749431,191204.9575130834,-0.4205631505009055,-0.8317429292716446,1.059588208604999,-1.573385953903198,0.4879065155982971,1.650899171829224,0.04030490294098854,0.07491288334131241,0.1499903798103333,XTrueNorthZVertical,0.379332255560049,-0.4374205829542224,-0.3644275531996076,0.7293577878359605,-0.3615939617156982,-0.8721541166305542,-0.3295405507087708,-4.829187393188477,-30.41165733337402,-34.34340667724609,1,192.168.1.8,10.83.46.32,1,0
2015-03-01 17:30:53.973,116,1425259847.269546,37.77925485366548,-122.4387348340554,56.15644,-1,-1,10,65,-9999,1425259853.923295,-3.562538146972656,-26.66159057617188,-33.04144287109375,328.5951843261719,314.8180847167969,10,191205.054431125,-0.4267730712890625,-0.6912384033203125,-0.30145263671875,191205.0092870833,-1.431956950737469,0.1828654236180729,1.970990342749431,191205.0092870833,-0.410062884629582,-0.8124010903022059,0.9385190310958827,-1.454684615135193,0.1918784976005554,1.998211026191711,0.1506221890449524,-0.02046467922627926,0.08853624761104584,XTrueNorthZVertical,0.3349763813556638,-0.4296094337175314,-0.3417552962407616,0.7657870634807442,-0.4290187954902649,-0.8066837787628174,-0.4064531028270721,-6.181260108947754,-27.53215026855469,-36.48879623413086,1,192.168.1.8,10.83.46.32,1,0
2015-03-01 17:30:54.019,117,1425259847.269546,37.77925485366548,-122.4387348340554,56.15644,-1,-1,10,65,-9999,1425259853.974474,-5.881584167480469,-23.43284606933594,-34.87203216552734,322.8882446289062,309.1111450195312,10,191205.1035069167,-0.52105712890625,-0.7136077880859375,-0.403350830078125,191205.0610588334,-1.21421157369041,-0.08014623510928062,1.931980625418059,191205.0610588334,-0.3848808136760687,-0.8360415961707857,0.8216443574773614,-1.236939072608948,-0.07113324850797653,1.959201097488403,0.07853900641202927,0.04102825373411179,0.1551053524017334,XTrueNorthZVertical,0.2870583108608316,-0.4351074955251701,-0.3193729514563521,0.7913784569281019,-0.5053120851516724,-0.7322666645050049,-0.4565579891204834,-8.802774429321289,-23.37430191040039,-38.77902221679688,1,192.168.1.8,10.83.46.32,1,0
2015-03-01 17:30:54.073,118,1425259847.269546,37.77925485366548,-122.4387348340554,56.15644,-1,-1,10,65,-9999,1425259854.027221,-7.740226745605469,-19.77931213378906,-36.51955413818359,320.8053588867188,307.0282592773438,10,191205.152544,-0.429168701171875,-0.708038330078125,-0.6687774658203125,191205.1128328333,-1.268523548329268,0.3702387800133229,1.987984506297444,191205.1128328333,-0.3565662729864715,-0.8489508211109076,0.7059818614843184,-1.291250824928284,0.3792516887187958,2.015204668045044,0.05012113600969315,-0.06482647359371185,0.0994793027639389,XTrueNorthZVertical,0.2414998059670044,-0.4361912149137785,-0.2917579672372253,0.8162673012021542,-0.5711782574653625,-0.6487812995910645,-0.5028301477432251,-10.75496482849121,-20.26396942138672,-40.01702117919922,1,192.168.1.8,10.83.46.32,1,0
2015-03-01 17:30:54.117,119,1425259847.269546,37.77925485366548,-122.4387348340554,56.15644,-1,-1,10,65,-9999,1425259854.084471,-9.667083740234375,-16.22772216796875,-37.70111846923828,318.9375610351562,305.1604614257812,10,191205.2016136667,-0.69805908203125,-0.561309814453125,-0.466033935546875,191205.164606625,-1.287349966707256,-0.1808161211592569,1.822118039917347,191205.164606625,-0.3384665336636603,-0.8474765252011526,0.5909010982857532,-1.310076951980591,-0.1718033105134964,1.849337935447693,0.2238258570432663,-0.1275370568037033,-0.07164375483989716,XTrueNorthZVertical,0.1953760010799382,-0.4324396351735378,-0.2648890737431353,0.8394390445129402,-0.6225075125694275,-0.557109534740448,-0.5496483445167542,-11.78583431243896,-16.99030876159668,-41.23206329345703,1,192.168.1.8,10.83.46.32,1,0
2015-03-01 17:30:54.173,120,1425259847.269546,37.77925485366548,-122.4387348340554,56.15644,-1,-1,10,65,-9999,1425259854.156071,-11.90087127685547,-10.05917358398438,-39.48176574707031,313.8177795410156,300.0406799316406,10,191205.2506556667,-0.586517333984375,-0.4214630126953125,-0.6314697265625,191205.2163786667,-1.473412515213969,0.319928471228418,1.829382344422756,191205.2163786667,-0.330291226645127,-0.8533812510157648,0.4728168348950892,-1.496139049530029,0.3289412260055542,1.856601357460022,-0.01452415715903044,-0.0426662489771843,0.194060206413269,XTrueNorthZVertical,0.1441676028309293,-0.4319262557082818,-0.2411061268154297,0.8570432884307384,-0.6708396077156067,-0.4553958773612976,-0.5853108167648315,-13.51839160919189,-12.04926586151123,-42.42320251464844,1,192.168.1.8,10.83.46.32,1,0
2015-03-01 17:30:54.216,121,1425259847.269546,37.77925485366548,-122.4387348340554,56.15644,-1,-1,10,65,-9999,1425259854.208108,-12.95807647705078,-5.8448486328125,-40.18070983886719,308.6501159667969,294.8730163574219,10,191205.2998279167,-0.7678985595703125,-0.2776947021484375,-0.508026123046875,191205.268152375,-1.432891986596196,0.1271688715284827,1.890443035579984,191205.268152375,-0.3227151671509999,-0.8420593420173768,0.351092404294133,-1.455618381500244,0.136181652545929,1.917661309242249,0.0954199880361557,0.002950876951217651,0.0613856352865696,XTrueNorthZVertical,0.09267138963524593,-0.4227997907975788,-0.2148250046701237,0.8755012955566552,-0.7005072832107544,-0.3439237773418427,-0.6253046989440918,-13.79209423065186,-7.955380439758301,-43.29145050048828,1,192.168.1.8,10.83.46.32,1,0
2015-03-01 17:30:54.270,122,1425259847.269546,37.77925485366548,-122.4387348340554,56.15644,-1,-1,10,65,-9999,1425259854.259862,-13.16269683837891,-1.2567138671875,-40.77980041503906,307.40087890625,293.623779296875,10,191205.3487720834,-0.6753082275390625,-0.03857421875,-0.7355499267578125,191205.31992625,-1.439624457831916,0.4219794726197094,1.872003840824493,191205.31992625,-0.3107564724848408,-0.8408346624913301,0.2337587964681458,-1.462350606918335,0.4309921562671661,1.899221897125244,-0.1228306144475937,0.08081784844398499,0.06763476133346558,XTrueNorthZVertical,0.0424455993482063,-0.4169484567274424,-0.1873351706591583,0.8884018460533409,-0.7249324321746826,-0.231635719537735,-0.6487047076225281,-14.2240629196167,-3.977235317230225,-43.69802093505859,1,192.168.1.8,10.83.46.32,1,0
2015-03-01 17:30:54.319,123,1425259847.269546,37.77925485366548,-122.4387348340554,56.15644,-1,-1,10,65,-9999,1425259854.259862,-13.16269683837891,-1.2567138671875,-40.77980041503906,307.40087890625,293.623779296875,10,191205.3979453333,-0.81622314453125,0.0628204345703125,-0.8276824951171875,191205.371698375,-1.335871696504064,0.09407510024261306,1.54860580332792,191205.371698375,-0.3022270392837441,-0.8234287138047572,0.1219985472581881,-1.358597636222839,0.1030877009034157,1.575823545455933,0.02388165146112442,0.1482769548892975,-0.112878330051899,XTrueNorthZVertical,-0.004900214291939814,-0.4032949835299449,-0.1618204481761674,0.9006349079509651,-0.7280290126800537,-0.1216961443424225,-0.6746582984924316,-13.37693786621094,1.255558967590332,-44.12641906738281,1,192.168.1.8,10.83.46.32,1,0
2015-03-01 17:30:54.371,124,1425259847.269546,37.77925485366548,-122.4387348340554,56.15644,-1,-1,10,65,-9999,1425259854.317932,-12.75345611572266,2.991607666015625,-40.3138427734375,302.6451721191406,288.8680725097656,10,191205.4468720417,-0.847991943359375,0.2049560546875,-0.7124481201171875,191205.42347225,-1.120166833484224,-0.08182642344101161,1.05114302435155,191205.42347225,-0.303563299776988,-0.8258872597831621,0.03204839056958182,-1.142892599105835,-0.07281390577554703,1.078360557556152,-0.115066222846508,0.1293939799070358,-0.0392095111310482,XTrueNorthZVertical,-0.04616179034575961,-0.3988617136077097,-0.1448288783829287,0.9043245928452035,-0.7347720265388489,-0.03204290568828583,-0.6775568723678589,-13.0957555770874,4.74184513092041,-43.97357940673828,1,192.168.1.8,10.83.46.32,3,0
2015-03-01 17:30:54.410,125,1425259847.269546,37.77925485366548,-122.4387348340554,56.15644,-1,-1,10,65,-9999,1425259854.391121,-12.19075775146484,8.140533447265625,-40.13078308105469,301.0834045410156,287.3063049316406,10,191205.4960530417,-0.820098876953125,0.2110748291015625,-0.6865081787109375,191205.4752460417,-0.793015869379511,0.01335095917678524,0.7496899668694479,191205.4752460417,-0.3099412702017509,-0.8229354303344524,-0.0344783947008412,-0.8157413601875305,0.02236338704824448,0.776907205581665,-0.09846720099449158,0.1703471541404724,-0.001240351470187306,XTrueNorthZVertical,-0.0773345161803675,-0.392664547404802,-0.1346351842257437,0.9064806912975782,-0.732709527015686,0.03447156399488449,-0.6796678304672241,-12.79763221740723,7.565586090087891,-43.66511535644531,1,192.168.1.8,10.83.46.32,3,0
2015-03-01 17:30:54.479,126,1425259847.269546,37.77925485366548,-122.4387348340554,56.15644,-1,-1,10,65,-9999,1425259854.466861,-12.34422302246094,11.3182373046875,-39.51502990722656,299.0964965820312,285.3193969726562,10,191205.544978875,-0.8908538818359375,0.3459930419921875,-0.67340087890625,191205.5270179167,-0.5866208848983699,-0.01789990463474958,0.5409396827202408,191205.4752460417,-0.3099412702017509,-0.8229354303344524,-0.0344783947008412,-0.8157413601875305,0.02236338704824448,0.776907205581665,-0.09846720099449158,0.1703471541404724,-0.001240351470187306,XTrueNorthZVertical,-0.0773345161803675,-0.392664547404802,-0.1346351842257437,0.9064806912975782,-0.732709527015686,0.03447156399488449,-0.6796678304672241,-12.79763221740723,7.565586090087891,-43.66511535644531,1,192.168.1.8,10.83.46.32,3,0
2015-03-01 17:30:54.508,127,1425259847.269546,37.77925485366548,-122.4387348340554,56.15644,-1,-1,10,65,-9999,1425259854.466861,-12.34422302246094,11.3182373046875,-39.51502990722656,299.0964965820312,285.3193969726562,10,191205.5940510833,-0.7548980712890625,0.2320709228515625,-0.7511138916015625,191205.5787919167,-0.2511773697913684,0.1331766966315925,0.302890898154636,191205.5787919167,-0.3113171058850086,-0.8280059930863328,-0.1122076177527897,-0.2739024460315704,0.1421889364719391,0.3301075994968414,-0.1213957294821739,0.1081052049994469,0.1085701882839203,XTrueNorthZVertical,-0.1129836416202517,-0.3888295669859442,-0.1194253500845699,0.9065229180937637,-0.7319520711898804,0.1119723096489906,-0.6720925569534302,-12.33287811279297,11.49672317504883,-42.93465805053711,1,192.168.1.8,10.83.46.32,3,0
2015-03-01 17:30:54.571,128,1425259847.269546,37.77925485366548,-122.4387348340554,56.15644,-1,-1,10,65,-9999,1425259854.519394,-12.17371368408203,12.47378540039062,-39.28205871582031,301.7359008789062,287.9588012695312,10,191205.6431274583,-0.761199951171875,0.2917633056640625,-0.7682952880859375,191205.630566,-0.1129214923287768,-0.005930327115388448,0.05417295762995583,191205.630566,-0.3095753555087201,-0.8227978355582324,-0.1267822768999232,-0.1356463581323624,0.003081831848248839,0.08138939738273621,0.03132158145308495,0.1385412216186523,-0.05252012982964516,XTrueNorthZVertical,-0.118896476852623,-0.3853657337796715,-0.1159931225822406,0.9076907101223496,-0.7271681427955627,0.1264429092407227,-0.6747137308120728,-11.95364761352539,12.15229606628418,-42.86130523681641,1,192.168.1.8,10.83.46.32,3,0
2015-03-01 17:30:54.607,129,1425259847.269546,37.77925485366548,-122.4387348340554,56.15644,-1,-1,10,65,-9999,1425259854.570866,-11.79856109619141,13.1875,-39.78131103515625,301.3208923339844,287.5437927246094,10,191205.6922576667,-0.8185882568359375,0.2748565673828125,-0.6808624267578125,191205.6823379167,0.06334168863088063,-0.1428218671515324,-0.2802931773569867,191205.630566,-0.3095753555087201,-0.8227978355582324,-0.1267822768999232,-0.1356463581323624,0.003081831848248839,0.08138939738273621,0.03132158145308495,0.1385412216186523,-0.05252012982964516,XTrueNorthZVertical,-0.118896476852623,-0.3853657337796715,-0.1159931225822406,0.9076907101223496,-0.7271681427955627,0.1264429092407227,-0.6747137308120728,-11.95364761352539,12.15229606628418,-42.86130523681641,1,192.168.1.8,10.83.46.32,3,0
2015-03-01 17:30:54.676,130,1425259847.269546,37.77925485366548,-122.4387348340554,56.15644,-1,-1,10,65,-9999,1425259854.62353,-11.44047546386719,13.37442016601562,-39.43183898925781,301.580078125,287.802978515625,10,191205.7411812917,-0.7742156982421875,0.2676239013671875,-0.692108154296875,191205.7341117084,0.2994133424032106,-0.02064722161527533,-0.6311928804824811,191205.6823379167,-0.3157713314059167,-0.8240278604601535,-0.1317383339542587,0.04057415574789047,-0.1338034272193909,-0.253046452999115,-0.03191652148962021,0.1731773018836975,-0.05627516657114029,XTrueNorthZVertical,-0.1223904622577103,-0.385133925275815,-0.1177296881159564,0.9071009346232709,-0.7275286912918091,0.1313576102256775,-0.6733848452568054,-15.07367324829102,12.00804328918457,-37.78573608398438,1,192.168.1.8,10.83.46.32,3,0
2015-03-01 17:30:54.705,131,1425259847.269546,37.77925485366548,-122.4387348340554,56.15644,-1,-1,10,65,-9999,1425259854.674342,-11.79856109619141,13.05157470703125,-39.48176574707031,302.2025146484375,288.4254150390625,10,191205.7902322084,-0.8200531005859375,0.1523284912109375,-0.747802734375,191205.785885625,0.6094843891728092,-0.1414687150016632,-0.9039213487630978,191205.785885625,-0.3324773629900544,-0.8319475892578667,-0.07151271008852601,0.5867065787315369,-0.1324518918991089,-0.8766595721244812,-0.1246598958969116,0.09670007973909378,-0.08591338247060776,XTrueNorthZVertical,-0.09907156984804935,-0.392844519754453,-0.1370199875645035,0.9039267011560533,-0.7373548746109009,0.07145177572965622,-0.671716034412384,-15.74988460540771,10.80781936645508,-37.8721923828125,1,192.168.1.8,10.83.46.32,3,0
2015-03-01 17:30:54.745,132,1425259847.269546,37.77925485366548,-122.4387348340554,56.15644,-1,-1,10,65,-9999,1425259854.726485,-12.53179931640625,11.91305541992188,-39.2987060546875,303.5120849609375,289.7349853515625,10,191205.839264875,-0.8404693603515625,0.1265106201171875,-0.750152587890625,191205.785885625,0.6094843891728092,-0.1414687150016632,-0.9039213487630978,191205.785885625,-0.3324773629900544,-0.8319475892578667,-0.07151271008852601,0.5867065787315369,-0.1324518918991089,-0.8766595721244812,-0.1246598958969116,0.09670007973909378,-0.08591338247060776,XTrueNorthZVertical,-0.09907156984804935,-0.392844519754453,-0.1370199875645035,0.9039267011560533,-0.7373548746109009,0.07145177572965622,-0.671716034412384,-15.74988460540771,10.80781936645508,-37.8721923828125,1,192.168.1.8,10.83.46.32,3,0
2015-03-01 17:30:54.803,133,1425259847.269546,37.77925485366548,-122.4387348340554,56.15644,-1,-1,10,65,-9999,1425259854.783836,-13.69132232666016,9.5,-39.76466369628906,304.0360717773438,290.2589721679688,10,191205.888336,-0.7888336181640625,-0.0212249755859375,-0.694488525390625,191205.8894317083,1.238728634685679,-0.2477813067692994,-1.272999256857255,191205.8376575834,-0.3370630533567295,-0.8381971307194406,-0.009513012702522326,0.9321816563606262,-0.191342756152153,-1.087297081947327,-0.1155428439378738,0.17640021443367,-0.06805770099163055,XTrueNorthZVertical,-0.07254007350570692,-0.4004384560131573,-0.1513085396644982,0.900828872325087,-0.7434049248695374,0.009512869641184807,-0.6687739491462708,-16.46095275878906,8.516200065612793,-38.15340042114258,1,192.168.1.8,10.83.46.32,3,0
2015-03-01 17:30:54.871,134,1425259847.269546,37.77925485366548,-122.4387348340554,56.15644,-1,-1,10,65,-9999,1425259854.856727,-14.18582153320312,4.724945068359375,-39.38191223144531,307.3173828125,293.540283203125,10,191205.9373622084,-0.7680816650390625,-0.1464080810546875,-0.6958465576171875,191205.9412055,1.311874750869687,-0.3786812669849831,-1.467986058176824,191205.8894317083,-0.3366157716189121,-0.8485362438295838,0.07326412128293844,1.216079711914062,-0.2385833412408829,-1.245631694793701,-0.04053288698196411,0.0519736222922802,-0.03517983481287956,XTrueNorthZVertical,-0.03600651295092902,-0.4111559147959776,-0.1674235123325274,0.8953343861261797,-0.7483007311820984,-0.0731985941529274,-0.6593086719512939,-17.16165924072266,5.91339111328125,-38.33640289306641,1,192.168.1.8,10.83.46.32,3,0
2015-03-01 17:30:54.901,135,1425259847.269546,37.77925485366548,-122.4387348340554,56.15644,-1,-1,10,65,-9999,1425259854.856727,-14.18582153320312,4.724945068359375,-39.38191223144531,307.3173828125,293.540283203125,10,191205.986437625,-0.783538818359375,-0.149658203125,-0.5590667724609375,191205.9412055,1.311874750869687,-0.3786812669849831,-1.467986058176824,191205.9412055,-0.3322285361805473,-0.8644506288778244,0.1659312699538215,1.289225935935974,-0.3694833815097809,-1.440618634223938,-0.01779164932668209,0.01876280084252357,-0.05570326372981071,XTrueNorthZVertical,0.005187341417114468,-0.4241479045170124,-0.1838644980166524,0.8867161009366187,-0.7502900362014771,-0.1651708781719208,-0.6401432752609253,-17.85599327087402,2.787806987762451,-38.37397766113281,1,192.168.1.8,10.83.46.32,3,0
2015-03-01 17:30:54.943,136,1425259847.269546,37.77925485366548,-122.4387348340554,56.15644,-1,-1,10,65,-9999,1425259854.907792,-14.64622497558594,1.071380615234375,-39.43183898925781,310.5495300292969,296.7724304199219,10,191206.0354619167,-0.806121826171875,-0.2912445068359375,-0.5201873779296875,191205.9929776667,1.35948754378645,-0.5622247314165901,-1.770463633730279,191205.9929776667,-0.3343649765204351,-0.8890023784253679,0.2697900997719617,1.336838960647583,-0.5530269742012024,-1.743096470832825,-0.03518178313970566,0.1168709322810173,0.04832431301474571,XTrueNorthZVertical,0.04881950529990327,-0.4403647503120602,-0.2058934801425473,0.8725270013747226,-0.7483570575714111,-0.2665291428565979,-0.6073910593986511,-18.85678291320801,-1.829473972320557,-37.95056533813477,1,192.168.1.8,10.83.46.32,3,0
2015-03-01 17:30:55.000,137,1425259847.269546,37.77925485366548,-122.4387348340554,56.15644,-1,-1,10,65,-9999,1425259854.959885,-15.07251739501953,-2.989990234375,-39.248779296875,311.904296875,298.127197265625,10,191206.0845250417,-0.5576171875,-0.5501251220703125,-0.493896484375,191206.096525625,1.480584141713444,-0.4925665573122596,-1.875189247804337,191206.0447515,-0.3361867284955342,-0.9090430434203675,0.381729581339929,1.428478598594666,-0.281483918428421,-1.800267577171326,-0.07399062067270279,0.08128160983324051,0.05008286610245705,XTrueNorthZVertical,0.09592729451641421,-0.4535006415482241,-0.2297012604202422,0.855787592777418,-0.7321311831474304,-0.3725261092185974,-0.5702702403068542,-19.41294860839844,-5.604055404663086,-37.29480743408203,1,192.168.1.8,10.83.46.32,3,0
2015-03-01 17:30:55.044,138,1425259847.269546,37.77925485366548,-122.4387348340554,56.15644,-1,-1,10,65,-9999,1425259855.012876,-15.15777587890625,-7.7310791015625,-38.36676788330078,313.027587890625,299.25048828125,10,191206.1335598333,-0.59136962890625,-0.5166168212890625,-0.4791412353515625,191206.096525625,1.480584141713444,-0.4925665573122596,-1.875189247804337,191206.096525625,-0.3343856355748653,-0.9253926258792592,0.4978739908520315,1.45793604850769,-0.4833689630031586,-1.847822666168213,0.1233233660459518,-0.08419360965490341,-0.04404405504465103,XTrueNorthZVertical,0.1454022714832299,-0.4632602570279823,-0.2527650228352546,0.8368738899292316,-0.701875627040863,-0.4775587022304535,-0.5284962058067322,-19.2697696685791,-9.538694381713867,-36.56309509277344,1,192.168.1.8,10.83.46.32,3,0
2015-03-01 17:30:55.097,139,1425259847.269546,37.77925485366548,-122.4387348340554,56.15644,-1,-1,10,65,-9999,1425259855.065454,-14.69737243652344,-12.20028686523438,-37.45146179199219,317.3548889160156,303.5777893066406,10,191206.18272875,-0.6991119384765625,-0.5928192138671875,-0.2401123046875,191206.1482974583,1.405755174036615,-0.9190571585024541,-1.993948389242568,191206.1482974583,-0.3316136763043344,-0.9644106287724878,0.6178234953557151,1.383107304573059,-0.9098595976829529,-1.966582059860229,0.09100055694580078,0.102303147315979,0.0571860671043396,XTrueNorthZVertical,0.1927461796692654,-0.4801811432783668,-0.2783586067077731,0.8091918293228109,-0.6698122024536133,-0.579262375831604,-0.4645499587059021,-19.09499359130859,-14.81843948364258,-34.85636138916016,1,192.168.1.8,10.83.46.32,3,0
2015-03-01 17:30:55.142,140,1425259847.269546,37.77925485366548,-122.4387348340554,56.15644,-1,-1,10,65,-9999,1425259855.140012,-13.77658843994141,-18.89561462402344,-35.22148132324219,323.6994323730469,309.9223327636719,10,191206.2316552083,-0.5309295654296875,-0.6396636962890625,-0.1806488037109375,191206.2000715417,1.484375151525171,-0.5263657999708912,-2.041922306803146,191206.2000715417,-0.3242322280136989,-1.009747984185005,0.7410303504160707,1.461727499961853,-0.517168402671814,-2.014556407928467,-0.0313347801566124,0.0006862523150630295,0.1373468637466431,XTrueNorthZVertical,0.2399893436056491,-0.4961149624040825,-0.304530846931819,0.7768757770775331,-0.6246711015701294,-0.6750484108924866,-0.3925501108169556,-18.99047088623047,-18.65863990783691,-33.02101898193359,1,192.168.1.8,10.83.46.32,3,0
2015-03-01 17:30:55.195,141,1425259847.269546,37.77925485366548,-122.4387348340554,56.15644,-1,-1,10,65,-9999,1425259855.140012,-13.77658843994141,-18.89561462402344,-35.22148132324219,323.6994323730469,309.9223327636719,10,191206.2807215,-0.5355224609375,-0.7628326416015625,-0.111053466796875,191206.2518454167,1.46723797622662,-0.3086840724738854,-1.769718214941166,191206.2518454167,-0.3081861748525634,-1.035454732918816,0.8539584230920818,1.444591641426086,-0.2994874119758606,-1.742352485656738,0.0644293874502182,0.1094320490956306,0.1107954382896423,XTrueNorthZVertical,0.2864462644320755,-0.5003680642532116,-0.3239193869436207,0.7501043389681058,-0.5650855302810669,-0.7538869976997375,-0.3351606726646423,-17.89245223999023,-22.35311698913574,-31.29486846923828,1,192.168.1.8,10.83.46.32,3,0
2015-03-01 17:30:55.273,142,1425259847.269546,37.77925485366548,-122.4387348340554,56.15644,-1,-1,10,65,-9999,1425259855.193913,-12.60001373291016,-22.82106018066406,-33.30768585205078,325.5960388183594,311.8189392089844,10,191206.3297555417,-0.2554931640625,-0.80279541015625,-0.15972900390625,191206.3036175834,1.384680781382491,0.1408258279145181,-1.719757579207389,191206.3036175834,-0.2747748713359264,-1.070698937765824,0.962948534370542,1.362034559249878,0.1500223875045776,-1.692392110824585,0.04132363945245743,0.02467543445527554,0.02774069271981716,XTrueNorthZVertical,0.332619203820269,-0.5024336912688802,-0.3384161893971894,0.7227719450767925,-0.5011625289916992,-0.8208790421485901,-0.2738496959209442,-15.858717918396,-26.65567779541016,-28.93348693847656,1,192.168.1.8,10.83.46.32,3,0
2015-03-01 17:30:55.294,143,1425259847.269546,37.77925485366548,-122.4387348340554,56.15644,-1,-1,10,65,-9999,1425259855.270046,-8.967979431152344,-27.93600463867188,-30.82807159423828,330.6690979003906,316.8919982910156,10,191206.378838375,-0.5004425048828125,-0.8298187255859375,-0.18646240234375,191206.3553914167,1.102245090928536,-0.2516399608727152,-1.573566546960797,191206.3553914167,-0.2490269477400158,-1.093547273493326,1.063418829722045,1.079599380493164,-0.2424434274435043,-1.546201705932617,0.115096852183342,0.1720106452703476,-0.007832147181034088,XTrueNorthZVertical,0.3740792173991599,-0.4984694366525729,-0.3530092281083522,0.6978376569173886,-0.4315946698188782,-0.8740217685699463,-0.2231859266757965,-13.61148643493652,-29.41629409790039,-27.36018371582031,1,192.168.1.8,10.83.46.32,3,0
2015-03-01 17:30:55.343,144,1425259847.269546,37.77925485366548,-122.4387348340554,56.15644,-1,-1,10,65,-9999,1425259855.322869,-6.700088500976562,-31.01174926757812,-29.11398315429688,332.1123962402344,318.3352966308594,10,191206.42787375,-0.4267425537109375,-0.8260345458984375,-0.135772705078125,191206.4071655417,0.8761288659431399,-0.2113543230630865,-1.389473139764089,191206.4071655417,-0.2203476313296377,-1.133199372520205,1.151694534749312,0.8534833788871765,-0.2021578699350357,-1.362108588218689,-0.08814618736505508,0.02841454185545444,0.2082589566707611,XTrueNorthZVertical,0.4071641355796863,-0.4979900403960409,-0.3683299139806606,0.6712349153160185,-0.368595153093338,-0.9134548306465149,-0.1724465787410736,-11.80902481079102,-31.58203315734863,-25.73505020141602,1,192.168.1.8,10.83.46.32,3,0
2015-03-01 17:30:55.393,145,1425259847.269546,37.77925485366548,-122.4387348340554,56.15644,-1,-1,10,65,-9999,1425259855.373519,-4.38104248046875,-32.84701538085938,-27.78266143798828,336.3355102539062,322.5584106445312,10,191206.4769314583,-0.3784942626953125,-0.9244384765625,-0.24407958984375,191206.4589374167,0.4018536979458715,0.6521748614467795,-1.09605643718741,191206.4589374167,-0.2137822706978045,-1.122112228534196,1.221351420455292,0.3792080581188202,0.6613708138465881,-1.06869113445282,-0.002791947219520807,-0.001965411705896258,-0.03207173570990562,XTrueNorthZVertical,0.4362345118403755,-0.4852230767271151,-0.3773703196640923,0.6571526527647812,-0.3084873557090759,-0.9395629167556763,-0.1485160291194916,-9.137443542480469,-33.6519660949707,-24.1500129699707,1,192.168.1.8,10.83.46.32,3,0
2015-03-01 17:30:55.431,146,1425259847.269546,37.77925485366548,-122.4387348340554,56.15644,-1,-1,10,65,-9999,1425259855.42552,-1.942634582519531,-33.71365356445312,-26.76752471923828,338.2181701660156,324.4410705566406,10,191206.526190125,-0.077056884765625,-0.9643096923828125,-0.158935546875,191206.5107115833,-0.01539120688789494,0.07426277962907757,-0.3259978153527086,191206.4589374167,-0.2137822706978045,-1.122112228534196,1.221351420455292,0.3792080581188202,0.6613708138465881,-1.06869113445282,-0.002791947219520807,-0.001965411705896258,-0.03207173570990562,XTrueNorthZVertical,0.4362345118403755,-0.4852230767271151,-0.3773703196640923,0.6571526527647812,-0.3084873557090759,-0.9395629167556763,-0.1485160291194916,-9.137443542480469,-33.6519660949707,-24.1500129699707,1,192.168.1.8,10.83.46.32,3,0
