loggingTime,loggingSample,locationTimestamp_since1970,locationLatitude,locationLongitude,locationAltitude,locationSpeed,locationCourse,locationVerticalAccuracy,locationHorizontalAccuracy,locationFloor,locationHeadingTimestamp_since1970,locationHeadingX,locationHeadingY,locationHeadingZ,locationTrueHeading,locationMagneticHeading,locationHeadingAccuracy,accelerometerTimestamp_sinceReboot,accelerometerAccelerationX,accelerometerAccelerationY,accelerometerAccelerationZ,gyroTimestamp_sinceReboot,gyroRotationX,gyroRotationY,gyroRotationZ,motionTimestamp_sinceReboot,motionYaw,motionRoll,motionPitch,motionRotationRateX,motionRotationRateY,motionRotationRateZ,motionUserAccelerationX,motionUserAccelerationY,motionUserAccelerationZ,motionAttitudeReferenceFrame,motionQuaternionX,motionQuaternionY,motionQuaternionZ,motionQuaternionW,motionGravityX,motionGravityY,motionGravityZ,motionMagneticFieldX,motionMagneticFieldY,motionMagneticFieldZ,motionMagneticFieldCalibrationAccuracy,IP_en0,IP_pdp_ip0,deviceOrientation,state
2015-02-21 11:26:23.138,1,1424543180.453906,39.63851808131319,-106.3701432683602,2515.086,-1,-1,10,65,-9999,1424543183.119421,-20.95915222167969,-34.90443420410156,-17.20792388916016,115.5756378173828,106.4490814208984,10,14595.66914670833,-0.1297454833984375,-0.78173828125,-0.5556793212890625,14595.65878275,0.008551143944135427,0.4019477075323513,-0.05909075089889616,14595.64842691667,-3.060142548707609,-0.339774909253644,0.9499282196404858,-0.01632543280720711,0.5987613797187805,0.03674089908599854,-0.003828288987278938,0.01027316320687532,0.007314992137253284,XTrueNorthZVertical,0.1318814363037876,0.4564709018272788,0.8789276616200523,0.04156742942216248,-0.1938798427581787,-0.8133737444877625,-0.5484831929206848,-18.18104553222656,-33.5930290222168,-14.53881740570068,2,0.0.0.0,10.97.20.126,1,0
2015-02-21 11:26:23.207,2,1424543180.453906,39.63851808131319,-106.3701432683602,2515.086,-1,-1,10,65,-9999,1424543183.174671,-20.6181640625,-35.10826110839844,-17.70735931396484,115.2583847045898,106.1318283081055,10,14595.71830829167,-0.1913299560546875,-0.8060760498046875,-0.5453948974609375,14595.710562125,0.02075907438105865,-0.1786475090836054,0.02159690485999758,14595.700206125,-3.060940978270045,-0.3307752803308867,0.9492070799567298,0.04928506910800934,-0.08756200969219208,0.0294797495007515,0.06298194825649261,-0.0217475164681673,0.007623835932463408,XTrueNorthZVertical,0.1281472634637919,0.4562872589027121,0.8796566820948608,0.03980478466052208,-0.1891263574361801,-0.8129540085792542,-0.5507604479789734,-17.83514022827148,-33.57843017578125,-14.99386978149414,2,0.0.0.0,10.97.20.126,1,0
2015-02-21 11:26:23.237,3,1424543180.453906,39.63851808131319,-106.3701432683602,2515.086,-1,-1,10,65,-9999,1424543183.174671,-20.6181640625,-35.10826110839844,-17.70735931396484,115.2583847045898,106.1318283081055,10,14595.76750591667,-0.1856689453125,-0.8185882568359375,-0.5339813232421875,14595.710562125,0.02075907438105865,-0.1786475090836054,0.02159690485999758,14595.700206125,-3.060940978270045,-0.3307752803308867,0.9492070799567298,0.04928506910800934,-0.08756200969219208,0.0294797495007515,0.06298194825649261,-0.0217475164681673,0.007623835932463408,XTrueNorthZVertical,0.1281472634637919,0.4562872589027121,0.8796566820948608,0.03980478466052208,-0.1891263574361801,-0.8129540085792542,-0.5507604479789734,-17.83514022827148,-33.57843017578125,-14.99386978149414,2,0.0.0.0,10.97.20.126,1,0
2015-02-21 11:26:23.306,4,1424543180.453906,39.63851808131319,-106.3701432683602,2515.086,-1,-1,10,65,-9999,1424543183.248946,-20.20899200439453,-35.04031372070312,-18.14022064208984,114.5768051147461,105.4502487182617,10,14595.816551125,-0.1732635498046875,-0.79974365234375,-0.5497894287109375,14595.814120625,-0.02128584764467633,-0.1342661958335439,-0.003911917325217393,14595.80376479167,-3.055690715521923,-0.3491584557677208,0.9501294996002393,-0.01696771942079067,-0.09784461557865143,0.02617998793721199,0.01251479145139456,-0.01176552195101976,0.01482396852225065,XTrueNorthZVertical,0.1349759694904579,0.4566601686478211,0.8783497293275169,0.04177097110615578,-0.198961928486824,-0.8134908080101013,-0.546485960483551,-18.12435531616211,-33.54638290405273,-14.71621990203857,2,0.0.0.0,10.97.20.126,1,0
2015-02-21 11:26:23.335,5,1424543180.453906,39.63851808131319,-106.3701432683602,2515.086,-1,-1,10,65,-9999,1424543183.300723,-20.63522338867188,-34.68357849121094,-17.95709228515625,113.6863861083984,104.5598297119141,10,14595.86575329167,-0.2349395751953125,-0.800262451171875,-0.5376739501953125,14595.86589995833,0.004959604898054565,-0.0105162905125049,-0.02787770397484046,14595.80376479167,-3.055690715521923,-0.3491584557677208,0.9501294996002393,-0.01696771942079067,-0.09784461557865143,0.02617998793721199,0.01251479145139456,-0.01176552195101976,0.01482396852225065,XTrueNorthZVertical,0.1349759694904579,0.4566601686478211,0.8783497293275169,0.04177097110615578,-0.198961928486824,-0.8134908080101013,-0.546485960483551,-18.12435531616211,-33.54638290405273,-14.71621990203857,2,0.0.0.0,10.97.20.126,1,0
2015-02-21 11:26:23.402,6,1424543180.453906,39.63851808131319,-106.3701432683602,2515.086,-1,-1,10,65,-9999,1424543183.353222,-20.6693115234375,-34.75154113769531,-17.45766448974609,115.0942001342773,105.967643737793,10,14595.91480254167,-0.1747894287109375,-0.80426025390625,-0.54205322265625,14595.91767916667,0.01263270463079087,-0.05396070369107651,0.03436596333860051,14595.907323375,-3.053145127800439,-0.3564754163354013,0.948614654014983,0.01315067987889051,-0.001348098390735686,0.0383671261370182,0.0231481846421957,0.01155298389494419,0.007397175300866365,XTrueNorthZVertical,0.1376979645526259,0.4560201654814197,0.8782397153482862,0.04218962696614874,-0.2033849954605103,-0.8126088976860046,-0.5461697578430176,-18.31542205810547,-33.49798202514648,-14.58937549591064,2,0.0.0.0,10.97.20.126,1,0
2015-02-21 11:26:23.433,7,1424543180.453906,39.63851808131319,-106.3701432683602,2515.086,-1,-1,10,65,-9999,1424543183.404802,-20.46471405029297,-34.81947326660156,-17.52424621582031,115.5668258666992,106.4402694702148,10,14595.96390179167,-0.1914825439453125,-0.80987548828125,-0.5574188232421875,14595.91767916667,0.01263270463079087,-0.05396070369107651,0.03436596333860051,14595.907323375,-3.053145127800439,-0.3564754163354013,0.948614654014983,0.01315067987889051,-0.001348098390735686,0.0383671261370182,0.0231481846421957,0.01155298389494419,0.007397175300866365,XTrueNorthZVertical,0.1376979645526259,0.4560201654814197,0.8782397153482862,0.04218962696614874,-0.2033849954605103,-0.8126088976860046,-0.5461697578430176,-18.31542205810547,-33.49798202514648,-14.58937549591064,2,0.0.0.0,10.97.20.126,1,0
2015-02-21 11:26:23.500,8,1424543180.453906,39.63851808131319,-106.3701432683602,2515.086,-1,-1,10,65,-9999,1424543183.456648,-20.65225219726562,-35.07429504394531,-17.50760650634766,115.9633026123047,106.8367462158203,10,14596.0130625,-0.18194580078125,-0.79840087890625,-0.539215087890625,14596.021237875,-0.05495060066825897,-0.6442333150761631,0.07996860226457234,14595.95910291667,-3.051356698892607,-0.3650124306254527,0.9464613759994651,-0.005446115043014288,-0.3660174310207367,0.1222062483429909,0.03343237563967705,0.01617078483104706,-0.008884831331670284,XTrueNorthZVertical,0.1411693534177581,0.4550250640281906,0.8781577846992179,0.04315545087394847,-0.2086643129587173,-0.8113520741462708,-0.5460467934608459,-18.35160064697266,-33.48272705078125,-14.57891845703125,2,0.0.0.0,10.97.20.126,1,0
2015-02-21 11:26:23.532,9,1424543180.453906,39.63851808131319,-106.3701432683602,2515.086,-1,-1,10,65,-9999,1424543183.508712,-21.26601409912109,-35.07431030273438,-17.57419586181641,115.1904754638672,106.0639190673828,10,14596.06224825,-0.22894287109375,-0.8278045654296875,-0.5139007568359375,14596.021237875,-0.05495060066825897,-0.6442333150761631,0.07996860226457234,14596.010881875,-3.046560083398852,-0.3918436108035943,0.9428994225446879,-0.04841804876923561,-0.5702527165412903,0.1103075817227364,0.0329345278441906,0.006042092107236385,-0.0003541726910043508,XTrueNorthZVertical,0.1520785098187606,0.4532242825582784,0.8770797882867331,0.04680816740651911,-0.2243407815694809,-0.8092647194862366,-0.5429197549819946,-18.69073104858398,-33.3860969543457,-14.3681755065918,2,0.0.0.0,10.97.20.126,1,0
2015-02-21 11:26:23.603,10,1424543180.453906,39.63851808131319,-106.3701432683602,2515.086,-1,-1,10,65,-9999,1424543183.559893,-21.98207092285156,-35.17625427246094,-16.77509307861328,117.274528503418,108.1479721069336,10,14596.11128945833,-0.3170623779296875,-0.7980804443359375,-0.4915313720703125,14596.07301720833,-0.05620654743834034,-0.832070594133305,0.1593284059039526,14596.06266141667,-3.041720518102712,-0.4341047758440205,0.9374742180127487,-0.07098787277936935,-0.8896036148071289,0.1648832410573959,0.01997815258800983,-0.02173871546983719,0.02303149737417698,XTrueNorthZVertical,0.1698639795791176,0.4502000680415098,0.8749769773125243,0.05367959906911229,-0.2489210218191147,-0.8060658574104309,-0.5369322299957275,-19.3729133605957,-33.24135208129883,-13.78847217559814,2,0.0.0.0,10.97.20.126,1,0
2015-02-21 11:26:23.629,11,1424543180.453906,39.63851808131319,-106.3701432683602,2515.086,-1,-1,10,65,-9999,1424543183.612467,-22.90271759033203,-34.63267517089844,-16.14247894287109,116.8326034545898,107.7060470581055,10,14596.16048720833,-0.220947265625,-0.799835205078125,-0.5313262939453125,14596.12479641667,-0.03077548955695568,-0.3929084061604044,-0.04262442587893622,14596.11444066667,-3.031866462339447,-0.4745883410232094,0.933171601393987,-0.02610068768262863,-0.4173488318920135,0.008600885048508644,-0.04503194987773895,0.0054315528832376,0.03796650096774101,XTrueNorthZVertical,0.1856544395380524,0.4480887115269049,0.8725748234354934,0.05798444786927462,-0.2720304131507874,-0.8035119771957397,-0.5294978618621826,-20.07625770568848,-33.0743408203125,-13.17008781433105,2,0.0.0.0,10.97.20.126,1,0
2015-02-21 11:26:23.704,12,1424543180.453906,39.63851808131319,-106.3701432683602,2515.086,-1,-1,10,65,-9999,1424543183.663081,-23.24369812011719,-34.53073120117188,-15.47654724121094,117.811897277832,108.6853408813477,10,14596.20952504167,-0.3411712646484375,-0.7954559326171875,-0.502105712890625,14596.17657595833,0.03126870699083835,-0.6943673225969048,-0.01677711591917218,14596.16621995833,-3.034798533441821,-0.4938477642478262,0.9326020683110686,-0.008949622511863708,-0.6112673878669739,0.001231096335686743,0.06144678220152855,0.003337625181302428,-0.006762584205716848,XTrueNorthZVertical,0.1947486208856708,0.446979999200443,0.8707750142950995,0.06350442869192355,-0.2823940515518188,-0.8031728267669678,-0.524563729763031,-20.39527320861816,-33.03110504150391,-12.78273487091064,2,0.0.0.0,10.97.20.126,1,0
2015-02-21 11:26:23.728,13,1424543180.453906,39.63851808131319,-106.3701432683602,2515.086,-1,-1,10,65,-9999,1424543183.715728,-23.3118896484375,-34.63264465332031,-14.74403381347656,119.6326446533203,110.5060882568359,10,14596.25860254167,-0.3228759765625,-0.79840087890625,-0.5185699462890625,14596.228355,-0.01819418393520334,-0.6394111292903567,-0.01685248337802142,14596.21799920833,-3.033569550432668,-0.5297465134211793,0.932662447635171,-0.0208195224404335,-0.6789394021034241,-0.004379187244921923,-0.0401565283536911,0.007752866949886084,0.01194276195019484,XTrueNorthZVertical,0.2100673617978479,0.4459231616621072,0.867170400180314,0.07099167175023614,-0.3010147213935852,-0.8032088279724121,-0.5140484571456909,-20.84053039550781,-33.03810119628906,-12.02395534515381,2,0.0.0.0,10.97.20.126,1,0
2015-02-21 11:26:23.803,14,1424543180.453906,39.63851808131319,-106.3701432683602,2515.086,-1,-1,10,65,-9999,1424543183.767066,-23.63581848144531,-34.2080078125,-13.66191864013672,121.4994888305664,112.372932434082,10,14596.30773370833,-0.3181610107421875,-0.8199310302734375,-0.51025390625,14596.2801345,-0.1532790354878376,-0.8219023787752734,0.1824869884271726,14596.26977870833,-3.029679186563864,-0.5663338040958023,0.9272592021351002,-0.1403325945138931,-0.8004595637321472,0.1615936458110809,-0.003102115821093321,0.02400793135166168,-0.01628018729388714,XTrueNorthZVertical,0.2254974899332291,0.4426924252585681,0.8644585439333308,0.07671901641302607,-0.3219406008720398,-0.7999783754348755,-0.5063486099243164,-21.25086975097656,-32.98149490356445,-11.44730949401855,2,0.0.0.0,10.97.20.126,1,0
2015-02-21 11:26:23.826,15,1424543180.453906,39.63851808131319,-106.3701432683602,2515.086,-1,-1,10,65,-9999,1424543183.819548,-24.38597869873047,-33.42658996582031,-12.86281585693359,121.4494552612305,112.3228988647461,10,14596.3568255,-0.3474884033203125,-0.796051025390625,-0.4906158447265625,14596.33191375,-0.05408693752674627,-0.7869276168114808,0.06032832185745598,14596.32155775,-3.024867020287968,-0.6051545547995769,0.9152869293040276,-0.1114797368645668,-0.7041968107223511,0.1114071235060692,0.03822594881057739,-0.03830190747976303,-0.01722600124776363,XTrueNorthZVertical,0.2422614774301001,0.4366379076573955,0.8625642624064257,0.08148429526867132,-0.3467739224433899,-0.7927375435829163,-0.5013134479522705,-21.88871002197266,-32.73269653320312,-10.94870185852051,2,0.0.0.0,10.97.20.126,1,0
2015-02-21 11:26:23.900,16,1424543180.453906,39.63851808131319,-106.3701432683602,2515.086,-1,-1,10,65,-9999,1424543183.871014,-25.05088806152344,-32.76409912109375,-12.38001251220703,120.7511825561523,111.624626159668,10,14596.40595075,-0.43475341796875,-0.814056396484375,-0.420623779296875,14596.38369304167,-0.05538256539706982,-0.5749780772447616,0.06843525053176619,14596.37333725,-3.022252079899917,-0.6459112871914598,0.9111613661068823,-0.04658280313014984,-0.6762620806694031,0.07144144177436829,0.007122281938791275,-0.004858472384512424,-0.01277632638812065,XTrueNorthZVertical,0.259611622903824,0.433490742438108,0.8583919362807642,0.08860557661952029,-0.368877649307251,-0.7902159690856934,-0.4893751740455627,-22.56593322753906,-32.52753829956055,-10.15662670135498,2,0.0.0.0,10.97.20.126,1,0
2015-02-21 11:26:23.924,17,1424543180.453906,39.63851808131319,-106.3701432683602,2515.086,-1,-1,10,65,-9999,1424543183.871014,-25.05088806152344,-32.76409912109375,-12.38001251220703,120.7511825561523,111.624626159668,10,14596.45502983333,-0.3206024169921875,-0.7074432373046875,-0.534576416015625,14596.43547233333,-0.1727355577797385,-0.2920909809860377,-0.2137176122144228,14596.42511654167,-3.023754850423114,-0.6564671879964019,0.9122973666235951,-0.1157824918627739,-0.03918226435780525,-0.1793524175882339,-0.03414860740303993,-0.08198263496160507,0.05738981068134308,XTrueNorthZVertical,0.2643549247904034,0.4332956438556245,0.8567146183477415,0.0917142544553456,-0.3734746873378754,-0.7909116744995117,-0.4847427308559418,-22.88029289245605,-32.44459533691406,-9.708747863769531,2,0.0.0.0,10.97.20.126,1,0
2015-02-21 11:26:23.998,18,1424543180.453906,39.63851808131319,-106.3701432683602,2515.086,-1,-1,10,65,-9999,1424543183.974753,-24.89744567871094,-34.2080078125,-11.23130798339844,125.8642807006836,116.7377243041992,10,14596.50414908333,-0.3391876220703125,-0.862060546875,-0.423370361328125,14596.48725183333,0.2114960032330787,-0.9296176574890543,-0.8869801821207767,14596.47689583333,-3.055360964220321,-0.664657244109557,0.9208729639239318,0.1386875659227371,-0.9280413389205933,-0.6711184978485107,0.02507516928017139,0.03645610436797142,0.032280582934618,XTrueNorthZVertical,0.273893655629662,0.432234420123729,0.8523032649179501,0.1083277392108915,-0.3732349574565887,-0.7961301803588867,-0.4763113558292389,-22.67868804931641,-32.62844085693359,-9.56458568572998,2,0.0.0.0,10.97.20.126,1,0
2015-02-21 11:26:24.022,19,1424543180.453906,39.63851808131319,-106.3701432683602,2515.086,-1,-1,10,65,-9999,1424543183.974753,-24.89744567871094,-34.2080078125,-11.23130798339844,125.8642807006836,116.7377243041992,10,14596.55333854167,-0.279205322265625,-0.847137451171875,-0.48663330078125,14596.539031,-0.02878397769379442,-1.826448872482034,-1.137907481085787,14596.52867508333,-3.113133057676305,-0.6753898595624709,0.9553510641866447,0.005863058380782604,-1.531245946884155,-1.005491256713867,-0.04150776192545891,0.000918933714274317,0.007677178364247084,XTrueNorthZVertical,0.2880260680021154,0.4378944956917512,0.8399912362238042,0.1403716526494202,-0.3609428107738495,-0.8165164589881897,-0.4505787789821625,-21.61569213867188,-33.72731018066406,-8.102448463439941,2,0.0.0.0,10.97.20.126,1,0
2015-02-21 11:26:24.099,20,1424543180.453906,39.63851808131319,-106.3701432683602,2515.086,-1,-1,10,65,-9999,1424543184.078474,-23.70402526855469,-36.51824951171875,-8.767387390136719,131.6921539306641,122.5655899047852,10,14596.602347,-0.751556396484375,-0.85211181640625,-0.25787353515625,14596.59081041667,0.1529932783028721,-1.492979292374999,0.2306822146743366,14596.580454625,3.11668211058139,-0.7386901612145171,0.9838686822764001,0.1854709684848785,-2.091958522796631,-0.1121720001101494,0.06859760731458664,-0.02592018991708755,0.0809197723865509,XTrueNorthZVertical,0.3236585732256211,0.4364822441743435,0.8197939148615215,0.1807384814042693,-0.3728883862495422,-0.8326460719108582,-0.4094567596912384,-20.6077995300293,-34.71823501586914,-6.354689598083496,2,0.0.0.0,10.97.20.126,1,0
2015-02-21 11:26:24.120,21,1424543180.453906,39.63851808131319,-106.3701432683602,2515.086,-1,-1,10,65,-9999,1424543184.078474,-23.70402526855469,-36.51824951171875,-8.767387390136719,131.6921539306641,122.5655899047852,10,14596.65152158334,-0.1692352294921875,-0.89459228515625,-0.391082763671875,14596.64258966667,0.04035008630800856,-0.07487850247310389,-1.053812577028246,14596.580454625,3.11668211058139,-0.7386901612145171,0.9838686822764001,0.1854709684848785,-2.091958522796631,-0.1121720001101494,0.06859760731458664,-0.02592018991708755,0.0809197723865509,XTrueNorthZVertical,0.3236585732256211,0.4364822441743435,0.8197939148615215,0.1807384814042693,-0.3728883862495422,-0.8326460719108582,-0.4094567596912384,-20.6077995300293,-34.71823501586914,-6.354689598083496,2,0.0.0.0,10.97.20.126,1,0
2015-02-21 11:26:24.197,22,1424543180.453906,39.63851808131319,-106.3701432683602,2515.086,-1,-1,10,65,-9999,1424543184.182292,-22.59585571289062,-37.38458251953125,-6.55322265625,137.756591796875,128.6300354003906,10,14596.70054479167,-0.25921630859375,-0.8247833251953125,-0.410736083984375,14596.69436883333,-0.1359700862989766,-1.691493184242269,-0.3264644011756904,14596.68401325,3.069896329223648,-0.7638418886793603,1.011960356687774,-0.1135144904255867,-1.420162439346313,-0.2888356447219849,0.1321510970592499,0.04834282398223877,-0.01019522920250893,XTrueNorthZVertical,0.3419134790597346,0.4377720015901723,0.8046825668664398,0.209611299906416,-0.3667397201061249,-0.8478728532791138,-0.3829016983509064,-19.64086532592773,-35.59176254272461,-4.228734970092773,2,0.0.0.0,10.97.20.126,1,0
2015-02-21 11:26:24.219,23,1424543180.453906,39.63851808131319,-106.3701432683602,2515.086,-1,-1,10,65,-9999,1424543184.182292,-22.59585571289062,-37.38458251953125,-6.55322265625,137.756591796875,128.6300354003906,10,14596.74972808333,-0.56573486328125,-0.8347015380859375,-0.2324676513671875,14596.74614841667,0.2142052370100163,-1.70478076018511,-0.2105524452588637,14596.73579245833,3.049946457884753,-0.845091847331485,1.02826034073504,0.2979671359062195,-2.025294065475464,-0.2535035014152527,-0.07313445955514908,0.009203596971929073,0.1189920157194138,XTrueNorthZVertical,0.3772392583781806,0.4316976582758298,0.7840676210118092,0.237835494543065,-0.3862161338329315,-0.8564020991325378,-0.3426553606987,-19.27017974853516,-35.92753601074219,-2.879522323608398,2,0.0.0.0,10.97.20.126,1,0
2015-02-21 11:26:24.299,24,1424543180.453906,39.63851808131319,-106.3701432683602,2515.086,-1,-1,10,65,-9999,1424543184.286931,-21.79454040527344,-37.94517517089844,-3.040496826171875,145.2525634765625,136.1260070800781,10,14596.79875420833,-0.4737091064453125,-0.9185333251953125,-0.2940673828125,14596.79792783334,0.3014946027951075,0.2787314996937642,-0.2461040479147674,14596.73579245833,3.049946457884753,-0.845091847331485,1.02826034073504,0.2979671359062195,-2.025294065475464,-0.2535035014152527,-0.07313445955514908,0.009203596971929073,0.1189920157194138,XTrueNorthZVertical,0.3772392583781806,0.4316976582758298,0.7840676210118092,0.237835494543065,-0.3862161338329315,-0.8564020991325378,-0.3426553606987,-19.27017974853516,-35.92753601074219,-2.879522323608398,2,0.0.0.0,10.97.20.126,1,0
2015-02-21 11:26:24.317,25,1424543180.453906,39.63851808131319,-106.3701432683602,2515.086,-1,-1,10,65,-9999,1424543184.286931,-21.79454040527344,-37.94517517089844,-3.040496826171875,145.2525634765625,136.1260070800781,10,14596.847940625,-0.266845703125,-0.9412841796875,-0.2658538818359375,14596.79792783334,0.3014946027951075,0.2787314996937642,-0.2461040479147674,14596.78757183333,3.044006092958648,-0.8905776763002436,1.045390893876823,0.2276919782161713,-0.1813032776117325,-0.2693491578102112,0.008555269800126553,-0.03440021350979805,0.003392399055883288,XTrueNorthZVertical,0.3947378733629294,0.4317979097951211,0.7705652886812462,0.2529066929032948,-0.3899334371089935,-0.8651206493377686,-0.3154651522636414,-18.94682312011719,-36.19990921020508,-1.002011299133301,2,0.0.0.0,10.97.20.126,1,0
2015-02-21 11:26:24.398,26,1424543180.453906,39.63851808131319,-106.3701432683602,2515.086,-1,-1,10,65,-9999,1424543184.389664,-20.68636322021484,-38.91342163085938,-2.058265686035156,148.4340209960938,139.3074645996094,10,14596.896974625,-0.5225067138671875,-0.90142822265625,-0.2848358154296875,14596.90148625,-0.2178135539709647,-0.3479824764674217,-0.1791987834292518,14596.891130625,3.026087989536482,-0.8944123089166706,1.066984112902728,-0.1403596997261047,-0.6333277821540833,-0.1422945708036423,-0.1196878403425217,-0.03289711475372314,0.04721196368336678,XTrueNorthZVertical,0.3981994035924054,0.4362756483952134,0.7623731043380785,0.2643636253044808,-0.376482218503952,-0.8757485151290894,-0.3022015988826752,-17.90618324279785,-36.73895263671875,-0.1930665969848633,2,0.0.0.0,10.97.20.126,1,0
2015-02-21 11:26:24.416,27,1424543180.453906,39.63851808131319,-106.3701432683602,2515.086,-1,-1,10,65,-9999,1424543184.389664,-20.68636322021484,-38.91342163085938,-2.058265686035156,148.4340209960938,139.3074645996094,10,14596.94616295833,-0.37255859375,-0.9384002685546875,-0.2227630615234375,14596.90148625,-0.2178135539709647,-0.3479824764674217,-0.1791987834292518,14596.891130625,3.026087989536482,-0.8944123089166706,1.066984112902728,-0.1403596997261047,-0.6333277821540833,-0.1422945708036423,-0.1196878403425217,-0.03289711475372314,0.04721196368336678,XTrueNorthZVertical,0.3981994035924054,0.4362756483952134,0.7623731043380785,0.2643636253044808,-0.376482218503952,-0.8757485151290894,-0.3022015988826752,-17.90618324279785,-36.73895263671875,-0.1930665969848633,2,0.0.0.0,10.97.20.126,1,0
2015-02-21 11:26:24.504,28,1424543180.453906,39.63851808131319,-106.3701432683602,2515.086,-1,-1,10,65,-9999,1424543184.493628,-20.51588439941406,-39.45700073242188,-3.689750671386719,147.6024932861328,138.4759368896484,10,14596.99519666667,-0.395751953125,-0.8542022705078125,-0.34326171875,14596.95326579167,-0.1628642848832508,0.5098699138628314,-0.1251147753797046,14596.94290979167,2.999444257298197,-0.8640056158373496,1.068858331186953,-0.1182781681418419,0.5754745006561279,-0.1178100258111954,0.02477686852216721,-0.02799603715538979,0.05165331065654755,XTrueNorthZVertical,0.3922464471789863,0.4358005124267588,0.7643815864460983,0.2682191479973055,-0.3658718466758728,-0.8766517639160156,-0.3124412894248962,-17.65878105163574,-36.85881423950195,-0.1211299896240234,2,0.0.0.0,10.97.20.126,1,0
2015-02-21 11:26:24.513,29,1424543180.453906,39.63851808131319,-106.3701432683602,2515.086,-1,-1,10,65,-9999,1424543184.493628,-20.51588439941406,-39.45700073242188,-3.689750671386719,147.6024932861328,138.4759368896484,10,14597.04439283333,-0.4568939208984375,-0.6307220458984375,-0.4190673828125,14597.005044875,-0.368295205049783,1.19401123050605,0.1784637509683899,14596.99468904167,2.973205323184608,-0.8116482858202508,1.063219647253771,-0.3915004134178162,0.8781818747520447,-0.02954425476491451,-0.08685345947742462,0.008629543706774712,-0.000159236544277519,XTrueNorthZVertical,0.3782552199550396,0.4354815821732216,0.7723446163550273,0.2660125124092752,-0.3525996804237366,-0.8739249706268311,-0.3345575630664825,-17.33560752868652,-36.99799728393555,-1.021758079528809,2,0.0.0.0,10.97.20.126,1,0
2015-02-21 11:26:24.598,30,1424543180.453906,39.63851808131319,-106.3701432683602,2515.086,-1,-1,10,65,-9999,1424543184.545537,-20.73752593994141,-39.03233337402344,-5.13812255859375,146.3722229003906,137.2456665039062,10,14597.09341970833,-0.263946533203125,-1.345489501953125,-0.2958526611328125,14597.05682445833,-0.2746992074872752,2.437760989110965,1.03494780913056,14597.04646858333,2.995061533542964,-0.7340347808906975,1.026992625234399,-0.3717657327651978,2.570223808288574,1.028595566749573,-0.1103062257170677,0.2250248193740845,-0.03491327166557312,XTrueNorthZVertical,0.3452797019812557,0.4344017411574271,0.7979392746476713,0.23530841816666,-0.3465876877307892,-0.855746865272522,-0.3841541111469269,-17.68063545227051,-36.75431823730469,-2.633323669433594,2,0.0.0.0,10.97.20.126,1,0
2015-02-21 11:26:24.612,31,1424543180.453906,39.63851808131319,-106.3701432683602,2515.086,-1,-1,10,65,-9999,1424543184.596748,-20.87391662597656,-38.8284912109375,-7.668624877929688,143.7681427001953,134.6415863037109,10,14597.14251904167,-0.040191650390625,-0.6462554931640625,-0.5460662841796875,14597.10860366667,-0.5237851968746045,1.81257966215712,-0.864369145517677,14597.09824766667,3.001435827448562,-0.6222872862018349,0.9884759556499702,-0.943351686000824,2.277572393417358,-0.7244129776954651,0.05662452802062035,-0.5103006958961487,0.1510186791419983,XTrueNorthZVertical,0.3004698955760764,0.4316041881200548,0.825834848000505,0.2035498795969417,-0.3205710649490356,-0.8351888060569763,-0.4468713402748108,-18.95075798034668,-35.8379020690918,-5.189685821533203,2,0.0.0.0,10.97.20.126,1,0
2015-02-21 11:26:24.671,32,1424543180.453906,39.63851808131319,-106.3701432683602,2515.086,-1,-1,10,65,-9999,1424543184.65023,-20.14080047607422,-38.36982727050781,-9.882797241210938,139.7965240478516,130.6699676513672,10,14597.19165,-0.168212890625,-0.8584136962890625,-0.398590087890625,14597.16038304167,-0.02092951669082373,-0.2269753607530553,-0.3550795344563739,14597.15002725,2.940885240705962,-0.5076341737106417,0.9910576483025578,-0.1964627355337143,0.2862798869609833,-0.3366546034812927,0.2261026501655579,0.1903503388166428,-0.06734077632427216,XTrueNorthZVertical,0.2658977016947293,0.43581608231059,0.8352860667259648,0.2041078743522506,-0.2662943005561829,-0.8366058468818665,-0.4787255227565765,-17.28020477294922,-36.07007217407227,-8.41212272644043,2,0.0.0.0,10.97.20.126,1,0
2015-02-21 11:26:24.710,33,1424543180.453906,39.63851808131319,-106.3701432683602,2515.086,-1,-1,10,65,-9999,1424543184.700957,-19.44179534912109,-38.35282897949219,-10.69855499267578,138.3149261474609,129.1883697509766,10,14597.24084504167,-0.4781341552734375,-0.8435516357421875,-0.541290283203125,14597.21216233334,0.3296676513348377,-0.4830904975215396,0.02505848164488257,14597.2018065,2.923530728606319,-0.5150898385655237,1.005868640766345,0.4213290214538574,-0.6822079420089722,0.04260320961475372,0.00803123414516449,-0.130073606967926,0.1057690307497978,XTrueNorthZVertical,0.2725610090282463,0.4390496999147007,0.8288841873320596,0.2142357214831452,-0.2637227773666382,-0.844627320766449,-0.4658917188644409,-16.52332305908203,-36.39390182495117,-8.537158012390137,2,0.0.0.0,10.97.20.126,1,0
2015-02-21 11:26:24.774,34,1424543180.453906,39.63851808131319,-106.3701432683602,2515.086,-1,-1,10,65,-9999,1424543184.753307,-18.99851989746094,-38.48872375488281,-9.966033935546875,139.8627166748047,130.7361602783203,10,14597.28986941667,-0.0418701171875,-0.7584228515625,-0.3743438720703125,14597.263941875,0.1537514802652176,0.08478466277987164,-0.7852708642973425,14597.253585875,2.908542377832688,-0.5039431766926826,1.016441116351939,0.09970925003290176,0.2171243727207184,-0.728127658367157,-0.135415717959404,0.06995133310556412,-0.1664543002843857,XTrueNorthZVertical,0.2711155695661733,0.4427392602534623,0.8261833309911741,0.2188595028039028,-0.2541869282722473,-0.8502400517463684,-0.4609566032886505,-16.68403244018555,-36.50984954833984,-7.687216758728027,2,0.0.0.0,10.97.20.126,1,0
2015-02-21 11:26:24.807,35,1424543180.453906,39.63851808131319,-106.3701432683602,2515.086,-1,-1,10,65,-9999,1424543184.753307,-18.99851989746094,-38.48872375488281,-9.966033935546875,139.8627166748047,130.7361602783203,10,14597.33896079167,-0.4486541748046875,-0.9051361083984375,-0.504302978515625,14597.31572095834,0.2622768925826006,-0.454671639213195,0.5736832483227651,14597.305365125,2.901103708114164,-0.50907899543947,1.039161509462869,0.3586785793304443,-0.4468830227851868,0.374379962682724,0.1587527245283127,0.06176278740167618,0.09520182758569717,XTrueNorthZVertical,0.2746314009997859,0.4508300543556106,0.8189962225733475,0.2248891417819385,-0.2470705956220627,-0.8619794845581055,-0.4426597058773041,-15.58309268951416,-37.07390213012695,-7.287823677062988,2,0.0.0.0,10.97.20.126,1,0
2015-02-21 11:26:24.871,36,1424543180.453906,39.63851808131319,-106.3701432683602,2515.086,-1,-1,10,65,-9999,1424543184.856701,-19.15196228027344,-39.28712463378906,-8.517669677734375,142.8471527099609,133.7205963134766,10,14597.38811225,-0.290863037109375,-0.8601226806640625,-0.413177490234375,14597.3675005,-0.01681333490999725,0.09742535689393274,-0.4122051387869005,14597.35714470833,2.941972525121153,-0.5586965958634769,1.033379662117585,-0.05660536885261536,-0.06106779724359512,-0.05050589516758919,-0.2306556105613708,-0.1596274971961975,-0.08432237058877945,XTrueNorthZVertical,0.2858588353236488,0.4486032355202618,0.8180227778449746,0.2188119770057564,-0.2713585495948792,-0.85903400182724,-0.4340797364711761,-16.47276306152344,-36.82448196411133,-6.559333801269531,2,0.0.0.0,10.97.20.126,1,0
2015-02-21 11:26:24.906,37,1424543180.453906,39.63851808131319,-106.3701432683602,2515.086,-1,-1,10,65,-9999,1424543184.856701,-19.15196228027344,-39.28712463378906,-8.517669677734375,142.8471527099609,133.7205963134766,10,14597.43733404167,-0.35369873046875,-0.9199066162109375,-0.42547607421875,14597.41927979167,-0.1659580791215958,0.8014711395244035,-0.2511222423568037,14597.40892379167,2.915443893525863,-0.5199605293392108,1.045457772347298,-0.07541372627019882,0.5779014229774475,-0.2170306891202927,-0.03207879513502121,-0.2036324143409729,0.08471674472093582,XTrueNorthZVertical,0.2757498234831718,0.4542563615321917,0.8175146738117131,0.2219978242354629,-0.2491712123155594,-0.8651542067527771,-0.4352263808250427,-16.2342472076416,-36.94177627563477,-6.494118690490723,2,0.0.0.0,10.97.20.126,1,0
2015-02-21 11:26:24.971,38,1424543180.453906,39.63851808131319,-106.3701432683602,2515.086,-1,-1,10,65,-9999,1424543184.960092,-17.70279693603516,-39.84770202636719,-9.566497802734375,142.93603515625,133.8094787597656,10,14597.4863595,-0.0962982177734375,-0.94232177734375,-0.4627838134765625,14597.47105916667,-0.4883718122792757,1.279716281758653,-0.514597823746049,14597.460703375,2.863612839977116,-0.4226823671812616,1.040067085896016,-0.4834546446800232,1.190497875213623,-0.5791557431221008,0.1013087704777718,-0.1507301479578018,0.03168444707989693,XTrueNorthZVertical,0.2475961361789957,0.4559474858679,0.8258705291299725,0.2207849532934002,-0.2076320201158524,-0.8624382019042969,-0.4616160988807678,-15.1606273651123,-37.19881439208984,-7.538086891174316,2,0.0.0.0,10.97.20.126,1,0
2015-02-21 11:26:25.005,39,1424543180.453906,39.63851808131319,-106.3701432683602,2515.086,-1,-1,10,65,-9999,1424543184.960092,-17.70279693603516,-39.84770202636719,-9.566497802734375,142.93603515625,133.8094787597656,10,14597.53544691667,0.031036376953125,-0.7123565673828125,-0.57391357421875,14597.5228385,-0.8237138609487453,1.326365542993026,-0.1335324949532271,14597.51248266667,2.819599483273906,-0.3226793340808717,1.022660529010893,-0.6554991006851196,1.252699255943298,-0.1192672476172447,0.1029885932803154,-0.03711230680346489,0.0610211119055748,XTrueNorthZVertical,0.215705170832754,0.4542794749857655,0.8370360960245745,0.21557387327973,-0.165244460105896,-0.8534974455833435,-0.4942028820514679,-13.94809436798096,-37.31941986083984,-9.11761474609375,2,0.0.0.0,10.97.20.126,1,0
2015-02-21 11:26:25.072,40,1424543180.453906,39.63851808131319,-106.3701432683602,2515.086,-1,-1,10,65,-9999,1424543185.063717,-15.29888916015625,-39.45700073242188,-13.44548034667969,141.6872100830078,132.5606536865234,10,14597.58459791667,0.07366943359375,-0.847137451171875,-0.4840850830078125,14597.57461804167,-0.3578295145979897,-0.1311191383733973,-0.02051219934800831,14597.56426204167,2.798575356388764,-0.255641594121801,0.9857188759470666,-0.376698225736618,0.2672874927520752,0.05311669036746025,0.05140732973814011,0.203832283616066,-0.03616420924663544,XTrueNorthZVertical,0.1907467597857614,0.4432353839771556,0.8506829334684687,0.2085586194180279,-0.139648899435997,-0.8336693048477173,-0.5343161225318909,-13.1805248260498,-37.06000518798828,-11.10175895690918,2,0.0.0.0,10.97.20.126,1,0
2015-02-21 11:26:25.102,41,1424543180.453906,39.63851808131319,-106.3701432683602,2515.086,-1,-1,10,65,-9999,1424543185.063717,-15.29888916015625,-39.45700073242188,-13.44548034667969,141.6872100830078,132.5606536865234,10,14597.63368425,-0.0933685302734375,-0.8206939697265625,-0.4468231201171875,14597.626397125,0.2024809366270515,-1.592451821198876,-0.1803399479563507,14597.61604133333,2.789568715672049,-0.2788087492810211,0.9750581131303817,0.02277467586100101,-1.2065509557724,-0.1489198803901672,0.04410513117909431,0.269964724779129,-0.01573924906551838,XTrueNorthZVertical,0.2020985177024368,0.4352359062284597,0.850006724479283,0.2172890849034678,-0.154426172375679,-0.8277344703674316,-0.5394517779350281,-13.2216796875,-36.72032928466797,-12.13358020782471,2,0.0.0.0,10.97.20.126,1,0
2015-02-21 11:26:25.171,42,1424543180.453906,39.63851808131319,-106.3701432683602,2515.086,-1,-1,10,65,-9999,1424543185.167805,-16.35593414306641,-38.91342163085938,-14.11139678955078,139.6798706054688,130.5533142089844,10,14597.68282391667,-0.18743896484375,-0.6478729248046875,-0.477447509765625,14597.67817670833,0.7028193969484893,-0.479170058080834,-0.2778425365218958,14597.667820875,2.787956629516226,-0.3413050232558305,0.9989451334673971,0.6741381883621216,-0.6871913075447083,-0.242708221077919,-0.2449256926774979,0.2029763758182526,0.05657351016998291,XTrueNorthZVertical,0.229779191766818,0.4384232415535954,0.8372884633324063,0.2322384474485235,-0.1811454743146896,-0.8409005403518677,-0.5099731683731079,-13.70975875854492,-36.90060043334961,-10.99125003814697,2,0.0.0.0,10.97.20.126,1,0
2015-02-21 11:26:25.202,43,1424543180.453906,39.63851808131319,-106.3701432683602,2515.086,-1,-1,10,65,-9999,1424543185.167805,-16.35593414306641,-38.91342163085938,-14.11139678955078,139.6798706054688,130.5533142089844,10,14597.731902625,-0.2989044189453125,-1.003082275390625,-0.4304656982421875,14597.729956,0.5757759603073493,-0.5886843021109633,-0.2565018277587638,14597.667820875,2.787956629516226,-0.3413050232558305,0.9989451334673971,0.6741381883621216,-0.6871913075447083,-0.242708221077919,-0.2449256926774979,0.2029763758182526,0.05657351016998291,XTrueNorthZVertical,0.229779191766818,0.4384232415535954,0.8372884633324063,0.2322384474485235,-0.1811454743146896,-0.8409005403518677,-0.5099731683731079,-13.70975875854492,-36.90060043334961,-10.99125003814697,2,0.0.0.0,10.97.20.126,1,0
2015-02-21 11:26:25.271,44,1424543180.453906,39.63851808131319,-106.3701432683602,2515.086,-1,-1,10,65,-9999,1424543185.220975,-16.32183074951172,-39.18519592285156,-12.34670257568359,141.0812683105469,131.9547119140625,10,14597.78104033334,-0.1879425048828125,-0.9398345947265625,-0.4897308349609375,14597.78173533333,0.210665096972974,0.07823115596940465,-0.160147594255261,14597.77137954167,2.784570170591361,-0.3901854297633657,1.051789075423662,0.1701182872056961,-0.0007133059552870691,-0.1588315963745117,-0.0004213761421851814,-0.07320103049278259,-0.01054706890136003,XTrueNorthZVertical,0.2524424483443951,0.4548673607492364,0.8177059619925985,0.2464255204456056,-0.1886655390262604,-0.8683120012283325,-0.4587369859218597,-13.51601505279541,-37.76317977905273,-7.85358715057373,2,0.0.0.0,10.97.20.126,1,0
2015-02-21 11:26:25.301,45,1424543180.453906,39.63851808131319,-106.3701432683602,2515.086,-1,-1,10,65,-9999,1424543185.272341,-15.99790191650391,-39.43998718261719,-11.23128509521484,142.5447235107422,133.4181671142578,10,14597.83011725,-0.176300048828125,-0.8019866943359375,-0.4405059814453125,14597.78173533333,0.210665096972974,0.07823115596940465,-0.160147594255261,14597.77137954167,2.784570170591361,-0.3901854297633657,1.051789075423662,0.1701182872056961,-0.0007133059552870691,-0.1588315963745117,-0.0004213761421851814,-0.07320103049278259,-0.01054706890136003,XTrueNorthZVertical,0.2524424483443951,0.4548673607492364,0.8177059619925985,0.2464255204456056,-0.1886655390262604,-0.8683120012283325,-0.4587369859218597,-13.51601505279541,-37.76317977905273,-7.85358715057373,2,0.0.0.0,10.97.20.126,1,0
2015-02-21 11:26:25.358,46,1424543180.453906,39.63851808131319,-106.3701432683602,2515.086,-1,-1,10,65,-9999,1424543185.323835,-15.92971038818359,-39.88165283203125,-10.83174133300781,142.9928588867188,133.8663024902344,10,14597.879349625,0.054595947265625,-0.66558837890625,-0.4501190185546875,14597.88529425,-0.1602879428447081,-0.8120193879699894,0.8770335417654398,14597.82315883333,2.783239936094179,-0.3855928982912568,1.057014029390706,0.02098503336310387,-0.08023019134998322,0.2067268490791321,0.03647142648696899,0.04359081387519836,0.03050759434700012,XTrueNorthZVertical,0.2510140854146842,0.4574905913788267,0.8167736223700973,0.2461203374975905,-0.184847891330719,-0.870891809463501,-0.4553885757923126,-13.31240081787109,-37.89198684692383,-7.576062202453613,2,0.0.0.0,10.97.20.126,1,0
2015-02-21 11:26:25.400,47,1424543180.453906,39.63851808131319,-106.3701432683602,2515.086,-1,-1,10,65,-9999,1424543185.375251,-16.56052398681641,-39.66081237792969,-10.48213958740234,142.5808868408203,133.4543304443359,10,14597.92833266667,-0.2981414794921875,-0.7020721435546875,-0.4218902587890625,14597.88529425,-0.1602879428447081,-0.8120193879699894,0.8770335417654398,14597.87493825,2.817716582453896,-0.4274875838147241,1.048590634235356,-0.1328494697809219,-0.5840686559677124,0.6649702191352844,0.2674309909343719,0.1726750880479813,0.01205812580883503,XTrueNorthZVertical,0.2601010026548952,0.4532041794261318,0.817788326123164,0.2411965522794544,-0.2067925631999969,-0.8667210936546326,-0.4539068937301636,-13.60799217224121,-37.79241180419922,-7.548212051391602,2,0.0.0.0,10.97.20.126,1,0
2015-02-21 11:26:25.456,48,1424543180.453906,39.63851808131319,-106.3701432683602,2515.086,-1,-1,10,65,-9999,1424543185.427629,-18.77688598632812,-38.81146240234375,-9.716331481933594,143.6050720214844,134.478515625,10,14597.97748020833,-0.4830780029296875,-1.208282470703125,-0.4064483642578125,14597.93707345833,0.07291016011142633,-1.703475811250971,1.735795135291846,14597.9267175,2.924884619882202,-0.5783905512759451,1.012593230784994,0.01156931277364492,-1.596891403198242,1.741016745567322,0.09921643137931824,0.1736782044172287,-0.002428202889859676,XTrueNorthZVertical,0.2982062610533476,0.4351069662700968,0.8183583178481465,0.228133076047259,-0.2895545661449432,-0.8482082486152649,-0.4435099065303802,-15.89829444885254,-36.97418212890625,-7.111488342285156,2,0.0.0.0,10.97.20.126,1,0
2015-02-21 11:26:25.497,49,1424543180.453906,39.63851808131319,-106.3701432683602,2515.086,-1,-1,10,65,-9999,1424543185.479002,-21.74340057373047,-37.04481506347656,-7.918357849121094,145.6879272460938,136.5613708496094,10,14598.026566625,-0.4538116455078125,-0.7991485595703125,-0.4235992431640625,14597.98885291667,-0.0204312392508699,-1.782333609024872,0.9343045546914848,14597.97849708333,3.047961259466394,-0.7685252968902564,0.9660962246433841,0.08323081582784653,-1.70952844619751,1.307045221328735,-0.08791667222976685,-0.3856098353862762,0.002278147730976343,XTrueNorthZVertical,0.3517717218516553,0.4146002891310301,0.8119540325921185,0.2123534504584323,-0.3951613306999207,-0.8226726055145264,-0.4087265133857727,-19.18103790283203,-35.63975524902344,-5.684630393981934,2,0.0.0.0,10.97.20.126,1,0
2015-02-21 11:26:25.554,50,1424543180.453906,39.63851808131319,-106.3701432683602,2515.086,-1,-1,10,65,-9999,1424543185.531284,-24.30074310302734,-35.855712890625,-5.521049499511719,144.1160278320312,134.9894714355469,10,14598.07575858333,-0.5603790283203125,-0.82208251953125,-0.3120574951171875,14598.04063233333,-0.5872770877909655,-1.767557059716567,-0.01670840636304813,14598.03027633333,3.06741240452893,-0.8818317018316248,0.9320976347698078,-0.656445324420929,-1.958547711372375,0.2712610065937042,0.006360279396176338,0.003723654197528958,-0.04460305348038673,XTrueNorthZVertical,0.3960605735581511,0.3919667430453825,0.8002449489587097,0.2215991856742099,-0.4601719379425049,-0.8028722405433655,-0.3789961934089661,-21.77679634094238,-34.40131378173828,-3.569310188293457,2,0.0.0.0,10.97.20.126,1,0
2015-02-21 11:26:25.598,51,1424543180.453906,39.63851808131319,-106.3701432683602,2515.086,-1,-1,10,65,-9999,1424543185.582758,-24.81221771240234,-34.93841552734375,-4.622055053710938,146.5712738037109,137.4447174072266,10,14598.12468875,-0.2669525146484375,-0.62713623046875,-0.431396484375,14598.09241145833,-0.9832143070591171,-1.093516047823583,-0.0501388012107038,14598.08205579167,3.015707808456142,-0.9185091548276736,0.9096803792301335,-1.019158720970154,-1.323856353759766,-0.0560295544564724,-0.07243620604276657,-0.03277498483657837,0.06064281985163689,XTrueNorthZVertical,0.4221939876306811,0.3679702163754655,0.7914051297419227,0.2450064494936525,-0.4879428148269653,-0.7893075346946716,-0.3727003037929535,-22.10722160339355,-34.25173568725586,-2.916983604431152,2,0.0.0.0,10.97.20.126,1,0
2015-02-21 11:26:25.653,52,1424543180.453906,39.63851808131319,-106.3701432683602,2515.086,-1,-1,10,65,-9999,1424543185.635324,-24.8463134765625,-34.53073120117188,-4.488868713378906,148.7083892822266,139.5818328857422,10,14598.17384379167,-0.2001190185546875,-0.8595428466796875,-0.5192413330078125,14598.14419108333,-0.753158201557058,-0.5950492571162528,-0.4386609810557477,14598.133835125,2.958955076235413,-0.9172680259897545,0.8863063413412505,-0.6879552602767944,-0.4840784966945648,-0.317573219537735,0.2350405752658844,0.1476053893566132,-0.04697683453559875,XTrueNorthZVertical,0.4333532055924115,0.3464031965329482,0.789358019900944,0.2629141001521509,-0.5019930601119995,-0.7747415900230408,-0.3844196498394012,-22.28225326538086,-34.11215209960938,-3.206483840942383,2,0.0.0.0,10.97.20.126,1,0
2015-02-21 11:26:25.701,53,1424543180.453906,39.63851808131319,-106.3701432683602,2515.086,-1,-1,10,65,-9999,1424543185.686596,-24.28369903564453,-34.75155639648438,-4.239151000976562,151.7298583984375,142.6033020019531,10,14598.22277175,-0.327484130859375,-0.798431396484375,-0.2778472900390625,14598.1959705,-0.959113231826118,-2.734578814715784,-1.216062204331906,14598.1856145,2.877113698858227,-0.9179352616880251,0.8853247539282192,-0.8934268951416016,-2.29298734664917,-1.004244208335876,0.2873381674289703,-0.1080357655882835,-0.106923945248127,XTrueNorthZVertical,0.4474609974626524,0.3278802527904107,0.7780051988901947,0.2949257348653579,-0.5028533339500427,-0.7741206288337708,-0.3845463991165161,-21.59816741943359,-34.50591278076172,-3.644268035888672,2,0.0.0.0,10.97.20.126,1,0
2015-02-21 11:26:25.751,54,1424543180.453906,39.63851808131319,-106.3701432683602,2515.086,-1,-1,10,65,-9999,1424543185.738808,-22.76633453369141,-35.71981811523438,-3.42340087890625,159.9709625244141,150.8444061279297,10,14598.27193320833,-0.584197998046875,-0.89569091796875,-0.1518707275390625,14598.24774979167,-1.417469088091329,-3.501371602105721,-1.292515700273683,14598.23739395833,2.746722967879986,-0.9745287634733317,0.9013526577072953,-1.351299405097961,-3.551052093505859,-1.205296874046326,0.1075366139411926,-0.008984836749732494,0.09496527165174484,XTrueNorthZVertical,0.4887693194907899,0.2947323486159733,0.7399343789037737,0.3559980237674463,-0.5134661793708801,-0.7841669917106628,-0.3484748005867004,-20.17202186584473,-35.45077896118164,-2.598329544067383,2,0.0.0.0,10.97.20.126,1,0
2015-02-21 11:26:25.805,55,1424543180.453906,39.63851808131319,-106.3701432683602,2515.086,-1,-1,10,65,-9999,1424543185.78991,-20.54997253417969,-37.01084899902344,-2.990554809570312,172.3843383789062,163.2577819824219,10,14598.32086633333,-0.65032958984375,-0.8773040771484375,-0.137969970703125,14598.29952908334,-1.723208237031804,-2.756278783909968,-1.737676658601987,14598.28917341667,2.58189043645008,-1.004803645554358,0.9212685384530862,-1.636959552764893,-2.879416465759277,-1.691450715065002,-0.09167849272489548,-0.1011524870991707,0.1971042454242706,XTrueNorthZVertical,0.5221702996903964,0.2552883909402569,0.6954138678719141,0.4225702911351181,-0.5104943513870239,-0.7963694930076599,-0.3243320286273956,-18.424072265625,-36.43544006347656,-1.852400779724121,2,0.0.0.0,10.97.20.126,1,0
2015-02-21 11:26:25.849,56,1424543180.453906,39.63851808131319,-106.3701432683602,2515.086,-1,-1,10,65,-9999,1424543185.842684,-17.32772064208984,-38.45475769042969,-3.872894287109375,184.7084503173828,175.5818939208984,10,14598.36992333333,-0.6324310302734375,-0.889923095703125,-0.2130126953125,14598.35130870833,-1.741035437368795,-1.243860546106262,-1.655950636334071,14598.34095270833,2.38211984702101,-0.9572958726632188,0.936977686845722,-1.828132271766663,-1.531428098678589,-1.537986636161804,-0.243373692035675,-0.01522725448012352,0.1567142903804779,XTrueNorthZVertical,0.5302420293261034,0.2199120431558771,0.6584712242592105,0.4867214947379429,-0.484226405620575,-0.8057718873023987,-0.3409641683101654,-15.20931911468506,-37.81007766723633,-3.081191062927246,2,0.0.0.0,10.97.20.126,1,0
2015-02-21 11:26:25.900,57,1424543180.453906,39.63851808131319,-106.3701432683602,2515.086,-1,-1,10,65,-9999,1424543185.893675,-14.68512725830078,-38.81147766113281,-5.953895568847656,190.2885284423828,181.1619720458984,10,14598.41896329167,-0.48443603515625,-0.7547760009765625,-0.2448883056640625,14598.40308783333,-1.236456958275842,0.6350062608473657,-1.191762989913805,14598.39273220833,2.19787674623683,-0.838156331545997,0.9473262735439416,-1.351408839225769,0.2677493691444397,-1.233201265335083,-0.1554324477910995,-0.06598079949617386,0.1466218084096909,XTrueNorthZVertical,0.5119445813812467,0.2065459438513849,0.6396961709455553,0.5348274586787164,-0.4340451061725616,-0.8118573427200317,-0.3905030488967896,-12.69741821289062,-38.48332214355469,-5.313074111938477,2,0.0.0.0,10.97.20.126,1,0
2015-02-21 11:26:25.947,58,1424543180.453906,39.63851808131319,-106.3701432683602,2515.086,-1,-1,10,65,-9999,1424543185.893675,-14.68512725830078,-38.81147766113281,-5.953895568847656,190.2885284423828,181.1619720458984,10,14598.468026625,-0.3494415283203125,-0.7010650634765625,-0.2830352783203125,14598.45486725,-0.2407758615218459,2.288639148084741,-1.243857882945172,14598.444511625,2.070742158959059,-0.6696373268668172,0.9529734338480225,-0.4981074035167694,2.10118293762207,-1.153793692588806,-0.07286994904279709,0.07512074708938599,0.2029020190238953,XTrueNorthZVertical,0.4721484556795911,0.2235879765175676,0.6449175000192132,0.5578223316893504,-0.3595488667488098,-0.815141499042511,-0.4541684985160828,-10.40679550170898,-38.75826263427734,-7.740467071533203,2,0.0.0.0,10.97.20.126,1,0
2015-02-21 11:26:25.998,59,1424543180.453906,39.63851808131319,-106.3701432683602,2515.086,-1,-1,10,65,-9999,1424543185.945929,-11.53106689453125,-39.20219421386719,-8.267959594726562,194.8062438964844,185.6796875,10,14598.51705983333,-0.093414306640625,-0.7919769287109375,-0.3810272216796875,14598.50664675,0.3929544788472628,1.904865118147199,-1.071396897073821,14598.444511625,2.070742158959059,-0.6696373268668172,0.9529734338480225,-0.4981074035167694,2.10118293762207,-1.153793692588806,-0.07286994904279709,0.07512074708938599,0.2029020190238953,XTrueNorthZVertical,0.4721484556795911,0.2235879765175676,0.6449175000192132,0.5578223316893504,-0.3595488667488098,-0.815141499042511,-0.4541684985160828,-10.40679550170898,-38.75826263427734,-7.740467071533203,2,0.0.0.0,10.97.20.126,1,0
2015-02-21 11:26:26.045,60,1424543180.453906,39.63851808131319,-106.3701432683602,2515.086,-1,-1,10,65,-9999,1424543185.997216,-8.053077697753906,-39.813720703125,-9.499900817871094,196.2624969482422,187.1359405517578,10,14598.56623175,-1.52587890625e-05,-0.855865478515625,-0.4010772705078125,14598.55842620833,1.030750134620377,0.8310210423477047,-1.177539046531692,14598.548070375,1.916677368567697,-0.3487913122490653,1.036023766856824,0.9809932112693787,1.041609406471252,-1.083217978477478,0.1354507207870483,-0.01856746152043343,0.07553078234195709,XTrueNorthZVertical,0.4036848539094197,0.3123452984916577,0.6507149934765131,0.5621823845562643,-0.1741775274276733,-0.8603845834732056,-0.4789579212665558,-3.847925662994385,-39.66789245605469,-9.059311866760254,2,0.0.0.0,10.97.20.126,1,0
2015-02-21 11:26:26.101,61,1424543180.453906,39.63851808131319,-106.3701432683602,2515.086,-1,-1,10,65,-9999,1424543186.048706,-4.830825805664062,-40.10249328613281,-9.083709716796875,195.7114562988281,186.5848999023438,10,14598.615159625,-0.0412750244140625,-0.927642822265625,-0.46844482421875,14598.6102055,1.042664052072956,0.5260384974729204,-0.8187997961053312,14598.59984979167,1.846212294652855,-0.2525111223478164,1.101759674345442,1.05147659778595,0.586566150188446,-0.8480098247528076,0.09649907797574997,-0.04928001761436462,0.03501320257782936,XTrueNorthZVertical,0.3988633031529104,0.349373356027492,0.6343278873957231,0.5625606969690772,-0.1129327937960625,-0.892004132270813,-0.4376926422119141,-1.549827575683594,-40.17115020751953,-7.368575096130371,2,0.0.0.0,10.97.20.126,1,0
2015-02-21 11:26:26.143,62,1424543180.453906,39.63851808131319,-106.3701432683602,2515.086,-1,-1,10,65,-9999,1424543186.100706,-2.392822265625,-40.49319458007812,-7.835113525390625,197.0983734130859,187.9718170166016,10,14598.66425904167,-0.0003204345703125,-1.020248413085938,-0.3780670166015625,14598.66198508333,0.9373442867597012,0.4855866784112709,-0.730742108345752,14598.65162908333,1.78060453396153,-0.1712799323738078,1.160206212270668,0.9973407387733459,0.409031480550766,-0.7786009907722473,0.02361436560750008,0.003326477948576212,-0.04586847871541977,XTrueNorthZVertical,0.3992016035961612,0.3794510325557293,0.6182265759054503,0.5607592865295095,-0.06803269684314728,-0.9168854355812073,-0.3933099806308746,0.6567943096160889,-40.57684326171875,-4.848457336425781,2,0.0.0.0,10.97.20.126,1,0
2015-02-21 11:26:26.200,63,1424543180.453906,39.63851808131319,-106.3701432683602,2515.086,-1,-1,10,65,-9999,1424543186.15294,-0.3298988342285156,-40.88389587402344,-5.887298583984375,199.6070556640625,190.4804992675781,10,14598.713260125,-0.0039825439453125,-0.934661865234375,-0.3873138427734375,14598.66198508333,0.9373442867597012,0.4855866784112709,-0.730742108345752,14598.65162908333,1.78060453396153,-0.1712799323738078,1.160206212270668,0.9973407387733459,0.409031480550766,-0.7786009907722473,0.02361436560750008,0.003326477948576212,-0.04586847871541977,XTrueNorthZVertical,0.3992016035961612,0.3794510325557293,0.6182265759054503,0.5607592865295095,-0.06803269684314728,-0.9168854355812073,-0.3933099806308746,0.6567943096160889,-40.57684326171875,-4.848457336425781,2,0.0.0.0,10.97.20.126,1,0
2015-02-21 11:26:26.241,64,1424543180.453906,39.63851808131319,-106.3701432683602,2515.086,-1,-1,10,65,-9999,1424543186.204263,0.9487686157226562,-40.83294677734375,-4.472213745117188,199.8782653808594,190.751708984375,10,14598.76242575,0.146270751953125,-0.9363861083984375,-0.3266448974609375,14598.76554383333,0.547061224801897,0.682477107278028,-0.3178972782650145,14598.755188,1.664093061828485,0.01117148789958555,1.235998427978414,0.5692760944366455,0.7610945701599121,-0.3488172292709351,0.1124182343482971,-0.0008662826148793101,-8.58359198900871e-05,XTrueNorthZVertical,0.3867791082771136,0.4314196796014456,0.6047374209782279,0.5464171630977249,0.003670634003356099,-0.9444767236709595,-0.3285579681396484,2.760531902313232,-40.73411178588867,-1.879067420959473,2,0.0.0.0,10.97.20.126,1,0
2015-02-21 11:26:26.298,65,1424543180.453906,39.63851808131319,-106.3701432683602,2515.086,-1,-1,10,65,-9999,1424543186.256736,2.125144958496094,-40.74801635742188,-2.957260131835938,200.050048828125,190.9234924316406,10,14598.81135616667,0.1806793212890625,-0.988555908203125,-0.2745208740234375,14598.76554383333,0.547061224801897,0.682477107278028,-0.3178972782650145,14598.755188,1.664093061828485,0.01117148789958555,1.235998427978414,0.5692760944366455,0.7610945701599121,-0.3488172292709351,0.1124182343482971,-0.0008662826148793101,-8.58359198900871e-05,XTrueNorthZVertical,0.3867791082771136,0.4314196796014456,0.6047374209782279,0.5464171630977249,0.003670634003356099,-0.9444767236709595,-0.3285579681396484,2.760531902313232,-40.73411178588867,-1.879067420959473,2,0.0.0.0,10.97.20.126,1,0
2015-02-21 11:26:26.339,66,1424543180.453906,39.63851808131319,-106.3701432683602,2515.086,-1,-1,10,65,-9999,1424543186.308765,2.773006439208984,-40.68006896972656,-2.124870300292969,200.0134735107422,190.8869171142578,10,14598.86054104167,0.058013916015625,-0.959991455078125,-0.314300537109375,14598.81732316667,0.5501403716542466,0.2173983671570213,0.05468455087536005,14598.80696716667,1.637073857405428,0.06346725876436791,1.262798130276744,0.5758402943611145,0.3276378512382507,0.01439742464572191,0.1679370105266571,-0.03282121941447258,-0.004877347499132156,XTrueNorthZVertical,0.384425922554163,0.4482699768431588,0.6018765962629522,0.5376015102346301,0.01922730170190334,-0.9529423117637634,-0.3025414645671844,3.50035834312439,-40.7186393737793,-0.3990116119384766,2,0.0.0.0,10.97.20.126,1,0
2015-02-21 11:26:26.400,67,1424543180.453906,39.63851808131319,-106.3701432683602,2515.086,-1,-1,10,65,-9999,1424543186.35963,2.585464477539062,-40.69705200195312,-1.442314147949219,199.4613800048828,190.3348236083984,10,14598.90945679167,-0.0028839111328125,-0.9648590087890625,-0.2617645263671875,14598.86910258333,0.1618368373346982,-0.528979426264695,0.2638207270665196,14598.85874675,1.660231894988144,0.03758431575715953,1.282994421547324,0.1975239813327789,-0.444397509098053,0.231502503156662,0.06442287564277649,0.007835564203560352,-0.02395694702863693,XTrueNorthZVertical,0.3926092144828665,0.4517029048306066,0.5987771147560267,0.5322485700510651,0.01066562533378601,-0.9588701128959656,-0.28364497423172,3.317574977874756,-40.73267364501953,0.5120534896850586,2,0.0.0.0,10.97.20.126,1,0
2015-02-21 11:26:26.438,68,1424543180.453906,39.63851808131319,-106.3701432683602,2515.086,-1,-1,10,65,-9999,1424543186.41199,1.801212310791016,-40.6630859375,-1.242538452148438,199.5144348144531,190.3878784179688,10,14598.958517625,-0.0363922119140625,-0.9528350830078125,-0.2339935302734375,14598.92088191667,0.04819815572436306,-0.3975460348826684,0.5249202361311962,14598.91052604167,1.733640397818896,-0.05762836367400943,1.287971158099648,0.04415714740753174,-0.4403496384620667,0.524022102355957,0.0131895300000906,-0.004588156007230282,0.01684210263192654,XTrueNorthZVertical,0.4060043677257251,0.44255749777621,0.5981493185442091,0.5305853279925954,-0.0160734411329031,-0.960270881652832,-0.2786066234111786,2.763703346252441,-40.77021789550781,0.7553081512451172,2,0.0.0.0,10.97.20.126,1,0
2015-02-21 11:26:26.501,69,1424543180.453906,39.63851808131319,-106.3701432683602,2515.086,-1,-1,10,65,-9999,1424543186.463377,0.2156639099121094,-40.30636596679688,-0.8263397216796875,197.0732727050781,187.9467163085938,10,14599.007547375,-0.0022125244140625,-0.8765716552734375,-0.22161865234375,14598.9726615,0.07696269234219991,-0.05323472597792091,0.8109701025004982,14598.9623055,1.855061667970477,-0.1852636304490851,1.285749551929663,0.04453806206583977,-0.07187266647815704,0.8303074240684509,0.0154068898409605,0.00681341765448451,0.04239700734615326,XTrueNorthZVertical,0.417282516511511,0.4332205363864317,0.6044065475296878,0.522386903143957,-0.05179909989237785,-0.9596484899520874,-0.2763905227184296,1.319294333457947,-40.84114456176758,0.8243074417114258,2,0.0.0.0,10.97.20.126,1,0
2015-02-21 11:26:26.536,70,1424543180.453906,39.63851808131319,-106.3701432683602,2515.086,-1,-1,10,65,-9999,1424543186.515818,-1.796115875244141,-39.62689208984375,-0.559967041015625,194.1837463378906,185.0571899414062,10,14599.05671854167,-0.0498046875,-0.9005126953125,-0.1861572265625,14599.024440625,0.3536116000635222,0.110509733645601,0.9604642534471152,14599.01408483333,2.014616716200089,-0.335878230771637,1.282648081309502,0.3049175143241882,0.1395553201436996,0.9615015983581543,0.09145194292068481,0.08220008760690689,0.04667937010526657,XTrueNorthZVertical,0.4282875636675736,0.4271074245362383,0.6144767567307585,0.50652483567697,-0.09366446733474731,-0.9587717652320862,-0.2682980298995972,-0.2488269805908203,-40.85721969604492,1.022265434265137,2,0.0.0.0,10.97.20.126,1,0
2015-02-21 11:26:26.599,71,1424543180.453906,39.63851808131319,-106.3701432683602,2515.086,-1,-1,10,65,-9999,1424543186.566758,-3.7738037109375,-39.49099731445312,-0.0605316162109375,190.5961456298828,181.4695892333984,10,14599.10566454167,-0.14093017578125,-0.990020751953125,-0.169830322265625,14599.07622029167,0.4702607189700829,-0.08977276350159005,0.9176062683405789,14599.06586441667,2.196011262883997,-0.5088610422068588,1.280421570201213,0.4180366694927216,-0.0850563570857048,0.9266026020050049,0.08968139439821243,0.05762394890189171,0.0638786181807518,XTrueNorthZVertical,0.442974474264197,0.4227950943077876,0.6225420864035134,0.4872980166614734,-0.139486089348793,-0.9581366181373596,-0.2500358521938324,-2.033597707748413,-40.78725433349609,1.638210296630859,2,0.0.0.0,10.97.20.126,1,0
2015-02-21 11:26:26.633,72,1424543180.453906,39.63851808131319,-106.3701432683602,2515.086,-1,-1,10,65,-9999,1424543186.619526,-5.376407623291016,-38.9134521484375,0.8717575073242188,187.9755249023438,178.8489685058594,10,14599.15484079167,-0.181610107421875,-0.961669921875,-0.132080078125,14599.12799958333,0.5353355928383871,-0.2961280668824888,0.8260651658751763,14599.11764358333,2.389850176590487,-0.6986636834688505,1.275839936857253,0.5869372487068176,-0.1905866861343384,0.9179536104202271,0.01474978215992451,0.01380639802664518,0.07351004332304001,XTrueNorthZVertical,0.4611665170425784,0.4195607650709252,0.6272982244500782,0.466681078017862,-0.1869757324457169,-0.9568148255348206,-0.2225884199142456,-4.379075527191162,-40.53378677368164,2.873190879821777,2,0.0.0.0,10.97.20.126,1,0
2015-02-21 11:26:26.699,73,1424543180.453906,39.63851808131319,-106.3701432683602,2515.086,-1,-1,10,65,-9999,1424543186.671949,-7.285892486572266,-38.60769653320312,1.83734130859375,185.9515686035156,176.8250122070312,10,14599.20376866667,-0.2671356201171875,-0.980499267578125,-0.1732635498046875,14599.179779,0.4487692752892524,-0.1838638427107436,0.97995726104595,14599.16942320833,2.550407335950008,-0.8662321560891726,1.261583355617835,0.4225338697433472,-0.2119123488664627,0.9775003790855408,0.05068375915288925,-0.02670519985258579,0.0479622520506382,XTrueNorthZVertical,0.4801783714755196,0.4133738049751584,0.62909444389409,0.4503233200660178,-0.2318513691425323,-0.9525733590126038,-0.1971016526222229,-5.927914142608643,-40.25384521484375,3.860955238342285,2,0.0.0.0,10.97.20.126,1,0
2015-02-21 11:26:26.732,74,1424543180.453906,39.63851808131319,-106.3701432683602,2515.086,-1,-1,10,65,-9999,1424543186.723104,-9.229469299316406,-37.86024475097656,2.503257751464844,183.8606414794922,174.7340850830078,10,14599.25294033333,-0.360595703125,-0.98284912109375,-0.1194000244140625,14599.231558375,0.3197372562621503,-0.579093193761152,0.906987978758324,14599.22120254167,2.697017388026044,-1.01862275425123,1.23318731361605,0.3528447151184082,-0.4644334316253662,0.9680982828140259,-0.01869833283126354,-0.04013901948928833,0.008140592835843563,XTrueNorthZVertical,0.4993068111028754,0.4047475672538929,0.6326214520908819,0.4320443224357599,-0.2820066213607788,-0.9435493350028992,-0.1737442314624786,-7.66312837600708,-39.86724472045898,4.722105503082275,2,0.0.0.0,10.97.20.126,1,0
2015-02-21 11:26:26.805,75,1424543180.453906,39.63851808131319,-106.3701432683602,2515.086,-1,-1,10,65,-9999,1424543186.775209,-11.66747283935547,-37.02786254882812,2.819557189941406,178.3782501220703,169.2516937255859,10,14599.30187120833,-0.3753509521484375,-1.02215576171875,-0.0823516845703125,14599.28333795833,0.2859721020654716,-0.2869284432129191,0.839735704382771,14599.27298195833,2.7945222310136,-1.135375148120625,1.200798124196195,0.2832974195480347,-0.3494638502597809,0.8601243495941162,-0.03568325936794281,-0.0730736181139946,0.02613743767142296,XTrueNorthZVertical,0.5192349215329596,0.3925966160788017,0.6327884228861769,0.4193350547850465,-0.327872633934021,-0.9323279857635498,-0.1525259912014008,-9.716314315795898,-39.28086471557617,5.746847629547119,2,0.0.0.0,10.97.20.126,1,0
2015-02-21 11:26:26.830,76,1424543180.453906,39.63851808131319,-106.3701432683602,2515.086,-1,-1,10,65,-9999,1424543186.775209,-11.66747283935547,-37.02786254882812,2.819557189941406,178.3782501220703,169.2516937255859,10,14599.35094908333,-0.3397674560546875,-0.9168853759765625,-0.0582122802734375,14599.33511725,0.06506422122394388,-0.1181777733722662,0.7857201395732388,14599.32476129167,2.867594448962035,-1.212136086152274,1.16435836118246,0.1283034086227417,-0.1083166003227234,0.8677698969841003,-0.03595932573080063,-0.04806365072727203,0.08005650341510773,XTrueNorthZVertical,0.5330616484402565,0.3826997745616423,0.637292460465141,0.4040353503755938,-0.3701838552951813,-0.9185348749160767,-0.1387723237276077,-11.19530582427979,-38.79545211791992,6.324334144592285,2,0.0.0.0,10.97.20.126,1,0
2015-02-21 11:26:26.883,77,1424543186.864248,39.63851190235668,-106.3701077218292,2514.982,-1,-1,10,65,-9999,1424543186.879375,-15.23070526123047,-34.42881774902344,3.302345275878906,165.6099395751953,156.4833831787109,10,14599.39999683333,-0.3422393798828125,-0.9078826904296875,-0.1632537841796875,14599.38689654167,0.02541614417928022,0.1578503514989586,0.9806528787226788,14599.37654091667,2.902780990539844,-1.243099052818388,1.123786999307487,-0.009787017479538918,0.1904540061950684,0.9791262149810791,0.1067624688148499,-0.01961228810250759,0.04591634124517441,XTrueNorthZVertical,0.5408549580995252,0.3713620515254946,0.6461249101998936,0.3899856720590308,-0.4092679619789124,-0.9017438888549805,-0.1391322761774063,-12.6337776184082,-38.32448959350586,6.483859062194824,2,0.0.0.0,10.97.20.126,1,0
2015-02-21 11:26:26.928,78,1424543186.864248,39.63851190235668,-106.3701077218292,2514.982,-1,-1,10,65,-9999,1424543186.879375,-15.23070526123047,-34.42881774902344,3.302345275878906,165.6099395751953,156.4833831787109,10,14599.44917804167,-0.3638916015625,-0.8270721435546875,-0.07220458984375,14599.43867604167,0.09935561605202217,-0.7015543954307016,0.7991629778076319,14599.42832004167,2.941077402276072,-1.283783117740311,1.079327949196559,0.08064675331115723,-0.5547287464141846,0.8473584055900574,0.08437621593475342,0.02400535345077515,-0.008875689469277859,XTrueNorthZVertical,0.5522386460491734,0.3580986815425702,0.6528900429431254,0.3748766289316928,-0.4526165723800659,-0.8816408514976501,-0.1335956305265427,-14.82611274719238,-37.52329254150391,6.527494430541992,2,0.0.0.0,10.97.20.126,1,0
2015-02-21 11:26:27.001,79,1424543186.864248,39.63851190235668,-106.3701077218292,2514.982,-1,-1,10,65,-9999,1424543186.98639,-18.99852752685547,-31.99966430664062,3.385597229003906,156.5517578125,147.4252014160156,10,14599.498108875,-0.5700836181640625,-0.8334503173828125,-0.0625,14599.49045529167,0.1406141066078568,-0.9776781277850602,1.234183151337132,14599.480099625,2.975826817086822,-1.352445135553011,1.031442042320068,0.115947000682354,-0.8641563057899475,1.245310425758362,0.03970248624682426,-0.00316556659527123,0.0348668098449707,XTrueNorthZVertical,0.5744258782052949,0.3382436351355155,0.6506197309466746,0.3637584396924445,-0.5013876557350159,-0.8580405116081238,-0.1112523078918457,-16.14442253112793,-36.86000061035156,7.149634838104248,2,0.0.0.0,10.97.20.126,1,0
2015-02-21 11:26:27.026,80,1424543186.864248,39.63851190235668,-106.3701077218292,2514.982,-1,-1,10,65,-9999,1424543186.98639,-18.99852752685547,-31.99966430664062,3.385597229003906,156.5517578125,147.4252014160156,10,14599.54719054167,-0.7493438720703125,-0.7590179443359375,0.0486602783203125,14599.54223491667,0.07324758262153937,-1.213642988797678,1.171761052230656,14599.53187895833,3.007659903995667,-1.434445826319208,0.9724531255937148,0.0909276008605957,-1.196215867996216,1.18279230594635,-0.1345957368612289,0.04119002446532249,0.117382250726223,XTrueNorthZVertical,0.6033787721914134,0.3124924987312847,0.6442430332050607,0.3510462828152733,-0.5580464601516724,-0.8262699842453003,-0.07656498998403549,-17.82110023498535,-35.87698364257812,8.10368537902832,2,0.0.0.0,10.97.20.126,1,0
2015-02-21 11:26:27.099,81,1424543186.864248,39.63851190235668,-106.3701077218292,2514.982,-1,-1,10,65,-9999,1424543187.059983,-21.70932006835938,-29.97824096679688,4.700782775878906,153.8297729492188,144.7032165527344,10,14599.59624204167,-0.611419677734375,-0.8172760009765625,0.00946044921875,14599.594014375,0.3095131145212271,0.3156000355087122,1.20000813664869,14599.53187895833,3.007659903995667,-1.434445826319208,0.9724531255937148,0.0909276008605957,-1.196215867996216,1.18279230594635,-0.1345957368612289,0.04119002446532249,0.117382250726223,XTrueNorthZVertical,0.6033787721914134,0.3124924987312847,0.6442430332050607,0.3510462828152733,-0.5580464601516724,-0.8262699842453003,-0.07656498998403549,-17.82110023498535,-35.87698364257812,8.10368537902832,2,0.0.0.0,10.97.20.126,1,0
2015-02-21 11:26:27.124,82,1424543186.864248,39.63851190235668,-106.3701077218292,2514.982,-1,-1,10,65,-9999,1424543187.111395,-23.72109985351562,-28.24557495117188,5.666358947753906,146.4061431884766,137.2795867919922,10,14599.64534320833,-0.7310943603515625,-0.7317962646484375,0.0975494384765625,14599.64579366667,0.2622830178531078,0.00378914559896474,1.172491291001556,14599.63543770833,3.060033727515575,-1.495161092287306,0.848877553087349,0.2923820316791534,0.2128326147794724,1.323001146316528,-0.03892388567328453,0.009633374400436878,0.07790345698595047,XTrueNorthZVertical,0.6313386200577432,0.2764859818614773,0.6562974406351457,0.3069866464191133,-0.6589368581771851,-0.7505391240119934,-0.04993409663438797,-21.95686531066895,-28.54398918151855,4.9991455078125,2,0.0.0.0,10.97.20.126,1,0
2015-02-21 11:26:27.172,83,1424543186.864248,39.63851190235668,-106.3701077218292,2514.982,-1,-1,10,65,-9999,1424543187.163199,-25.83516693115234,-26.17315673828125,6.332275390625,141.5234985351562,132.3969421386719,10,14599.694395875,-0.489471435546875,-0.735443115234375,-0.03955078125,14599.64579366667,0.2622830178531078,0.00378914559896474,1.172491291001556,14599.63543770833,3.060033727515575,-1.495161092287306,0.848877553087349,0.2923820316791534,0.2128326147794724,1.323001146316528,-0.03892388567328453,0.009633374400436878,0.07790345698595047,XTrueNorthZVertical,0.6313386200577432,0.2764859818614773,0.6562974406351457,0.3069866464191133,-0.6589368581771851,-0.7505391240119934,-0.04993409663438797,-21.95686531066895,-28.54398918151855,4.9991455078125,2,0.0.0.0,10.97.20.126,1,0
2015-02-21 11:26:27.222,84,1424543186.864248,39.63851190235668,-106.3701077218292,2514.982,-1,-1,10,65,-9999,1424543187.21591,-27.69351196289062,-24.25361633300781,6.8150634765625,135.8575286865234,126.7309722900391,10,14599.74346708333,-0.6603851318359375,-0.6089935302734375,0.0626068115234375,14599.74935258333,0.4149676357856397,-0.6813812164894605,0.9644438150640205,14599.68721729167,3.084413068564001,-1.51086125546541,0.795138111798544,0.287472128868103,0.1877284348011017,1.069217562675476,0.1944124400615692,-0.009840343147516251,0.0511111281812191,XTrueNorthZVertical,0.6399274181710815,0.2636713909047286,0.663335453287586,0.2845284810159243,-0.6989290714263916,-0.7139602899551392,-0.0419405959546566,-23.49717903137207,-27.24212455749512,5.253968715667725,2,0.0.0.0,10.97.20.126,1,0
2015-02-21 11:26:27.271,85,1424543186.864248,39.63851190235668,-106.3701077218292,2514.982,-1,-1,10,65,-9999,1424543187.266907,-29.26201629638672,-22.28309631347656,7.647468566894531,128.6239929199219,119.497428894043,10,14599.792516875,-0.7658843994140625,-0.6226348876953125,0.004486083984375,14599.74935258333,0.4149676357856397,-0.6813812164894605,0.9644438150640205,14599.73899658333,3.115720031576973,-1.540111323394476,0.7372119876089152,0.4407052993774414,-0.565096378326416,1.081830859184265,0.09097986668348312,0.02900744043290615,0.04418306052684784,XTrueNorthZVertical,0.6527051591053757,0.2502378913204112,0.6663520007356654,0.2594842329439934,-0.7399972081184387,-0.6722264289855957,-0.02271394617855549,-25.30451583862305,-25.45722389221191,5.784987449645996,2,0.0.0.0,10.97.20.126,1,0
2015-02-21 11:26:27.325,86,1424543186.864248,39.63851190235668,-106.3701077218292,2514.982,-1,-1,10,65,-9999,1424543187.32129,-30.57478332519531,-20.73727416992188,8.896072387695312,123.7607574462891,114.6342010498047,10,14599.84159775,-0.8753204345703125,-0.5762939453125,0.1778717041015625,14599.80113175,0.4120815681123208,-0.8226003932969832,0.8518088788685363,14599.790776125,3.141385201241595,-1.593026460268398,0.6886570243627742,0.3805685639381409,-0.7833729386329651,0.9687972068786621,0.05671481043100357,0.01379674207419157,-0.0008203156176023185,XTrueNorthZVertical,0.6729826786080265,0.2359566774699237,0.658137134513393,0.2414008198652961,-0.7719095349311829,-0.6355008482933044,0.01716247946023941,-26.23305130004883,-24.17856216430664,7.005635261535645,2,0.0.0.0,10.97.20.126,1,0
2015-02-21 11:26:27.371,87,1424543186.864248,39.63851190235668,-106.3701077218292,2514.982,-1,-1,10,65,-9999,1424543187.32129,-30.57478332519531,-20.73727416992188,8.896072387695312,123.7607574462891,114.6342010498047,10,14599.89064625,-0.91253662109375,-0.4635162353515625,0.0895538330078125,14599.852911375,0.1803535300779101,-0.5092251625629232,0.62046620024386,14599.84255541667,-3.121126809906708,-1.645787501490669,0.6533976372009376,0.2372698038816452,-0.6884830594062805,0.5556612014770508,-0.08352893590927124,0.03159376606345177,0.1183827742934227,XTrueNorthZVertical,0.6920704031509529,0.2253508885050113,0.6465036823490647,0.2286670195891761,-0.7917914986610413,-0.6078876852989197,0.0594889335334301,-26.85375213623047,-23.03433609008789,8.375572204589844,2,0.0.0.0,10.97.20.126,1,0
2015-02-21 11:26:27.423,88,1424543186.864248,39.63851190235668,-106.3701077218292,2514.982,-1,-1,10,65,-9999,1424543187.396634,-31.76821899414062,-18.12127685546875,9.928245544433594,116.0751724243164,106.948616027832,10,14599.93983845833,-0.92999267578125,-0.5203704833984375,0.2661285400390625,14599.90469066667,0.0523401701677633,-0.4475026758748107,0.7744855945147396,14599.89433466667,-3.117249408340013,-1.663045308815775,0.6142473313144217,0.06782760471105576,-0.2693593800067902,0.8157148957252502,-0.09880373626947403,0.1128273606300354,0.01427414175122976,XTrueNorthZVertical,0.7018487935835639,0.2122454161238326,0.6448961453248576,0.2155671566613857,-0.8137328624725342,-0.5763435959815979,0.07527969032526016,-27.53700256347656,-21.80259704589844,9.39228630065918,2,0.0.0.0,10.97.20.126,1,0
2015-02-21 11:26:27.458,89,1424543186.864248,39.63851190235668,-106.3701077218292,2514.982,-1,-1,10,65,-9999,1424543187.447754,-32.39903259277344,-16.4395751953125,10.17796325683594,112.5680084228516,103.4414520263672,10,14599.98879275,-0.872833251953125,-0.4833831787109375,0.1414337158203125,14599.95647016667,-0.0399785753359425,-0.1867477798551904,1.045737073654798,14599.94611433333,-3.121885863055733,-1.68316195383998,0.568980673644812,-0.0226552989333868,-0.3131639957427979,1.033491492271423,-0.09285478293895721,0.01840311288833618,0.1716651171445847,XTrueNorthZVertical,0.7138466473944909,0.1940481301656123,0.641534538275253,0.2029822809731186,-0.8371378779411316,-0.5387735962867737,0.09446342289447784,-28.16791534423828,-20.71209907531738,9.97157096862793,2,0.0.0.0,10.97.20.126,1,0
2015-02-21 11:26:27.517,90,1424543186.864248,39.63851190235668,-106.3701077218292,2514.982,-1,-1,10,65,-9999,1424543187.500357,-33.37082672119141,-14.45208740234375,10.12802124023438,107.5409240722656,98.41436767578125,10,14600.03798870833,-0.9257965087890625,-0.3917694091796875,0.2226409912109375,14600.00824945833,0.1291822213125826,0.07046990560458673,1.087868548415961,14599.99789379167,-3.129507701736649,-1.680403662573972,0.5122868150804223,0.0879109725356102,0.09782741218805313,1.194167137145996,-0.006437808740884066,0.006788595113903284,0.04608829319477081,XTrueNorthZVertical,0.7194441675466606,0.1734151107435536,0.6466693766171063,0.1847866053066438,-0.8663954138755798,-0.4901717603206635,0.09534542262554169,-29.04878997802734,-19.34517097473145,10.18758964538574,2,0.0.0.0,10.97.20.126,1,0
2015-02-21 11:26:27.557,91,1424543186.864248,39.63851190235668,-106.3701077218292,2514.982,-1,-1,10,65,-9999,1424543187.553896,-34.51310729980469,-12.56649780273438,10.24455261230469,102.9199905395508,93.79343414306641,10,14600.08693795833,-0.765655517578125,-0.4193572998046875,0.08685302734375,14600.060028875,0.2037456718287301,-0.09605010050701582,0.8448503052562683,14600.049672875,-3.128614949754479,-1.679301261518793,0.464490815084573,0.1487991809844971,-0.05550049617886543,0.8113935589790344,0.008375205099582672,0.03559884801506996,0.1055282205343246,XTrueNorthZVertical,0.7234115142700847,0.1583826781077291,0.6508940891157503,0.1671157564602478,-0.888792097568512,-0.4479676187038422,0.09681858122348785,-30.24970436096191,-17.41075325012207,10.18213558197021,2,0.0.0.0,10.97.20.126,1,0
2015-02-21 11:26:27.615,92,1424543186.864248,39.63851190235668,-106.3701077218292,2514.982,-1,-1,10,65,-9999,1424543187.605243,-35.28030395507812,-10.44314575195312,10.16130828857422,96.90921783447266,87.78266143798828,10,14600.13611933333,-0.9307098388671875,-0.5193634033203125,0.2494354248046875,14600.11180820833,0.3496916932550345,-0.4590496097291763,0.8855556572536933,14600.101452375,-3.119527800998078,-1.690424942064896,0.4156730544240473,0.3493094742298126,-0.292346715927124,0.9699138402938843,0.1218990013003349,-0.007555932272225618,-0.01666673459112644,XTrueNorthZVertical,0.7304573486810141,0.1449911991018334,0.6509555864603597,0.1471955210024434,-0.9083064794540405,-0.4038057625293732,0.1091807708144188,-30.88972663879395,-16.05951309204102,10.47720432281494,2,0.0.0.0,10.97.20.126,1,0
2015-02-21 11:26:27.657,93,1424543186.864248,39.63851190235668,-106.3701077218292,2514.982,-1,-1,10,65,-9999,1424543187.605243,-35.28030395507812,-10.44314575195312,10.16130828857422,96.90921783447266,87.78266143798828,10,14600.18507154167,-0.771820068359375,-0.367645263671875,0.1365814208984375,14600.16358783333,0.1156384492728756,-0.5673537133599738,0.6538534518818564,14600.153232,-3.110967220741229,-1.726193689292564,0.3758696458594425,0.129352331161499,-0.7004671692848206,0.6845904588699341,0.01419501379132271,-0.1618338078260422,0.1031024903059006,XTrueNorthZVertical,0.744532684693724,0.1328720976626945,0.6407397645614783,0.13216930128206,-0.9189801812171936,-0.3670816123485565,0.1439678221940994,-31.25628471374512,-14.68325233459473,11.37108898162842,2,0.0.0.0,10.97.20.126,3,0
2015-02-21 11:26:27.713,94,1424543186.864248,39.63851190235668,-106.3701077218292,2514.982,-1,-1,10,65,-9999,1424543187.70778,-35.80883026123047,-6.7908935546875,11.31001281738281,86.55577850341797,77.42922210693359,10,14600.23430570833,-0.9326019287109375,-0.25250244140625,0.19873046875,14600.21536716667,0.3973710651990501,-0.03994928056395163,0.7146494248267303,14600.20501116667,-3.108076240725518,-1.738875104841316,0.3381234350087832,0.3115599453449249,0.04125919938087463,0.8110992908477783,0.1016088575124741,0.02608382143080235,0.00687165604904294,XTrueNorthZVertical,0.751149247936947,0.1211735716664219,0.6381217666897874,0.1178663087412254,-0.9300848245620728,-0.3317173719406128,0.1578164547681808,-31.53789710998535,-13.22845363616943,12.33790016174316,2,0.0.0.0,10.97.20.126,3,0
2015-02-21 11:26:27.757,95,1424543186.864248,39.63851190235668,-106.3701077218292,2514.982,-1,-1,10,65,-9999,1424543187.70778,-35.80883026123047,-6.7908935546875,11.31001281738281,86.55577850341797,77.42922210693359,10,14600.28330208334,-1.215042114257812,-0.2922210693359375,0.3822174072265625,14600.26714654167,0.5612513460381662,-1.141917402739119,0.5745943157316812,14600.25679079167,-3.090631068560344,-1.765530733408304,0.2994794556463309,0.5388456583023071,-0.9871512055397034,0.6592875719070435,-0.06168432533740997,0.008478071540594101,0.04990917071700096,XTrueNorthZVertical,0.7611920384865944,0.114163119452206,0.6306438164557602,0.09920646387153156,-0.9374306797981262,-0.2950228750705719,0.1848930716514587,-31.85831451416016,-11.94624423980713,12.81366729736328,2,0.0.0.0,10.97.20.126,3,0
2015-02-21 11:26:27.812,96,1424543186.864248,39.63851190235668,-106.3701077218292,2514.982,-1,-1,10,65,-9999,1424543187.760191,-36.09866333007812,-4.735504150390625,12.29224395751953,82.10060882568359,72.97405242919922,10,14600.332386375,-1.243438720703125,-0.0603485107421875,0.3312225341796875,14600.31892591667,0.3654181921241704,-0.9061754483097408,0.01610413511170915,14600.30857008333,-3.069214217586017,-1.828535018208382,0.2753803869110885,0.391613095998764,-1.067829132080078,0.08301009982824326,-0.40959832072258,0.1001753434538841,0.1493474096059799,XTrueNorthZVertical,0.7810739830125455,0.1121104892389874,0.6081321164663805,0.08677605194896079,-0.9305353164672852,-0.2719130218029022,0.2452906519174576,-31.4967155456543,-10.80683708190918,14.59534358978271,2,0.0.0.0,10.97.20.126,3,0
2015-02-21 11:26:27.851,97,1424543186.864248,39.63851190235668,-106.3701077218292,2514.982,-1,-1,10,65,-9999,1424543187.811611,-36.32029724121094,-3.325531005859375,13.54084014892578,75.97583770751953,66.84928131103516,10,14600.381417875,-0.9374237060546875,-0.171112060546875,0.305572509765625,14600.37070545833,0.319593445563286,1.222842346151139,0.6731243518457788,14600.30857008333,-3.069214217586017,-1.828535018208382,0.2753803869110885,0.391613095998764,-1.067829132080078,0.08301009982824326,-0.40959832072258,0.1001753434538841,0.1493474096059799,XTrueNorthZVertical,0.7810739830125455,0.1121104892389874,0.6081321164663805,0.08677605194896079,-0.9305353164672852,-0.2719130218029022,0.2452906519174576,-31.4967155456543,-10.80683708190918,14.59534358978271,2,0.0.0.0,10.97.20.126,3,0
2015-02-21 11:26:27.909,98,1424543186.864248,39.63851190235668,-106.3701077218292,2514.982,-1,-1,10,65,-9999,1424543187.862787,-36.35440063476562,-2.0345458984375,14.24005889892578,71.36562347412109,62.23906707763672,10,14600.43039766667,-0.7710723876953125,-0.17901611328125,0.2872772216796875,14600.42248466667,0.2233156447830684,0.5097119884101897,0.7646926185543003,14600.41212883333,-3.051972548919835,-1.778993237809898,0.217420010344325,0.232705757021904,0.8771979808807373,0.7901792526245117,0.09791853278875351,0.06313846260309219,0.07981681823730469,XTrueNorthZVertical,0.7683335454505595,0.1028519177085742,0.6292319966014084,0.05614466509172744,-0.9553709030151367,-0.2157110869884491,0.2018299102783203,-32.15973663330078,-8.890450477600098,14.44181823730469,2,0.0.0.0,10.97.20.126,3,0
2015-02-21 11:26:27.948,99,1424543186.864248,39.63851190235668,-106.3701077218292,2514.982,-1,-1,10,65,-9999,1424543187.914623,-36.83177185058594,-0.879364013671875,13.84049987792969,75.48467254638672,66.35811614990234,10,14600.47955604167,-0.93817138671875,-0.16693115234375,0.2205047607421875,14600.47426425,0.2757881740570087,-0.6464051229451228,0.6616775528484001,14600.46390845833,-3.049713171146818,-1.77641059390278,0.17595298272356,0.2297350913286209,-0.4421236515045166,0.7708920240402222,0.1503752022981644,-0.008562522940337658,0.03653260692954063,XTrueNorthZVertical,0.7695792156093234,0.09086220750131273,0.6308340396339804,0.0392477718528865,-0.9638212323188782,-0.1750464886426926,0.2010162174701691,-32.80389785766602,-7.580704689025879,13.72195625305176,2,0.0.0.0,10.97.20.126,3,0
2015-02-21 11:26:28.007,100,1424543186.864248,39.63851190235668,-106.3701077218292,2514.982,-1,-1,10,65,-9999,1424543187.966436,-37.71832275390625,0.7174072265625,13.17459106445312,71.08248901367188,61.9559326171875,10,14600.52852429167,-1.009506225585938,-0.25677490234375,0.359832763671875,14600.52604358333,0.5943672215610835,-0.3182424239422888,0.7347767973972221,14600.51568758333,-3.035556327814404,-1.816945822230572,0.1424863361086874,0.5844939947128296,-0.6292677521705627,0.6086227893829346,-0.02532214857637882,-0.04773835092782974,0.05922830849885941,XTrueNorthZVertical,0.7831402535061729,0.08539518653890779,0.6155035214629739,0.02354789857219387,-0.9600294232368469,-0.1420046836137772,0.2412019819021225,-32.53659820556641,-5.999711513519287,15.07408046722412,2,0.0.0.0,10.97.20.126,3,0
2015-02-21 11:26:28.046,101,1424543186.864248,39.63851190235668,-106.3701077218292,2514.982,-1,-1,10,65,-9999,1424543188.019129,-38.07635498046875,2.195281982421875,13.25782775878906,62.96036529541016,53.83380889892578,10,14600.57756995833,-1.143447875976562,-0.0684356689453125,0.336517333984375,14600.52604358333,0.5943672215610835,-0.3182424239422888,0.7347767973972221,14600.51568758333,-3.035556327814404,-1.816945822230572,0.1424863361086874,0.5844939947128296,-0.6292677521705627,0.6086227893829346,-0.02532214857637882,-0.04773835092782974,0.05922830849885941,XTrueNorthZVertical,0.7831402535061729,0.08539518653890779,0.6155035214629739,0.02354789857219387,-0.9600294232368469,-0.1420046836137772,0.2412019819021225,-32.53659820556641,-5.999711513519287,15.07408046722412,2,0.0.0.0,10.97.20.126,3,0
2015-02-21 11:26:28.110,102,1424543186.864248,39.63851190235668,-106.3701077218292,2514.982,-1,-1,10,65,-9999,1424543188.069783,-37.82061004638672,4.012908935546875,13.74062347412109,59.89416885375977,50.76761245727539,10,14600.62664754167,-1.09539794921875,0.08111572265625,0.3675689697265625,14600.62960233333,0.3533266418268837,0.584839762761325,1.239614668380349,14600.6192465,-3.005239346679872,-1.794232882109237,0.0539610047684144,0.3614745140075684,0.5411917567253113,1.131141901016235,-0.09582708775997162,0.06926990300416946,0.189827486872673,XTrueNorthZVertical,0.7782853007509604,0.07001262471426087,0.6236266491742785,-0.02145013896186599,-0.9737224578857422,-0.05393481999635696,0.2212595492601395,-32.96099090576172,-3.12793493270874,15.02145481109619,2,0.0.0.0,10.97.20.126,3,0
2015-02-21 11:26:28.145,103,1424543186.864248,39.63851190235668,-106.3701077218292,2514.982,-1,-1,10,65,-9999,1424543188.1227,-37.58193969726562,6.35711669921875,13.30776977539062,56.48552322387695,47.35896682739258,10,14600.67580516667,-0.9895477294921875,0.1830902099609375,0.2791900634765625,14600.62960233333,0.3533266418268837,0.584839762761325,1.239614668380349,14600.6192465,-3.005239346679872,-1.794232882109237,0.0539610047684144,0.3614745140075684,0.5411917567253113,1.131141901016235,-0.09582708775997162,0.06926990300416946,0.189827486872673,XTrueNorthZVertical,0.7782853007509604,0.07001262471426087,0.6236266491742785,-0.02145013896186599,-0.9737224578857422,-0.05393481999635696,0.2212595492601395,-32.96099090576172,-3.12793493270874,15.02145481109619,2,0.0.0.0,10.97.20.126,3,0
2015-02-21 11:26:28.208,104,1424543186.864248,39.63851190235668,-106.3701077218292,2514.982,-1,-1,10,65,-9999,1424543188.17393,-37.82061004638672,8.83721923828125,12.20901489257812,52.25318145751953,43.12662506103516,10,14600.72477216667,-0.94305419921875,0.03948974609375,0.1679534912109375,14600.68138191667,0.7201965230612564,1.228507422421955,1.101609394376334,14600.67102591667,-2.992510992926235,-1.752610794296708,-0.00910791294976712,0.7102176547050476,1.143888831138611,1.066372156143188,-0.06541262567043304,0.2027452439069748,0.08532159030437469,XTrueNorthZVertical,0.7664550122256516,0.05431563651970336,0.6379500258397417,-0.05115049756280493,-0.9834765195846558,0.009107787162065506,0.1808069497346878,-33.6762809753418,-0.4942387342453003,13.69374847412109,2,0.0.0.0,10.97.20.126,3,0
2015-02-21 11:26:28.243,105,1424543186.864248,39.63851190235668,-106.3701077218292,2514.982,-1,-1,10,65,-9999,1424543188.226008,-37.99111175537109,11.62310791015625,10.04477691650391,50.32321548461914,41.19665908813477,10,14600.773917875,-1.020431518554688,0.119842529296875,0.126800537109375,14600.73316108333,0.6348256985254582,1.365567274238992,1.453032941288247,14600.72280525,-2.970232453431968,-1.681883435059889,-0.08259637170112839,0.6174989342689514,1.49517834186554,1.594659447669983,0.08518995344638824,-0.01186955533921719,0.08078806847333908,XTrueNorthZVertical,0.7442600901152211,0.036295228169266,0.661115921099333,-0.08766639349841114,-0.9904481172561646,0.08250249177217484,0.1104808524250984,-34.37772369384766,1.809476494789124,11.69413185119629,2,0.0.0.0,10.97.20.126,3,0
2015-02-21 11:26:28.309,106,1424543186.864248,39.63851190235668,-106.3701077218292,2514.982,-1,-1,10,65,-9999,1424543188.277489,-38.00816345214844,13.78048706054688,7.564231872558594,48.68426132202148,39.55770492553711,10,14600.82288166667,-0.9305419921875,0.215240478515625,0.0150604248046875,14600.83672,0.4207158026824667,0.9501271936759725,0.6211133483887492,14600.77458483333,-2.943197154984216,-1.621055224197049,-0.1407383053218733,0.5707014799118042,1.025102019309998,0.6769704818725586,-0.03156895563006401,-0.0204316284507513,0.07705950736999512,XTrueNorthZVertical,0.724102321690653,0.02337397838756152,0.6789854741293306,-0.1187783388675146,-0.9888625741004944,0.1402741521596909,0.04974102973937988,-34.82369613647461,4.314385414123535,9.515834808349609,2,0.0.0.0,10.97.20.126,3,0
2015-02-21 11:26:28.341,107,1424543186.864248,39.63851190235668,-106.3701077218292,2514.982,-1,-1,10,65,-9999,1424543188.330126,-38.09341430664062,15.7340087890625,5.716300964355469,45.71034622192383,36.58378982543945,10,14600.8719265,-0.860015869140625,0.2189788818359375,-0.035552978515625,14600.83672,0.4207158026824667,0.9501271936759725,0.6211133483887492,14600.826364,-2.918409816882776,-1.559471651480525,-0.1725806157840528,0.4525077939033508,1.0743008852005,0.6955115795135498,0.05453981086611748,0.04351527988910675,0.02621663361787796,XTrueNorthZVertical,0.7029434133442442,0.01710126844480544,0.697299262544274,-0.1391111990996696,-0.9850817918777466,0.1717251986265182,-0.01115620881319046,-35.16661834716797,6.003555297851562,7.008643627166748,2,0.0.0.0,10.97.20.126,3,0
2015-02-21 11:26:28.400,108,1424543186.864248,39.63851190235668,-106.3701077218292,2514.982,-1,-1,10,65,-9999,1424543188.380928,-38.31504058837891,17.245849609375,3.96826171875,44.88649749755859,35.75994110107422,10,14600.921002875,-0.943084716796875,0.1753387451171875,-0.0743560791015625,14600.88849941667,0.2664652460289683,0.6680419752214716,0.6113864188233439,14600.87814358333,-2.899733533422899,-1.513620344833148,-0.2009496709844264,0.2922348380088806,0.760317325592041,0.5581632852554321,0.118260458111763,0.0193789005279541,0.02044196240603924,XTrueNorthZVertical,0.6869513558513221,0.01001820705522735,0.7097722708375025,-0.1556305779010605,-0.9782763123512268,0.1995999813079834,-0.05599493905901909,-35.24429702758789,7.092389583587646,5.421488761901855,2,0.0.0.0,10.97.20.126,3,0
2015-02-21 11:26:28.439,109,1424543186.864248,39.63851190235668,-106.3701077218292,2514.982,-1,-1,10,65,-9999,1424543188.433159,-38.62191772460938,18.16314697265625,3.102569580078125,44.17099761962891,35.04444122314453,10,14600.970049375,-1.047073364257812,0.37042236328125,-0.0319671630859375,14600.940278875,-0.1011018507787871,0.3277552353560518,0.6438777830706376,14600.92992291667,-2.892132300081763,-1.487382284234186,-0.2367089754404056,-0.07945447415113449,0.3072807788848877,0.7525249719619751,0.025650380179286,-0.05916590243577957,0.006637968122959137,XTrueNorthZVertical,0.6778615326362905,-0.00259208667622814,0.7152033255360219,-0.1702389785186458,-0.9687350988388062,0.2345046550035477,-0.08099404722452164,-35.16611099243164,8.158283233642578,4.317610263824463,2,0.0.0.0,10.97.20.126,3,0
2015-02-21 11:26:28.500,110,1424543186.864248,39.63851190235668,-106.3701077218292,2514.982,-1,-1,10,65,-9999,1424543188.485596,-38.50257873535156,18.92758178710938,2.32012939453125,43.17463684082031,34.04808044433594,10,14601.01912258334,-0.9159088134765625,0.36822509765625,-0.0695953369140625,14600.99205833334,0.03707599606386514,0.5892893723106294,0.2688410520374279,14600.98170233333,-2.894172995267053,-1.463062799605491,-0.2615312919972312,-0.01780327409505844,0.6228508353233337,0.2955296337604523,-0.05045424029231071,0.1206971257925034,0.06990281492471695,XTrueNorthZVertical,0.6692184966811038,-0.0145658752832432,0.7214123854520177,-0.1774787088632332,-0.9603947401046753,0.2585600614547729,-0.1038688793778419,-34.94173812866211,9.431073188781738,3.461887121200562,2,0.0.0.0,10.97.20.126,3,0
2015-02-21 11:26:28.541,111,1424543186.864248,39.63851190235668,-106.3701077218292,2514.982,-1,-1,10,65,-9999,1424543188.537955,-38.09340667724609,19.708984375,1.853981018066406,44.83710861206055,35.71055221557617,10,14601.06815570833,-0.979736328125,0.37017822265625,-0.1033172607421875,14601.043837625,0.1250138415743906,0.6863826330166293,0.444820872657101,14601.03348170833,-2.888393241744948,-1.431078579729892,-0.2811779953463454,0.09018293023109436,0.6586270928382874,0.5072711110115051,0.02621168456971645,0.09710043668746948,0.065420001745224,XTrueNorthZVertical,0.6577068663936436,-0.02289888346622941,0.7297056847339716,-0.1855451850838332,-0.9513673186302185,0.277487576007843,-0.1337946355342865,-34.86905288696289,9.986806869506836,2.50349760055542,2,0.0.0.0,10.97.20.126,3,0
2015-02-21 11:26:28.602,112,1424543186.864248,39.63851190235668,-106.3701077218292,2514.982,-1,-1,10,65,-9999,1424543188.537955,-38.09340667724609,19.708984375,1.853981018066406,44.83710861206055,35.71055221557617,10,14601.11721916667,-0.9386138916015625,0.3620758056640625,-0.1310272216796875,14601.09561691667,0.3343521516922871,0.7919540670528964,0.3977441740677702,14601.08526129167,-2.874348456397665,-1.391346334972378,-0.3001601679305195,0.3241169452667236,0.7517731189727783,0.3882943391799927,-0.01491530891507864,0.08048645406961441,0.05695215985178947,XTrueNorthZVertical,0.6433397123236958,-0.02932543406767135,0.7394615479967233,-0.1960885909595745,-0.9399492144584656,0.2956732213497162,-0.1705080717802048,-34.71429824829102,10.71872329711914,1.371523380279541,2,0.0.0.0,10.97.20.126,3,0
2015-02-21 11:26:28.639,113,1424543186.864248,39.63851190235668,-106.3701077218292,2514.982,-1,-1,10,65,-9999,1424543188.614271,-36.95113372802734,21.69650268554688,-0.4267730712890625,41.87664031982422,32.75008392333984,10,14601.16636145833,-0.9338836669921875,0.332794189453125,-0.208099365234375,14601.14739654167,0.2916994963057961,0.9408966773377579,0.4283108717952637,14601.13704054167,-2.854260397399873,-1.342302374017666,-0.3206759026158053,0.2729222774505615,0.8985134959220886,0.4874311685562134,-0.06317730993032455,0.01285588555037975,0.03045467659831047,XTrueNorthZVertical,0.625486557914973,-0.0358411583123291,0.7508825121450429,-0.208943803926975,-0.9243562817573547,0.3152080774307251,-0.2149639576673508,-35.3864631652832,21.86483764648438,-0.7214174270629883,2,0.0.0.0,10.97.20.126,3,0
2015-02-21 11:26:28.705,114,1424543186.864248,39.63851190235668,-106.3701077218292,2514.982,-1,-1,10,65,-9999,1424543188.666006,-36.4737548828125,22.78369140625,-2.191459655761719,39.55430603027344,30.42774963378906,10,14601.215311125,-0.7702178955078125,0.3114471435546875,-0.275421142578125,14601.19917566667,0.2051709956441405,1.033466558932258,0.4457005147651541,14601.188819875,-2.835148221474256,-1.283344086180818,-0.3392925149702287,0.213874414563179,1.112586855888367,0.4686767756938934,0.05172929540276527,0.001377974171191454,0.01025180891156197,XTrueNorthZVertical,0.6036745814195121,-0.04362827762442047,0.7649224415801557,-0.2203799321915939,-0.9042989015579224,0.3328200280666351,-0.2673471570014954,-34.85351943969727,22.57080841064453,-2.566020965576172,2,0.0.0.0,10.97.20.126,3,0
2015-02-21 11:26:28.733,115,1424543186.864248,39.63851190235668,-106.3701077218292,2514.982,-1,-1,10,65,-9999,1424543188.720903,-36.11573028564453,23.58212280273438,-3.606529235839844,42.42620849609375,33.29965209960938,10,14601.264344,-0.852508544921875,0.46173095703125,-0.329498291015625,14601.25095533333,0.05401742902229521,0.8429016702866572,0.3932919013573758,14601.240599375,-2.819890881285566,-1.230851326295994,-0.3607593924936587,0.03852397948503494,0.8680159449577332,0.4739423096179962,0.06706815958023071,0.004314959980547428,0.06027798727154732,XTrueNorthZVertical,0.5840695766752168,-0.05363648466201199,0.7763232874131155,-0.2308854554575544,-0.8820858597755432,0.3529848456382751,-0.3119717240333557,-34.19356918334961,23.29010581970215,-4.377694129943848,2,0.0.0.0,10.97.20.126,3,0
2015-02-21 11:26:28.801,116,1424543186.864248,39.63851190235668,-106.3701077218292,2514.982,-1,-1,10,65,-9999,1424543188.772201,-35.79178619384766,24.00674438476562,-4.855125427246094,35.81231307983398,26.68575477600098,10,14601.31340420833,-0.661590576171875,0.38580322265625,-0.398101806640625,14601.302734625,0.1339058701380562,0.6148674366841864,0.2068610376719048,14601.292378625,-2.807189507950413,-1.185899490822604,-0.3733048245037244,0.1866378933191299,0.7239368557929993,0.2277783006429672,0.09476908296346664,0.09140583127737045,0.01198834646493196,XTrueNorthZVertical,0.5670574603029668,-0.06036290435720213,0.7862698318125398,-0.2378696934878572,-0.8630033135414124,0.3646946251392365,-0.3496043086051941,-33.36631011962891,24.05503845214844,-6.232014656066895,2,0.0.0.0,10.97.20.126,3,0
2015-02-21 11:26:28.831,117,1424543186.864248,39.63851190235668,-106.3701077218292,2514.982,-1,-1,10,65,-9999,1424543188.822481,-35.48490905761719,24.482421875,-5.687522888183594,34.41655349731445,25.28999519348145,10,14601.36244358333,-0.8064727783203125,0.3934783935546875,-0.3400115966796875,14601.354514125,0.09363541234664098,0.1728285021017822,0.211976703809838,14601.34415829167,-2.797580860807639,-1.161501433010186,-0.3838955137645311,0.04611149057745934,0.2066486179828644,0.2178483158349991,0.1159768328070641,-0.01212377287447453,-0.01625795662403107,XTrueNorthZVertical,0.5579268522074265,-0.06495885133787628,0.7906712178907946,-0.2435920430229164,-0.8506264686584473,0.3745352625846863,-0.3689959645271301,-32.91073226928711,24.41671752929688,-7.176438808441162,2,0.0.0.0,10.97.20.126,3,0
2015-02-21 11:26:28.902,118,1424543186.864248,39.63851190235668,-106.3701077218292,2514.982,-1,-1,10,65,-9999,1424543188.873634,-35.09278106689453,24.66928100585938,-6.503265380859375,33.86877059936523,24.74221420288086,10,14601.411511125,-0.8198394775390625,0.3575592041015625,-0.3612213134765625,14601.406293375,0.02261636292527992,0.1372009993548112,0.2044410231893498,14601.39593770833,-2.789714818927616,-1.151316236494015,-0.3914454349180249,0.0637773871421814,0.1269619166851044,0.1892477422952652,0.05051630362868309,-0.01281153410673141,0.01632482185959816,XTrueNorthZVertical,0.5543032738929232,-0.06714812186961247,0.7915858744009258,-0.2482557083656027,-0.8442174792289734,0.381524920463562,-0.3764780163764954,-32.60424423217773,24.72053146362305,-7.526757717132568,2,0.0.0.0,10.97.20.126,3,0
2015-02-21 11:26:28.929,119,1424543186.864248,39.63851190235668,-106.3701077218292,2514.982,-1,-1,10,65,-9999,1424543188.92504,-34.37672424316406,24.43142700195312,-6.569862365722656,34.47577667236328,25.34922027587891,10,14601.46059695833,-0.7132415771484375,0.4451141357421875,-0.3909454345703125,14601.458073,-0.0913610727757133,0.08245626103881536,0.04700985324596971,14601.39593770833,-2.789714818927616,-1.151316236494015,-0.3914454349180249,0.0637773871421814,0.1269619166851044,0.1892477422952652,0.05051630362868309,-0.01281153410673141,0.01632482185959816,XTrueNorthZVertical,0.5543032738929232,-0.06714812186961247,0.7915858744009258,-0.2482557083656027,-0.8442174792289734,0.381524920463562,-0.3764780163764954,-32.60424423217773,24.72053146362305,-7.526757717132568,2,0.0.0.0,10.97.20.126,3,0
2015-02-21 11:26:28.999,120,1424543186.864248,39.63851190235668,-106.3701077218292,2514.982,-1,-1,10,65,-9999,1424543188.977328,-34.15509033203125,24.482421875,-6.852874755859375,34.98100662231445,25.85444831848145,10,14601.50960895833,-0.753204345703125,0.4339447021484375,-0.36358642578125,14601.50985216667,-0.1278229438922062,-0.4052926378614908,-0.2060474419588856,14601.49949629167,-2.79189078165703,-1.141620488921669,-0.422488637045947,-0.1560556590557098,-0.3101750612258911,-0.1001195907592773,0.1268858760595322,0.05247762054204941,0.01106330566108227,XTrueNorthZVertical,0.5509408507067753,-0.08184074288496358,0.7905051081856466,-0.25469202729011,-0.8293547630310059,0.4100315272808075,-0.3795325458049774,-31.66954040527344,25.83010292053223,-7.787132740020752,2,0.0.0.0,10.97.20.126,3,0
2015-02-21 11:26:29.028,121,1424543186.864248,39.63851190235668,-106.3701077218292,2514.982,-1,-1,10,65,-9999,1424543188.977328,-34.15509033203125,24.482421875,-6.852874755859375,34.98100662231445,25.85444831848145,10,14601.55875520833,-0.7152862548828125,0.4412689208984375,-0.334564208984375,14601.50985216667,-0.1278229438922062,-0.4052926378614908,-0.2060474419588856,14601.49949629167,-2.79189078165703,-1.141620488921669,-0.422488637045947,-0.1560556590557098,-0.3101750612258911,-0.1001195907592773,0.1268858760595322,0.05247762054204941,0.01106330566108227,XTrueNorthZVertical,0.5509408507067753,-0.08184074288496358,0.7905051081856466,-0.25469202729011,-0.8293547630310059,0.4100315272808075,-0.3795325458049774,-31.66954040527344,25.83010292053223,-7.787132740020752,2,0.0.0.0,10.97.20.126,3,0
2015-02-21 11:26:29.100,122,1424543186.864248,39.63851190235668,-106.3701077218292,2514.982,-1,-1,10,65,-9999,1424543189.080749,-34.61540985107422,24.125732421875,-5.504402160644531,34.60698699951172,25.48043060302734,10,14601.60771429167,-0.9394073486328125,0.428009033203125,-0.245269775390625,14601.61341108333,0.01008991842198321,-0.8655438658745109,-0.2191403408260422,14601.55127591667,-2.802689298175022,-1.1714959635942,-0.4145211108390779,-0.08919131010770798,-0.6179748177528381,-0.2930766344070435,0.107404038310051,0.05035809800028801,0.01310541294515133,XTrueNorthZVertical,0.5621611227861923,-0.07778628242112316,0.7846006118882932,-0.2496520160655622,-0.8433049321174622,0.4027516543865204,-0.3558483421802521,-31.97513771057129,25.65790939331055,-7.075005531311035,2,0.0.0.0,10.97.20.126,3,0
2015-02-21 11:26:29.125,123,1424543186.864248,39.63851190235668,-106.3701077218292,2514.982,-1,-1,10,65,-9999,1424543189.080749,-34.61540985107422,24.125732421875,-5.504402160644531,34.60698699951172,25.48043060302734,10,14601.65674533333,-1.044281005859375,0.4557342529296875,-0.26971435546875,14601.61341108333,0.01008991842198321,-0.8655438658745109,-0.2191403408260422,14601.60305508333,-2.806566650133543,-1.211299820505604,-0.4043064962663694,0.03655071929097176,-0.8806233406066895,-0.1484492421150208,-0.006477128248661757,0.01064095180481672,0.06144561991095543,XTrueNorthZVertical,0.5774189153325899,-0.06977020790663657,0.7750595866496559,-0.2469863041819923,-0.8606035709381104,0.393381267786026,-0.3234390318393707,-32.61397933959961,25.19411849975586,-5.690191268920898,2,0.0.0.0,10.97.20.126,3,0
2015-02-21 11:26:29.204,124,1424543186.864248,39.63851190235668,-106.3701077218292,2514.982,-1,-1,10,65,-9999,1424543189.184291,-35.29737091064453,23.51419067382812,-3.872894287109375,34.56366729736328,25.43710899353027,10,14601.70580016667,-0.8201751708984375,0.377410888671875,-0.2583465576171875,14601.66519054167,-0.0334248022093665,-0.1855024857294693,-0.2876046198136902,14601.65483466667,-2.811294325205202,-1.245378820334779,-0.3955977332267766,-0.03924943134188652,-0.3432771861553192,-0.218146339058876,-0.1845617294311523,0.06590360403060913,0.01441862992942333,XTrueNorthZVertical,0.5903121761136598,-0.06344512379845102,0.766795298682913,-0.2439903766998844,-0.8743371963500977,0.3853598237037659,-0.295012503862381,-32.99442291259766,24.92927932739258,-4.548909187316895,2,0.0.0.0,10.97.20.126,3,0
2015-02-21 11:26:29.225,125,1424543186.864248,39.63851190235668,-106.3701077218292,2514.982,-1,-1,10,65,-9999,1424543189.184291,-35.29737091064453,23.51419067382812,-3.872894287109375,34.56366729736328,25.43710899353027,10,14601.75484008333,-0.859130859375,0.345550537109375,-0.2812347412109375,14601.71696983333,0.004942826983187066,-0.02585183733361718,-0.2109718931305511,14601.706614,-2.817921514790434,-1.254420181370903,-0.3871180977903164,0.0001343693729722872,0.04844390973448753,-0.1828400641679764,0.05986753851175308,-0.0001104538750951178,0.0297551266849041,XTrueNorthZVertical,0.5934976411487655,-0.06090736793699136,0.7659761133009324,-0.2394400119872414,-0.8800427317619324,0.3775213360786438,-0.2881016731262207,-33.27460861206055,24.65010452270508,-3.995777606964111,2,0.0.0.0,10.97.20.126,3,0
2015-02-21 11:26:29.300,126,1424543186.864248,39.63851190235668,-106.3701077218292,2514.982,-1,-1,10,65,-9999,1424543189.288236,-36.03047943115234,22.68185424804688,-4.189201354980469,34.50511932373047,25.37856292724609,10,14601.803882375,-0.8856201171875,0.3478851318359375,-0.24224853515625,14601.76874945833,0.09784320686896618,-0.1539546794563907,-0.2066815406144335,14601.75839345833,-2.820831522409455,-1.260502915020561,-0.3783680886574083,0.0749916136264801,-0.1444395929574966,-0.2111291438341141,0.02575977332890034,-0.02385394088923931,0.002506372751668096,XTrueNorthZVertical,0.5956663179555999,-0.05754199023886839,0.7655832608090705,-0.2361205429176665,-0.884890615940094,0.3694044649600983,-0.2837411165237427,-33.55645751953125,24.28111267089844,-3.896847724914551,2,0.0.0.0,10.97.20.126,3,0
2015-02-21 11:26:29.322,127,1424543186.864248,39.63851190235668,-106.3701077218292,2514.982,-1,-1,10,65,-9999,1424543189.288236,-36.03047943115234,22.68185424804688,-4.189201354980469,34.50511932373047,25.37856292724609,10,14601.853022,-0.926910400390625,0.4139556884765625,-0.2599334716796875,14601.820528625,-0.1088383337454673,-0.08390555330403648,-0.07719545262147283,14601.81017279167,-2.82158740835544,-1.265647757640662,-0.3741795206533268,-0.1034704744815826,-0.0634969100356102,-0.01836213655769825,0.002186616882681847,-0.01762381196022034,0.03739862516522408,XTrueNorthZVertical,0.5975765788659769,-0.05548559999559741,0.764643330547924,-0.2348281087066792,-0.8878067135810852,0.3655089437961578,-0.279647171497345,-33.72330474853516,24.06740570068359,-3.780514717102051,2,0.0.0.0,10.97.20.126,3,0
2015-02-21 11:26:29.400,128,1424543186.864248,39.63851190235668,-106.3701077218292,2514.982,-1,-1,10,65,-9999,1424543189.391767,-36.20095825195312,22.20626831054688,-3.556587219238281,35.70419692993164,26.57764053344727,10,14601.90198345833,-0.8563690185546875,0.346405029296875,-0.2480621337890625,14601.87230820833,0.04901441459847235,0.00314652482792862,-0.1518457221891569,14601.86195241667,-2.825215844819631,-1.269682798465878,-0.3710864993394797,0.03369465842843056,-0.00985005684196949,-0.1153731793165207,-0.03690710291266441,0.05132749676704407,0.01646306179463863,XTrueNorthZVertical,0.598992268882785,-0.05486342448937319,0.7642308871032413,-0.23270045267588,-0.8900033235549927,0.3626281917095184,-0.2763965427875519,-33.78557586669922,24.00988006591797,-3.585239410400391,2,0.0.0.0,10.97.20.126,3,0
2015-02-21 11:26:29.420,129,1424543186.864248,39.63851190235668,-106.3701077218292,2514.982,-1,-1,10,65,-9999,1424543189.391767,-36.20095825195312,22.20626831054688,-3.556587219238281,35.70419692993164,26.57764053344727,10,14601.95102416667,-0.8775787353515625,0.3644256591796875,-0.248931884765625,14601.92408754167,0.06907254498062215,-0.05419426291867647,-0.05991659715292973,14601.91373154167,-2.826162584823723,-1.274003115902998,-0.3701707196085618,0.05353531986474991,-0.03187825903296471,-0.03533266857266426,0.03640376403927803,-0.008716732263565063,0.008653565309941769,XTrueNorthZVertical,0.6006086656315544,-0.05427976782483454,0.7631543342978174,-0.232203537057117,-0.8915063142776489,0.3617745935916901,-0.2726458609104156,-33.87029647827148,23.9146842956543,-3.418257236480713,2,0.0.0.0,10.97.20.126,3,0
2015-02-21 11:26:29.502,130,1424543186.864248,39.63851190235668,-106.3701077218292,2514.982,-1,-1,10,65,-9999,1424543189.443552,-36.04751586914062,22.15533447265625,-3.573234558105469,35.43459320068359,26.30803489685059,10,14602.00008120833,-0.9232330322265625,0.357452392578125,-0.262939453125,14601.975867,0.0370981003009128,-0.04255758053557523,-0.01122469136246597,14601.96551116667,-2.823388079632935,-1.276882818396138,-0.3696301739715261,0.05478484556078911,-0.02917003817856312,0.0233126375824213,0.006900444626808167,-0.0155369658023119,0.030235406011343,XTrueNorthZVertical,0.6017765750714046,-0.05289526917388786,0.7620302812734684,-0.2331887167571498,-0.8924747705459595,0.3612706065177917,-0.2701340913772583,-33.86040878295898,23.92635154724121,-3.434525489807129,2,0.0.0.0,10.97.20.126,3,0
2015-02-21 11:26:29.518,131,1424543186.864248,39.63851190235668,-106.3701077218292,2514.982,-1,-1,10,65,-9999,1424543189.495365,-36.01342010498047,22.35916137695312,-4.072662353515625,34.40522003173828,25.27866172790527,10,14602.04923558333,-0.879791259765625,0.3490142822265625,-0.260772705078125,14602.02764633333,0.04385480630255283,0.05472689513669231,-0.03693404957776392,14602.0172905,-2.822359476638763,-1.278190862861027,-0.3683164393475964,0.03349945694208145,0.03346176072955132,-0.01860035210847855,-0.02757162228226662,0.005692624486982822,0.01209934614598751,XTrueNorthZVertical,0.6022904612608759,-0.05190987582687107,0.7616731970724318,-0.2332500566633924,-0.8932810425758362,0.3600452840328217,-0.2691031396389008,-33.88018798828125,23.9106330871582,-3.34782600402832,2,0.0.0.0,10.97.20.126,3,0
2015-02-21 11:26:29.600,132,1424543186.864248,39.63851190235668,-106.3701077218292,2514.982,-1,-1,10,65,-9999,1424543189.547173,-36.50784301757812,22.27420043945312,-4.022720336914062,34.29434967041016,25.16779327392578,10,14602.09818933333,-0.858734130859375,0.358367919921875,-0.252227783203125,14602.07942595833,0.01310834520147902,0.06322930323287929,-0.02119157174208752,14602.06906995833,-2.821747303604698,-1.275937562472458,-0.3684407301919473,0.00385400396771729,0.06575991213321686,0.02467154338955879,0.03168291971087456,-0.007927356287837029,0.01177914906293154,XTrueNorthZVertical,0.601449004135314,-0.05203807201039874,0.7622650510924553,-0.2334592242240849,-0.8926295638084412,0.3601612448692322,-0.2711022794246674,-33.91188049316406,23.86016464233398,-3.386791706085205,2,0.0.0.0,10.97.20.126,3,0
2015-02-21 11:26:29.616,133,1424543186.864248,39.63851190235668,-106.3701077218292,2514.982,-1,-1,10,65,-9999,1424543189.59867,-36.62718963623047,22.18927001953125,-3.90618896484375,34.43422317504883,25.30766677856445,10,14602.147324125,-0.879791259765625,0.3780670166015625,-0.2586822509765625,14602.13120508333,0.002873018183977482,-0.06999479766611659,-0.02025626956725169,14602.12084929167,-2.821413192459202,-1.274485523964682,-0.3698786797405917,0.008211893029510975,-0.04554186016321182,0.0103529067710042,0.02369674481451511,-0.005331664811819792,0.0002434380876366049,XTrueNorthZVertical,0.6009171837013144,-0.0526804743350207,0.7624907744999626,-0.2339470191410454,-0.8917387127876282,0.3615023195743561,-0.2722465991973877,-33.87308502197266,23.90701293945312,-3.444202423095703,2,0.0.0.0,10.97.20.126,3,0
2015-02-21 11:26:29.701,134,1424543186.864248,39.63851190235668,-106.3701077218292,2514.982,-1,-1,10,65,-9999,1424543189.651377,-36.37145233154297,21.96844482421875,-3.589874267578125,34.76150512695312,25.63494682312012,10,14602.19627595833,-0.8626861572265625,0.3672637939453125,-0.25872802734375,14602.18298475,-0.03283038465406082,-0.059421515506284,-0.05715516541862656,14602.172628875,-2.82303333227419,-1.278042374082166,-0.3710620803325252,-0.03493615239858627,-0.02274891920387745,-0.02928167767822742,0.02713312953710556,0.01848282292485237,0.0295848436653614,XTrueNorthZVertical,0.6022395982394172,-0.05322342013768867,0.7614688408792057,-0.2337520507665457,-0.8922911882400513,0.3626054227352142,-0.2689494788646698,-33.87097930908203,23.91659545898438,-3.39801025390625,2,0.0.0.0,10.97.20.126,3,0
2015-02-21 11:26:29.715,135,1424543186.864248,39.63851190235668,-106.3701077218292,2514.982,-1,-1,10,65,-9999,1424543189.70467,-36.21800994873047,22.08737182617188,-3.906196594238281,34.77269744873047,25.64614105224609,10,14602.24541304167,-0.9054412841796875,0.3658905029296875,-0.2341461181640625,14602.23476404167,-0.004306331482658128,-0.1066026100103458,-0.07803328310041176,14602.172628875,-2.82303333227419,-1.278042374082166,-0.3710620803325252,-0.03493615239858627,-0.02274891920387745,-0.02928167767822742,0.02713312953710556,0.01848282292485237,0.0295848436653614,XTrueNorthZVertical,0.6022395982394172,-0.05322342013768867,0.7614688408792057,-0.2337520507665457,-0.8922911882400513,0.3626054227352142,-0.2689494788646698,-33.87097930908203,23.91659545898438,-3.39801025390625,2,0.0.0.0,10.97.20.126,3,0
2015-02-21 11:26:29.802,136,1424543186.864248,39.63851190235668,-106.3701077218292,2514.982,-1,-1,10,65,-9999,1424543189.780274,-36.45668792724609,22.05340576171875,-3.739715576171875,34.75542449951172,25.62886810302734,10,14602.29435845833,-0.931732177734375,0.331878662109375,-0.256317138671875,14602.28654354167,0.05434526415248396,-0.05851870389674713,-0.08546829623169498,14602.27618766667,-2.826855744732311,-1.289869112883228,-0.3696989533258769,0.02422710321843624,-0.0592375285923481,-0.05414930731058121,-0.0282954778522253,-0.01314443349838257,-0.007064417004585266,XTrueNorthZVertical,0.6066223142425616,-0.0524591708355195,0.7585024054816368,-0.2322317530895212,-0.8958836197853088,0.3613347411155701,-0.258514791727066,-33.90669631958008,23.92922592163086,-2.919169425964355,2,0.0.0.0,10.97.20.126,3,0
2015-02-21 11:26:29.812,137,1424543186.864248,39.63851190235668,-106.3701077218292,2514.982,-1,-1,10,65,-9999,1424543189.780274,-36.45668792724609,22.05340576171875,-3.739715576171875,34.75542449951172,25.62886810302734,10,14602.34339625,-0.946136474609375,0.347625732421875,-0.2470245361328125,14602.33832295833,0.02775200277138872,0.07986660319482231,-0.008182296133159451,14602.32796704167,-2.82624692941973,-1.290091842265547,-0.3661193889450458,0.002512029837816954,0.0830632671713829,0.002228323137387633,-0.04047437757253647,-0.01340548507869244,0.02147404849529266,XTrueNorthZVertical,0.6066963313038849,-0.05082911849323373,0.7587885890345712,-0.231464732632741,-0.8971782326698303,0.3579947054386139,-0.2586719393730164,-34.01952743530273,23.77641105651855,-2.854377746582031,2,0.0.0.0,10.97.20.126,3,0
2015-02-21 11:26:29.901,138,1424543186.864248,39.63851190235668,-106.3701077218292,2514.982,-1,-1,10,65,-9999,1424543189.883179,-36.45668792724609,22.18930053710938,-4.205856323242188,33.04352569580078,23.91696929931641,10,14602.392453625,-0.8427276611328125,0.33428955078125,-0.2768096923828125,14602.39010245833,0.01368385431304514,0.1719299515499895,0.001750495784509083,14602.37974645833,-2.824114348257424,-1.282917363558828,-0.3663245223449602,0.02520220167934895,0.1914577484130859,0.03247338533401489,-0.01773500256240368,-0.02881002798676491,0.01137325633317232,XTrueNorthZVertical,0.6040269559947208,-0.05109662730373912,0.7606887069918797,-0.2321494026939778,-0.8952288627624512,0.3581862449645996,-0.2650811374187469,-34.00144958496094,23.77263641357422,-3.091418266296387,2,0.0.0.0,10.97.20.126,3,0
2015-02-21 11:26:29.911,139,1424543186.864248,39.63851190235668,-106.3701077218292,2514.982,-1,-1,10,65,-9999,1424543189.883179,-36.45668792724609,22.18930053710938,-4.205856323242188,33.04352569580078,23.91696929931641,10,14602.441494875,-0.8687744140625,0.3583526611328125,-0.2759857177734375,14602.39010245833,0.01368385431304514,0.1719299515499895,0.001750495784509083,14602.37974645833,-2.824114348257424,-1.282917363558828,-0.3663245223449602,0.02520220167934895,0.1914577484130859,0.03247338533401489,-0.01773500256240368,-0.02881002798676491,0.01137325633317232,XTrueNorthZVertical,0.6040269559947208,-0.05109662730373912,0.7606887069918797,-0.2321494026939778,-0.8952288627624512,0.3581862449645996,-0.2650811374187469,-34.00144958496094,23.77263641357422,-3.091418266296387,2,0.0.0.0,10.97.20.126,3,0
2015-02-21 11:26:30.000,140,1424543186.864248,39.63851190235668,-106.3701077218292,2514.982,-1,-1,10,65,-9999,1424543189.987509,-36.66128540039062,21.71365356445312,-4.405632019042969,35.01930236816406,25.89274406433105,10,14602.490554125,-0.882171630859375,0.3702392578125,-0.2573394775390625,14602.49366125,0.01366787534650467,-0.0287562808184576,-0.02865614596147062,14602.48330545833,-2.823349997532685,-1.276617871292911,-0.3683676253531796,0.02276107855141163,-0.01545085292309523,0.01450629718601704,0.01103357877582312,0.005400731228291988,0.0006661503575742245,XTrueNorthZVertical,0.6016657930974065,-0.05241169090494942,0.7622559742436134,-0.2328458735066757,-0.8928390145301819,0.3600930571556091,-0.2705025672912598,-33.92393112182617,23.84560012817383,-3.368659973144531,2,0.0.0.0,10.97.20.126,3,0
2015-02-21 11:26:30.009,141,1424543186.864248,39.63851190235668,-106.3701077218292,2514.982,-1,-1,10,65,-9999,1424543189.987509,-36.66128540039062,21.71365356445312,-4.405632019042969,35.01930236816406,25.89274406433105,10,14602.5397045,-0.8963165283203125,0.3560028076171875,-0.278167724609375,14602.49366125,0.01366787534650467,-0.0287562808184576,-0.02865614596147062,14602.48330545833,-2.823349997532685,-1.276617871292911,-0.3683676253531796,0.02276107855141163,-0.01545085292309523,0.01450629718601704,0.01103357877582312,0.005400731228291988,0.0006661503575742245,XTrueNorthZVertical,0.6016657930974065,-0.05241169090494942,0.7622559742436134,-0.2328458735066757,-0.8928390145301819,0.3600930571556091,-0.2705025672912598,-33.92393112182617,23.84560012817383,-3.368659973144531,2,0.0.0.0,10.97.20.126,3,0
2015-02-21 11:26:30.071,142,1424543186.864248,39.63851190235668,-106.3701077218292,2514.982,-1,-1,10,65,-9999,1424543190.039728,-36.40554046630859,21.69662475585938,-4.089317321777344,35.59093856811523,26.46438026428223,10,14602.58867054167,-0.916259765625,0.3301849365234375,-0.271820068359375,14602.54544075,0.102675512666915,-0.1239421855517427,-0.03497529459601063,14602.53508475,-2.82167977299623,-1.279887199954535,-0.3686308468558506,0.08478152006864548,-0.1153507456183434,0.01447154022753239,-0.004260428715497255,-0.006670381408184767,-0.01721982471644878,XTrueNorthZVertical,0.6029565778498163,-0.05163223018309704,0.7610452454546655,-0.2336400980376024,-0.8936277627944946,0.3603385984897614,-0.2675549685955048,-33.91180419921875,23.87328720092773,-3.293805599212646,2,0.0.0.0,10.97.20.126,3,0
2015-02-21 11:26:30.107,143,1424543186.864248,39.63851190235668,-106.3701077218292,2514.982,-1,-1,10,65,-9999,1424543190.091231,-36.08161926269531,21.71365356445312,-4.139266967773438,34.00055313110352,24.87399482727051,10,14602.637722625,-0.976837158203125,0.4006195068359375,-0.25823974609375,14602.597219875,0.1244923946329531,-0.06742111878866401,0.05896877812097052,14602.58686420834,-2.815785469956285,-1.282575059304295,-0.3676651049750784,0.1141079366207123,-0.08503203839063644,0.07481061667203903,-0.01937034167349339,-0.005036926828324795,0.0004345553461462259,XTrueNorthZVertical,0.6041179217910145,-0.04915401110949674,0.7596580938495245,-0.2356800441655497,-0.8946769237518311,0.3594375550746918,-0.2652508318424225,-33.92012786865234,23.86663055419922,-3.256145000457764,2,0.0.0.0,10.97.20.126,3,0
2015-02-21 11:26:30.200,144,1424543186.864248,39.63851190235668,-106.3701077218292,2514.982,-1,-1,10,65,-9999,1424543190.195046,-36.50783538818359,21.73065185546875,-4.388984680175781,34.13201522827148,25.00545692443848,10,14602.686798125,-0.899810791015625,0.3655548095703125,-0.253173828125,14602.700778875,0.07339405648149372,0.2111918702365917,-0.3748729466261698,14602.63864358333,-2.811789739179785,-1.282965873666791,-0.3662226207647338,0.04806824028491974,0.0527116060256958,-0.09735511243343353,-0.08156044036149979,0.04252840206027031,0.006808327976614237,XTrueNorthZVertical,0.6043476616047011,-0.04732723140725726,0.7592412937421967,-0.2368053588142467,-0.8952767252922058,0.3580911159515381,-0.265048086643219,-33.8669548034668,23.93801498413086,-3.285477638244629,2,0.0.0.0,10.97.20.126,3,0
2015-02-21 11:26:30.205,145,1424543186.864248,39.63851190235668,-106.3701077218292,2514.982,-1,-1,10,65,-9999,1424543190.195046,-36.50783538818359,21.73065185546875,-4.388984680175781,34.13201522827148,25.00545692443848,10,14602.73584966667,-0.8360137939453125,0.463958740234375,-0.277496337890625,14602.700778875,0.07339405648149372,0.2111918702365917,-0.3748729466261698,14602.690422875,-2.811668219824773,-1.272349598824098,-0.3587741461785442,0.0564158670604229,0.2759474217891693,-0.2754743099212646,-0.004873749334365129,0.01442811358720064,0.02214027382433414,XTrueNorthZVertical,0.6002215177312507,-0.04557497632579077,0.7633142332516683,-0.2345389424102751,-0.8949370384216309,0.3511267006397247,-0.2753140926361084,-34.00796508789062,23.69486999511719,-3.57843017578125,2,0.0.0.0,10.97.20.126,3,0
2015-02-21 11:26:30.270,146,1424543186.864248,39.63851190235668,-106.3701077218292,2514.982,-1,-1,10,65,-9999,1424543190.246919,-36.61013031005859,21.05117797851562,-4.488876342773438,36.16750717163086,27.04094886779785,10,14602.78493004167,-0.841583251953125,0.3352508544921875,-0.2998504638671875,14602.752558375,0.1624610822942128,0.09897984402221199,-0.4553781758503931,14602.7422025,-2.812938105577889,-1.261767319041629,-0.3450385819594478,0.1355007141828537,0.1828778237104416,-0.4126893579959869,0.06046991422772408,0.1257257610559464,0.008712551556527615,XTrueNorthZVertical,0.5959508329125248,-0.04169124794277069,0.7682381569527336,-0.230031871278578,-0.8964837193489075,0.3382329940795898,-0.2862088978290558,-34.31078720092773,23.18371963500977,-4.009796619415283,2,0.0.0.0,10.97.20.126,3,0
2015-02-21 11:26:30.302,147,1424543186.864248,39.63851190235668,-106.3701077218292,2514.982,-1,-1,10,65,-9999,1424543190.299072,-37.12160491943359,19.99798583984375,-4.95501708984375,37.86901092529297,28.74245452880859,10,14602.833988875,-0.9409637451171875,0.2784881591796875,-0.26800537109375,14602.80433766667,0.1929460209762408,-0.08381527214308279,-0.6404156736535346,14602.793982,-2.812264651281128,-1.261176563305161,-0.3198036458765368,0.1615345180034637,-0.07397965341806412,-0.5860639214515686,0.06257441639900208,0.02087068557739258,-0.01060291845351458,XTrueNorthZVertical,0.5953046300843643,-0.03144240425903585,0.7712025610126664,-0.2233169619806098,-0.9041576385498047,0.3143801689147949,-0.2892475426197052,-34.61890029907227,22.6664981842041,-4.307588577270508,2,0.0.0.0,10.97.20.126,3,0
2015-02-21 11:26:30.371,148,1424543186.864248,39.63851190235668,-106.3701077218292,2514.982,-1,-1,10,65,-9999,1424543190.351869,-37.90585327148438,18.80889892578125,-4.855133056640625,40.779052734375,31.65249633789062,10,14602.88306425,-0.89959716796875,0.2797088623046875,-0.3299713134765625,14602.85611733333,0.2182508450219557,-0.01458773118701803,-0.7425119487833572,14602.84576133333,-2.812182105064241,-1.262186019426821,-0.2879159391935767,0.2112861722707748,0.01437672320753336,-0.6850132942199707,-0.01633157767355442,-0.0184821542352438,-0.00928935594856739,XTrueNorthZVertical,0.5950132617106401,-0.01851948422954119,0.7743392924011474,-0.2145110494642238,-0.9135390520095825,0.2839545607566833,-0.2912324965000153,-35.39052963256836,21.41018104553223,-4.461856365203857,2,0.0.0.0,10.97.20.126,3,0
