loggingTime,loggingSample,locationTimestamp_since1970,locationLatitude,locationLongitude,locationAltitude,locationSpeed,locationCourse,locationVerticalAccuracy,locationHorizontalAccuracy,locationFloor,locationHeadingTimestamp_since1970,locationHeadingX,locationHeadingY,locationHeadingZ,locationTrueHeading,locationMagneticHeading,locationHeadingAccuracy,accelerometerTimestamp_sinceReboot,accelerometerAccelerationX,accelerometerAccelerationY,accelerometerAccelerationZ,gyroTimestamp_sinceReboot,gyroRotationX,gyroRotationY,gyroRotationZ,motionTimestamp_sinceReboot,motionYaw,motionRoll,motionPitch,motionRotationRateX,motionRotationRateY,motionRotationRateZ,motionUserAccelerationX,motionUserAccelerationY,motionUserAccelerationZ,motionAttitudeReferenceFrame,motionQuaternionX,motionQuaternionY,motionQuaternionZ,motionQuaternionW,motionGravityX,motionGravityY,motionGravityZ,motionMagneticFieldX,motionMagneticFieldY,motionMagneticFieldZ,motionMagneticFieldCalibrationAccuracy,IP_en0,IP_pdp_ip0,deviceOrientation,state
2015-02-21 12:35:35.422,1,1424547331.499905,39.63855813919448,-106.370382677325,2516.136,-1,-1,10,65,-9999,1424547335.375723,-1.206588745117188,-43.61448669433594,10.51972198486328,188.8191223144531,179.6925659179688,10,16663.82277375,-0.0279541015625,-0.86761474609375,-0.482086181640625,16663.77461658333,-0.04803170815623311,0.0221553697405872,0.004419249512877488,16663.77461658333,1.635723017648365,-0.1252599111355464,1.087164697537814,-0.06372665613889694,0.04271828755736351,0.03678034245967865,-0.005230632610619068,0.01047991309314966,-0.007929790765047073,XTrueNorthZVertical,0.3920503356903549,0.3400285292882057,0.6011499847555215,0.6076971918719111,-0.05809334293007851,-0.8853120803833008,-0.4613542556762695,-0.7281208038330078,-43.81565093994141,8.350175857543945,2,192.168.1.118,10.97.20.126,1,0
2015-02-21 12:35:35.494,2,1424547331.499905,39.63855813919448,-106.370382677325,2516.136,-1,-1,10,65,-9999,1424547335.479056,-0.8314437866210938,-43.78440856933594,9.854049682617188,188.8241424560547,179.6975860595703,10,16663.87186804167,-0.0625762939453125,-0.8860321044921875,-0.458770751953125,16663.8781635,0.007707720826907331,-0.05887876327612585,-0.03644722373049743,16663.82638995833,1.635251623772234,-0.1232624319316716,1.08427310205175,-0.03247038275003433,-0.05458558350801468,-0.03543375059962273,0.02953208982944489,0.01634903624653816,-0.01807818748056889,XTrueNorthZVertical,0.390718493718737,0.3396101606112715,0.6019940540432654,0.6079532909670708,-0.05748619139194489,-0.8839637637138367,-0.4640080034732819,-0.8183178901672363,-43.83753967285156,8.225997924804688,2,192.168.1.118,10.97.20.126,1,0
2015-02-21 12:35:35.497,3,1424547331.499905,39.63855813919448,-106.370382677325,2516.136,-1,-1,10,65,-9999,1424547335.479056,-0.8314437866210938,-43.78440856933594,9.854049682617188,188.8241424560547,179.6975860595703,10,16663.92092125,-0.0653228759765625,-0.8688507080078125,-0.46240234375,16663.8781635,0.007707720826907331,-0.05887876327612585,-0.03644722373049743,16663.8781635,1.63206385619818,-0.1241117693506652,1.083326107794782,-0.007986221462488174,-0.03831570968031883,-0.004087778739631176,-0.004592422395944595,-0.002511490136384964,0.006018711719661951,XTrueNorthZVertical,0.3912481402302018,0.3384230502262207,0.6010528592858001,0.6092045960198789,-0.0579838715493679,-0.8835206031799316,-0.4647894501686096,-0.7622737884521484,-43.849365234375,8.168153762817383,2,192.168.1.118,10.97.20.126,1,0
2015-02-21 12:35:35.558,4,1424547331.499905,39.63855813919448,-106.370382677325,2516.136,-1,-1,10,65,-9999,1424547335.531559,-1.070163726806641,-43.75042724609375,10.22016143798828,188.8199920654297,179.6934356689453,10,16663.970007125,-0.057647705078125,-0.8773193359375,-0.4600982666015625,16663.92993458334,0.007514907963985594,-0.02633573370368458,-0.02503611109172591,16663.92993458334,1.63422766639928,-0.127522203211425,1.082393387851197,-0.008186143822968006,-0.005714423023164272,0.007244331296533346,-0.005649433471262455,0.01423264294862747,0.00300385057926178,XTrueNorthZVertical,0.3916454749044542,0.3375066292584178,0.6012365195024563,0.6092764499268362,-0.05967344343662262,-0.8830833435058594,-0.465406209230423,-0.7209683656692505,-43.8608512878418,8.110027313232422,2,192.168.1.118,10.97.20.126,1,0
2015-02-21 12:35:35.593,5,1424547331.499905,39.63855813919448,-106.370382677325,2516.136,-1,-1,10,65,-9999,1424547335.583311,-0.9508018493652344,-44.07327270507812,10.336669921875,188.8176116943359,179.6910552978516,10,16664.01909425,-0.033782958984375,-0.8787078857421875,-0.4654998779296875,16663.98170775,0.04842399178480178,0.1104711178097949,-0.03957244326970542,16663.98170775,1.636393688331119,-0.126580563097201,1.083274149687122,0.03272350132465363,0.1310890167951584,-0.007286630105227232,0.004815669264644384,0.003720275359228253,0.001281011500395834,XTrueNorthZVertical,0.3912432656521239,0.3385018307382394,0.6018985367603965,0.6083283790353742,-0.05913695693016052,-0.8834962844848633,-0.4646904468536377,-0.7794595956802368,-43.85908508300781,8.114170074462891,2,192.168.1.118,10.97.20.126,1,0
2015-02-21 12:35:35.659,6,1424547331.499905,39.63855813919448,-106.370382677325,2516.136,-1,-1,10,65,-9999,1424547335.634761,-0.5415611267089844,-44.17523193359375,10.93576049804688,188.8289337158203,179.7023773193359,10,16664.06810004167,-0.052520751953125,-0.876708984375,-0.4617462158203125,16664.03348129167,-0.001148621378151175,-0.01747166833146484,-0.04481567482385342,16664.03348129167,1.631741230912957,-0.118458743459681,1.083186902127899,-0.01685289852321148,0.003152146236971021,-0.01254077814519405,0.01830642856657505,0.00503743439912796,0.002570201177150011,XTrueNorthZVertical,0.3895633113549098,0.3400359602981229,0.6020867064839235,0.6083647077625911,-0.0553700253367424,-0.8834553956985474,-0.4652319550514221,-0.7873820066452026,-43.85394287109375,8.141176223754883,2,192.168.1.118,10.97.20.126,1,0
2015-02-21 12:35:35.692,7,1424547331.499905,39.63855813919448,-106.370382677325,2516.136,-1,-1,10,65,-9999,1424547335.687008,-0.5586166381835938,-44.2261962890625,11.18539428710938,188.8448028564453,179.7182464599609,10,16664.11713420833,-0.0444488525390625,-0.8723297119140625,-0.46099853515625,16664.08525229167,0.02341477862008567,-0.01662211994372956,-0.03509593579339122,16664.08525229167,1.630118695648549,-0.1170495884254759,1.082551770212749,0.007689849007874727,0.004002909176051617,-0.002912761177867651,0.00625695614144206,0.005670472979545593,0.00366270518861711,XTrueNorthZVertical,0.3892357204968756,0.3399444242433396,0.6019973055636643,0.6087139180556171,-0.05477990582585335,-0.8831576704978943,-0.4658666849136353,-0.7067910432815552,-43.86432647705078,8.092456817626953,2,192.168.1.118,10.97.20.126,1,0
2015-02-21 12:35:35.760,8,1424547331.499905,39.63855813919448,-106.370382677325,2516.136,-1,-1,10,65,-9999,1424547335.739427,-0.4222030639648438,-44.46409606933594,11.25196075439453,188.8647766113281,179.7382202148438,10,16664.16619704167,-0.0505828857421875,-0.8803253173828125,-0.4504852294921875,16664.13702579167,0.04316850968963941,-0.03056270298585835,-0.006645652184183731,16664.13702579167,1.630872332549759,-0.1180578881026821,1.083605850005526,0.02744411863386631,-0.009936204180121422,0.02553405426442623,0.003549966728314757,0.007171506527811289,0.002194255357608199,XTrueNorthZVertical,0.389708566006062,0.340123471003201,0.6018146919222255,0.6084918917012621,-0.0551399327814579,-0.8836516141891479,-0.4648865163326263,-0.7007452249526978,-43.85968780517578,8.11808967590332,2,192.168.1.118,10.97.20.126,1,0
2015-02-21 12:35:35.794,9,1424547331.499905,39.63855813919448,-106.370382677325,2516.136,-1,-1,10,65,-9999,1424547335.790614,-0.5415687561035156,-44.03926086425781,11.20203399658203,188.8789825439453,179.7524261474609,10,16664.215221,-0.0507049560546875,-0.8753204345703125,-0.450927734375,16664.18879895833,0.07654271183829441,-0.06382665026538406,0.0100358562518546,16664.18879895833,1.634660282711668,-0.1229904728485345,1.086053514720402,0.06082162633538246,-0.04319970309734344,0.04221376031637192,0.002555622952058911,0.01667653769254684,0.01322693657130003,XTrueNorthZVertical,0.3912370429335258,0.3401515890502133,0.6015007531869034,0.6078053670742162,-0.05716682970523834,-0.8847948312759399,-0.4624609351158142,-0.7170524597167969,-43.85305786132812,8.152421951293945,2,192.168.1.118,10.97.20.126,1,0
2015-02-21 12:35:35.857,10,1424547331.499905,39.63855813919448,-106.370382677325,2516.136,-1,-1,10,65,-9999,1424547335.842717,-0.9508132934570312,-44.34515380859375,11.4017333984375,188.8852081298828,179.7586517333984,10,16664.26427829167,-0.0574188232421875,-0.877105712890625,-0.455413818359375,16664.24057029167,0.09250996046997349,-0.06292170812697513,0.02099343255698563,16664.24057029167,1.639611223638202,-0.1288316106533956,1.090212806526001,0.07675973325967789,-0.04233268648386002,0.05308879539370537,0.006735733710229397,0.005011447239667177,0.009612992405891418,XTrueNorthZVertical,0.3933142578003358,0.3406921322587207,0.60099733455997,0.6066588968318013,-0.05939381569623947,-0.8867253065109253,-0.4584655165672302,-0.8035922050476074,-43.80633544921875,8.392009735107422,2,192.168.1.118,10.97.20.126,1,0
2015-02-21 12:35:35.890,11,1424547331.499905,39.63855813919448,-106.370382677325,2516.136,-1,-1,10,65,-9999,1424547335.842717,-0.9508132934570312,-44.34515380859375,11.4017333984375,188.8852081298828,179.7586517333984,10,16664.313316,-0.060791015625,-0.88299560546875,-0.456634521484375,16664.2923435,0.1315761368164548,-0.02660338139323754,0.001658350410792342,16664.2923435,1.646530882519819,-0.1371178461418663,1.094769816670668,0.1158265173435211,-0.006015026476234198,0.03375420719385147,-0.002776730339974165,0.01280045136809349,0.01358136441558599,XTrueNorthZVertical,0.3958894924191002,0.3410227286528494,0.6005061623071436,0.6052829131826276,-0.06263770163059235,-0.8888227939605713,-0.4539500176906586,-0.8777686357498169,-43.77105712890625,8.566858291625977,2,192.168.1.118,10.97.20.126,1,0
2015-02-21 12:35:35.958,12,1424547331.499905,39.63855813919448,-106.370382677325,2516.136,-1,-1,10,65,-9999,1424547335.945153,-1.240695953369141,-44.53205871582031,11.88433837890625,188.8594818115234,179.7329254150391,10,16664.36237483333,-0.0593719482421875,-0.8839874267578125,-0.4416046142578125,16664.34411704167,0.1299268411533688,0.04243400986099555,0.004811000509228144,16664.34411704167,1.64912320638476,-0.1364353131542833,1.099993664755333,0.1141755133867264,0.0630238875746727,0.03690343722701073,0.01625481061637402,0.001235614297911525,1.522516686236486e-05,XTrueNorthZVertical,0.3966831051753476,0.3434373779015569,0.6003240498243934,0.6035763119576317,-0.06169548630714417,-0.8912044763565063,-0.4493865668773651,-0.9236660003662109,-43.74090576171875,8.714744567871094,2,192.168.1.118,10.97.20.126,1,0
2015-02-21 12:35:35.990,13,1424547331.499905,39.63855813919448,-106.370382677325,2516.136,-1,-1,10,65,-9999,1424547335.945153,-1.240695953369141,-44.53205871582031,11.88433837890625,188.8594818115234,179.7329254150391,10,16664.41142208333,-0.04827880859375,-0.88824462890625,-0.439483642578125,16664.39588804167,0.111584851777666,0.0271732978665145,-0.0167880348796415,16664.34411704167,1.64912320638476,-0.1364353131542833,1.099993664755333,0.1141755133867264,0.0630238875746727,0.03690343722701073,0.01625481061637402,0.001235614297911525,1.522516686236486e-05,XTrueNorthZVertical,0.3966831051753476,0.3434373779015569,0.6003240498243934,0.6035763119576317,-0.06169548630714417,-0.8912044763565063,-0.4493865668773651,-0.9236660003662109,-43.74090576171875,8.714744567871094,2,192.168.1.118,10.97.20.126,1,0
2015-02-21 12:35:36.044,14,1424547331.499905,39.63855813919448,-106.370382677325,2516.136,-1,-1,10,65,-9999,1424547335.996635,-1.070175170898438,-44.53205871582031,11.68463134765625,188.8496398925781,179.7230834960938,10,16664.46048641667,-0.0480499267578125,-0.8977813720703125,-0.4400177001953125,16664.44766141667,0.1422884359851896,0.03009158978902333,0.01243962545176012,16664.44766141667,1.656526975981737,-0.1369423406450133,1.110343163415939,0.1264931559562683,0.05062375962734222,0.04444202035665512,0.01610522344708443,0.007774442434310913,0.004952454939484596,XTrueNorthZVertical,0.3983960659944891,0.3481142016928553,0.6002538123760739,0.599827046350229,-0.06066088750958443,-0.895851194858551,-0.44019415974617,-1.075425624847412,-43.62665176391602,9.25340747833252,2,192.168.1.118,10.97.20.126,1,0
2015-02-21 12:35:36.084,15,1424547331.499905,39.63855813919448,-106.370382677325,2516.136,-1,-1,10,65,-9999,1424547336.04856,-1.240695953369141,-44.46409606933594,11.71790313720703,188.8378143310547,179.7112579345703,10,16664.50952033333,-0.0739288330078125,-0.8923187255859375,-0.4209747314453125,16664.49943479167,0.1332669777925461,-0.1007372640255553,0.01453553322965248,16664.44766141667,1.656526975981737,-0.1369423406450133,1.110343163415939,0.1264931559562683,0.05062375962734222,0.04444202035665512,0.01610522344708443,0.007774442434310913,0.004952454939484596,XTrueNorthZVertical,0.3983960659944891,0.3481142016928553,0.6002538123760739,0.599827046350229,-0.06066088750958443,-0.895851194858551,-0.44019415974617,-1.075425624847412,-43.62665176391602,9.25340747833252,2,192.168.1.118,10.97.20.126,1,0
2015-02-21 12:35:36.142,16,1424547331.499905,39.63855813919448,-106.370382677325,2516.136,-1,-1,10,65,-9999,1424547336.101021,-0.9678611755371094,-44.3961181640625,11.38507080078125,188.8345336914062,179.7079772949219,10,16664.558577875,-0.0556640625,-0.9021453857421875,-0.4619293212890625,16664.55120616667,0.07958057969374779,0.03529061286907602,-0.05363233592866975,16664.49943479167,1.661328832868417,-0.1422202990277294,1.116178982656296,0.1174735203385353,-0.08020282536745071,0.04653283953666687,0.005051321815699339,0.000556200451683253,0.01157419569790363,XTrueNorthZVertical,0.4007312261492909,0.3493879015931131,0.5993868529960011,0.5983962121288756,-0.06224126368761063,-0.8984290957450867,-0.4346851706504822,-1.112756490707397,-43.59155654907227,9.413013458251953,2,192.168.1.118,10.97.20.126,1,0
2015-02-21 12:35:36.192,17,1424547331.499905,39.63855813919448,-106.370382677325,2516.136,-1,-1,10,65,-9999,1424547336.152119,-0.7120819091796875,-44.61701965332031,11.50155639648438,188.8501281738281,179.7235717773438,10,16664.60760929167,-0.08746337890625,-0.8920440673828125,-0.4308929443359375,16664.602979375,0.07984396632555663,-0.01034105451277768,-0.08061468514502557,16664.55120616667,1.66629500982756,-0.1479079286364253,1.119654944475494,0.06378316134214401,0.05582128092646599,-0.02162819355726242,-0.009356437250971794,-0.004682514350861311,-0.03426717966794968,XTrueNorthZVertical,0.4025074562678336,0.3498162353893819,0.5989778814463192,0.5973624479913912,-0.06425195932388306,-0.8999500274658203,-0.4312326908111572,-1.191709160804749,-43.50759887695312,9.784448623657227,2,192.168.1.118,10.97.20.126,1,0
2015-02-21 12:35:36.241,18,1424547331.499905,39.63855813919448,-106.370382677325,2516.136,-1,-1,10,65,-9999,1424547336.204593,-0.6950302124023438,-44.7359619140625,11.8177490234375,188.8736572265625,179.7471008300781,10,16664.65677641667,-0.0693206787109375,-0.8885650634765625,-0.4397735595703125,16664.65475291667,0.06957721400719216,0.06234992744093513,-0.07386836547163683,16664.65475291667,1.663384342930407,-0.1406453510290236,1.12380430835909,0.0537291094660759,0.08283804357051849,-0.04193428158760071,-0.01418888755142689,0.00711333379149437,-0.01959915645420551,XTrueNorthZVertical,0.4019647877972712,0.3527475830684581,0.5986706563175529,0.5963111141846648,-0.06059443950653076,-0.9017513990402222,-0.4279868900775909,-1.156189560890198,-43.47713851928711,9.92311954498291,2,192.168.1.118,10.97.20.126,1,0
2015-02-21 12:35:36.287,19,1424547331.499905,39.63855813919448,-106.370382677325,2516.136,-1,-1,10,65,-9999,1424547336.255574,-0.7461891174316406,-44.54905700683594,12.30036163330078,188.8891448974609,179.7625885009766,10,16664.70570645834,-0.078369140625,-0.892242431640625,-0.41912841796875,16664.65475291667,0.06957721400719216,0.06234992744093513,-0.07386836547163683,16664.65475291667,1.663384342930407,-0.1406453510290236,1.12380430835909,0.0537291094660759,0.08283804357051849,-0.04193428158760071,-0.01418888755142689,0.00711333379149437,-0.01959915645420551,XTrueNorthZVertical,0.4019647877972712,0.3527475830684581,0.5986706563175529,0.5963111141846648,-0.06059443950653076,-0.9017513990402222,-0.4279868900775909,-1.156189560890198,-43.47713851928711,9.92311954498291,2,192.168.1.118,10.97.20.126,1,0
2015-02-21 12:35:36.339,20,1424547331.499905,39.63855813919448,-106.370382677325,2516.136,-1,-1,10,65,-9999,1424547336.308768,-0.6950302124023438,-44.97386169433594,13.04924011230469,188.9040985107422,179.7775421142578,10,16664.75490075,-0.077880859375,-0.8932342529296875,-0.3932647705078125,16664.7582975,0.1488757649415006,-0.04582501287699345,-0.01868180873079685,16664.706524,1.663838216947579,-0.1386758632998097,1.126104623258465,0.07481367141008377,0.05187299102544785,-0.01060490775853395,-0.01890462823212147,0.01050089951604605,0.006921466905623674,XTrueNorthZVertical,0.4019171210784205,0.3541718301686574,0.5987037103691805,0.5954652444220273,-0.05946451425552368,-0.9027433395385742,-0.4260498881340027,-1.170392751693726,-43.45693206787109,10.00960159301758,2,192.168.1.118,10.97.20.126,1,0
2015-02-21 12:35:36.386,21,1424547331.499905,39.63855813919448,-106.370382677325,2516.136,-1,-1,10,65,-9999,1424547336.360271,-0.4051475524902344,-45.228759765625,13.36542510986328,188.9239349365234,179.7973785400391,10,16664.80380283334,-0.098388671875,-0.8964385986328125,-0.382049560546875,16664.7582975,0.1488757649415006,-0.04582501287699345,-0.01868180873079685,16664.7582975,1.66817150650834,-0.1425982572720329,1.131986301367166,0.1329997777938843,-0.02542374283075333,0.01319788862019777,-0.01750130951404572,0.01202362682670355,0.0272855069488287,XTrueNorthZVertical,0.4039067408662195,0.3557867417951175,0.5979232465692589,0.5939385303910755,-0.06037954986095428,-0.9052578806877136,-0.4205502867698669,-1.210659503936768,-43.41448593139648,10.18741607666016,2,192.168.1.118,10.97.20.126,1,0
2015-02-21 12:35:36.437,22,1424547331.499905,39.63855813919448,-106.370382677325,2516.136,-1,-1,10,65,-9999,1424547336.41186,-0.3198890686035156,-45.44966125488281,13.44863128662109,189.7488403320312,180.6222839355469,10,16664.85297741667,-0.1195068359375,-0.8929290771484375,-0.3818206787109375,16664.81007079167,0.2074751626192771,-0.182936530019178,0.03849492829265936,16664.81007079167,1.680165508792178,-0.1594998112367938,1.141519908403854,0.191606417298317,-0.16253961622715,0.07038089632987976,-0.03228389099240303,0.01282855309545994,0.02888043411076069,XTrueNorthZVertical,0.4093547930853059,0.3563195980881427,0.5959393832229428,0.5918794611621859,-0.06610478460788727,-0.9092671275138855,-0.4109300076961517,-1.250500440597534,-43.36380004882812,10.3963451385498,2,192.168.1.118,10.97.20.126,1,0
2015-02-21 12:35:36.487,23,1424547331.499905,39.63855813919448,-106.370382677325,2516.136,-1,-1,10,65,-9999,1424547336.463884,-0.4562950134277344,-45.2457275390625,13.68161010742188,189.9766235351562,180.8500671386719,10,16664.90189029167,-0.1096343994140625,-0.905059814453125,-0.3703765869140625,16664.86184216667,0.2752616671095,-0.0191036534474654,0.06359495525054717,16664.86184216667,1.697131342387219,-0.1812874940953945,1.151302024600621,0.2593933939933777,0.001290816930122674,0.09548488259315491,-0.04607245698571205,0.02036594972014427,0.01880338788032532,XTrueNorthZVertical,0.4153649439663935,0.3565949104122451,0.5942487927369917,0.5892202076880051,-0.07343437522649765,-0.9132950305938721,-0.4006240665912628,-1.423618197441101,-43.18796539306641,11.0832986831665,2,192.168.1.118,10.97.20.126,1,0
2015-02-21 12:35:36.535,24,1424547331.499905,39.63855813919448,-106.370382677325,2516.136,-1,-1,10,65,-9999,1424547336.515686,-0.8484878540039062,-45.46665954589844,14.23078155517578,189.4329681396484,180.3064117431641,10,16664.95108529167,-0.065643310546875,-0.917327880859375,-0.368255615234375,16664.91361541667,0.3911304798166675,0.3161939204317998,0.1014041195625111,16664.91361541667,1.724930669401454,-0.197879804226792,1.166595286018261,0.3752663433551788,0.3365831971168518,0.1333025693893433,-0.0205842386931181,0.01248026359826326,0.01593498885631561,XTrueNorthZVertical,0.4191797594891308,0.3626065266981048,0.5953803650615888,0.5816589245899102,-0.07731615006923676,-0.9194169044494629,-0.3856096863746643,-1.714885592460632,-43.02872085571289,11.64711284637451,2,192.168.1.118,10.97.20.126,1,0
2015-02-21 12:35:36.587,25,1424547331.499905,39.63855813919448,-106.370382677325,2516.136,-1,-1,10,65,-9999,1424547336.566725,-1.377098083496094,-45.61958312988281,15.04621124267578,188.4422302246094,179.315673828125,10,16664.99999529167,-0.06640625,-0.924224853515625,-0.36480712890625,16664.965389,0.4106232210993935,0.343624479659616,0.1190246585989114,16664.965389,1.754618546390495,-0.2062543013089376,1.185065941580813,0.3947612047195435,0.3640132248401642,0.1509229689836502,0.01525317691266537,0.01484175398945808,-0.0001923111267387867,XTrueNorthZVertical,0.4207571343232035,0.3726024687704649,0.597786994938709,0.5716481352106543,-0.07705127447843552,-0.9265238642692566,-0.3682616651058197,-2.042687654495239,-42.88042449951172,12.13109111785889,2,192.168.1.118,10.97.20.126,1,0
2015-02-21 12:35:36.633,26,1424547331.499905,39.63855813919448,-106.370382677325,2516.136,-1,-1,10,65,-9999,1424547336.619351,-1.394149780273438,-46.28230285644531,16.29434204101562,188.2267608642578,179.1002044677734,10,16665.04905025,-0.1114654541015625,-0.9272308349609375,-0.3359832763671875,16665.01716025,0.3625592886939704,0.16861724547004,0.1002882550657679,16665.01716025,1.782733889112167,-0.2188241206792309,1.201174645773336,0.3466963469982147,0.1890067309141159,0.1321846544742584,0.007104041986167431,0.007598362397402525,-0.004163642879575491,XTrueNorthZVertical,0.4230541151460452,0.3803962084694796,0.5991843183114817,0.5632957842510771,-0.07842361927032471,-0.932464063167572,-0.3526478707790375,-2.822546720504761,-42.48402786254883,13.31192016601562,2,192.168.1.118,10.97.20.126,1,0
2015-02-21 12:35:36.685,27,1424547331.499905,39.63855813919448,-106.370382677325,2516.136,-1,-1,10,65,-9999,1424547336.671094,-1.360042572021484,-46.38426208496094,17.02658081054688,188.2557220458984,179.1291656494141,10,16665.09808891667,-0.17327880859375,-0.9039459228515625,-0.306549072265625,16665.068933625,0.3543932378434604,0.09631188924217061,0.07888709254589116,16665.068933625,1.814284654765204,-0.2419557523645452,1.216389414905772,0.3385321795940399,0.1166975647211075,0.1107901707291603,-0.05822261795401573,0.01904449239373207,0.01833734847605228,XTrueNorthZVertical,0.4274215641428407,0.3858082469456336,0.599286223955654,0.556164429370297,-0.08315006643533707,-0.9378525018692017,-0.336925595998764,-3.18204665184021,-42.2560920715332,13.94144916534424,2,192.168.1.118,10.97.20.126,1,0
2015-02-21 12:35:36.731,28,1424547331.499905,39.63855813919448,-106.370382677325,2516.136,-1,-1,10,65,-9999,1424547336.723126,-1.138370513916016,-46.53718566894531,17.90859985351562,188.5896606445312,179.4631042480469,10,16665.14726070833,-0.2130889892578125,-0.922821044921875,-0.25103759765625,16665.12070704167,0.3372605899187627,0.2824865568307759,0.03874473280290879,16665.12070704167,1.842411199119082,-0.25936756790872,1.230850402574841,0.3214015960693359,0.3028669953346252,0.0706576481461525,-0.1065919920802116,0.04367906972765923,0.0364254042506218,XTrueNorthZVertical,0.4303450020601707,0.3919966841589705,0.5996095087454641,0.5491905529573654,-0.08551616221666336,-0.9427726864814758,-0.3222835659980774,-3.409716367721558,-42.09387969970703,14.37170124053955,2,192.168.1.118,10.97.20.126,1,0
2015-02-21 12:35:36.788,29,1424547331.499905,39.63855813919448,-106.370382677325,2516.136,-1,-1,10,65,-9999,1424547336.77459,-1.240684509277344,-46.53718566894531,18.50769805908203,188.2956695556641,179.1691131591797,10,16665.19618366667,-0.2329559326171875,-0.9822845458984375,-0.2051849365234375,16665.172478125,0.4442773214786158,0.6569946503876049,0.05356282742421868,16665.172478125,1.869135940037603,-0.2592056014892994,1.247838776224752,0.4284184873104095,0.6773748993873596,0.08547545224428177,-0.1452616006135941,-0.005007184110581875,0.07709521800279617,XTrueNorthZVertical,0.4285808677938207,0.4036498283130789,0.602463022727156,0.5389096489540386,-0.08134667575359344,-0.9483008980751038,-0.3067705035209656,-4.076414108276367,-41.68725967407227,15.34998321533203,2,192.168.1.118,10.97.20.126,1,0
2015-02-21 12:35:36.830,30,1424547331.499905,39.63855813919448,-106.370382677325,2516.136,-1,-1,10,65,-9999,1424547336.77459,-1.240684509277344,-46.53718566894531,18.50769805908203,188.2956695556641,179.1691131591797,10,16665.24525254167,-0.192901611328125,-0.9669036865234375,-0.164337158203125,16665.22425170834,0.5727002755644168,0.9432226822338331,0.04488305279943242,16665.22425170834,1.904416006249635,-0.2504970358029013,1.27133660155453,0.5568416118621826,0.9636027812957764,0.07679536193609238,-0.1522755771875381,-0.03003865666687489,0.09422276169061661,XTrueNorthZVertical,0.4234844250892857,0.4216189182421717,0.6074230452034061,0.5233886904283542,-0.07312725484371185,-0.9554960131645203,-0.2857968509197235,-4.777059555053711,-41.34191131591797,16.06527328491211,2,192.168.1.118,10.97.20.126,1,0
2015-02-21 12:35:36.886,31,1424547331.499905,39.63855813919448,-106.370382677325,2516.136,-1,-1,10,65,-9999,1424547336.878054,-0.4562950134277344,-46.84307861328125,21.03722381591797,187.9536285400391,178.8270721435547,10,16665.29428791667,-0.142822265625,-1.020294189453125,-0.116668701171875,16665.27602520834,0.5332652514069595,1.366339058322897,0.05384379091922204,16665.27602520834,1.946508544609699,-0.2327783526503653,1.29760417345538,0.5174165964126587,1.386714339256287,0.08576328307390213,-0.1056071743369102,-0.02736561186611652,0.1279167830944061,XTrueNorthZVertical,0.4141454938025696,0.4440930115592115,0.6148042821354774,0.5032699567235907,-0.06223950535058975,-0.9629145264625549,-0.2625298202037811,-5.334756851196289,-41.0622673034668,16.59811973571777,2,192.168.1.118,10.97.20.126,1,0
2015-02-21 12:35:36.927,32,1424547331.499905,39.63855813919448,-106.370382677325,2516.136,-1,-1,10,65,-9999,1424547336.878054,-0.4562950134277344,-46.84307861328125,21.03722381591797,187.9536285400391,178.8270721435547,10,16665.34348066667,-0.0716400146484375,-1.04644775390625,-0.09698486328125,16665.32779645834,0.5702011651974864,1.761900771877348,0.1563267570393242,16665.32779645834,1.996623943312492,-0.1991699235546536,1.322172783750202,0.5543534755706787,1.782275676727295,0.1882461160421371,-0.04719983041286469,-0.07985074073076248,0.1455483287572861,XTrueNorthZVertical,0.3969185805910048,0.4710125261637411,0.6271190747070728,0.4767856482135418,-0.04868640005588531,-0.9692520499229431,-0.2412056773900986,-7.493690490722656,-40.29428863525391,17.61480903625488,2,192.168.1.118,10.97.20.126,1,0
2015-02-21 12:35:36.988,33,1424547331.499905,39.63855813919448,-106.370382677325,2516.136,-1,-1,10,65,-9999,1424547336.981508,-0.2175750732421875,-46.8770751953125,23.73317718505859,188.8339233398438,179.7073669433594,10,16665.392389125,-0.0573883056640625,-1.0369873046875,-0.0806732177734375,16665.37956970833,0.5700682734590915,1.385832065921732,0.1829461173991023,16665.32779645834,1.996623943312492,-0.1991699235546536,1.322172783750202,0.5543534755706787,1.782275676727295,0.1882461160421371,-0.04719983041286469,-0.07985074073076248,0.1455483287572861,XTrueNorthZVertical,0.3969185805910048,0.4710125261637411,0.6271190747070728,0.4767856482135418,-0.04868640005588531,-0.9692520499229431,-0.2412056773900986,-7.493690490722656,-40.29428863525391,17.61480903625488,2,192.168.1.118,10.97.20.126,1,0
2015-02-21 12:35:37.026,34,1424547331.499905,39.63855813919448,-106.370382677325,2516.136,-1,-1,10,65,-9999,1424547336.981508,-0.2175750732421875,-46.8770751953125,23.73317718505859,188.8339233398438,179.7073669433594,10,16665.4415315,-0.0919647216796875,-1.01824951171875,-0.0601654052734375,16665.431343375,0.3868228167534643,1.015825247239355,0.07641061904822648,16665.431343375,2.12323110629567,-0.183287687023708,1.369955619818487,0.3709754347801208,1.036199688911438,0.1083293780684471,-0.05101152509450912,-0.04486580565571785,0.1293793767690659,XTrueNorthZVertical,0.3689837149261567,0.5155337974818258,0.6451311912334807,0.4264759260454448,-0.03636030107736588,-0.9798992276191711,-0.1961518377065659,-1.540142774581909,-46.40285110473633,24.21238899230957,2,192.168.1.118,10.97.20.126,1,0
2015-02-21 12:35:37.088,35,1424547331.499905,39.63855813919448,-106.370382677325,2516.136,-1,-1,10,65,-9999,1424547337.033531,-0.8314361572265625,-46.80911254882812,25.09778594970703,187.0870361328125,177.9604797363281,10,16665.49049608333,-0.094573974609375,-1.017974853515625,-0.0434722900390625,16665.48311441667,0.2317927528488996,1.255669002379673,0.01191977640697665,16665.431343375,2.12323110629567,-0.183287687023708,1.369955619818487,0.3709754347801208,1.036199688911438,0.1083293780684471,-0.05101152509450912,-0.04486580565571785,0.1293793767690659,XTrueNorthZVertical,0.3689837149261567,0.5155337974818258,0.6451311912334807,0.4264759260454448,-0.03636030107736588,-0.9798992276191711,-0.1961518377065659,-1.540142774581909,-46.40285110473633,24.21238899230957,2,192.168.1.118,10.97.20.126,1,0
2015-02-21 12:35:37.125,36,1424547331.499905,39.63855813919448,-106.370382677325,2516.136,-1,-1,10,65,-9999,1424547337.085592,-1.104263305664062,-46.74114990234375,26.362548828125,186.0138397216797,176.8872833251953,10,16665.53967379167,-0.0754852294921875,-1.044113159179688,-0.01446533203125,16665.534888125,0.05905426559196206,1.382448253440678,-0.01910445239579242,16665.48311441667,2.152152720215962,-0.1543084463148225,1.383083159041624,0.2159462124109268,1.276043176651001,0.04383819550275803,-0.06668562442064285,-0.03099417872726917,0.1273277401924133,XTrueNorthZVertical,0.3541336140149463,0.5314052873455669,0.6525560484051275,0.4078828941266874,-0.02868181094527245,-0.982433557510376,-0.1843956112861633,-4.007556438446045,-45.67172241210938,25.29564666748047,2,192.168.1.118,10.97.20.126,1,0
2015-02-21 12:35:37.194,37,1424547331.499905,39.63855813919448,-106.370382677325,2516.136,-1,-1,10,65,-9999,1424547337.137257,-0.9678421020507812,-46.74111938476562,27.89358520507812,185.2818450927734,176.1552886962891,10,16665.588604875,-0.067626953125,-1.070220947265625,-0.010894775390625,16665.586661375,-0.1362928614230942,0.9959849634343739,0.004457599032574629,16665.534888125,2.164079899402891,-0.09697099056188579,1.389358841192804,0.04316020756959915,1.402693748474121,0.01271805539727211,-0.06376738101243973,-0.05398181453347206,0.164474681019783,XTrueNorthZVertical,0.3330854934646385,0.5470429454473451,0.6629448973521573,0.387688251794967,-0.01747041009366512,-0.9835852980613708,-0.1795961409807205,-5.593771457672119,-45.45387268066406,25.38684463500977,2,192.168.1.118,10.97.20.126,1,0
2015-02-21 12:35:37.222,38,1424547331.499905,39.63855813919448,-106.370382677325,2516.136,-1,-1,10,65,-9999,1424547337.188583,-0.8143692016601562,-46.38426208496094,28.27633666992188,184.2869720458984,175.1604156494141,10,16665.63776604167,-0.0828704833984375,-1.108306884765625,0.0019378662109375,16665.63843283333,-0.2827017402468543,0.6384441354985489,0.01130005882131522,16665.586661375,2.170711392531111,-0.04221485135167171,1.386114245467239,-0.1521864831447601,1.016230344772339,0.03627976402640343,-0.05833602696657181,-0.0824960395693779,0.1686238348484039,XTrueNorthZVertical,0.3124002569486067,0.5573784706612482,0.673975897449272,0.3707989444221888,-0.007749789860099554,-0.9829946756362915,-0.1834706366062164,-6.681177139282227,-45.40528106689453,25.21029663085938,2,192.168.1.118,10.97.20.126,1,0
2015-02-21 12:35:37.287,39,1424547331.499905,39.63855813919448,-106.370382677325,2516.136,-1,-1,10,65,-9999,1424547337.241543,-1.104255676269531,-46.33328247070312,28.82552337646484,183.3776245117188,174.2510681152344,10,16665.68669470833,-0.0292816162109375,-1.0404052734375,-0.0437469482421875,16665.63843283333,-0.2827017402468543,0.6384441354985489,0.01130005882131522,16665.63843283333,2.178622814086541,-0.01061987059014437,1.374621237639403,-0.2985946536064148,0.6586892604827881,0.04312179237604141,-0.08080050349235535,-0.1274875849485397,0.1968462914228439,XTrueNorthZVertical,0.2974496504464234,0.5604190335615408,0.683506740652573,0.3609332284220093,-0.002069980138912797,-0.9808192849159241,-0.1949084252119064,-8.690744400024414,-45.6451416015625,24.14184379577637,2,192.168.1.118,10.97.20.126,1,0
2015-02-21 12:35:37.320,40,1424547331.499905,39.63855813919448,-106.370382677325,2516.136,-1,-1,10,65,-9999,1424547337.292853,-1.291831970214844,-46.79209899902344,28.77559661865234,182.5294647216797,173.4029083251953,10,16665.73577441667,0.0108642578125,-1.161972045898438,-0.169403076171875,16665.74197979167,-0.2838157405308345,0.2108477898237534,-0.07698293236648451,16665.69020616667,2.180636932330416,0.01775122395869799,1.357630549187722,-0.3705110549926758,0.5613036155700684,-0.04480838030576706,-0.03303678333759308,-0.06303919851779938,0.1677749752998352,XTrueNorthZVertical,0.2840668188631536,0.5599509617762085,0.6927400700128887,0.3547847317047257,0.003755167592316866,-0.9773660898208618,-0.2115219235420227,-9.445060729980469,-45.96348571777344,23.23758697509766,2,192.168.1.118,10.97.20.126,1,0
2015-02-21 12:35:37.386,41,1424547331.499905,39.63855813919448,-106.370382677325,2516.136,-1,-1,10,65,-9999,1424547337.344454,-1.240669250488281,-46.80906677246094,28.32626342773438,187.0013122558594,177.874755859375,10,16665.78478879167,0.0941619873046875,-0.950347900390625,-0.208587646484375,16665.74197979167,-0.2838157405308345,0.2108477898237534,-0.07698293236648451,16665.74197979167,2.173436944702945,0.04524702092095034,1.340559707532508,-0.299708366394043,0.2310925275087357,-0.04516180232167244,0.000542045570909977,-0.1883596181869507,0.05857142433524132,XTrueNorthZVertical,0.2733396883055484,0.5579410038830396,0.6999727655053143,0.3521724381027608,0.01032221224159002,-0.9736124277114868,-0.2279745042324066,-9.783936500549316,-46.22480392456055,22.56942367553711,2,192.168.1.118,10.97.20.126,1,0
2015-02-21 12:35:37.418,42,1424547331.499905,39.63855813919448,-106.370382677325,2516.136,-1,-1,10,65,-9999,1424547337.396216,-1.342983245849609,-46.77508544921875,28.09328460693359,186.8836975097656,177.7571411132812,10,16665.83397195833,0.1631927490234375,-0.9152069091796875,-0.1988067626953125,16665.79375095834,-0.2611690175691277,0.5253697777232016,-0.05438334735607209,16665.79375095834,2.165504723845344,0.0673687596063518,1.325938110004034,-0.2770614922046661,0.5456143021583557,-0.0225625392049551,0.07784287631511688,0.01982380449771881,0.0332813672721386,XTrueNorthZVertical,0.2649798274006292,0.5557438111102462,0.7054753022460203,0.351054344838042,0.01631911098957062,-0.9701716899871826,-0.2418690174818039,-1.291875839233398,-46.65624237060547,27.97668838500977,2,192.168.1.118,10.97.20.126,1,0
2015-02-21 12:35:37.459,43,1424547331.499905,39.63855813919448,-106.370382677325,2516.136,-1,-1,10,65,-9999,1424547337.447893,-1.786331176757812,-46.97900390625,28.42611694335938,186.0519561767578,176.9253997802734,10,16665.88288791667,0.2419281005859375,-0.932342529296875,-0.250518798828125,16665.845524625,-0.2689039026391538,1.208862614640986,0.1815796494437826,16665.845524625,2.193382604548727,0.08946585237915561,1.311911048564923,-0.2847962081432343,1.229107022285461,0.2134001106023788,0.1613310873508453,0.05250664055347443,0.04893998801708221,XTrueNorthZVertical,0.2466455183785349,0.5582797511780565,0.7168044683347092,0.3371662935246262,0.02287301048636436,-0.9666759371757507,-0.2549794018268585,-2.262482404708862,-47.00790405273438,27.31861686706543,2,192.168.1.118,10.97.20.126,1,0
2015-02-21 12:35:37.516,44,1424547331.499905,39.63855813919448,-106.370382677325,2516.136,-1,-1,10,65,-9999,1424547337.499983,-2.775337219238281,-46.84307861328125,28.09328460693359,183.976806640625,174.8502502441406,10,16665.93195329167,0.1294403076171875,-1.00543212890625,-0.2895660400390625,16665.89729791667,-0.1339897597123937,0.862220507150201,0.4237219789209482,16665.89729791667,2.259388414392863,0.08217937623792498,1.302849710893124,-0.1498818844556808,0.8824646472930908,0.455542117357254,0.2153126150369644,0.01134415436536074,0.004031864460557699,XTrueNorthZVertical,0.2291021886834281,0.5617676786955245,0.7291300566696602,0.3166996532991339,0.02173267491161823,-0.9643165469169617,-0.2638585269451141,-3.522990942001343,-47.22320175170898,26.80908203125,2,192.168.1.118,10.97.20.126,1,0
2015-02-21 12:35:37.559,45,1424547331.499905,39.63855813919448,-106.370382677325,2516.136,-1,-1,10,65,-9999,1424547337.551466,-4.275901794433594,-46.46922302246094,27.76044464111328,181.8654479980469,172.7388916015625,10,16665.98098383333,-0.01959228515625,-0.978790283203125,-0.299041748046875,16665.94906941667,-0.1170539193922528,0.3170983299379908,0.5585506343767168,16665.94906941667,2.363035173711036,0.009131921950689589,1.296997235341133,-0.1329470872879028,0.337342768907547,0.5903692245483398,0.09152498096227646,-0.04677087813615799,-0.02210065722465515,XTrueNorthZVertical,0.2258580746041644,0.5601769582593853,0.7384020285863346,0.2999206518003342,0.002469155937433243,-0.9627506136894226,-0.2703798115253448,-6.806325912475586,-47.38471221923828,25.87530899047852,2,192.168.1.118,10.97.20.126,1,0
2015-02-21 12:35:37.614,46,1424547331.499905,39.63855813919448,-106.370382677325,2516.136,-1,-1,10,65,-9999,1424547337.604244,-6.015190124511719,-46.29927062988281,27.72716522216797,179.4669799804688,170.3404235839844,10,16666.03014983334,-0.0446014404296875,-0.9099884033203125,-0.27978515625,16666.00084275,-0.09556433992418537,0.6080713158984132,0.4594256480750955,16666.00084275,2.462037190192172,-0.06489832043116411,1.289949269847981,-0.1114573255181313,0.6283155679702759,0.491243839263916,-0.03257714211940765,0.006444783881306648,-0.02068547159433365,XTrueNorthZVertical,0.2246975531024583,0.5578690539735527,0.7465317035251433,0.2845761611689525,-0.01797522604465485,-0.9608210325241089,-0.2765862643718719,-8.422830581665039,-47.34496307373047,25.46918487548828,2,192.168.1.118,10.97.20.126,1,0
2015-02-21 12:35:37.658,47,1424547331.499905,39.63855813919448,-106.370382677325,2516.136,-1,-1,10,65,-9999,1424547337.654868,-7.413436889648438,-46.23130798339844,27.89358520507812,177.0638885498047,167.9373321533203,10,16666.07908420833,0.0326080322265625,-0.875946044921875,-0.2836151123046875,16666.052616375,-0.07880826297762482,1.272027469375485,0.3790274779266934,16666.052616375,2.540192486829184,-0.08819858886060281,1.283383237227756,-0.09470109641551971,1.292271494865417,0.4108453691005707,0.01454771962016821,0.06597503274679184,0.007010542787611485,XTrueNorthZVertical,0.2108431325829766,0.5606780256139412,0.7565798134092213,0.262244844760209,-0.02496947161853313,-0.9589803814888,-0.2823706567287445,-9.5909423828125,-47.29634475708008,25.14435386657715,2,192.168.1.118,10.97.20.126,1,0
2015-02-21 12:35:37.712,48,1424547331.499905,39.63855813919448,-106.370382677325,2516.136,-1,-1,10,65,-9999,1424547337.707617,-8.572959899902344,-46.46922302246094,27.39433288574219,174.9566650390625,165.8301086425781,10,16666.12826595833,0.028472900390625,-0.8587188720703125,-0.2882080078125,16666.10438758333,-0.1459814414688025,0.9961727162912246,0.2319874299245844,16666.10438758333,2.59578476051204,-0.08041679684626445,1.276094563635296,-0.1618741303682327,1.016416549682617,0.2638050317764282,0.07399144023656845,0.08918251097202301,0.002940623788163066,XTrueNorthZVertical,0.1915034745763915,0.5644186820018999,0.7664550991269774,0.2393837907629731,-0.0233322624117136,-0.9568887948989868,-0.2895159423351288,-13.18999767303467,-47.13974761962891,23.7705078125,2,192.168.1.118,10.97.20.126,1,0
2015-02-21 12:35:37.788,49,1424547331.499905,39.63855813919448,-106.370382677325,2516.136,-1,-1,10,65,-9999,1424547337.758631,-9.408504486083984,-46.14631652832031,26.97829437255859,134.4696197509766,125.3430557250977,11,16666.1772095,-0.0404052734375,-0.8507080078125,-0.3094329833984375,16666.15616120834,-0.2583854815977769,0.488781672771039,0.1153380447019147,16666.15616120834,2.627054938291528,-0.07504082171590458,1.263877386036328,-0.2742780148983002,0.5090253353118896,0.1471553146839142,0.02178054302930832,0.09081167727708817,0.008288851007819176,XTrueNorthZVertical,0.1794660267064663,0.5631656198493354,0.774140901916471,0.2265884848866964,-0.02265029400587082,-0.9532689452171326,-0.3012728691101074,-14.64898681640625,-47.18274688720703,22.81149482727051,2,192.168.1.118,10.97.20.126,1,0
2015-02-21 12:35:37.811,50,1424547331.499905,39.63855813919448,-106.370382677325,2516.136,-1,-1,10,65,-9999,1424547337.758631,-9.408504486083984,-46.14631652832031,26.97829437255859,134.4696197509766,125.3430557250977,11,16666.22628616667,-0.071868896484375,-0.853424072265625,-0.3337249755859375,16666.207934625,-0.2426328837499582,0.5185201273995178,0.06440721938302134,16666.207934625,2.642022957806422,-0.06536107359090425,1.249480301245132,-0.2585252225399017,0.5387635231018066,0.09622414410114288,-0.04937997087836266,0.1048722565174103,-0.009336893446743488,XTrueNorthZVertical,0.1701845746657089,0.5598808645411756,0.7807989170183972,0.2189148850004595,-0.02062735334038734,-0.9488205909729004,-0.3151412606239319,-15.22499561309814,-47.29441833496094,22.19473648071289,2,192.168.1.118,10.97.20.126,1,0
2015-02-21 12:35:37.859,51,1424547331.499905,39.63855813919448,-106.370382677325,2516.136,-1,-1,10,65,-9999,1424547337.810797,-10.09057235717773,-46.1802978515625,26.5123291015625,128.1786346435547,119.0520782470703,11,16666.27532591667,-0.0320281982421875,-0.87701416015625,-0.3500518798828125,16666.25970604167,-0.1615542759430408,0.7184931652280416,0.09590975191756865,16666.207934625,2.642022957806422,-0.06536107359090425,1.249480301245132,-0.2585252225399017,0.5387635231018066,0.09622414410114288,-0.04937997087836266,0.1048722565174103,-0.009336893446743488,XTrueNorthZVertical,0.1701845746657089,0.5598808645411756,0.7807989170183972,0.2189148850004595,-0.02062735334038734,-0.9488205909729004,-0.3151412606239319,-15.22499561309814,-47.29441833496094,22.19473648071289,2,192.168.1.118,10.97.20.126,1,0
2015-02-21 12:35:37.908,52,1424547331.499905,39.63855813919448,-106.370382677325,2516.136,-1,-1,10,65,-9999,1424547337.862003,-10.67033386230469,-46.35025024414062,25.68024444580078,126.8389663696289,117.7124099731445,11,16666.32450475,-0.0349578857421875,-1.010360717773438,-0.331512451171875,16666.31147945833,-0.05759298910183559,0.6069008565993234,0.2795754554432103,16666.31147945833,2.69140486520404,-0.04399678670284488,1.231454151779535,-0.07348495721817017,0.6271426677703857,0.3113952577114105,-0.01512954570353031,-0.00983072817325592,-0.004872770980000496,XTrueNorthZVertical,0.1463812775600642,0.5588381748706339,0.792731672450428,0.1945480891874263,-0.01464035175740719,-0.9429738521575928,-0.3325448334217072,-24.6604061126709,-37.15555953979492,1.181390762329102,2,192.168.1.118,10.97.20.126,1,0
2015-02-21 12:35:37.959,53,1424547331.499905,39.63855813919448,-106.370382677325,2516.136,-1,-1,10,65,-9999,1424547337.914603,-11.33535385131836,-46.19729614257812,24.89809417724609,124.4887924194336,115.3622360229492,11,16666.37355625,-0.06427001953125,-1.0140380859375,-0.3711090087890625,16666.363253125,0.08762758724353122,0.1646917460232631,0.3491923505506447,16666.31147945833,2.69140486520404,-0.04399678670284488,1.231454151779535,-0.07348495721817017,0.6271426677703857,0.3113952577114105,-0.01512954570353031,-0.00983072817325592,-0.004872770980000496,XTrueNorthZVertical,0.1463812775600642,0.5588381748706339,0.792731672450428,0.1945480891874263,-0.01464035175740719,-0.9429738521575928,-0.3325448334217072,-24.6604061126709,-37.15555953979492,1.181390762329102,2,192.168.1.118,10.97.20.126,1,0
2015-02-21 12:35:38.006,54,1424547331.499905,39.63855813919448,-106.370382677325,2516.136,-1,-1,10,65,-9999,1424547337.96596,-12.00037384033203,-46.24827575683594,25.08115386962891,122.2890243530273,113.162467956543,11,16666.422580125,-0.124755859375,-1.2122802734375,-0.3552703857421875,16666.4150245,0.1955386082974329,-0.2072434676044402,0.3620575491445995,16666.363253125,2.748827082273175,-0.0783232943092704,1.231207987722573,0.07174113392829895,0.1849326491355896,0.3810130953788757,-0.0305626168847084,-0.09894773364067078,-0.01429662946611643,XTrueNorthZVertical,0.143937665746366,0.5596811659025648,0.7957068909813539,0.1813547137066205,-0.0260627493262291,-0.9428918957710266,-0.3320778906345367,-25.01546287536621,-36.93097686767578,0.6296310424804688,2,192.168.1.118,10.97.20.126,1,0
2015-02-21 12:35:38.045,55,1424547331.499905,39.63855813919448,-106.370382677325,2516.136,-1,-1,10,65,-9999,1424547338.018391,-13.50093078613281,-46.24827575683594,25.91323852539062,121.3620376586914,112.235481262207,11,16666.47158183334,-0.03057861328125,-1.136322021484375,-0.2621307373046875,16666.46679804167,0.2466425390871815,0.2877516263058626,0.5305048849370924,16666.4150245,2.808259347106383,-0.1369179920980127,1.233930875165766,0.1796483099460602,-0.1870062798261642,0.3938882946968079,-0.03738997131586075,-0.1389530450105667,-0.0552532970905304,XTrueNorthZVertical,0.1507775063718532,0.5599531923627786,0.7958861154621687,0.1740227133880748,-0.04511430114507675,-0.943795382976532,-0.3274371325969696,-26.0948371887207,-36.17959594726562,0.4036579132080078,2,192.168.1.118,10.97.20.126,1,0
2015-02-21 12:35:38.105,56,1424547331.499905,39.63855813919448,-106.370382677325,2516.136,-1,-1,10,65,-9999,1424547338.069033,-15.08673858642578,-45.6195068359375,26.49570465087891,120.4805068969727,111.3539505004883,11,16666.520757875,0.109832763671875,-0.8687896728515625,-0.3224334716796875,16666.51857141667,0.1521804815381799,0.474566517820523,0.5699939712646783,16666.51857141667,2.990548588585587,-0.2834252863427303,1.243789770839586,0.1362456977367401,0.4946801662445068,0.6017468571662903,0.1827204972505569,0.04280278459191322,-0.006577405147254467,XTrueNorthZVertical,0.157983188218894,0.5664309780600142,0.7961266689929978,0.1427572550789394,-0.08982499688863754,-0.9470081329345703,-0.3083945214748383,-27.41012382507324,-35.18252182006836,0.9706859588623047,2,192.168.1.118,10.97.20.126,1,0
2015-02-21 12:35:38.144,57,1424547331.499905,39.63855813919448,-106.370382677325,2516.136,-1,-1,10,65,-9999,1424547338.121994,-16.45088195800781,-45.55154418945312,27.12808227539062,117.4313278198242,108.3047714233398,11,16666.56979404167,-0.0002593994140625,-0.8103485107421875,-0.2552337646484375,16666.51857141667,0.1521804815381799,0.474566517820523,0.5699939712646783,16666.51857141667,2.990548588585587,-0.2834252863427303,1.243789770839586,0.1362456977367401,0.4946801662445068,0.6017468571662903,0.1827204972505569,0.04280278459191322,-0.006577405147254467,XTrueNorthZVertical,0.157983188218894,0.5664309780600142,0.7961266689929978,0.1427572550789394,-0.08982499688863754,-0.9470081329345703,-0.3083945214748383,-27.41012382507324,-35.18252182006836,0.9706859588623047,2,192.168.1.118,10.97.20.126,1,0
2015-02-21 12:35:38.203,58,1424547331.499905,39.63855813919448,-106.370382677325,2516.136,-1,-1,10,65,-9999,1424547338.173831,-17.69567108154297,-45.126708984375,27.61068725585938,115.8104400634766,106.6838836669922,11,16666.61876558333,-0.1936492919921875,-1.0338134765625,-0.16717529296875,16666.62211645833,-0.3723834236391637,0.07013487993945475,0.2936907418528483,16666.57034275,3.046156039956012,-0.3359305688357347,1.230715438102328,-0.3452688157558441,-0.3240141272544861,0.2905654609203339,0.1096990779042244,0.1323791742324829,0.05968480557203293,XTrueNorthZVertical,0.1635029815184711,0.5619675165514314,0.7995558671005925,0.1347952090617349,-0.1099584773182869,-0.9427276849746704,-0.314918577671051,-28.85959243774414,-34.01478576660156,0.4301528930664062,2,192.168.1.118,10.97.20.126,1,0
2015-02-21 12:35:38.242,59,1424547331.499905,39.63855813919448,-106.370382677325,2516.136,-1,-1,10,65,-9999,1424547338.22581,-18.56531524658203,-45.14370727539062,27.66061401367188,115.4475326538086,106.3209762573242,11,16666.66791375,-0.1340484619140625,-1.022964477539062,-0.2086029052734375,16666.62211645833,-0.3723834236391637,0.07013487993945475,0.2936907418528483,16666.62211645833,3.059858444053259,-0.3588862648203831,1.208380958635972,-0.3883197605609894,0.09025212377309799,0.3254318833351135,-0.06912577897310257,-0.09877025336027145,0.1647706776857376,XTrueNorthZVertical,0.1695983361906909,0.5525064852875644,0.8049295497004078,0.1343929154420729,-0.1245235130190849,-0.9350432157516479,-0.3319459855556488,-29.15094947814941,-33.76638793945312,0.3463802337646484,2,192.168.1.118,10.97.20.126,1,0
2015-02-21 12:35:38.301,60,1424547331.499905,39.63855813919448,-106.370382677325,2516.136,-1,-1,10,65,-9999,1424547338.279055,-20.15113067626953,-44.58291625976562,26.9117431640625,113.0002746582031,103.8737182617188,11,16666.71687858333,-0.0605621337890625,-0.9300384521484375,-0.2063751220703125,16666.67389,-0.066345201708272,0.8564475728552362,0.5240493824547403,16666.67389,3.109932904378779,-0.3771229151176587,1.191795424969892,-0.08227209001779556,0.8765655159950256,0.5557866096496582,0.002200215356424451,-0.093929722905159,0.135389506816864,XTrueNorthZVertical,0.1638460384747799,0.54877889000253,0.8112077943733597,0.1180600166737677,-0.1362486779689789,-0.9290347695350647,-0.3439924120903015,-29.53940010070801,-33.42853546142578,-0.1537246704101562,2,192.168.1.118,10.97.20.126,1,0
2015-02-21 12:35:38.340,61,1424547331.499905,39.63855813919448,-106.370382677325,2516.136,-1,-1,10,65,-9999,1424547338.330182,-21.70285034179688,-44.19207763671875,25.99645233154297,110.0446929931641,100.9181365966797,11,16666.76601704167,-0.0596160888671875,-0.901031494140625,-0.182403564453125,16666.72566120833,0.04114290936452514,0.9702694799485688,0.7044644315538312,16666.72566120833,-3.090574583239659,-0.4048849287159819,1.178582317155943,0.02521618269383907,0.9903872609138489,0.7362013459205627,0.09000532329082489,-0.00597339915111661,0.1449556052684784,XTrueNorthZVertical,0.1532097048246672,0.5485083615826457,0.816942973064671,0.090937286121288,-0.1505674570798874,-0.9240650534629822,-0.3513307273387909,-30.8516960144043,-32.14874649047852,-2.167373657226562,2,192.168.1.118,10.97.20.126,1,0
2015-02-21 12:35:38.400,62,1424547331.499905,39.63855813919448,-106.370382677325,2516.136,-1,-1,10,65,-9999,1424547338.381532,-23.61265563964844,-43.37641906738281,24.99795532226562,106.6490478515625,97.52249145507812,11,16666.81498845833,-0.1035003662109375,-0.894256591796875,-0.1761016845703125,16666.77743475,0.08670213876472868,0.7495498845961097,0.6903832336061463,16666.77743475,-3.001274229582053,-0.4416987296404291,1.165624623767109,0.07077580690383911,0.7696676254272461,0.7221190929412842,0.1049023345112801,0.01807952858507633,0.1786271333694458,XTrueNorthZVertical,0.144800843514101,0.5485066907407298,0.8210870859362089,0.06315988334719376,-0.1685009747743607,-0.9190347194671631,-0.3563462495803833,-31.47705459594727,-31.46236038208008,-3.063014984130859,2,192.168.1.118,10.97.20.126,1,0
2015-02-21 12:35:38.438,63,1424547331.499905,39.63855813919448,-106.370382677325,2516.136,-1,-1,10,65,-9999,1424547338.433511,-25.59066772460938,-43.1724853515625,24.69841766357422,102.6761856079102,93.54962921142578,11,16666.864040375,-0.1998748779296875,-0.8905487060546875,-0.1694488525390625,16666.8292085,0.1342400968548611,0.207504723707377,0.6880801318954457,16666.8292085,-2.915963123953448,-0.4962602992368835,1.153308325812989,0.1183139234781265,0.2276222556829453,0.7198156714439392,0.07078982144594193,0.02305810526013374,0.1811389476060867,XTrueNorthZVertical,0.1450698947382,0.5483408923806085,0.8225259737302246,0.04156995968748399,-0.1930584907531738,-0.9141103625297546,-0.3565539717674255,-32.36011123657227,-30.42015838623047,-4.183798789978027,2,192.168.1.118,10.97.20.126,1,0
2015-02-21 12:35:38.498,64,1424547331.499905,39.63855813919448,-106.370382677325,2516.136,-1,-1,10,65,-9999,1424547338.484807,-27.26174926757812,-41.77903747558594,24.76498413085938,100.7743682861328,91.64781188964844,11,16666.91321845834,-0.286468505859375,-0.92437744140625,-0.1740875244140625,16666.88097970833,0.2158643863691357,-0.08938367566632947,0.6428306281300185,16666.88097970833,-2.832887841858629,-0.5707013694648615,1.142553194467,0.1999383717775345,-0.06926632672548294,0.674565851688385,0.004521824419498444,0.01261726580560207,0.1822864413261414,XTrueNorthZVertical,0.1542138589920622,0.5490785156627079,0.8209989966922102,0.0262976118342671,-0.224339947104454,-0.9096967577934265,-0.3494617342948914,-33.85577011108398,-28.69126892089844,-4.545823574066162,2,192.168.1.118,10.97.20.126,1,0
2015-02-21 12:35:38.537,65,1424547331.499905,39.63855813919448,-106.370382677325,2516.136,-1,-1,10,65,-9999,1424547338.484807,-27.26174926757812,-41.77903747558594,24.76498413085938,100.7743682861328,91.64781188964844,11,16666.96224004167,-0.32147216796875,-1.004714965820312,-0.17755126953125,16666.93275341667,0.2937626472022805,0.01358398577216717,0.5238866633121364,16666.93275341667,-2.754633107313104,-0.6442541461716029,1.134857917375606,0.277836799621582,0.03370111808180809,0.5556215643882751,-0.05212926119565964,-0.03303997218608856,0.164568230509758,XTrueNorthZVertical,0.1639643871552185,0.5516399177668926,0.8177013660115071,0.01317590677154455,-0.2536110877990723,-0.9064741730690002,-0.3376181721687317,-34.43692016601562,-28.02995872497559,-4.299585342407227,2,192.168.1.118,10.97.20.126,1,0
2015-02-21 12:35:38.595,66,1424547331.499905,39.63855813919448,-106.370382677325,2516.136,-1,-1,10,65,-9999,1424547338.588571,-30.24580383300781,-39.92678833007812,25.54713439941406,96.11050415039062,86.98394775390625,11,16667.011197375,-0.364837646484375,-1.036651611328125,-0.2516937255859375,16666.98452683333,0.3547679446088345,0.2691385271311898,0.420691834232656,16666.98452683333,-2.68316895221326,-0.6985323512820079,1.131261996788244,0.3388422429561615,0.2892554402351379,0.45242640376091,-0.06750761717557907,-0.1265137046575546,0.1372575908899307,XTrueNorthZVertical,0.1669326257976886,0.556062393931978,0.8142023692550768,-0.001631570940399939,-0.2736483812332153,-0.9049499034881592,-0.3258562386035919,-35.17911529541016,-27.14511489868164,-3.9546799659729,2,192.168.1.118,10.97.20.126,1,0
2015-02-21 12:35:38.635,67,1424547331.499905,39.63855813919448,-106.370382677325,2516.136,-1,-1,10,65,-9999,1424547338.588571,-30.24580383300781,-39.92678833007812,25.54713439941406,96.11050415039062,86.98394775390625,11,16667.06024133333,-0.451873779296875,-1.155792236328125,-0.3756866455078125,16667.03629841667,0.2728533705357413,-0.2484020896193968,-0.1520132350217229,16667.03629841667,-2.64379165514758,-0.7313602180362181,1.137832695810581,0.2569278180599213,-0.2282853424549103,-0.1202789321541786,-0.1018613204360008,-0.09897229820489883,0.01328593958169222,XTrueNorthZVertical,0.1680431796749564,0.5618079418897431,0.809989368934281,-0.007113088863139137,-0.2802187502384186,-0.9077262878417969,-0.3122666478157043,-35.90829467773438,-26.19267463684082,-3.821641445159912,2,192.168.1.118,10.97.20.126,1,0
2015-02-21 12:35:38.694,68,1424547331.499905,39.63855813919448,-106.370382677325,2516.136,-1,-1,10,65,-9999,1424547338.640223,-30.80850982666016,-39.671875,26.46242523193359,95.19692993164062,86.07037353515625,11,16667.109360375,-0.5368804931640625,-1.090911865234375,-0.3368072509765625,16667.08807179167,0.3582407066702979,-0.5847486826520443,-0.4678257907854234,16667.08807179167,-2.653919486578588,-0.7464312176555475,1.158358859243764,0.3423153162002563,-0.5646321177482605,-0.436091810464859,-0.3096202313899994,-0.4057986736297607,-0.1049801260232925,XTrueNorthZVertical,0.1730755925671813,0.5682532844771213,0.8044269040157154,0.005517939793313987,-0.2721821367740631,-0.9161465167999268,-0.2942660748958588,-35.81984710693359,-26.37760353088379,-3.350714683532715,2,192.168.1.118,10.97.20.126,1,0
2015-02-21 12:35:38.732,69,1424547331.499905,39.63855813919448,-106.370382677325,2516.136,-1,-1,10,65,-9999,1424547338.693647,-30.62094116210938,-39.48497009277344,27.31114959716797,96.10774230957031,86.98118591308594,11,16667.15840420833,-0.2073822021484375,-0.6158599853515625,-0.12066650390625,16667.13984554167,0.5605879526106274,1.267267601559187,-0.448889383854415,16667.13984554167,-2.655822744302916,-0.7319120980873342,1.192449854764427,0.5446627140045166,1.287383913993835,-0.4171557426452637,-0.09129286557435989,0.2236187309026718,0.04602458328008652,XTrueNorthZVertical,0.1613036652343067,0.5801628675922516,0.7983153637310135,0.009208816727625167,-0.2468571662902832,-0.929276704788208,-0.2747843563556671,-35.4061279296875,-27.05214691162109,-2.157373428344727,2,192.168.1.118,10.97.20.126,1,0
2015-02-21 12:35:38.791,70,1424547331.499905,39.63855813919448,-106.370382677325,2516.136,-1,-1,10,65,-9999,1424547338.744192,-30.43338012695312,-39.84182739257812,27.72718048095703,97.6658935546875,88.53933715820312,11,16667.20754370833,-0.00311279296875,-0.991119384765625,-0.0518035888671875,16667.19161683333,0.3575869006226834,3.389506319465269,0.1853429623801736,16667.19161683333,-2.63226874677858,-0.6228746224527838,1.212963663751246,0.3416618406772614,3.409622430801392,0.2170762717723846,0.1541218906641006,0.07813761383295059,0.2248546779155731,XTrueNorthZVertical,0.106977160795221,0.5884900203394088,0.8009063185324516,-0.02800891981673332,-0.2043233066797256,-0.9366581439971924,-0.2844707667827606,-34.33866882324219,-28.10540008544922,-4.583577632904053,2,192.168.1.118,10.97.20.126,1,0
2015-02-21 12:35:38.831,71,1424547331.499905,39.63855813919448,-106.370382677325,2516.136,-1,-1,10,65,-9999,1424547338.796122,-30.74030303955078,-39.80784606933594,26.26272583007812,94.89466094970703,85.76810455322266,11,16667.25658258333,0.04913330078125,-1.032638549804688,-0.198699951171875,16667.24339054167,0.1881925447465584,1.987862000887301,0.331120405709476,16667.19161683333,-2.63226874677858,-0.6228746224527838,1.212963663751246,0.3416618406772614,3.409622430801392,0.2170762717723846,0.1541218906641006,0.07813761383295059,0.2248546779155731,XTrueNorthZVertical,0.106977160795221,0.5884900203394088,0.8009063185324516,-0.02800891981673332,-0.2043233066797256,-0.9366581439971924,-0.2844707667827606,-34.33866882324219,-28.10540008544922,-4.583577632904053,2,192.168.1.118,10.97.20.126,1,0
2015-02-21 12:35:38.890,72,1424547331.499905,39.63855813919448,-106.370382677325,2516.136,-1,-1,10,65,-9999,1424547338.849727,-31.08133697509766,-39.5699462890625,23.83303833007812,85.87198638916016,76.74542999267578,11,16667.305666625,-0.2569122314453125,-0.9377593994140625,-0.2061004638671875,16667.295164,-0.1364063120855316,-0.5667702147651373,0.2090424329207887,16667.295164,-2.527529893656874,-0.5512699665603483,1.208173931621036,-0.152330607175827,-0.5466510653495789,0.2407642751932144,0.06088694185018539,-0.03931913524866104,0.07161779701709747,XTrueNorthZVertical,0.04832683775106277,0.5887066047648611,0.8016397926066522,-0.09199315623547598,-0.185795396566391,-0.9349697828292847,-0.3021781146526337,-33.30517959594727,-27.49708557128906,-11.16879653930664,2,192.168.1.118,10.97.20.126,1,0
2015-02-21 12:35:38.929,73,1424547331.499905,39.63855813919448,-106.370382677325,2516.136,-1,-1,10,65,-9999,1424547338.849727,-31.08133697509766,-39.5699462890625,23.83303833007812,85.87198638916016,76.74542999267578,11,16667.35459941667,-0.496063232421875,-0.886322021484375,-0.2075653076171875,16667.34693558333,-0.139041776300274,0.2570296662868175,0.1466616128112087,16667.295164,-2.527529893656874,-0.5512699665603483,1.208173931621036,-0.152330607175827,-0.5466510653495789,0.2407642751932144,0.06088694185018539,-0.03931913524866104,0.07161779701709747,XTrueNorthZVertical,0.04832683775106277,0.5887066047648611,0.8016397926066522,-0.09199315623547598,-0.185795396566391,-0.9349697828292847,-0.3021781146526337,-33.30517959594727,-27.49708557128906,-11.16879653930664,2,192.168.1.118,10.97.20.126,1,0
2015-02-21 12:35:38.988,74,1424547331.499905,39.63855813919448,-106.370382677325,2516.136,-1,-1,10,65,-9999,1424547338.976704,-32.68421173095703,-38.686279296875,20.83755493164062,81.48305511474609,72.35649871826172,11,16667.40366370833,-0.3857269287109375,-0.936065673828125,-0.1905670166015625,16667.398709,0.1951439278238832,2.430518256210385,0.07039826657126359,16667.34693558333,-2.518800128681218,-0.578005555879698,1.194125388410841,-0.1549658924341202,0.277148574590683,0.1783830970525742,-0.2732639908790588,0.03980336338281631,0.112518273293972,XTrueNorthZVertical,0.05924183343340619,0.5851947966492623,0.8036632691308843,-0.09034850646981411,-0.2009639292955399,-0.9298943281173706,-0.3080749213695526,-33.97720336914062,-26.74575614929199,-10.96727752685547,2,192.168.1.118,10.97.20.126,1,0
2015-02-21 12:35:39.027,75,1424547331.499905,39.63855813919448,-106.370382677325,2516.136,-1,-1,10,65,-9999,1424547338.976704,-32.68421173095703,-38.686279296875,20.83755493164062,81.48305511474609,72.35649871826172,11,16667.452803875,-0.21160888671875,-0.88690185546875,-0.221160888671875,16667.45048258334,0.1822169438926386,2.9412007005218,0.1223592025997996,16667.398709,-2.504610742581507,-0.5145245094521667,1.193055782496178,0.1792199611663818,2.450636863708496,0.1021194383502007,-0.2455125004053116,0.0004079355276189744,0.125069722533226,XTrueNorthZVertical,0.02978401329234514,0.5818749697977531,0.8045866420002012,-0.1147815978948496,-0.1815047115087509,-0.9295003414154053,-0.3210688531398773,-33.96956634521484,-26.53498268127441,-11.49044036865234,2,192.168.1.118,10.97.20.126,1,0
2015-02-21 12:35:39.087,76,1424547331.499905,39.63855813919448,-106.370382677325,2516.136,-1,-1,10,65,-9999,1424547339.080486,-32.00213623046875,-38.04052734375,15.67864990234375,70.68361663818359,61.55706024169922,11,16667.501760625,-0.2193603515625,-0.85504150390625,-0.2425689697265625,16667.50225404167,0.0150268864507721,2.177515289491768,0.231232690071656,16667.45048258334,-2.475425999094271,-0.3964389140542002,1.199896657858451,0.166293129324913,2.961319208145142,0.1540800929069519,-0.1040467321872711,0.03138212859630585,0.1323012709617615,XTrueNorthZVertical,-0.02738496676814697,0.5762626237398949,0.8010806232046944,-0.1595034006749937,-0.1399565637111664,-0.9320016503334045,-0.334342896938324,-32.88237762451172,-26.4672966003418,-14.43254089355469,2,192.168.1.118,10.97.20.126,1,0
2015-02-21 12:35:39.125,77,1424547331.499905,39.63855813919448,-106.370382677325,2516.136,-1,-1,10,65,-9999,1424547339.080486,-32.00213623046875,-38.04052734375,15.67864990234375,70.68361663818359,61.55706024169922,11,16667.55090441667,-0.3350372314453125,-0.8953094482421875,-0.2127532958984375,16667.50225404167,0.0150268864507721,2.177515289491768,0.231232690071656,16667.50225404167,-2.445086062851445,-0.2967816503789529,1.199488165854422,-0.0008967512985691428,2.197633504867554,0.2629532217979431,-0.1132514551281929,0.07681199163198471,0.1044036895036697,XTrueNorthZVertical,-0.07578073325166926,0.5663664471162557,0.795877154084586,-0.2001647603359744,-0.1061088964343071,-0.9318534731864929,-0.346972644329071,-29.45417976379395,-26.29345321655273,-20.76468849182129,2,192.168.1.118,10.97.20.126,1,0
2015-02-21 12:35:39.189,78,1424547331.499905,39.63855813919448,-106.370382677325,2516.136,-1,-1,10,65,-9999,1424547339.131712,-31.49058532714844,-38.07452392578125,12.48345947265625,64.47702026367188,55.3504638671875,11,16667.59986954167,-0.3805084228515625,-1.03839111328125,-0.14923095703125,16667.60580125,0.2288944346345664,2.981528682592761,0.5432648886679889,16667.55402779167,-2.40405748821038,-0.2312315810468986,1.194472429430153,-0.001816976233385503,2.151127576828003,0.3631506562232971,-0.250813901424408,0.03471245244145393,0.1449697315692902,XTrueNorthZVertical,-0.1123819182592777,0.5554356794301201,0.7895381330124747,-0.2355654783896204,-0.08422332257032394,-0.9300218820571899,-0.3577230274677277,-28.24467277526855,-26.05702972412109,-22.65692901611328,2,192.168.1.118,10.97.20.126,1,0
2015-02-21 12:35:39.223,79,1424547331.499905,39.63855813919448,-106.370382677325,2516.136,-1,-1,10,65,-9999,1424547339.183843,-30.48452758789062,-37.85359191894531,9.438034057617188,60.05694580078125,50.93038940429688,11,16667.64891470833,-0.206878662109375,-1.048629760742188,-0.115142822265625,16667.60580125,0.2288944346345664,2.981528682592761,0.5432648886679889,16667.60580125,-2.33945841587744,-0.1638593122906915,1.195100860502283,0.2129335403442383,3.001525640487671,0.5749300122261047,-0.3206539154052734,-0.1081384494900703,0.2127738445997238,XTrueNorthZVertical,-0.1566223709646815,0.5426481675561925,0.7765346004906235,-0.2792784650265124,-0.05985451489686966,-0.9302526712417603,-0.3620047867298126,-26.37389755249023,-25.6274299621582,-25.25310134887695,2,192.168.1.118,10.97.20.126,1,0
2015-02-21 12:35:39.289,80,1424547331.499905,39.63855813919448,-106.370382677325,2516.136,-1,-1,10,65,-9999,1424547339.235224,-28.694091796875,-37.42877197265625,6.259483337402344,54.4811897277832,45.35463333129883,11,16667.69797925,-0.0938262939453125,-1.166427612304688,-0.010467529296875,16667.65757283333,0.43917577009446,4.374942768137949,0.9052542608886824,16667.65757283333,-2.228621805223626,-0.07802456518453119,1.20796725150256,0.4232165813446045,4.39493989944458,0.9369174242019653,-0.1792142242193222,-0.1137332916259766,0.2386980056762695,XTrueNorthZVertical,-0.2213339772708833,0.5235368718975941,0.7480040743666257,-0.3426519613623287,-0.0276644378900528,-0.9348964691162109,-0.3538408279418945,-21.05841255187988,-25.04335021972656,-30.3222770690918,2,192.168.1.118,10.97.20.126,1,0
2015-02-21 12:35:39.322,81,1424547331.499905,39.63855813919448,-106.370382677325,2516.136,-1,-1,10,65,-9999,1424547339.286757,-25.89759063720703,-37.08889770507812,2.431907653808594,42.99330139160156,33.86674499511719,11,16667.74712166667,0.0583343505859375,-1.20489501953125,0.2335357666015625,16667.70934629167,0.2439133316020683,4.77707822852715,0.9468275370853644,16667.70934629167,-2.076861285877739,0.01687506039363436,1.224826366618231,0.2279549539089203,4.797075271606445,0.9784889817237854,-0.08857744187116623,-0.2561982274055481,0.3723405599594116,XTrueNorthZVertical,-0.297713401169185,0.4917684046029752,0.7025358069070214,-0.4194926157126127,0.00572222052142024,-0.9407469630241394,-0.3390611410140991,-17.5938835144043,-24.89530944824219,-32.56908798217773,2,192.168.1.118,10.97.20.126,1,0
2015-02-21 12:35:39.388,82,1424547331.499905,39.63855813919448,-106.370382677325,2516.136,-1,-1,10,65,-9999,1424547339.339531,-21.56642913818359,-36.61309814453125,-1.09613037109375,29.17181396484375,20.04525566101074,11,16667.79608983333,0.2530059814453125,-1.236541748046875,0.29290771484375,16667.76112,-0.6452525068253365,4.129948992081635,0.5036098874044911,16667.76112,-1.970392184898253,0.1400600076241995,1.215880183698648,-0.6612107157707214,4.149946212768555,0.5352709889411926,0.03994166851043701,-0.2968977391719818,0.6084979176521301,XTrueNorthZVertical,-0.362781667444838,0.4430970916985426,0.6602942751500066,-0.485866182115768,0.04851353168487549,-0.9376756548881531,-0.3441088497638702,-11.38042640686035,-24.66900634765625,-35.38351058959961,2,192.168.1.118,10.97.20.126,1,0
2015-02-21 12:35:39.419,83,1424547331.499905,39.63855813919448,-106.370382677325,2516.136,-1,-1,10,65,-9999,1424547339.39036,-16.2633056640625,-35.71246337890625,-5.106765747070312,20.57312393188477,11.44656658172607,11,16667.84513291667,0.4302825927734375,-0.9997100830078125,0.0589599609375,16667.81289133333,-1.198390798918685,3.22517063807975,0.7035855883941051,16667.81289133333,-1.862229856901547,0.225422051126733,1.171247201093863,-1.214348912239075,3.245167255401611,0.7352464199066162,0.2219803482294083,-0.2396216690540314,0.6407579183578491,XTrueNorthZVertical,-0.4030456216473182,0.384673362286032,0.627247566698014,-0.5441885416979081,0.08694909512996674,-0.9212364554405212,-0.3791612684726715,-0.9695887565612793,-22.64074325561523,-38.42555236816406,2,192.168.1.118,10.97.20.126,1,0
2015-02-21 12:35:39.487,84,1424547331.499905,39.63855813919448,-106.370382677325,2516.136,-1,-1,10,65,-9999,1424547339.442419,-12.08560180664062,-34.23403930664062,-8.285308837890625,11.03959178924561,1.913034200668335,11,16667.89419670833,0.1977691650390625,-0.994293212890625,-0.153472900390625,16667.86466508334,-1.101506063726039,1.078061990333962,1.027944494411979,16667.86466508334,-1.719964150102096,0.204589233108529,1.123522823306976,-1.117464065551758,1.098058462142944,1.059605002403259,0.3136491179466248,-0.09556269645690918,0.4280968904495239,XTrueNorthZVertical,-0.41122326689818,0.3451826417526853,0.6025231439003802,-0.5905169576599951,0.08787066489458084,-0.9016296863555908,-0.4234887361526489,2.20433521270752,-21.24853515625,-39.16257476806641,2,192.168.1.118,10.97.20.126,1,0
2015-02-21 12:35:39.518,85,1424547331.499905,39.63855813919448,-106.370382677325,2516.136,-1,-1,10,65,-9999,1424547339.494386,-10.78966903686523,-31.71907043457031,-10.94798278808594,6.088562965393066,356.9620056152344,11,16667.94330654167,-0.08551025390625,-0.9805145263671875,-0.21337890625,16667.91643854167,-0.8572009811276197,-1.323408368918602,0.8728457209512902,16667.91643854167,-1.595334829911094,0.07886471925282815,1.086187213831962,-0.8731697797775269,-1.303409099578857,0.9045003056526184,0.03959189727902412,-0.1103973984718323,0.2589854896068573,XTrueNorthZVertical,-0.3847878721098859,0.3460216866404778,0.598041391164807,-0.6120080293024563,0.03670204803347588,-0.8848571181297302,-0.4644145667552948,4.14830207824707,-19.38286209106445,-39.96452331542969,2,192.168.1.118,10.97.20.126,1,0
2015-02-21 12:35:39.588,86,1424547331.499905,39.63855813919448,-106.370382677325,2516.136,-1,-1,10,65,-9999,1424547339.54741,-12.85294342041016,-29.76483154296875,-12.59548950195312,4.387726783752441,355.2611694335938,11,16667.99230275,-0.3390655517578125,-0.925872802734375,-0.1048431396484375,16667.96821016667,-0.6228012598876415,-1.110760814830173,0.7055930792238069,16667.96821016667,-1.512691614441321,-0.07074487293987905,1.048612546437561,-0.6387728452682495,-1.090759873390198,0.7372427582740784,-0.1708899587392807,-0.09347304701805115,0.3259261548519135,XTrueNorthZVertical,-0.3428823296226705,0.3656069687464799,0.6065882421661704,-0.617101291951074,-0.0352562852203846,-0.8667320609092712,-0.4975264966487885,-0.3305467963218689,-17.01288795471191,-41.23734664916992,2,192.168.1.118,10.97.20.126,1,0
2015-02-21 12:35:39.616,87,1424547331.499905,39.63855813919448,-106.370382677325,2516.136,-1,-1,10,65,-9999,1424547339.598355,-15.20608520507812,-28.03152465820312,-13.29441833496094,4.361878395080566,355.2353210449219,11,16668.04133754167,-0.1786041259765625,-0.9009552001953125,-0.1565399169921875,16668.01998375,0.1707855912295825,2.26494127544078,0.7583961067890259,16668.01998375,-1.439916718420473,-0.09749488790301147,1.033920706250043,0.154814139008522,2.284941911697388,0.790045440196991,-0.2763104140758514,-0.03224493935704231,0.3913033306598663,XTrueNorthZVertical,-0.3432139923172394,0.3573397611584963,0.5906184823195874,-0.6369319481237746,-0.04978516697883606,-0.8593108654022217,-0.5090249180793762,-1.827226519584656,-16.24142074584961,-41.50836181640625,2,192.168.1.118,10.97.20.126,1,0
2015-02-21 12:35:39.689,88,1424547331.499905,39.63855813919448,-106.370382677325,2516.136,-1,-1,10,65,-9999,1424547339.649864,-14.11476898193359,-27.7596435546875,-13.494140625,358.7476196289062,349.6210632324219,11,16668.09040875,6.103515625e-05,-0.9716644287109375,-0.214569091796875,16668.07175733333,0.6424154413160751,3.455655246201203,0.6846779436028695,16668.07175733333,-1.364968171922945,-0.0006149132879873778,1.055545777160324,0.6264441609382629,3.475655794143677,0.7163269519805908,-0.0540945827960968,-0.08309303969144821,0.3010414242744446,XTrueNorthZVertical,-0.3906384119022949,0.3178446329011877,0.5450208448394015,-0.6703198839347496,-0.0003030002990271896,-0.8701692819595337,-0.4927528500556946,0.5526734590530396,-16.17402648925781,-41.5711669921875,2,192.168.1.118,10.97.20.126,1,0
2015-02-21 12:35:39.715,89,1424547331.499905,39.63855813919448,-106.370382677325,2516.136,-1,-1,10,65,-9999,1424547339.70192,-9.306156158447266,-28.26943969726562,-13.89353942871094,352.5181579589844,343.3916015625,11,16668.13956591667,0.0839080810546875,-0.9796600341796875,-0.211181640625,16668.12352866667,0.6677434348632737,2.536005800672315,0.742098626182177,16668.07175733333,-1.364968171922945,-0.0006149132879873778,1.055545777160324,0.6264441609382629,3.475655794143677,0.7163269519805908,-0.0540945827960968,-0.08309303969144821,0.3010414242744446,XTrueNorthZVertical,-0.3906384119022949,0.3178446329011877,0.5450208448394015,-0.6703198839347496,-0.0003030002990271896,-0.8701692819595337,-0.4927528500556946,0.5526734590530396,-16.17402648925781,-41.5711669921875,2,192.168.1.118,10.97.20.126,1,0
2015-02-21 12:35:39.791,90,1424547331.499905,39.63855813919448,-106.370382677325,2516.136,-1,-1,10,65,-9999,1424547339.753001,-4.156509399414062,-29.32302856445312,-13.32771301269531,344.8838500976562,335.7572937011719,11,16668.18851325,0.066741943359375,-0.9858245849609375,-0.1875152587890625,16668.17530245833,0.6951968972764645,2.081200737088507,0.9076553669274978,16668.17530245833,-1.201115921096992,0.1152400542024728,1.127616867126061,0.6792259216308594,2.101200819015503,0.9393037557601929,0.02195130288600922,-0.07655711472034454,0.2352196425199509,XTrueNorthZVertical,-0.4676730578369335,0.2613370070414059,0.4514564397960762,-0.7135628986404307,0.04930724203586578,-0.9033928513526917,-0.4259697496891022,12.16122913360596,-19.25419616699219,-38.35944366455078,2,192.168.1.118,10.97.20.126,1,0
2015-02-21 12:35:39.812,91,1424547331.499905,39.63855813919448,-106.370382677325,2516.136,-1,-1,10,65,-9999,1424547339.805507,-0.06407928466796875,-31.0223388671875,-12.16279602050781,339.5371704101562,330.4106140136719,11,16668.23765404167,0.1131744384765625,-1.033157348632812,-0.1729583740234375,16668.22707604167,0.6750761826086978,2.566069693586001,0.9871917381471503,16668.17530245833,-1.201115921096992,0.1152400542024728,1.127616867126061,0.6792259216308594,2.101200819015503,0.9393037557601929,0.02195130288600922,-0.07655711472034454,0.2352196425199509,XTrueNorthZVertical,-0.4676730578369335,0.2613370070414059,0.4514564397960762,-0.7135628986404307,0.04930724203586578,-0.9033928513526917,-0.4259697496891022,12.16122913360596,-19.25419616699219,-38.35944366455078,2,192.168.1.118,10.97.20.126,1,0
2015-02-21 12:35:39.888,92,1424547331.499905,39.63855813919448,-106.370382677325,2516.136,-1,-1,10,65,-9999,1424547339.856776,3.124610900878906,-32.9085693359375,-10.04931640625,333.5309143066406,324.4043579101562,11,16668.286624875,0.2039031982421875,-1.091476440429688,-0.2406768798828125,16668.278847375,0.5149344473078351,2.6470324538855,1.012346359907385,16668.22707604167,-1.091959615438728,0.1329980068057972,1.167359387394981,0.6591053605079651,2.586069583892822,1.018839836120605,0.03340568020939827,-0.09740321338176727,0.1997531950473785,XTrueNorthZVertical,-0.4987298983532181,0.2381409311177649,0.4010337225702175,-0.730567852017741,0.05205879732966423,-0.9197171330451965,-0.3891147673130035,14.91662406921387,-20.95898818969727,-36.44560241699219,2,192.168.1.118,10.97.20.126,1,0
2015-02-21 12:35:39.910,93,1424547331.499905,39.63855813919448,-106.370382677325,2516.136,-1,-1,10,65,-9999,1424547339.856776,3.124610900878906,-32.9085693359375,-10.04931640625,333.5309143066406,324.4043579101562,11,16668.33574320834,0.212158203125,-0.99481201171875,-0.3250579833984375,16668.330621125,0.3261291091944495,1.785704904648803,0.9439113756917276,16668.278847375,-0.9647835586254864,0.1504135914304129,1.203354939562962,0.4989637732505798,2.667032241821289,1.043994188308716,0.1311681717634201,-0.1507348418235779,0.1368348747491837,XTrueNorthZVertical,-0.5287527317355112,0.2069640205645365,0.3436758595059554,-0.7479795412257132,0.05382939428091049,-0.9332495331764221,-0.355172872543335,19.73529052734375,-23.94719505310059,-32.04866409301758,2,192.168.1.118,10.97.20.126,1,0
2015-02-21 12:35:39.992,94,1424547331.499905,39.63855813919448,-106.370382677325,2516.136,-1,-1,10,65,-9999,1424547339.960253,8.035545349121094,-36.0013427734375,-6.288299560546875,316.8320617675781,307.7055053710938,11,16668.38476654167,0.1349945068359375,-0.9350128173828125,-0.3101959228515625,16668.38239475,0.007698399763092054,1.419700550768706,0.7323213628721691,16668.38239475,-0.7005120161300027,0.08924554271399066,1.242668016615531,-0.008271935395896435,1.439699769020081,0.7639685273170471,0.1285033971071243,0.03050949797034264,0.01285331975668669,XTrueNorthZVertical,-0.5586784727144912,0.1654802441758148,0.2543382942272419,-0.7718851809873547,0.02872316353023052,-0.9466471672058105,-0.3209893107414246,22.86112213134766,-26.50321578979492,-27.65890502929688,2,192.168.1.118,10.97.20.126,1,0
2015-02-21 12:35:40.008,95,1424547331.499905,39.63855813919448,-106.370382677325,2516.136,-1,-1,10,65,-9999,1424547339.960253,8.035545349121094,-36.0013427734375,-6.288299560546875,316.8320617675781,307.7055053710938,11,16668.43392579167,-0.00079345703125,-1.089828491210938,-0.339324951171875,16668.38239475,0.007698399763092054,1.419700550768706,0.7323213628721691,16668.38239475,-0.7005120161300027,0.08924554271399066,1.242668016615531,-0.008271935395896435,1.439699769020081,0.7639685273170471,0.1285033971071243,0.03050949797034264,0.01285331975668669,XTrueNorthZVertical,-0.5586784727144912,0.1654802441758148,0.2543382942272419,-0.7718851809873547,0.02872316353023052,-0.9466471672058105,-0.3209893107414246,22.86112213134766,-26.50321578979492,-27.65890502929688,2,192.168.1.118,10.97.20.126,1,0
2015-02-21 12:35:40.089,96,1424547331.499905,39.63855813919448,-106.370382677325,2516.136,-1,-1,10,65,-9999,1424547340.06393,10.74678039550781,-37.24188232421875,-4.374504089355469,306.1756286621094,297.049072265625,11,16668.48289883334,-0.006561279296875,-1.042739868164062,-0.3700103759765625,16668.48593970833,-0.1304557449458585,1.517807676901699,0.733762133021902,16668.43416625,-0.5759439853372199,0.04777262858303543,1.240219165267815,-0.1244791299104691,1.573642134666443,0.8647680878639221,-0.01629403419792652,-0.1439733356237411,-0.01510618068277836,XTrueNorthZVertical,-0.5625560393883959,0.1463602309074257,0.2177561559320881,-0.78402276085292,0.01550057623535395,-0.9458551406860352,-0.3242187798023224,24.15898132324219,-27.96446418762207,-24.98797225952148,2,192.168.1.118,10.97.20.126,1,0
2015-02-21 12:35:40.107,97,1424547331.499905,39.63855813919448,-106.370382677325,2516.136,-1,-1,10,65,-9999,1424547340.06393,10.74678039550781,-37.24188232421875,-4.374504089355469,306.1756286621094,297.049072265625,11,16668.532052125,-0.02618408203125,-1.042327880859375,-0.402740478515625,16668.48593970833,-0.1304557449458585,1.517807676901699,0.733762133021902,16668.48593970833,-0.4497759930251545,0.006430444560922993,1.235084477104123,-0.1464258134365082,1.537806630134583,0.7654086947441101,-0.008679719641804695,-0.09856383502483368,-0.04057572409510612,XTrueNorthZVertical,-0.5650341140180477,0.1265666812929988,0.1799947143734952,-0.7951850574585189,0.002118440344929695,-0.9441760182380676,-0.3294346630573273,24.58307266235352,-28.49985885620117,-23.94780349731445,2,192.168.1.118,10.97.20.126,1,0
2015-02-21 12:35:40.192,98,1424547331.499905,39.63855813919448,-106.370382677325,2516.136,-1,-1,10,65,-9999,1424547340.167953,12.31554794311523,-37.41181945800781,-2.9100341796875,297.6858520507812,288.5592956542969,11,16668.58102633333,-0.0636138916015625,-0.990142822265625,-0.44049072265625,16668.53771345834,-0.2440986876139378,1.213785201599888,0.6315526735457508,16668.53771345834,-0.3414304587751414,-0.02587579687058115,1.223687200379453,-0.2601008117198944,1.233665585517883,0.6631607413291931,-0.01738261245191097,-0.1019678190350533,-0.06267349421977997,XTrueNorthZVertical,-0.5641815471164294,0.1080078228750771,0.1463794268958891,-0.8053611631424232,-0.008801468648016453,-0.9403600692749023,-0.3400669693946838,25.16672897338867,-29.24612808227539,-22.39121246337891,2,192.168.1.118,10.97.20.126,1,0
2015-02-21 12:35:40.204,99,1424547331.499905,39.63855813919448,-106.370382677325,2516.136,-1,-1,10,65,-9999,1424547340.167953,12.31554794311523,-37.41181945800781,-2.9100341796875,297.6858520507812,288.5592956542969,11,16668.630201375,-0.0839080810546875,-0.8258819580078125,-0.45062255859375,16668.58948483333,-0.3376438187996251,0.8264028547013983,0.4237683179239156,16668.58948483333,-0.262052757548242,-0.05091902356939403,1.207335925220286,-0.3536457717418671,0.8462831377983093,0.455375999212265,-0.04551945254206657,-0.05547060817480087,-0.08544071763753891,XTrueNorthZVertical,-0.559879554479048,0.0949203908849342,0.1218524620497895,-0.8140497705843213,-0.01809444092214108,-0.9346722364425659,-0.3550499975681305,25.64730644226074,-30.09588623046875,-20.65235900878906,2,192.168.1.118,10.97.20.126,1,0
2015-02-21 12:35:40.287,100,1424547331.499905,39.63855813919448,-106.370382677325,2516.136,-1,-1,10,65,-9999,1424547340.271189,13.74790191650391,-37.10598754882812,-2.244361877441406,290.8310546875,281.7044982910156,11,16668.679156625,-0.0867462158203125,-0.794158935546875,-0.43463134765625,16668.69303204167,-0.3087623694099337,1.282231371092124,0.004880242697570204,16668.64125858334,-0.2210954880051318,-0.04223481733823888,1.187148545032533,-0.3368238806724548,1.079549431800842,0.1730092763900757,-0.06488444656133652,0.1037428006529808,-0.0740414559841156,XTrueNorthZVertical,-0.5538581732733246,0.07908981574009125,0.1031698388896815,-0.8224001197187407,-0.01580403000116348,-0.9273054003715515,-0.3739718496799469,25.76654243469238,-30.21640205383301,-20.32537651062012,2,192.168.1.118,10.97.20.126,1,0
2015-02-21 12:35:40.302,101,1424547331.499905,39.63855813919448,-106.370382677325,2516.136,-1,-1,10,65,-9999,1424547340.271189,13.74790191650391,-37.10598754882812,-2.244361877441406,290.8310546875,281.7044982910156,11,16668.72820425,-0.04193115234375,-0.81317138671875,-0.395416259765625,16668.69303204167,-0.3087623694099337,1.282231371092124,0.004880242697570204,16668.69303204167,-0.2098827439571167,0.008289637532896839,1.170151827639408,-0.3247621655464172,1.302111506462097,0.03648530691862106,-0.08025939017534256,0.1293059140443802,-0.03894126042723656,XTrueNorthZVertical,-0.5495817103644016,0.05441198726644271,0.08504881776572214,-0.8293166014838339,0.003233020659536123,-0.920809805393219,-0.3899985551834106,26.34262657165527,-30.16311454772949,-19.65500640869141,2,192.168.1.118,10.97.20.126,1,0
2015-02-21 12:35:40.389,102,1424547331.499905,39.63855813919448,-106.370382677325,2516.136,-1,-1,10,65,-9999,1424547340.375224,16.88543701171875,-36.59617614746094,-0.8131866455078125,285.6736755371094,276.547119140625,11,16668.7772705,-0.0263671875,-0.8491973876953125,-0.3813323974609375,16668.74480375,-0.254762517250833,1.294211334939736,0.06197175856614387,16668.74480375,-0.2037628327257335,0.06929113723341014,1.156005541748399,-0.2707621455192566,1.314091205596924,0.09357653558254242,-0.06511807441711426,0.09049361944198608,0.00627951929345727,XTrueNorthZVertical,-0.5461436236640927,0.02667219665995128,0.06630591354922503,-0.8346372324011055,0.02790188789367676,-0.9152006506919861,-0.4020314812660217,28.02525901794434,-29.82701301574707,-17.74825668334961,2,192.168.1.118,10.97.20.126,1,0
2015-02-21 12:35:40.401,103,1424547331.499905,39.63855813919448,-106.370382677325,2516.136,-1,-1,10,65,-9999,1424547340.375224,16.88543701171875,-36.59617614746094,-0.8131866455078125,285.6736755371094,276.547119140625,11,16668.82631579167,0.0539703369140625,-0.8371429443359375,-0.39215087890625,16668.79657720833,-0.07418075426750313,1.110796767504889,0.3023574669882932,16668.79657720833,-0.1720329397410092,0.100476574135201,1.148482924818071,-0.09018025547266006,1.130676627159119,0.3339618146419525,-0.05744015797972679,0.06369347870349884,0.02696045488119125,XTrueNorthZVertical,-0.5441291634307936,0.004600827031442813,0.04486277962225665,-0.8377885559761984,0.04111325368285179,-0.9121431708335876,-0.4078045785427094,28.59838485717773,-29.79225730895996,-16.87069702148438,2,192.168.1.118,10.97.20.126,1,0
2015-02-21 12:35:40.459,104,1424547331.499905,39.63855813919448,-106.370382677325,2516.136,-1,-1,10,65,-9999,1424547340.426875,18.24958038330078,-37.07197570800781,0.385009765625,283.16845703125,274.0419006347656,11,16668.87538245833,0.1479949951171875,-0.8498687744140625,-0.3849945068359375,16668.848351,0.1729688506912294,1.073199324499586,0.4019429138423892,16668.848351,-0.1248048460988068,0.1131892314437864,1.152970681599739,0.1569695472717285,1.093078851699829,0.4335469007492065,0.05237430706620216,0.07409913092851639,0.006616937462240458,XTrueNorthZVertical,-0.5461060680176065,-0.01339251201823984,0.02142735995867923,-0.8373348905705406,0.04583125934004784,-0.9139733910560608,-0.4031776189804077,29.04646492004395,-30.0866641998291,-15.52939796447754,2,192.168.1.118,10.97.20.126,1,0
2015-02-21 12:35:40.498,105,1424547331.499905,39.63855813919448,-106.370382677325,2516.136,-1,-1,10,65,-9999,1424547340.480304,19.05101776123047,-37.56477355957031,1.533287048339844,280.5114440917969,271.3848876953125,11,16668.9244265,0.2125701904296875,-0.912322998046875,-0.3766326904296875,16668.900122375,0.2908209194621789,0.894417325780932,0.5346820531068817,16668.900122375,-0.06476932528952968,0.1083723786903603,1.16737372747699,0.2748217880725861,0.9142967462539673,0.5662857294082642,0.1302996426820755,0.050338014960289,0.007300444412976503,XTrueNorthZVertical,-0.5514699910020459,-0.02735110263478593,-0.002853401803466747,-0.8337413699297884,0.0424603596329689,-0.9197227954864502,-0.3902655243873596,29.17985916137695,-31.20167922973633,-12.84747982025146,2,192.168.1.118,10.97.20.126,1,0
2015-02-21 12:35:40.559,106,1424547340.505729,39.63855858685245,-106.3703816928371,2516.136,-1,-1,10,68.14097225297697,-9999,1424547340.531097,19.13627243041992,-38.77131652832031,3.080955505371094,276.7871704101562,267.6606140136719,11,16668.973485375,0.2001953125,-0.91156005859375,-0.4091033935546875,16668.951896125,0.2260302048821862,0.4558037489925877,0.6449507706738306,16668.951896125,0.01435647673925532,0.07071256928705857,1.182858978351589,0.2100312113761902,0.4756829440593719,0.6765541434288025,0.1963718980550766,0.004151981323957443,-0.01629641652107239,XTrueNorthZVertical,-0.5569747929071349,-0.03334363137973782,-0.02566341676461528,-0.8294629099470447,0.02672685869038105,-0.9256913065910339,-0.3773345649242401,28.96668815612793,-31.80324745178223,-11.81317138671875,2,192.168.1.118,10.97.20.126,1,0
2015-02-21 12:35:40.597,107,1424547340.505729,39.63855858685245,-106.3703816928371,2516.136,-1,-1,10,68.14097225297697,-9999,1424547340.582663,18.79523086547852,-39.24713134765625,3.8797607421875,273.573486328125,264.4469299316406,11,16669.02251383333,0.1430206298828125,-0.905242919921875,-0.4167022705078125,16669.00366966667,0.1235677451024776,-0.07099188517824226,0.5238808043577382,16669.00366966667,0.098349727699311,0.0005699807609009641,1.191775627187138,0.1075689271092415,-0.05111289396882057,0.5554838180541992,0.1628445237874985,0.03699862584471703,-0.0467829518020153,XTrueNorthZVertical,-0.5605536680925858,-0.02782354522101694,-0.04084295321925398,-0.8266422057438145,0.0002108991029672325,-0.9290274381637573,-0.3700108826160431,28.30796432495117,-32.77012252807617,-10.71657752990723,2,192.168.1.118,10.97.20.126,1,0
2015-02-21 12:35:40.688,108,1424547340.505729,39.63855858685245,-106.3703816928371,2516.136,-1,-1,10,68.14097225297697,-9999,1424547340.635394,18.01084899902344,-39.99481201171875,4.811691284179688,272.5155944824219,263.3890380859375,11,16669.07156716667,0.0844879150390625,-0.929840087890625,-0.4263763427734375,16669.05544133333,0.06300053769524148,-0.2242360332557998,0.3590551013316441,16669.05544133333,0.1294055030984909,-0.0311876231968374,1.190852577625181,0.04701723530888557,-0.2043617814779282,0.3906641006469727,0.120878592133522,0.006230664905160666,-0.04642629623413086,XTrueNorthZVertical,-0.5604547646817256,-0.02337683927199945,-0.04479682526956569,-0.8266421669636499,-0.01156462635844946,-0.9286854863166809,-0.3706879615783691,26.90651702880859,-34.01908111572266,-10.43111228942871,2,192.168.1.118,10.97.20.126,1,0
2015-02-21 12:35:40.695,109,1424547340.505729,39.63855858685245,-106.3703816928371,2516.136,-1,-1,10,68.14097225297697,-9999,1424547340.686838,17.09005355834961,-40.4366455078125,4.678558349609375,271.9154357910156,262.7888793945312,11,16669.12070725,0.01458740234375,-0.9572906494140625,-0.46337890625,16669.10721479167,-0.00718068124718065,-0.4135005003411151,0.178030720975143,16669.05544133333,0.1294055030984909,-0.0311876231968374,1.190852577625181,0.04701723530888557,-0.2043617814779282,0.3906641006469727,0.120878592133522,0.006230664905160666,-0.04642629623413086,XTrueNorthZVertical,-0.5604547646817256,-0.02337683927199945,-0.04479682526956569,-0.8266421669636499,-0.01156462635844946,-0.9286854863166809,-0.3706879615783691,26.90651702880859,-34.01908111572266,-10.43111228942871,2,192.168.1.118,10.97.20.126,1,0
2015-02-21 12:35:40.758,110,1424547340.505729,39.63855858685245,-106.3703816928371,2516.136,-1,-1,10,68.14097225297697,-9999,1424547340.738253,15.89642333984375,-40.70855712890625,4.245880126953125,272.0789794921875,262.9524230957031,11,16669.16965791667,-0.0274505615234375,-0.879791259765625,-0.4537200927734375,16669.15898858333,-0.06729435232077624,-0.4396492801362761,0.02222780772223735,16669.15898858333,0.1637072413744857,-0.09692223501244031,1.182336916959109,-0.08326596766710281,-0.4197783470153809,0.05383791401982307,0.02079923823475838,0.01094289496541023,-0.08215146511793137,XTrueNorthZVertical,-0.5581019450072482,-0.005428807568945919,-0.04089873480346272,-0.8287460938938839,-0.03665312007069588,-0.9254936575889587,-0.376985490322113,26.62756156921387,-34.01995468139648,-11.12125396728516,2,192.168.1.118,10.97.20.126,1,0
2015-02-21 12:35:40.792,111,1424547340.505729,39.63855858685245,-106.3703816928371,2516.136,-1,-1,10,68.14097225297697,-9999,1424547340.789592,15.33371353149414,-40.6915283203125,3.330589294433594,272.5361022949219,263.4095458984375,11,16669.218693,-0.0320892333984375,-0.872406005859375,-0.4118499755859375,16669.21075995834,-0.1440285454414473,-0.1517194883534872,-0.06074164445863627,16669.15898858333,0.1637072413744857,-0.09692223501244031,1.182336916959109,-0.08326596766710281,-0.4197783470153809,0.05383791401982307,0.02079923823475838,0.01094289496541023,-0.08215146511793137,XTrueNorthZVertical,-0.5581019450072482,-0.005428807568945919,-0.04089873480346272,-0.8287460938938839,-0.03665312007069588,-0.9254936575889587,-0.376985490322113,26.62756156921387,-34.01995468139648,-11.12125396728516,2,192.168.1.118,10.97.20.126,1,0
2015-02-21 12:35:40.859,112,1424547340.505729,39.63855858685245,-106.3703816928371,2516.136,-1,-1,10,68.14097225297697,-9999,1424547340.841588,14.99267959594727,-40.75950622558594,3.330589294433594,272.9043884277344,263.77783203125,11,16669.26775583333,-0.0313720703125,-0.8630828857421875,-0.4324493408203125,16669.26253379167,-0.08313962817452969,-0.2694509159270561,-0.08234307669248699,16669.21075995834,0.1613171359491733,-0.1073251253357786,1.175819836024808,-0.1599999815225601,-0.1318487673997879,-0.02913188375532627,0.009449231438338757,0.0565657913684845,-0.03297002613544464,XTrueNorthZVertical,-0.5556200984061416,-0.0001361014582814914,-0.03729537692258227,-0.8305994162104459,-0.04121803119778633,-0.9230055809020996,-0.3825725615024567,26.14374923706055,-34.06055450439453,-12.10164260864258,2,192.168.1.118,10.97.20.126,1,0
2015-02-21 12:35:40.892,113,1424547340.505729,39.63855858685245,-106.3703816928371,2516.136,-1,-1,10,68.14097225297697,-9999,1424547340.841588,14.99267959594727,-40.75950622558594,3.330589294433594,272.9043884277344,263.77783203125,11,16669.31679583334,-0.11004638671875,-0.866119384765625,-0.441070556640625,16669.31430725,-0.01699229933525058,-0.4430493378999802,-0.09887385021082684,16669.26253379167,0.1512183211512283,-0.1056065239731347,1.165065908970507,-0.09910743683576584,-0.2495812922716141,-0.05073720961809158,0.0117887370288372,0.04901760071516037,-0.0331832729279995,XTrueNorthZVertical,-0.5511337544904851,0.002449963388915169,-0.03403824303649189,-0.8337187943047651,-0.0416044108569622,-0.9188143610954285,-0.3924911618232727,26.12408828735352,-33.98053359985352,-12.36615657806396,2,192.168.1.118,10.97.20.126,1,0
2015-02-21 12:35:40.959,114,1424547340.505729,39.63855858685245,-106.3703816928371,2516.136,-1,-1,10,68.14097225297697,-9999,1424547340.945924,14.66869735717773,-40.84446716308594,2.91455078125,226.0475006103516,216.9209442138672,10,16669.36586729167,-0.1544189453125,-0.857940673828125,-0.4176025390625,16669.36607891667,0.09627753446410858,-0.08573727550179298,-0.07262440292646083,16669.31430725,0.1437616602323761,-0.1179931823497336,1.155641419420582,-0.03295725956559181,-0.4231809973716736,-0.06727492809295654,-0.04166179895401001,0.06378126889467239,-0.04534973576664925,XTrueNorthZVertical,-0.5473885756381704,0.01010334565276167,-0.02793276520232629,-0.8363512885869043,-0.04748004674911499,-0.9150538444519043,-0.4005273282527924,14.81357383728027,-40.68320083618164,2.856201171875,2,192.168.1.118,10.97.20.126,1,0
2015-02-21 12:35:40.990,115,1424547340.505729,39.63855858685245,-106.3703816928371,2516.136,-1,-1,10,68.14097225297697,-9999,1424547340.945924,14.66869735717773,-40.84446716308594,2.91455078125,226.0475006103516,216.9209442138672,10,16669.41491491667,-0.1090087890625,-0.8128662109375,-0.399078369140625,16669.36607891667,0.09627753446410858,-0.08573727550179298,-0.07262440292646083,16669.36607891667,0.1512146785051592,-0.1404016382711213,1.153051944436878,0.08030961453914642,-0.06586997956037521,-0.04103275015950203,-0.09764496982097626,0.05606569349765778,-0.01589477062225342,XTrueNorthZVertical,-0.5466604475980091,0.01756333522540603,-0.02504308986300719,-0.8367955398800863,-0.05677397549152374,-0.9140063524246216,-0.4017077684402466,14.77804374694824,-40.75082397460938,1.924263000488281,2,192.168.1.118,10.97.20.126,1,0
2015-02-21 12:35:41.059,116,1424547340.505729,39.63855858685245,-106.3703816928371,2516.136,-1,-1,10,68.14097225297697,-9999,1424547341.048765,14.83921051025391,-41.21832275390625,2.947822570800781,226.3936004638672,217.2670440673828,10,16669.46409554167,-0.0708770751953125,-0.875091552734375,-0.34869384765625,16669.46962620833,0.318248549212796,0.3773587411876497,0.02659805507105738,16669.41785241667,0.1486513443387639,-0.1290448975276619,1.160096173103944,0.1896104365587234,0.3354775011539459,-0.03912917152047157,-0.05763030424714088,0.1039752960205078,-0.003146615112200379,XTrueNorthZVertical,-0.5494184984501242,0.01316952901604548,-0.02674187745457723,-0.8350154469720296,-0.05137848481535912,-0.9168415069580078,-0.395931750535965,14.83436679840088,-40.72640609741211,2.00606632232666,2,192.168.1.118,10.97.20.126,1,0
2015-02-21 12:35:41.092,117,1424547340.505729,39.63855858685245,-106.3703816928371,2516.136,-1,-1,10,68.14097225297697,-9999,1424547341.048765,14.83921051025391,-41.21832275390625,2.947822570800781,226.3936004638672,217.2670440673828,10,16669.51301033334,-0.047821044921875,-0.931549072265625,-0.308624267578125,16669.46962620833,0.318248549212796,0.3773587411876497,0.02659805507105738,16669.46962620833,0.1580752422084902,-0.1183058803316899,1.17151187948593,0.3022796213626862,0.3972252905368805,0.05818777903914452,-0.02499178238213062,0.04624785482883453,0.03734798356890678,XTrueNorthZVertical,-0.55402926730836,0.005536783149637829,-0.03309759487582589,-0.8318206007529142,-0.04588529467582703,-0.9213393926620483,-0.3860418200492859,14.87169075012207,-40.68645858764648,2.483462333679199,2,192.168.1.118,10.97.20.126,1,0
2015-02-21 12:35:41.159,118,1424547340.505729,39.63855858685245,-106.3703816928371,2516.136,-1,-1,10,68.14097225297697,-9999,1424547341.151887,15.72590637207031,-42.645751953125,5.37750244140625,225.7228851318359,216.5963287353516,10,16669.56206604167,-0.0074462890625,-0.909454345703125,-0.31097412109375,16669.52139775,0.42368123255627,0.215334683628319,0.1014453985594073,16669.52139775,0.1819460394187042,-0.1253715488015826,1.191795223261593,0.4076812565326691,0.2350864112377167,0.1330124735832214,-0.001555905910208821,-0.002514388877898455,0.05846448615193367,XTrueNorthZVertical,-0.562543391509142,0.0007449726360880802,-0.04002779700428677,-0.8257979176393787,-0.0462651401758194,-0.9290347099304199,-0.3670887649059296,14.49860000610352,-40.71015930175781,3.898265838623047,2,192.168.1.118,10.97.20.126,1,0
2015-02-21 12:35:41.194,119,1424547340.505729,39.63855858685245,-106.3703816928371,2516.136,-1,-1,10,68.14097225297697,-9999,1424547341.151887,15.72590637207031,-42.645751953125,5.37750244140625,225.7228851318359,216.5963287353516,10,16669.61110820833,-0.0418548583984375,-0.94696044921875,-0.2838134765625,16669.57317141667,0.4014630122139569,0.03056030614087727,0.07312321299863267,16669.57317141667,0.2008247860216621,-0.1352715128207142,1.216508991327998,0.3854645192623138,0.05031229183077812,0.1046938225626945,0.03596721217036247,0.02325163222849369,0.03955370187759399,XTrueNorthZVertical,-0.5728173051329812,-0.001968509170496893,-0.04365110145000978,-0.8185176167190433,-0.04678569361567497,-0.9378939867019653,-0.343752920627594,14.321608543396,-40.69681549072266,4.624224662780762,2,192.168.1.118,10.97.20.126,1,0
2015-02-21 12:35:41.244,120,1424547340.505729,39.63855858685245,-106.3703816928371,2516.136,-1,-1,10,68.14097225297697,-9999,1424547341.203974,15.67475128173828,-42.560791015625,6.192939758300781,225.9825439453125,216.8559875488281,10,16669.660180625,-0.1034088134765625,-0.9729766845703125,-0.2606048583984375,16669.62494491667,0.2949413623007495,-0.2334801317155738,-0.03255474748123761,16669.62494491667,0.2137003848722554,-0.151965940617009,1.235271310444318,0.2789437174797058,-0.213728055357933,-0.0009823408909142017,-0.00290492782369256,-0.007041116245090961,0.04772992059588432,XTrueNorthZVertical,-0.5807450372047145,-4.946440388224415e-05,-0.04298369074440846,-0.8129499672616654,-0.04984470456838608,-0.9442375898361206,-0.3254703879356384,14.18775177001953,-40.63579177856445,5.492062568664551,2,192.168.1.118,10.97.20.126,1,0
2015-02-21 12:35:41.290,121,1424547340.505729,39.63855858685245,-106.3703816928371,2516.136,-1,-1,10,68.14097225297697,-9999,1424547341.254308,15.76001739501953,-42.91766357421875,6.64227294921875,226.31494140625,217.1883850097656,10,16669.70921266667,-0.16143798828125,-0.9919281005859375,-0.226287841796875,16669.67671645834,0.2375944492836373,-0.3042254081768748,-0.1272996327380056,16669.67671645834,0.2159985301024673,-0.1693711960271169,1.250318853514628,0.2215962409973145,-0.2844735383987427,-0.09572505205869675,-0.06675723195075989,-0.03001034632325172,0.0578266829252243,XTrueNorthZVertical,-0.5871247337157813,0.005332172291453482,-0.03787734572025604,-0.8085922763076586,-0.05310055986046791,-0.9490851163864136,-0.3105122447013855,14.26195812225342,-40.48048400878906,6.375720977783203,2,192.168.1.118,10.97.20.126,1,0
2015-02-21 12:35:41.342,122,1424547340.505729,39.63855858685245,-106.3703816928371,2516.136,-1,-1,10,68.14097225297697,-9999,1424547341.307455,15.40192413330078,-43.41046142578125,6.49249267578125,226.8752746582031,217.7487182617188,10,16669.75827383333,-0.1518096923828125,-1.013092041015625,-0.20574951171875,16669.728490125,0.3017521304725181,0.04163372995342675,-0.1948600348516808,16669.728490125,0.2383282919828949,-0.1997660425595531,1.270914946759031,0.2857492566108704,0.06138445809483528,-0.163277879357338,-0.1073950529098511,-0.04003556817770004,0.06812721490859985,XTrueNorthZVertical,-0.5959397141862329,0.009472769051491857,-0.03643277824008427,-0.8021463856411886,-0.05862057209014893,-0.9553715586662292,-0.2895322442054749,14.28364658355713,-40.42457580566406,6.674882888793945,2,192.168.1.118,10.97.20.126,1,0
2015-02-21 12:35:41.387,123,1424547340.505729,39.63855858685245,-106.3703816928371,2516.136,-1,-1,10,68.14097225297697,-9999,1424547341.3592,15.69180679321289,-43.73335266113281,7.441070556640625,227.020751953125,217.8941955566406,10,16669.80731529167,-0.136505126953125,-1.106796264648438,-0.1840667724609375,16669.78026379167,0.3713362686985445,0.3111469638499907,-0.1871102360795502,16669.78026379167,0.2216655021491518,-0.1718685034447211,1.288230423706645,0.3553335666656494,0.3308974802494049,-0.1555284410715103,-0.09167357534170151,-0.07539290934801102,0.0789274275302887,XTrueNorthZVertical,-0.6021954629422219,0.00203726773488373,-0.03689461107952021,-0.7974931405665223,-0.04768494889140129,-0.9603431820869446,-0.2747129499912262,14.34656810760498,-40.2906494140625,7.318644523620605,2,192.168.1.118,10.97.20.126,1,0
2015-02-21 12:35:41.440,124,1424547340.505729,39.63855858685245,-106.3703816928371,2516.136,-1,-1,10,68.14097225297697,-9999,1424547341.412336,16.33977508544922,-43.97126770019531,8.306427001953125,227.4841918945312,218.3576354980469,10,16669.856357,-0.133056640625,-1.182830810546875,-0.1841583251953125,16669.83203545833,0.4231842866968612,0.2724195415941674,-0.1409667091361833,16669.83203545833,0.2196339025568635,-0.1547690245191922,1.310907929284128,0.4071813523769379,0.2921693623065948,-0.1093827486038208,-0.1015004366636276,-0.202190950512886,0.07360342890024185,XTrueNorthZVertical,-0.6107512247698353,-0.005683327507406499,-0.03978839343621798,-0.7908018541984705,-0.03961284831166267,-0.9664186835289001,-0.2539012730121613,14.530686378479,-39.92512512207031,8.80717658996582,2,192.168.1.118,10.97.20.126,1,0
2015-02-21 12:35:41.487,125,1424547340.505729,39.63855858685245,-106.3703816928371,2516.136,-1,-1,10,68.14097225297697,-9999,1424547341.463159,16.86838150024414,-44.39607238769531,9.3548583984375,227.8500671386719,218.7235107421875,10,16669.905398,-0.0373382568359375,-0.982391357421875,-0.2147064208984375,16669.88380895833,0.428355080269359,0.2300222833562149,-0.1447984653125892,16669.88380895833,0.2117193086865564,-0.1335774673793805,1.331949912784036,0.4123522639274597,0.2497719377279282,-0.1132147759199142,-0.06839115172624588,-0.1506113559007645,0.04071847349405289,XTrueNorthZVertical,-0.618542627504869,-0.01295103798716877,-0.04189607087048846,-0.7845266441908954,-0.03150814399123192,-0.9716115593910217,-0.2344745844602585,14.57747364044189,-39.76784515380859,9.420124053955078,2,192.168.1.118,10.97.20.126,1,0
2015-02-21 12:35:41.538,126,1424547340.505729,39.63855858685245,-106.3703816928371,2516.136,-1,-1,10,68.14097225297697,-9999,1424547341.515679,17.20941543579102,-44.43008422851562,10.05380249023438,228.4372100830078,219.3106536865234,10,16669.95455975,-0.0152587890625,-0.88922119140625,-0.187652587890625,16669.93558283334,0.3040504384932565,0.06396673253872223,-0.2296779366272677,16669.93558283334,0.1872171675497874,-0.1010357944191408,1.351134045393608,0.2880480289459229,0.08371598273515701,-0.1980938315391541,0.01267042104154825,0.08285891264677048,0.006797506008297205,XTrueNorthZVertical,-0.6254910082548806,-0.01914466197544728,-0.04140883240620492,-0.7788965507269107,-0.02197828143835068,-0.9759711027145386,-0.2167889624834061,14.65224075317383,-39.5162353515625,10.31997585296631,2,192.168.1.118,10.97.20.126,1,0
2015-02-21 12:35:41.587,127,1424547340.505729,39.63855858685245,-106.3703816928371,2516.136,-1,-1,10,68.14097225297697,-9999,1424547341.567379,17.92559051513672,-44.29414367675781,11.05230712890625,228.8851165771484,219.7585601806641,10,16670.00348625,-0.09814453125,-0.9935455322265625,-0.1110076904296875,16669.98735425,0.1016784251547893,-0.1782709381054682,-0.2036279601085486,16669.93558283334,0.1872171675497874,-0.1010357944191408,1.351134045393608,0.2880480289459229,0.08371598273515701,-0.1980938315391541,0.01267042104154825,0.08285891264677048,0.006797506008297205,XTrueNorthZVertical,-0.6254910082548806,-0.01914466197544728,-0.04140883240620492,-0.7788965507269107,-0.02197828143835068,-0.9759711027145386,-0.2167889624834061,14.65224075317383,-39.5162353515625,10.31997585296631,2,192.168.1.118,10.97.20.126,1,0
2015-02-21 12:35:41.636,128,1424547340.505729,39.63855858685245,-106.3703816928371,2516.136,-1,-1,10,68.14097225297697,-9999,1424547341.619129,18.30073165893555,-44.3961181640625,11.6846923828125,229.2486114501953,220.1220550537109,10,16670.05253241667,-0.1351165771484375,-1.030960083007812,-0.0962982177734375,16670.03912808334,0.05042162891847022,-0.2165171271523141,-0.05333885557654301,16670.03912808334,0.1651751906447371,-0.0940043929453713,1.372420914685951,0.03442314639687538,-0.1967709064483643,-0.02174225077033043,-0.1161752343177795,-0.05820143595337868,0.09865749627351761,XTrueNorthZVertical,-0.6337515386327324,-0.01598502538570008,-0.03408239585542395,-0.7726201551617728,-0.01849883608520031,-0.9803880453109741,-0.1962069272994995,15.28790378570557,-38.96276092529297,11.4414234161377,2,192.168.1.118,10.97.20.126,1,0
2015-02-21 12:35:41.687,129,1424547340.505729,39.63855858685245,-106.3703816928371,2516.136,-1,-1,10,68.14097225297697,-9999,1424547341.670669,18.47124862670898,-44.12425231933594,11.6846923828125,230.0547180175781,220.9281616210938,10,16670.10155883334,-0.0998382568359375,-0.9904022216796875,-0.108154296875,16670.09090154167,0.08676685357921761,-0.1219541357979986,0.07998484754722182,16670.03912808334,0.1651751906447371,-0.0940043929453713,1.372420914685951,0.03442314639687538,-0.1967709064483643,-0.02174225077033043,-0.1161752343177795,-0.05820143595337868,0.09865749627351761,XTrueNorthZVertical,-0.6337515386327324,-0.01598502538570008,-0.03408239585542395,-0.7726201551617728,-0.01849883608520031,-0.9803880453109741,-0.1962069272994995,15.28790378570557,-38.96276092529297,11.4414234161377,2,192.168.1.118,10.97.20.126,1,0
2015-02-21 12:35:41.735,130,1424547340.505729,39.63855858685245,-106.3703816928371,2516.136,-1,-1,10,68.14097225297697,-9999,1424547341.722862,18.13021469116211,-44.15823364257812,11.55155944824219,230.6303405761719,221.5037841796875,10,16670.15071579167,-0.0820159912109375,-0.99212646484375,-0.1426849365234375,16670.14267329167,0.03444692343573891,-0.1931662643983904,0.1687240382297521,16670.09090154167,0.2067771471972893,-0.1430692195995083,1.379758645685442,0.07077065855264664,-0.1022095680236816,0.1115885227918625,-0.08549097180366516,-0.02383802086114883,0.08364420384168625,XTrueNorthZVertical,-0.6371160813838288,-0.01068102921820624,-0.03415433397966976,-0.7699367139919645,-0.02707311697304249,-0.9818077087402344,-0.1879380345344543,15.28510665893555,-38.92805862426758,11.5626335144043,2,192.168.1.118,10.97.20.126,1,0
2015-02-21 12:35:41.790,131,1424547340.505729,39.63855858685245,-106.3703816928371,2516.136,-1,-1,10,68.14097225297697,-9999,1424547341.774392,17.36288070678711,-44.549072265625,11.40179443359375,230.1294708251953,221.0029144287109,10,16670.199638375,-0.1268768310546875,-0.982208251953125,-0.15093994140625,16670.19444683333,-0.08210605535546994,-0.4190499954206222,0.1085824039647107,16670.14267329167,0.2731341985799197,-0.2143464899253715,1.383497448832162,0.01845267973840237,-0.1734229475259781,0.2003325670957565,-0.04712330177426338,-0.008578084409236908,0.04371532797813416,XTrueNorthZVertical,-0.6395351853952407,-0.004732684029783011,-0.03664838195287421,-0.7678732265608501,-0.03960765525698662,-0.9825108051300049,-0.1819446980953217,14.78683280944824,-39.01092529296875,11.92561531066895,2,192.168.1.118,10.97.20.126,1,0
2015-02-21 12:35:41.833,132,1424547340.505729,39.63855858685245,-106.3703816928371,2516.136,-1,-1,10,68.14097225297697,-9999,1424547341.826547,16.93658065795898,-44.97393798828125,11.21873474121094,229.8269653320312,220.7004089355469,10,16670.24870416667,-0.14959716796875,-0.951812744140625,-0.124176025390625,16670.24622066667,-0.1463862419544945,-0.1601691658600906,0.01653769773717405,16670.24622066667,0.3748555120458119,-0.3468468436645672,1.373317151999298,-0.1623786836862564,-0.1404269933700562,0.04816031828522682,-0.08571027964353561,0.02927032858133316,0.05304484069347382,XTrueNorthZVertical,-0.6383768027188637,0.01475718287617883,-0.0344651871210339,-0.768810432945662,-0.06669450551271439,-0.980564296245575,-0.1845145672559738,14.36330986022949,-39.26937484741211,11.59027481079102,2,192.168.1.118,10.97.20.126,1,0
2015-02-21 12:35:41.887,133,1424547340.505729,39.63855858685245,-106.3703816928371,2516.136,-1,-1,10,68.14097225297697,-9999,1424547341.878062,16.66375350952148,-44.80401611328125,10.68620300292969,230.032958984375,220.9064025878906,10,16670.29772504167,-0.1794586181640625,-1.071258544921875,-0.1378326416015625,16670.24622066667,-0.1463862419544945,-0.1601691658600906,0.01653769773717405,16670.24622066667,0.3748555120458119,-0.3468468436645672,1.373317151999298,-0.1623786836862564,-0.1404269933700562,0.04816031828522682,-0.08571027964353561,0.02927032858133316,0.05304484069347382,XTrueNorthZVertical,-0.6383768027188637,0.01475718287617883,-0.0344651871210339,-0.768810432945662,-0.06669450551271439,-0.980564296245575,-0.1845145672559738,14.36330986022949,-39.26937484741211,11.59027481079102,2,192.168.1.118,10.97.20.126,1,0
2015-02-21 12:35:41.931,134,1424547340.505729,39.63855858685245,-106.3703816928371,2516.136,-1,-1,10,68.14097225297697,-9999,1424547341.878062,16.66375350952148,-44.80401611328125,10.68620300292969,230.032958984375,220.9064025878906,10,16670.34689191667,-0.16790771484375,-1.033721923828125,-0.224029541015625,16670.34976591667,-0.001042094934548006,0.1707299311627998,0.009146626763877144,16670.29799204167,0.3971845195344139,-0.3656760876580442,1.36586314124361,-0.1546148955821991,0.1994693428277969,0.08360791951417923,-0.1066902428865433,-0.09218396246433258,0.05221419408917427,XTrueNorthZVertical,-0.6361804619076979,0.01584301949764098,-0.03800506388546668,-0.7704408357327328,-0.07276837527751923,-0.9790745973587036,-0.1900468319654465,14.01038265228271,-39.52415466308594,11.14777755737305,2,192.168.1.118,10.97.20.126,1,0
2015-02-21 12:35:41.986,135,1424547340.505729,39.63855858685245,-106.3703816928371,2516.136,-1,-1,10,68.14097225297697,-9999,1424547341.981699,16.69785690307617,-44.87197875976562,10.25352478027344,230.2461547851562,221.1195983886719,10,16670.39580066667,-0.1494140625,-0.9364013671875,-0.244903564453125,16670.34976591667,-0.001042094934548006,0.1707299311627998,0.009146626763877144,16670.34976591667,0.4361603860617476,-0.3957964786436421,1.35898217512491,-0.01703358814120293,0.1904719322919846,0.04078783094882965,-0.08685340732336044,-0.05607079714536667,-0.03004874475300312,XTrueNorthZVertical,-0.6346283442804747,0.01601458529786114,-0.04439432965281786,-0.7713751284644991,-0.08105430752038956,-0.9776511192321777,-0.193980798125267,13.72650241851807,-39.63136672973633,11.12028026580811,2,192.168.1.118,10.97.20.126,1,0
2015-02-21 12:35:42.029,136,1424547340.505729,39.63855858685245,-106.3703816928371,2516.136,-1,-1,10,68.14097225297697,-9999,1424547341.981699,16.69785690307617,-44.87197875976562,10.25352478027344,230.2461547851562,221.1195983886719,10,16670.44499429167,-0.059600830078125,-0.9117279052734375,-0.2034149169921875,16670.40153941667,0.1947489810342244,0.6824142566763022,-0.04081800371153547,16670.40153941667,0.4565553150748312,-0.3953536930802777,1.359831296576956,0.1787524074316025,0.7021593451499939,-0.009171117097139359,-0.06876540184020996,0.04142792150378227,-0.05165307596325874,XTrueNorthZVertical,-0.635050583111793,0.009247277753553572,-0.05227610129456985,-0.7706442120734739,-0.08064866065979004,-0.9778292775154114,-0.1932504922151566,13.4111499786377,-39.74353790283203,11.10472583770752,2,192.168.1.118,10.97.20.126,1,0
2015-02-21 12:35:42.088,137,1424547340.505729,39.63855858685245,-106.3703816928371,2516.136,-1,-1,10,68.14097225297697,-9999,1424547342.033024,17.31172943115234,-44.97393798828125,11.18545532226562,231.1605377197266,222.0339813232422,10,16670.493891125,0.0319976806640625,-0.99090576171875,-0.162933349609375,16670.45331120833,0.2366663376437446,1.260685066292838,-0.001670600951806706,16670.45331120833,0.47670841317996,-0.3620845240647608,1.370020020618496,0.2206698805093765,1.28043007850647,0.02997599542140961,0.01104224007576704,0.06818415224552155,-0.016915587708354,XTrueNorthZVertical,-0.6376671626874402,-0.01144224111857214,-0.06915686531424557,-0.7671160540319999,-0.07064306735992432,-0.9799120426177979,-0.1864993274211884,12.67487144470215,-39.67104721069336,12.17695903778076,2,192.168.1.118,10.97.20.126,1,0
2015-02-21 12:35:42.127,138,1424547340.505729,39.63855858685245,-106.3703816928371,2516.136,-1,-1,10,68.14097225297697,-9999,1424547342.085677,18.18137359619141,-44.99095153808594,12.46688079833984,230.7123718261719,221.5858154296875,10,16670.54294595834,0.0943145751953125,-1.0166015625,-0.1844024658203125,16670.55685854167,0.05269516954107086,0.8565138855663792,0.3758255593480911,16670.50508470833,0.5202760597503867,-0.3367465580358465,1.375294369945967,0.1122148036956787,1.361852526664734,0.2311668395996094,0.1129996106028557,-0.01885135285556316,0.01920972764492035,XTrueNorthZVertical,-0.6379993990166,-0.03581209140600133,-0.09316212555900465,-0.7635411756744351,-0.06418674439191818,-0.9809502959251404,-0.1833485215902328,12.14510345458984,-39.60628890991211,12.90585899353027,2,192.168.1.118,10.97.20.126,1,0
2015-02-21 12:35:42.192,139,1424547340.505729,39.63855858685245,-106.3703816928371,2516.136,-1,-1,10,68.14097225297697,-9999,1424547342.137408,18.82934188842773,-44.99095153808594,14.16432952880859,228.9618072509766,219.8352508544922,10,16670.59197429167,0.1025238037109375,-0.9771728515625,-0.2127685546875,16670.55685854167,0.05269516954107086,0.8565138855663792,0.3758255593480911,16670.55685854167,0.6087055557610734,-0.3668087713869088,1.373074279454735,0.03667309880256653,0.8761467933654785,0.4074541032314301,0.1757658123970032,-0.03555091097950935,-0.004985645413398743,XTrueNorthZVertical,-0.6368608014712389,-0.05219095800364799,-0.1176059944716232,-0.76016662722182,-0.07044965028762817,-0.9805166125297546,-0.1833688467741013,11.00729846954346,-39.61805725097656,13.85538768768311,2,192.168.1.118,10.97.20.126,1,0
2015-02-21 12:35:42.225,140,1424547340.505729,39.63855858685245,-106.3703816928371,2516.136,-1,-1,10,68.14097225297697,-9999,1424547342.188561,18.55651092529297,-45.36480712890625,15.19610595703125,226.9400482177734,217.8134918212891,10,16670.64113366667,0.0289154052734375,-0.967193603515625,-0.224822998046875,16670.60862995833,-0.06642802601817346,0.05313618901758799,0.3608474087452674,16670.60862995833,0.7007896718537308,-0.4352020540710667,1.363818387273855,-0.08244995772838593,0.07276896387338638,0.3924756646156311,0.1812281906604767,0.01044048368930817,-0.02494101226329803,XTrueNorthZVertical,-0.6355540000635709,-0.05382743366990394,-0.132418065840949,-0.7587089190539631,-0.08663895726203918,-0.9786564111709595,-0.1863474398851395,8.959641456604004,-39.86957168579102,14.58988857269287,2,192.168.1.118,10.97.20.126,1,0
2015-02-21 12:35:42.288,141,1424547340.505729,39.63855858685245,-106.3703816928371,2516.136,-1,-1,10,68.14097225297697,-9999,1424547342.24095,17.77212905883789,-45.670654296875,15.8284912109375,225.1941070556641,216.0675506591797,10,16670.69006004167,-0.0831146240234375,-0.982666015625,-0.233856201171875,16670.66040379167,-0.1149505547633082,-0.4498790145154885,0.3173654449953257,16670.66040379167,0.7430380752772265,-0.4882227484591476,1.350980442572108,-0.130975529551506,-0.4302442073822021,0.3489834368228912,0.1100141406059265,0.006058461964130402,-0.03348409757018089,XTrueNorthZVertical,-0.6338224391180441,-0.04451612111733021,-0.1340941765317837,-0.7604644831132925,-0.102277934551239,-0.9759376049041748,-0.1925748586654663,8.471017837524414,-40.00775527954102,14.50325012207031,2,192.168.1.118,10.97.20.126,1,0
2015-02-21 12:35:42.323,142,1424547340.505729,39.63855858685245,-106.3703816928371,2516.136,-1,-1,10,68.14097225297697,-9999,1424547342.293002,16.81722640991211,-45.90855407714844,15.22937774658203,224.4405212402344,215.31396484375,10,16670.73910083334,-0.1318511962890625,-0.95721435546875,-0.2429046630859375,16670.712177375,-0.05680655763193519,-0.3256239075356614,0.2431780328250974,16670.712177375,0.7925458566186064,-0.5568832733949515,1.338367580064882,-0.07283135503530502,-0.3059892952442169,0.2747956812381744,0.003138971514999866,-0.001285927835851908,-0.03691372647881508,XTrueNorthZVertical,-0.6334413642743493,-0.0313481137849682,-0.1337837052386101,-0.7614928112768949,-0.1217455416917801,-0.9731098413467407,-0.1955386698246002,17.19207763671875,-45.89364242553711,15.3897533416748,2,192.168.1.118,10.97.20.126,1,0
2015-02-21 12:35:42.387,143,1424547340.505729,39.63855858685245,-106.3703816928371,2516.136,-1,-1,10,68.14097225297697,-9999,1424547342.34424,15.98168563842773,-46.26544189453125,14.6136474609375,223.9407196044922,214.8141632080078,10,16670.788125125,-0.12371826171875,-0.9652252197265625,-0.241790771484375,16670.763949125,0.01203083022443296,0.04734274838222961,0.06605944452330649,16670.763949125,0.8207495881161303,-0.5883096623855381,1.332494494369604,-0.003993822727352381,0.06697716563940048,0.09767681360244751,-0.0006539106252603233,0.01592968590557575,-0.04229500517249107,XTrueNorthZVertical,-0.6333155003242239,-0.02697444211315017,-0.13585292661668,-0.761398638347108,-0.1309989243745804,-0.9717402458190918,-0.1963677108287811,16.60141944885254,-46.30503082275391,14.79443645477295,2,192.168.1.118,10.97.20.126,1,0
2015-02-21 12:35:42.422,144,1424547340.505729,39.63855858685245,-106.3703816928371,2516.136,-1,-1,10,68.14097225297697,-9999,1424547342.396702,15.50423431396484,-46.4013671875,13.98126983642578,223.8864898681641,214.7599334716797,10,16670.837272625,-0.121307373046875,-0.9786224365234375,-0.234832763671875,16670.81572266667,-0.009364473341045626,0.1196795299109619,-0.05437961893054598,16670.81572266667,0.8243315694852053,-0.5852030614011897,1.331247645783788,-0.02538896538317204,0.139313742518425,-0.02276256494224072,0.008147862739861012,0.002161097945645452,-0.04614343121647835,XTrueNorthZVertical,-0.6326666972210796,-0.02900110284187778,-0.1384771430130158,-0.7613907766381622,-0.1310574114322662,-0.9714451432228088,-0.197783574461937,16.44807434082031,-46.35175323486328,14.81937885284424,2,192.168.1.118,10.97.20.126,1,0
2015-02-21 12:35:42.488,145,1424547340.505729,39.63855858685245,-106.3703816928371,2516.136,-1,-1,10,68.14097225297697,-9999,1424547342.447798,15.69180679321289,-46.31640625,14.36403656005859,223.498046875,214.3714904785156,10,16670.886186,-0.1049346923828125,-0.94989013671875,-0.2268218994140625,16670.86749645833,-0.00450234013888796,0.120758376468553,-0.1265851066175373,16670.86749645833,0.8052792423137872,-0.5597576465289333,1.330420596393129,-0.02053019218146801,0.1403937190771103,-0.09496922045946121,0.009740703739225864,0.01346966344863176,-0.0263383761048317,XTrueNorthZVertical,-0.6309336242017164,-0.03248677079580257,-0.1394382051397911,-0.7625119055776944,-0.1264094114303589,-0.9712485671043396,-0.2017347365617752,16.34975051879883,-46.36444854736328,14.8883056640625,2,192.168.1.118,10.97.20.126,1,0
2015-02-21 12:35:42.519,146,1424547340.505729,39.63855858685245,-106.3703816928371,2516.136,-1,-1,10,68.14097225297697,-9999,1424547342.501379,15.98168563842773,-46.23143005371094,14.97978210449219,223.0636291503906,213.9370727539062,10,16670.93534554167,-0.0950469970703125,-0.953643798828125,-0.221435546875,16670.91926804167,0.04554591359475315,0.1659056148481213,-0.1742964364946339,16670.91926804167,0.760590672545874,-0.5065414292656107,1.330339847626417,0.02950450778007507,0.1855462789535522,-0.1426871120929718,0.01379240304231644,0.02486401051282883,-0.01668821834027767,XTrueNorthZVertical,-0.6279966172472292,-0.03872277850311182,-0.1391411533809695,-0.7646963987179713,-0.1155380085110664,-0.9712293744087219,-0.2082415968179703,16.59234809875488,-46.31249618530273,14.78123474121094,2,192.168.1.118,10.97.20.126,1,0
