loggingTime,loggingSample,locationTimestamp_since1970,locationLatitude,locationLongitude,locationAltitude,locationSpeed,locationCourse,locationVerticalAccuracy,locationHorizontalAccuracy,locationFloor,locationHeadingTimestamp_since1970,locationHeadingX,locationHeadingY,locationHeadingZ,locationTrueHeading,locationMagneticHeading,locationHeadingAccuracy,accelerometerTimestamp_sinceReboot,accelerometerAccelerationX,accelerometerAccelerationY,accelerometerAccelerationZ,gyroTimestamp_sinceReboot,gyroRotationX,gyroRotationY,gyroRotationZ,motionTimestamp_sinceReboot,motionYaw,motionRoll,motionPitch,motionRotationRateX,motionRotationRateY,motionRotationRateZ,motionUserAccelerationX,motionUserAccelerationY,motionUserAccelerationZ,motionAttitudeReferenceFrame,motionQuaternionX,motionQuaternionY,motionQuaternionZ,motionQuaternionW,motionGravityX,motionGravityY,motionGravityZ,motionMagneticFieldX,motionMagneticFieldY,motionMagneticFieldZ,motionMagneticFieldCalibrationAccuracy,IP_en0,IP_pdp_ip0,deviceOrientation,state
2015-02-21 18:59:30.141,1,1424570364.803433,39.63837359499627,-106.3702590192098,2517.14,-1,-1,10,165,-9999,1424570370.130662,-4.588180541992188,-40.35212707519531,-19.44105529785156,261.5668334960938,252.4407806396484,10,22237.70486270833,-0.524200439453125,-0.7805938720703125,-0.322509765625,22237.66357920834,0.02211915074976212,-0.007783088285756573,-0.05733439615998889,22237.66357920834,1.935151813585725,-1.030894523429722,0.8728650882220205,0.01591608673334122,0.001331264968030155,-0.02329550497233868,0.00145109707955271,0.0003651768784038723,-0.003850817214697599,XTrueNorthZVertical,0.5765246316319476,0.04945461299425667,0.5311494807034149,0.6189134506881612,-0.5512252449989319,-0.7661733031272888,-0.3303471803665161,-2.476633071899414,-40.74575805664062,-21.82751274108887,2,192.168.1.118,10.97.20.126,1,0
2015-02-21 18:59:30.158,2,1424570364.803433,39.63837359499627,-106.3702590192098,2517.14,-1,-1,10,165,-9999,1424570370.130662,-4.588180541992188,-40.35212707519531,-19.44105529785156,261.5668334960938,252.4407806396484,10,22237.753953,-0.55487060546875,-0.777587890625,-0.3378143310546875,22237.715361375,0.02490934462383814,-0.2570632221165525,-0.003341201903613412,22237.715361375,1.936615204929737,-1.039022992397888,0.8755630109171834,0.0187095794826746,-0.2479460388422012,0.03068744391202927,0.009658647701144218,-0.01235391013324261,0.01308457646518946,XTrueNorthZVertical,0.5790116973653761,0.04839695633461487,0.5285025724993894,0.618941240920443,-0.5521085858345032,-0.7679042816162109,-0.3248063921928406,-2.509502410888672,-40.7872200012207,-21.74617195129395,2,192.168.1.118,10.97.20.126,1,0
2015-02-21 18:59:30.237,3,1424570364.803433,39.63837359499627,-106.3702590192098,2517.14,-1,-1,10,165,-9999,1424570370.182785,-4.537017822265625,-40.47100830078125,-19.32456207275391,261.6652221679688,252.5391540527344,10,22237.803098875,-0.5205078125,-0.7684783935546875,-0.338623046875,22237.76714316667,0.01528308254763773,0.1092386068573062,-0.0199103249416504,22237.76714316667,1.937945214150836,-1.039547081343421,0.8742967933460605,0.00908392108976841,0.1183555200695992,0.01411775592714548,0.01419145800173283,-0.01295199617743492,-0.01304915826767683,XTrueNorthZVertical,0.5789459770334882,0.04813417481333841,0.5291154706155964,0.6184994062778177,-0.5531166195869446,-0.7670925855636597,-0.3250093162059784,-2.624231338500977,-40.79268646240234,-21.72236633300781,2,192.168.1.118,10.97.20.126,1,0
2015-02-21 18:59:30.257,4,1424570364.803433,39.63837359499627,-106.3702590192098,2517.14,-1,-1,10,165,-9999,1424570370.234355,-4.792861938476562,-40.92953491210938,-19.20808410644531,260.7003784179688,251.5743255615234,10,22237.85229191667,-0.561798095703125,-0.7620086669921875,-0.3360748291015625,22237.81892454167,0.009359413334974474,-0.1258719120776141,-0.01518747506450388,22237.81892454167,1.937378449820065,-1.039675029213901,0.8742070288380727,0.003160061547532678,-0.1167540699243546,0.0188383087515831,0.0279337652027607,-0.006860294844955206,0.0006173370638862252,XTrueNorthZVertical,0.5789812218943436,0.04789610222979954,0.5289281687162288,0.6186450843112068,-0.5532175898551941,-0.7670349478721619,-0.3249734044075012,-2.570049285888672,-40.7889404296875,-21.73587417602539,2,192.168.1.118,10.97.20.126,1,0
2015-02-21 18:59:30.335,5,1424570364.803433,39.63837359499627,-106.3702590192098,2517.14,-1,-1,10,165,-9999,1424570370.286261,-4.89520263671875,-41.03143310546875,-18.64228820800781,259.5758056640625,250.4497375488281,10,22237.901334375,-0.5099334716796875,-0.7610931396484375,-0.324920654296875,22237.87070683334,-0.006363889740853348,0.03011688981937908,-0.06313263048530941,22237.87070683334,1.936192705924474,-1.038871722334739,0.8736030435475963,-0.01256363093852997,0.03923432901501656,-0.02910595200955868,0.006800948176532984,0.002456635003909469,-0.01182601135224104,XTrueNorthZVertical,0.5787147839448622,0.0475697964976435,0.5289622040673613,0.6188904102440284,-0.5533555150032043,-0.7666472792625427,-0.3256526291370392,-2.612188339233398,-40.76518249511719,-21.77538299560547,2,192.168.1.118,10.97.20.126,1,0
2015-02-21 18:59:30.355,6,1424570364.803433,39.63837359499627,-106.3702590192098,2517.14,-1,-1,10,165,-9999,1424570370.33834,-4.741695404052734,-40.84461975097656,-18.65892791748047,259.7074890136719,250.5814361572266,10,22237.95053108333,-0.5322418212890625,-0.7666168212890625,-0.322662353515625,22237.92248825,0.05037102885775871,-0.2080685149101467,-0.05110579500251157,22237.92248825,1.93509448082426,-1.042057141082119,0.8761417442573186,0.04417148977518082,-0.1989495009183884,-0.01708336919546127,0.03358848765492439,0.009729934856295586,0.00645344378426671,XTrueNorthZVertical,0.579927370186671,0.04723886237001163,0.5269910866106066,0.6194620002407973,-0.5527077317237854,-0.7682748436927795,-0.3229054808616638,-2.572574615478516,-40.77379608154297,-21.76396942138672,2,192.168.1.118,10.97.20.126,1,0
2015-02-21 18:59:30.437,7,1424570364.803433,39.63837359499627,-106.3702590192098,2517.14,-1,-1,10,165,-9999,1424570370.390835,-4.639362335205078,-40.87860107421875,-18.29283905029297,259.7311706542969,250.6051177978516,10,22237.99956833334,-0.538421630859375,-0.7922515869140625,-0.312744140625,22237.97427,0.09207586521229057,-0.2030258193860817,-0.08678096833299503,22237.97427,1.937191481135591,-1.053103481535309,0.8806666795449022,0.08587757498025894,-0.1939049959182739,-0.05276457220315933,0.01511314138770103,-0.01466415356844664,0.001427722745575011,XTrueNorthZVertical,0.583387313933194,0.04616064763966056,0.523161147700801,0.6195408703279226,-0.5532143115997314,-0.7711634635925293,-0.3150568604469299,-2.643543243408203,-40.810302734375,-21.68690490722656,2,192.168.1.118,10.97.20.126,1,0
2015-02-21 18:59:30.453,8,1424570364.803433,39.63837359499627,-106.3702590192098,2517.14,-1,-1,10,165,-9999,1424570370.442048,-4.588188171386719,-40.9635009765625,-18.64228820800781,261.2310791015625,252.1050262451172,10,22238.04867320833,-0.5860748291015625,-0.78350830078125,-0.290435791015625,22238.026052,0.06590418223175487,-0.3388797918615308,-0.06373290699501327,22238.026052,1.93956674592872,-1.069847423670086,0.8872091657058007,0.05970906838774681,-0.3297565877437592,-0.02972630225121975,0.02977408654987812,-0.005770014598965645,-0.003197985701262951,XTrueNorthZVertical,0.5885478522536453,0.044171723281595,0.5171494586990698,0.6198522096082364,-0.5539745092391968,-0.7753121256828308,-0.3033205568790436,-2.744524002075195,-40.9715576171875,-21.36796569824219,2,192.168.1.118,10.97.20.126,1,0
2015-02-21 18:59:30.538,9,1424570364.803433,39.63837359499627,-106.3702590192098,2517.14,-1,-1,10,165,-9999,1424570370.496279,-5.031650543212891,-41.16728210449219,-18.17635345458984,261.1358642578125,252.0097961425781,10,22238.09781520833,-0.53814697265625,-0.784881591796875,-0.294586181640625,22238.07783354167,0.09976361233102231,-0.05309251317571068,-0.06978520688832734,22238.07783354167,1.942660135986915,-1.078111057285507,0.8889858353153205,0.09356509149074554,-0.04393256828188896,-0.03563150390982628,-0.05360861122608185,-0.03187081217765808,-0.0052643115632236,XTrueNorthZVertical,0.5908411956223597,0.04320270819253764,0.5151689270895178,0.6193877816366767,-0.5552476048469543,-0.776432991027832,-0.2980804145336151,-2.88011360168457,-41.0164680480957,-21.26370620727539,2,192.168.1.118,10.97.20.126,1,0
2015-02-21 18:59:30.551,10,1424570364.803433,39.63837359499627,-106.3702590192098,2517.14,-1,-1,10,165,-9999,1424570370.496279,-5.031650543212891,-41.16728210449219,-18.17635345458984,261.1358642578125,252.0097961425781,10,22238.14691483333,-0.5507965087890625,-0.783935546875,-0.28662109375,22238.12961516667,0.004910070101779091,-0.002087119346295099,-0.0244206545638086,22238.12961516667,1.943875308878926,-1.079310702022965,0.889976430416912,-0.001288333092816174,0.007072262931615114,0.009733677841722965,-0.002675510477274656,-0.005093356128782034,0.009254953823983669,XTrueNorthZVertical,0.591249747981904,0.04356889096409976,0.5149101850822408,0.6191873936612919,-0.5549263954162598,-0.7770569324493408,-0.2970509827136993,-2.859777450561523,-41.05742645263672,-21.1872673034668,2,192.168.1.118,10.97.20.126,1,0
2015-02-21 18:59:30.637,11,1424570364.803433,39.63837359499627,-106.3702590192098,2517.14,-1,-1,10,165,-9999,1424570370.622996,-5.526283264160156,-40.84461975097656,-18.25953674316406,262.2001953125,253.0741271972656,10,22238.19604733333,-0.561981201171875,-0.7851715087890625,-0.287353515625,22238.18139741667,0.002645051594666699,-0.0303864017216951,0.004431500053891852,22238.18139741667,1.944319782785948,-1.080544423518957,0.8889278192223942,-0.003552730195224285,-0.0212271623313427,0.0385848768055439,0.006297889165580273,-0.003754909615963697,0.01038792822510004,XTrueNorthZVertical,0.5914247705146751,0.04291770761414705,0.5149799556334365,0.6190076707195095,-0.5560110211372375,-0.7763964533805847,-0.296749621629715,-2.909053802490234,-41.05302429199219,-21.18909454345703,2,192.168.1.118,10.97.20.126,1,0
2015-02-21 18:59:30.650,12,1424570364.803433,39.63837359499627,-106.3702590192098,2517.14,-1,-1,10,165,-9999,1424570370.622996,-5.526283264160156,-40.84461975097656,-18.25953674316406,262.2001953125,253.0741271972656,10,22238.24514075,-0.5584716796875,-0.7847442626953125,-0.288055419921875,22238.23317891667,-0.01471369870657878,-0.001485244939937191,0.02575063721219417,22238.18139741667,1.944319782785948,-1.080544423518957,0.8889278192223942,-0.003552730195224285,-0.0212271623313427,0.0385848768055439,0.006297889165580273,-0.003754909615963697,0.01038792822510004,XTrueNorthZVertical,0.5914247705146751,0.04291770761414705,0.5149799556334365,0.6190076707195095,-0.5560110211372375,-0.7763964533805847,-0.296749621629715,-2.909053802490234,-41.05302429199219,-21.18909454345703,2,192.168.1.118,10.97.20.126,1,0
2015-02-21 18:59:30.738,13,1424570364.803433,39.63837359499627,-106.3702590192098,2517.14,-1,-1,10,165,-9999,1424570370.726357,-5.372776031494141,-40.89556884765625,-17.84352111816406,260.5427551269531,251.4167022705078,10,22238.29429120833,-0.56439208984375,-0.7712860107421875,-0.288177490234375,22238.284960625,-0.01839205680419623,-0.004729774095980727,0.002598446275590313,22238.284960625,1.946770898986131,-1.083333797173061,0.8851693564130264,-0.02458561956882477,0.004426576197147369,0.03675194457173347,-0.006156176328659058,0.002751475665718317,0.006019632332026958,XTrueNorthZVertical,0.5916160800068654,0.04134363892442969,0.5159764827018705,0.6181014695140273,-0.5594108104705811,-0.7740222215652466,-0.2965622246265411,-3.043037414550781,-41.04355621337891,-21.18861389160156,2,192.168.1.118,10.97.20.126,1,0
2015-02-21 18:59:30.750,14,1424570364.803433,39.63837359499627,-106.3702590192098,2517.14,-1,-1,10,165,-9999,1424570370.726357,-5.372776031494141,-40.89556884765625,-17.84352111816406,260.5427551269531,251.4167022705078,10,22238.34351995834,-0.5596771240234375,-0.7637786865234375,-0.2888336181640625,22238.33674258333,-0.01359383946820046,0.01453020690747232,0.00821958038842056,22238.284960625,1.946770898986131,-1.083333797173061,0.8851693564130264,-0.02458561956882477,0.004426576197147369,0.03675194457173347,-0.006156176328659058,0.002751475665718317,0.006019632332026958,XTrueNorthZVertical,0.5916160800068654,0.04134363892442969,0.5159764827018705,0.6181014695140273,-0.5594108104705811,-0.7740222215652466,-0.2965622246265411,-3.043037414550781,-41.04355621337891,-21.18861389160156,2,192.168.1.118,10.97.20.126,1,0
2015-02-21 18:59:30.836,15,1424570364.803433,39.63837359499627,-106.3702590192098,2517.14,-1,-1,10,165,-9999,1424570370.77846,-5.696849822998047,-40.87860107421875,-18.42596435546875,260.5938415527344,251.4677734375,10,22238.39253570834,-0.5764007568359375,-0.758453369140625,-0.2902374267578125,22238.38852433334,-0.004995024940552619,0.01337705815546801,-0.0003289003946247859,22238.33674258333,1.947106395646453,-1.082800774232752,0.8820502044000121,-0.01978710852563381,0.02368508093059063,0.04237582162022591,-0.002338257851079106,0.01145394891500473,0.006364905275404453,XTrueNorthZVertical,0.5910762758204086,0.04041528362374622,0.5171189301821607,0.6177244474505952,-0.5613824725151062,-0.7720435261726379,-0.2979908883571625,-3.189435958862305,-40.99816131591797,-21.25486755371094,2,192.168.1.118,10.97.20.126,1,0
2015-02-21 18:59:30.845,16,1424570364.803433,39.63837359499627,-106.3702590192098,2517.14,-1,-1,10,165,-9999,1424570370.829544,-5.816238403320312,-40.86161804199219,-18.24291229248047,260.6349182128906,251.5088500976562,10,22238.44162345833,-0.5609893798828125,-0.766815185546875,-0.3097991943359375,22238.440306,0.0057774616688179,0.05825265410384822,-0.008820655846451446,22238.38852433334,1.947735928929002,-1.083015486467833,0.8796648603501726,-0.0111878290772438,0.02253017388284206,0.03383055701851845,-0.008797266520559788,0.007952058687806129,0.007289711851626635,XTrueNorthZVertical,0.5908161467642331,0.03962309071475646,0.5179228290953449,0.6173510139505283,-0.563071608543396,-0.7705252766609192,-0.298732578754425,-3.273355484008789,-40.97555541992188,-21.28567123413086,2,192.168.1.118,10.97.20.126,1,0
2015-02-21 18:59:30.933,17,1424570364.803433,39.63837359499627,-106.3702590192098,2517.14,-1,-1,10,165,-9999,1424570370.882102,-5.867408752441406,-40.98048400878906,-17.86018371582031,260.6384887695312,251.5124206542969,10,22238.49076925,-0.5415496826171875,-0.7688751220703125,-0.30364990234375,22238.49208791667,0.03800250980710371,0.008596950314884789,-0.02841939094056257,22238.440306,1.949623036055946,-1.081953255657144,0.8772446827866952,-0.0004155585775151849,0.06740442663431168,0.02534201554954052,-0.003212959272786975,0.005369562190026045,0.001255176030099392,XTrueNorthZVertical,0.5901953449458928,0.03958243443538329,0.5195004472163901,0.6166214486614418,-0.5643987059593201,-0.7689803838729858,-0.3002053797245026,-3.333385467529297,-40.96164703369141,-21.30311965942383,2,192.168.1.118,10.97.20.126,1,0
2015-02-21 18:59:30.944,18,1424570364.803433,39.63837359499627,-106.3702590192098,2517.14,-1,-1,10,165,-9999,1424570370.933389,-5.696849822998047,-40.70878601074219,-17.89345550537109,260.6204223632812,251.4943542480469,10,22238.539865,-0.5365447998046875,-0.753204345703125,-0.3087005615234375,22238.49208791667,0.03800250980710371,0.008596950314884789,-0.02841939094056257,22238.49208791667,1.949761088746446,-1.078787824944331,0.8780211745674906,0.03180740401148796,0.0177522674202919,0.005737508647143841,0.02136949636042118,0.0006014377577230334,-0.001941635506227612,XTrueNorthZVertical,0.5894687205786354,0.04089613730620389,0.5202580091389372,0.6165920671388866,-0.5629191994667053,-0.7694765329360962,-0.3017082810401917,-3.269702911376953,-40.96913909912109,-21.298583984375,2,192.168.1.118,10.97.20.126,1,0
2015-02-21 18:59:31.037,19,1424570364.803433,39.63837359499627,-106.3702590192098,2517.14,-1,-1,10,165,-9999,1424570370.98573,-5.662738800048828,-41.18429565429688,-18.0931396484375,260.6221313476562,251.4960632324219,10,22238.58900245834,-0.545867919921875,-0.774993896484375,-0.2884063720703125,22238.595651125,0.03325222937072937,-0.02638180639054295,-0.1143755782839601,22238.5438695,1.950481576570126,-1.077265724823065,0.8792105725144933,0.03051475249230862,0.02541953697800636,-0.01892195828258991,0.0251081008464098,0.01703130826354027,-0.00656961090862751,XTrueNorthZVertical,0.5892094397891988,0.04203285235010918,0.5205939325767658,0.6164799045142244,-0.5616528987884521,-0.7702356576919556,-0.3021309375762939,-3.200519561767578,-40.99204254150391,-21.26499938964844,2,192.168.1.118,10.97.20.126,1,0
2015-02-21 18:59:31.042,20,1424570364.803433,39.63837359499627,-106.3702590192098,2517.14,-1,-1,10,165,-9999,1424570371.037336,-5.526283264160156,-41.1163330078125,-18.05985260009766,260.6324768066406,251.5064239501953,10,22238.63809733334,-0.5234832763671875,-0.7727813720703125,-0.2918853759765625,22238.595651125,0.03325222937072937,-0.02638180639054295,-0.1143755782839601,22238.595651125,1.949169951962555,-1.075721236356113,0.883390391682805,0.02705484256148338,-0.01722141541540623,-0.08022812753915787,0.01247988361865282,-0.002099259523674846,0.01305949129164219,XTrueNorthZVertical,0.5893686570338919,0.04372247312584909,0.5194671823299636,0.6171602853805411,-0.5583478212356567,-0.7728946208953857,-0.3014658689498901,-3.107864379882812,-41.00536346435547,-21.25305366516113,2,192.168.1.118,10.97.20.126,1,0
2015-02-21 18:59:31.105,21,1424570364.803433,39.63837359499627,-106.3702590192098,2517.14,-1,-1,10,165,-9999,1424570371.089292,-5.526283264160156,-41.45597839355469,-17.32765960693359,259.7857055664062,250.6596527099609,10,22238.68724675,-0.5433349609375,-0.78363037109375,-0.27459716796875,22238.64743341667,0.07673206259179904,-0.1172350143463781,-0.2185794791004715,22238.64743341667,1.947631144907964,-1.077280502597956,0.8919370158786111,0.07053817808628082,-0.1080745086073875,-0.1844382286071777,0.02949616871774197,0.005508097819983959,0.005569310393184423,XTrueNorthZVertical,0.5908903929504932,0.04605649009035383,0.5161169190418743,0.6183451374734734,-0.5529794692993164,-0.7782894968986511,-0.2974546849727631,-2.753829956054688,-41.11566162109375,-21.08813858032227,2,192.168.1.118,10.97.20.126,1,0
2015-02-21 18:59:31.141,22,1424570364.803433,39.63837359499627,-106.3702590192098,2517.14,-1,-1,10,165,-9999,1424570371.089292,-5.526283264160156,-41.45597839355469,-17.32765960693359,259.7857055664062,250.6596527099609,10,22238.7364385,-0.5355682373046875,-0.77520751953125,-0.2829742431640625,22238.69921483333,0.08874504963692847,-0.2809917245109145,-0.2927522438847044,22238.69921483333,1.944187142439132,-1.085327395472012,0.9058649894515104,0.08255481719970703,-0.2718307077884674,-0.2586183249950409,-0.008393620140850544,0.004976730328053236,0.01235041860491037,XTrueNorthZVertical,0.5947726678232839,0.04786468681796149,0.5087036585594478,0.6206247441517465,-0.5457140207290649,-0.786959171295166,-0.2879088819026947,-2.444480895996094,-41.23116302490234,-20.89992141723633,2,192.168.1.118,10.97.20.126,1,0
2015-02-21 18:59:31.206,23,1424570364.803433,39.63837359499627,-106.3702590192098,2517.14,-1,-1,10,165,-9999,1424570371.193262,-4.554084777832031,-41.54087829589844,-17.34429931640625,262.8752746582031,253.7492065429688,10,22238.78546508334,-0.4817047119140625,-0.7905120849609375,-0.2712554931640625,22238.750996625,0.09713453970289608,-0.2586504661262398,-0.4095361187424231,22238.750996625,1.938400849122722,-1.093984634163068,0.9212444574644136,0.090943843126297,-0.2494905591011047,-0.3753989636898041,0.02078227698802948,0.01890436001121998,-0.0002156621776521206,XTrueNorthZVertical,0.598978927108901,0.04930840831489092,0.4999063912042553,0.6236077017653454,-0.5373685956001282,-0.7963549494743347,-0.2775858640670776,-2.313591003417969,-41.30485153198242,-20.76891136169434,2,192.168.1.118,10.97.20.126,1,0
2015-02-21 18:59:31.238,24,1424570364.803433,39.63837359499627,-106.3702590192098,2517.14,-1,-1,10,165,-9999,1424570371.193262,-4.554084777832031,-41.54087829589844,-17.34429931640625,262.8752746582031,253.7492065429688,10,22238.83454995833,-0.44573974609375,-0.8078460693359375,-0.2762451171875,22238.802778625,0.08180538446839999,-0.3731695887929551,-0.5179299709019562,22238.802778625,1.927571935250159,-1.099714919949947,0.9431264499013793,0.0756153017282486,-0.3640082478523254,-0.4837979674339294,0.0466407835483551,0.02355519868433475,-0.00983895268291235,XTrueNorthZVertical,0.6033002736483507,0.05258005896285833,0.4884470460028074,0.6282385218891106,-0.5232948064804077,-0.8093981146812439,-0.2665282487869263,-1.479276657104492,-41.48889541625977,-20.47618865966797,2,192.168.1.118,10.97.20.126,1,0
2015-02-21 18:59:31.306,25,1424570364.803433,39.63837359499627,-106.3702590192098,2517.14,-1,-1,10,165,-9999,1424570371.297557,-2.763191223144531,-42.27114868164062,-16.82845306396484,266.0152282714844,256.88916015625,10,22238.88369225,-0.4546661376953125,-0.8167877197265625,-0.241546630859375,22238.854560375,-0.09786397952546878,-0.5313981091667049,-0.6860859568711944,22238.854560375,1.903752946608775,-1.102941396817824,0.9689170629473016,-0.1040544137358665,-0.522236168384552,-0.6519556045532227,0.05246734246611595,-0.008215967565774918,-0.02016001380980015,XTrueNorthZVertical,0.6077851902369317,0.05411516741296344,0.4723600163518605,0.6360383369385759,-0.5053482055664062,-0.8242730498313904,-0.2553374171257019,-0.8353538513183594,-41.5330810546875,-20.42293167114258,2,192.168.1.118,10.97.20.126,1,0
2015-02-21 18:59:31.350,26,1424570364.803433,39.63837359499627,-106.3702590192098,2517.14,-1,-1,10,165,-9999,1424570371.297557,-2.763191223144531,-42.27114868164062,-16.82845306396484,266.0152282714844,256.88916015625,10,22238.932767,-0.5660247802734375,-0.9214630126953125,-0.1896209716796875,22238.90634179167,-0.1702204684462676,-0.5625006349055224,-0.8282862422243024,22238.90634179167,1.858342277978282,-1.09233225698617,0.9992268594582493,-0.1764107495546341,-0.5533387660980225,-0.7941563129425049,0.005428253673017025,-0.03469467535614967,0.02678867802023888,XTrueNorthZVertical,0.6102721640811993,0.05510132953989667,0.4519678488983048,0.6482721902964989,-0.4802054762840271,-0.8410530090332031,-0.2490634620189667,-0.2928447723388672,-41.46273040771484,-20.58026695251465,2,192.168.1.118,10.97.20.126,1,0
2015-02-21 18:59:31.415,27,1424570371.391337,39.63827351110771,-106.3701769229947,2518.255,-1,-1,10,65,-9999,1424570371.350754,-1.671600341796875,-42.30511474609375,-17.49408721923828,269.5504455566406,260.4243774414062,10,22238.981906,-0.4543609619140625,-0.8399200439453125,-0.2327880859375,22238.95812395833,-0.09370225769000197,-0.4237062662705167,-0.8343736958440054,22238.95812395833,1.812704752427208,-1.080017923809029,1.029687345356675,-0.09989244490861893,-0.4145445227622986,-0.8002440929412842,-0.099131740629673,-0.01404731627553701,0.03378255665302277,XTrueNorthZVertical,0.6127141287044635,0.05655024991633347,0.4315987253189448,0.6596256862360563,-0.4542892873287201,-0.8571379780769348,-0.2427669316530228,1.263301849365234,-41.18037414550781,-21.10383224487305,2,192.168.1.118,10.97.20.126,1,0
2015-02-21 18:59:31.454,28,1424570371.391337,39.63827351110771,-106.3701769229947,2518.255,-1,-1,10,65,-9999,1424570371.425408,0.2728042602539062,-41.99943542480469,-18.0931396484375,275.2791137695312,266.1530456542969,10,22239.030981125,-0.387237548828125,-0.871673583984375,-0.2241973876953125,22239.00990554167,-0.04437651956009935,-0.2620233596468251,-0.8948114736222638,22239.00990554167,1.768268552555577,-1.055257937829782,1.065190915733679,-0.05056668817996979,-0.2528619766235352,-0.8606813549995422,0.006500218063592911,0.01539960037916899,0.0132092023268342,XTrueNorthZVertical,0.6135751437481193,0.06430864947201533,0.4135661087620187,0.6695917070723015,-0.4213866889476776,-0.874881386756897,-0.2387798875570297,2.510477066040039,-41.05994415283203,-21.22661781311035,2,192.168.1.118,10.97.20.126,1,0
2015-02-21 18:59:31.496,29,1424570371.391337,39.63827351110771,-106.3701769229947,2518.255,-1,-1,10,65,-9999,1424570371.480855,1.500843048095703,-41.86360168457031,-18.29282379150391,279.4215087890625,270.2954406738281,10,22239.08012104167,-0.36614990234375,-0.913055419921875,-0.2100982666015625,22239.061687125,-0.1536763791224774,-0.2676205253098446,-0.9421792557187401,22239.061687125,1.709456107094689,-1.016793973124025,1.101008065606561,-0.1598662436008453,-0.2584593296051025,-0.9080497026443481,0.01163360010832548,0.005189552437514067,0.02754492126405239,XTrueNorthZVertical,0.6129252400013561,0.07239928708435291,0.394471353368671,0.6807887959488198,-0.3849856555461884,-0.8916641473770142,-0.2381619811058044,3.426681518554688,-40.93754959106445,-21.33461380004883,2,192.168.1.118,10.97.20.126,1,0
2015-02-21 18:59:31.555,30,1424570371.391337,39.63827351110771,-106.3701769229947,2518.255,-1,-1,10,65,-9999,1424570371.480855,1.500843048095703,-41.86360168457031,-18.29282379150391,279.4215087890625,270.2954406738281,10,22239.12921145833,-0.2964630126953125,-0.9550933837890625,-0.2201690673828125,22239.11346933333,-0.1219940832143497,-0.2382434616412896,-1.056736195272935,22239.061687125,1.709456107094689,-1.016793973124025,1.101008065606561,-0.1598662436008453,-0.2584593296051025,-0.9080497026443481,0.01163360010832548,0.005189552437514067,0.02754492126405239,XTrueNorthZVertical,0.6129252400013561,0.07239928708435291,0.394471353368671,0.6807887959488198,-0.3849856555461884,-0.8916641473770142,-0.2381619811058044,3.426681518554688,-40.93754959106445,-21.33461380004883,2,192.168.1.118,10.97.20.126,1,0
2015-02-21 18:59:31.595,31,1424570371.391337,39.63827351110771,-106.3701769229947,2518.255,-1,-1,10,65,-9999,1424570371.554279,4.434505462646484,-41.82962036132812,-18.62564086914062,283.0761108398438,273.9500427246094,10,22239.178366375,-0.25311279296875,-0.978759765625,-0.2371826171875,22239.16525108333,0.02906307697603473,-0.2413348590346535,-1.097295339726514,22239.16525108333,1.551088353326786,-0.8962621104985385,1.178153490097641,0.02287124656140804,-0.2321358323097229,-1.063008666038513,0.03967917338013649,-0.04666474089026451,0.02181843481957912,XTrueNorthZVertical,0.6097592757678049,0.09333003310510792,0.3527370454815957,0.7036048231782051,-0.2988344430923462,-0.9239010810852051,-0.2389662563800812,7.54841136932373,-39.99518203735352,-22.04989433288574,2,192.168.1.118,10.97.20.126,1,0
2015-02-21 18:59:31.649,32,1424570371.391337,39.63827351110771,-106.3701769229947,2518.255,-1,-1,10,65,-9999,1424570371.606649,6.87353515625,-41.50694274902344,-18.67556762695312,286.2229614257812,277.0968933105469,10,22239.22745104167,-0.221893310546875,-0.9650726318359375,-0.2114105224609375,22239.21703254167,0.1387568180636355,-0.2999531651561697,-1.050753403884072,22239.16525108333,1.551088353326786,-0.8962621104985385,1.178153490097641,0.02287124656140804,-0.2321358323097229,-1.063008666038513,0.03967917338013649,-0.04666474089026451,0.02181843481957912,XTrueNorthZVertical,0.6097592757678049,0.09333003310510792,0.3527370454815957,0.7036048231782051,-0.2988344430923462,-0.9239010810852051,-0.2389662563800812,7.54841136932373,-39.99518203735352,-22.04989433288574,2,192.168.1.118,10.97.20.126,1,0
2015-02-21 18:59:31.696,33,1424570371.391337,39.63827351110771,-106.3701769229947,2518.255,-1,-1,10,65,-9999,1424570371.661481,8.357425689697266,-41.35408020019531,-18.29282379150391,288.5695495605469,279.4434814453125,10,22239.27670941667,-0.1980743408203125,-0.9748077392578125,-0.2264862060546875,22239.26881466667,0.1870812076236683,-0.154805293108562,-0.9040494468115305,22239.21703254167,1.465814852872465,-0.8307878442409571,1.221060629374862,0.1325652301311493,-0.2907541692256927,-1.016467571258545,0.02808893285691738,-0.01459247712045908,-0.002855343511328101,XTrueNorthZVertical,0.6110738954523008,0.1051920972985267,0.3295994266218893,0.7119603744958047,-0.2530339956283569,-0.9394633173942566,-0.2310466319322586,8.652736663818359,-39.761962890625,-22.06597900390625,2,192.168.1.118,10.97.20.126,1,0
2015-02-21 18:59:31.746,34,1424570371.391337,39.63827351110771,-106.3701769229947,2518.255,-1,-1,10,65,-9999,1424570371.736106,10.77940368652344,-40.8446044921875,-17.42750549316406,292.6545715332031,283.5285034179688,10,22239.325694375,-0.0960845947265625,-0.9781494140625,-0.2230224609375,22239.32059629167,0.2368093493942819,-0.2543715652028094,-0.9187503623448769,22239.26881466667,1.38474008956347,-0.7649112832157183,1.259644385742793,0.180889755487442,-0.1456064283847809,-0.8697640299797058,-0.001710136188194156,-0.03279019892215729,0.006762706208974123,XTrueNorthZVertical,0.6131460200222012,0.1166830793148349,0.3094105956920203,0.71742744603552,-0.2120044678449631,-0.9519815444946289,-0.2208740413188934,11.12534809112549,-39.27213287353516,-21.83385467529297,2,192.168.1.118,10.97.20.126,1,0
2015-02-21 18:59:31.793,35,1424570371.391337,39.63827351110771,-106.3701769229947,2518.255,-1,-1,10,65,-9999,1424570371.736106,10.77940368652344,-40.8446044921875,-17.42750549316406,292.6545715332031,283.5285034179688,10,22239.37484883333,-0.0898284912109375,-1.02545166015625,-0.214874267578125,22239.37237804167,0.1351181410662602,-0.4904442842395754,-0.8771352745190808,22239.37237804167,1.184477549324606,-0.5995423943764281,1.32984997370653,0.1289267688989639,-0.4812454879283905,-0.8428508043289185,0.04753348603844643,-0.04034676030278206,-0.02179100178182125,XTrueNorthZVertical,0.6188166230052161,0.1362483034763865,0.2685365558765647,0.7255277699503836,-0.1346459090709686,-0.9711126089096069,-0.1970047801733017,13.33351135253906,-38.82147216796875,-21.39863586425781,2,192.168.1.118,10.97.20.126,1,0
2015-02-21 18:59:31.847,36,1424570371.391337,39.63827351110771,-106.3701769229947,2518.255,-1,-1,10,65,-9999,1424570371.788471,12.86026382446289,-40.36907958984375,-17.02812194824219,296.0747985839844,286.94873046875,10,22239.42394241667,-0.06341552734375,-1.025970458984375,-0.2063751220703125,22239.37237804167,0.1351181410662602,-0.4904442842395754,-0.8771352745190808,22239.37237804167,1.184477549324606,-0.5995423943764281,1.32984997370653,0.1289267688989639,-0.4812454879283905,-0.8428508043289185,0.04753348603844643,-0.04034676030278206,-0.02179100178182125,XTrueNorthZVertical,0.6188166230052161,0.1362483034763865,0.2685365558765647,0.7255277699503836,-0.1346459090709686,-0.9711126089096069,-0.1970047801733017,13.33351135253906,-38.82147216796875,-21.39863586425781,2,192.168.1.118,10.97.20.126,1,0
2015-02-21 18:59:31.887,37,1424570371.391337,39.63827351110771,-106.3701769229947,2518.255,-1,-1,10,65,-9999,1424570371.842849,14.29298400878906,-40.06338500976562,-17.12796020507812,298.4783325195312,289.3522644042969,10,22239.47321258334,-0.050537109375,-1.017181396484375,-0.1900787353515625,22239.475941625,-0.1368872789783999,-0.5833406693837194,-0.7532040079278074,22239.42416004167,1.032577574514913,-0.4784195749656834,1.353305588613946,-0.03020156174898148,-0.566182553768158,-0.8257427215576172,0.03592471405863762,-0.04952848702669144,-0.01482184696942568,XTrueNorthZVertical,0.6202555375914719,0.1396654240983145,0.2449036035641387,0.7319828565470973,-0.09934023767709732,-0.9764419794082642,-0.1915532797574997,14.96971893310547,-38.08836364746094,-21.63272476196289,2,192.168.1.118,10.97.20.126,1,0
2015-02-21 18:59:31.941,38,1424570371.391337,39.63827351110771,-106.3701769229947,2518.255,-1,-1,10,65,-9999,1424570371.917341,15.53809356689453,-39.33311462402344,-18.00991821289062,304.6276245117188,295.5015563964844,10,22239.5221955,-0.067169189453125,-0.9871368408203125,-0.16168212890625,22239.475941625,-0.1368872789783999,-0.5833406693837194,-0.7532040079278074,22239.475941625,0.8516671284803264,-0.3305323743779038,1.36385923863202,-0.143078476190567,-0.5741420388221741,-0.7189202904701233,0.0161453653126955,-0.0385165773332119,0.004262926056981087,XTrueNorthZVertical,0.6189423593361617,0.1404974202652733,0.2218961584617872,0.7402249424986209,-0.06668247282505035,-0.9786648154258728,-0.1943416595458984,15.75793933868408,-37.44650650024414,-22.18642807006836,2,192.168.1.118,10.97.20.126,1,0
2015-02-21 18:59:31.985,39,1424570371.391337,39.63827351110771,-106.3701769229947,2518.255,-1,-1,10,65,-9999,1424570371.969535,16.69791412353516,-38.85760498046875,-18.57570648193359,306.8123168945312,297.6862487792969,10,22239.57133983334,-0.013427734375,-0.9669189453125,-0.1788330078125,22239.52772325,-0.1633561707365884,-0.453995995244642,-0.5619315173805723,22239.52772325,0.6969904167546604,-0.2049190890379115,1.364238964060372,-0.1695464253425598,-0.4447981417179108,-0.5276471376419067,-0.02543547749519348,-0.008394071832299232,0.03911864757537842,XTrueNorthZVertical,0.6165466198038103,0.1395345003726037,0.2030772281477997,0.7477700636833939,-0.04173371195793152,-0.978742778301239,-0.2008007764816284,16.15589714050293,-37.01153182983398,-22.62574768066406,2,192.168.1.118,10.97.20.126,1,0
2015-02-21 18:59:32.038,40,1424570371.391337,39.63827351110771,-106.3701769229947,2518.255,-1,-1,10,65,-9999,1424570372.021062,17.39722061157227,-38.26318359375,-19.59078979492188,309.7138671875,300.5877990722656,10,22239.620424875,-0.00958251953125,-0.950531005859375,-0.191162109375,22239.57950558333,-0.0624972002492165,-0.2486713352056038,-0.2614933905898993,22239.57950558333,0.6023618261709877,-0.1287001781009384,1.362210352622026,-0.06868527084589005,-0.239474818110466,-0.2272081673145294,0.01314958557486534,0.0114057594910264,0.02653125859797001,XTrueNorthZVertical,0.6148845948801495,0.1386895874666032,0.191314621107062,0.7523834720254529,-0.02657731994986534,-0.9783247113227844,-0.2053642719984055,16.74423217773438,-36.21322250366211,-23.47389984130859,2,192.168.1.118,10.97.20.126,1,0
2015-02-21 18:59:32.085,41,1424570371.391337,39.63827351110771,-106.3701769229947,2518.255,-1,-1,10,65,-9999,1424570372.073792,17.56778717041016,-38.26321411132812,-19.55750274658203,309.9861755371094,300.860107421875,10,22239.66957383334,-0.03411865234375,-0.9603118896484375,-0.2075042724609375,22239.68306875,0.1150605433163285,0.08517162008626016,0.2263830737266217,22239.63128704167,0.5874539949564325,-0.1213324559154251,1.363124665626801,0.06433390080928802,-0.06973429769277573,0.08385270088911057,0.01058149058371782,0.02282515168190002,0.0080722626298666,XTrueNorthZVertical,0.6155472103370333,0.1369977414676415,0.1878649699512471,0.7530206130400912,-0.02495526894927025,-0.9785136580467224,-0.2046664953231812,16.72993659973145,-36.12252426147461,-23.62336730957031,2,192.168.1.118,10.97.20.126,1,0
2015-02-21 18:59:32.140,42,1424570371.391337,39.63827351110771,-106.3701769229947,2518.255,-1,-1,10,65,-9999,1424570372.126024,17.44838714599609,-38.45004272460938,-19.60743713378906,309.7959594726562,300.6698913574219,10,22239.71866670833,-0.0549468994140625,-0.977996826171875,-0.20977783203125,22239.68306875,0.1150605433163285,0.08517162008626016,0.2263830737266217,22239.68306875,0.6362366695920996,-0.1682113152382524,1.366483362310636,0.1088756769895554,0.09436743706464767,0.2606644332408905,-0.003110406687483191,0.01585222221910954,-0.008663533255457878,XTrueNorthZVertical,0.6178926173421532,0.1348823592230597,0.1913395758582433,0.7506028705206694,-0.03396845236420631,-0.9792006015777588,-0.2000309228897095,16.58985328674316,-36.22975158691406,-23.55785751342773,2,192.168.1.118,10.97.20.126,1,0
2015-02-21 18:59:32.182,43,1424570371.391337,39.63827351110771,-106.3701769229947,2518.255,-1,-1,10,65,-9999,1424570372.176775,17.12431716918945,-38.80665588378906,-19.02501678466797,307.8135070800781,298.6874389648438,10,22239.76781525,-0.059722900390625,-1.004119873046875,-0.203399658203125,22239.73485079167,0.104524811727866,0.204649815018812,0.2637514848781775,22239.73485079167,0.7148800823235086,-0.2368137284179652,1.368150654341076,0.09833706915378571,0.2138460725545883,0.2980349361896515,-0.009347026236355305,-0.0101170064881444,-0.009525079280138016,XTrueNorthZVertical,0.6199006923216918,0.1337939924310768,0.1993226840590193,0.7470560934675149,-0.04721730574965477,-0.9795375466346741,-0.1956446021795273,16.05044555664062,-36.7364616394043,-23.14317512512207,2,192.168.1.118,10.97.20.126,1,0
2015-02-21 18:59:32.242,44,1424570371.391337,39.63827351110771,-106.3701769229947,2518.255,-1,-1,10,65,-9999,1424570372.228852,16.85142135620117,-39.04440307617188,-18.459228515625,306.0567626953125,296.9306945800781,10,22239.81691008333,-0.0699310302734375,-0.9887237548828125,-0.18450927734375,22239.78663258333,0.0708422155249798,0.2939626506001454,0.3055932077127395,22239.78663258333,0.7972839599345811,-0.3043370885296344,1.367148264952605,0.06465230137109756,0.3031591773033142,0.3398784101009369,0.005352373700588942,-0.02582217007875443,-0.0087868832051754,XTrueNorthZVertical,0.6209396620192656,0.1340117622375986,0.2092485778531268,0.7434311375634014,-0.06060444936156273,-0.9793353080749512,-0.1929495632648468,15.77887439727783,-37.04188919067383,-22.84111404418945,2,192.168.1.118,10.97.20.126,1,0
2015-02-21 18:59:32.280,45,1424570371.391337,39.63827351110771,-106.3701769229947,2518.255,-1,-1,10,65,-9999,1424570372.228852,16.85142135620117,-39.04440307617188,-18.459228515625,306.0567626953125,296.9306945800781,10,22239.86606029167,-0.107757568359375,-1.000152587890625,-0.1804046630859375,22239.83841404167,-0.0129195270801924,0.3367106471536613,0.3303515511027701,22239.83841404167,0.8856638621891524,-0.3744357254740664,1.36271196029671,-0.01910518482327461,0.3459049761295319,0.3646389842033386,-0.01028760708868504,-0.008571059443056583,0.01598784141242504,XTrueNorthZVertical,0.6210957510040312,0.1345501863233008,0.2210853581728337,0.7397686258322184,-0.07555834203958511,-0.9784284234046936,-0.1922726333141327,15.61014175415039,-37.24116897583008,-22.63205337524414,2,192.168.1.118,10.97.20.126,1,0
2015-02-21 18:59:32.340,46,1424570371.391337,39.63827351110771,-106.3701769229947,2518.255,-1,-1,10,65,-9999,1424570372.280629,16.54440307617188,-39.48594665527344,-17.82687377929688,303.8202209472656,294.6941528320312,10,22239.91514425,-0.110107421875,-0.988922119140625,-0.180572509765625,22239.890196125,-0.04418237511663257,0.4247174685364198,0.2988290448600472,22239.890196125,0.9663249389871106,-0.4349106710897618,1.354621931142324,-0.05036432296037674,0.4339087009429932,0.3331238627433777,-0.0295916423201561,-0.02083342708647251,0.01927977800369263,XTrueNorthZVertical,0.6199984591694321,0.1354194417637105,0.2337740243098006,0.736622855263758,-0.0903729572892189,-0.976725161075592,-0.1945269703865051,15.12153625488281,-37.6898193359375,-22.2172794342041,2,192.168.1.118,10.97.20.126,1,0
2015-02-21 18:59:32.379,47,1424570371.391337,39.63827351110771,-106.3701769229947,2518.255,-1,-1,10,65,-9999,1424570372.332095,16.06682968139648,-39.41799926757812,-18.12640380859375,302.7038879394531,293.5778198242188,10,22239.96429275,-0.0925445556640625,-0.9804229736328125,-0.1922454833984375,22239.94197783334,-0.04167740579530405,0.6173140827776422,0.3025247135047501,22239.94197783334,1.03099919052035,-0.4703288465417297,1.345695277252626,-0.04785817489027977,0.6265044808387756,0.3368211388587952,0.005845525767654181,-0.008230151608586311,0.01893080025911331,XTrueNorthZVertical,0.6171311303255639,0.1402303156982026,0.2485753812379694,0.7332768551534051,-0.1011519208550453,-0.9747715592384338,-0.1989692598581314,15.0765266418457,-37.88070297241211,-21.9212532043457,2,192.168.1.118,10.97.20.126,1,0
2015-02-21 18:59:32.442,48,1424570371.391337,39.63827351110771,-106.3701769229947,2518.255,-1,-1,10,65,-9999,1424570372.384373,15.70865249633789,-39.60484313964844,-18.10975646972656,301.0480041503906,291.9219360351562,10,22240.01338304167,-0.15887451171875,-0.962005615234375,-0.1948089599609375,22239.99375958334,-0.06248122128267603,0.6063919265150093,0.3150700664517864,22239.99375958334,1.09741155394492,-0.5038920893177178,1.336206822966478,-0.06865393370389938,0.6155795454978943,0.3493658304214478,-0.02703433483839035,0.01068051904439926,0.02125667408108711,XTrueNorthZVertical,0.6139384894184082,0.1459548477447715,0.2647522904552216,0.7291659469888541,-0.1122326329350471,-0.97260981798172,-0.2035534232854843,15.11093425750732,-38.00802993774414,-21.6757984161377,2,192.168.1.118,10.97.20.126,1,0
2015-02-21 18:59:32.477,49,1424570371.391337,39.63827351110771,-106.3701769229947,2518.255,-1,-1,10,65,-9999,1424570372.4358,15.82805252075195,-39.72372436523438,-17.52732849121094,298.5665588378906,289.4404907226562,10,22240.06251695834,-0.2327728271484375,-1.030242919921875,-0.144439697265625,22240.04554170834,-0.07157565008918762,0.6708779754662969,0.1471018333393988,22240.04554170834,1.143575040130818,-0.5186225165021995,1.326734863160475,-0.07774670422077179,0.6800642013549805,0.1814015805721283,-0.0978255495429039,-0.03918745741248131,0.05784677341580391,XTrueNorthZVertical,0.6098415643473691,0.1521782581862794,0.2793404344515314,0.7258815369804966,-0.1197800412774086,-0.9703645706176758,-0.2098700851202011,15.16850471496582,-38.29167938232422,-21.12947463989258,2,192.168.1.118,10.97.20.126,1,0
2015-02-21 18:59:32.544,50,1424570371.391337,39.63827351110771,-106.3701769229947,2518.255,-1,-1,10,65,-9999,1424570372.492842,16.06683731079102,-39.82562255859375,-17.09467315673828,295.7899169921875,286.6638488769531,10,22240.11160104167,-0.1551361083984375,-1.022674560546875,-0.128021240234375,22240.09732316667,-0.1856660038204002,1.035333434856404,-0.005009938642657063,22240.04554170834,1.143575040130818,-0.5186225165021995,1.326734863160475,-0.07774670422077179,0.6800642013549805,0.1814015805721283,-0.0978255495429039,-0.03918745741248131,0.05784677341580391,XTrueNorthZVertical,0.6098415643473691,0.1521782581862794,0.2793404344515314,0.7258815369804966,-0.1197800412774086,-0.9703645706176758,-0.2098700851202011,15.16850471496582,-38.29167938232422,-21.12947463989258,2,192.168.1.118,10.97.20.126,1,0
2015-02-21 18:59:32.578,51,1424570371.391337,39.63827351110771,-106.3701769229947,2518.255,-1,-1,10,65,-9999,1424570372.56538,17.19255065917969,-39.68975830078125,-16.99483489990234,293.0747680664062,283.9486999511719,10,22240.16073683334,-0.1337738037109375,-1.047409057617188,-0.10675048828125,22240.14910483333,-0.319124462895323,1.163330283167792,-0.05815251924686124,22240.14910483333,1.120705639709048,-0.3959641023005739,1.306086139390009,-0.3252198100090027,1.172513484954834,-0.02368239685893059,-0.0331079326570034,-0.07197152823209763,0.1243664622306824,XTrueNorthZVertical,0.5876578353507139,0.1842965267237248,0.3126461838362691,0.7231496819055493,-0.1009100079536438,-0.9651683568954468,-0.2413861155509949,16.38814353942871,-38.13302230834961,-20.49615097045898,2,192.168.1.118,10.97.20.126,1,0
2015-02-21 18:59:32.637,52,1424570371.391337,39.63827351110771,-106.3701769229947,2518.255,-1,-1,10,65,-9999,1424570372.617104,18.59115219116211,-39.62184143066406,-16.69530487060547,290.7551574707031,281.6290893554688,10,22240.20981479167,-0.14666748046875,-1.065017700195312,-0.1062164306640625,22240.200887,-0.4671786426405342,1.261073088863662,-0.1838987301210236,22240.14910483333,1.120705639709048,-0.3959641023005739,1.306086139390009,-0.3252198100090027,1.172513484954834,-0.02368239685893059,-0.0331079326570034,-0.07197152823209763,0.1243664622306824,XTrueNorthZVertical,0.5876578353507139,0.1842965267237248,0.3126461838362691,0.7231496819055493,-0.1009100079536438,-0.9651683568954468,-0.2413861155509949,16.38814353942871,-38.13302230834961,-20.49615097045898,2,192.168.1.118,10.97.20.126,1,0
2015-02-21 18:59:32.676,53,1424570371.391337,39.63827351110771,-106.3701769229947,2518.255,-1,-1,10,65,-9999,1424570372.66934,20.43321990966797,-39.07839965820312,-16.52890777587891,288.7476501464844,279.62158203125,10,22240.2589535,-0.0968475341796875,-1.068359375,-0.0948486328125,22240.25266879167,-0.6740442076862921,1.527846462630753,-0.3933148045427505,22240.200887,1.078726817186157,-0.2944008433041895,1.287876771827005,-0.4732735455036163,1.270256042480469,-0.1494289487600327,-0.05957621335983276,-0.1053530275821686,0.151091530919075,XTrueNorthZVertical,0.5697933867012097,0.2043540042260552,0.3307426463929217,0.7240057176599815,-0.08100301027297974,-0.9602445363998413,-0.2671498656272888,18.35640716552734,-37.49871444702148,-19.99199295043945,2,192.168.1.118,10.97.20.126,1,0
2015-02-21 18:59:32.736,54,1424570371.391337,39.63827351110771,-106.3701769229947,2518.255,-1,-1,10,65,-9999,1424570372.720466,22.61641311645508,-37.99150085449219,-16.66202545166016,287.1262512207031,278.0001831054688,10,22240.308035625,0.080078125,-1.017791748046875,-0.151031494140625,22240.30445020834,-0.9307777304598929,1.731869902161178,-0.4359240504034733,22240.25266879167,1.012952917411191,-0.1610729251874863,1.263106922760497,-0.6801390051841736,1.537029266357422,-0.3588453531265259,-0.07050811499357224,-0.1232427954673767,0.2110313177108765,XTrueNorthZVertical,0.5461049218680792,0.2286937080764948,0.3487254411600462,0.7265391997713603,-0.04857147112488747,-0.9530358910560608,-0.298937201499939,19.96224975585938,-36.82214736938477,-19.70859909057617,2,192.168.1.118,10.97.20.126,1,0
2015-02-21 18:59:32.771,55,1424570371.391337,39.63827351110771,-106.3701769229947,2518.255,-1,-1,10,65,-9999,1424570372.720466,22.61641311645508,-37.99150085449219,-16.66202545166016,287.1262512207031,278.0001831054688,10,22240.35728920834,0.0782318115234375,-0.9686279296875,-0.2059478759765625,22240.35623258333,-1.257973435670919,1.612554160055121,-0.4531192826137879,22240.30445020834,0.9371843392575847,-0.005615923470020456,1.223585247531928,-0.9368724822998047,1.741052746772766,-0.4014549255371094,0.05200556293129921,-0.08453119546175003,0.1973270177841187,XTrueNorthZVertical,0.5134614232390157,0.2573357543521014,0.3682734461350518,0.7311021714973964,-0.001910957973450422,-0.9403253793716431,-0.3402713537216187,21.31462287902832,-36.15522003173828,-19.52633666992188,2,192.168.1.118,10.97.20.126,1,0
2015-02-21 18:59:32.839,56,1424570371.391337,39.63827351110771,-106.3701769229947,2518.255,-1,-1,10,65,-9999,1424570372.774964,24.61198997497559,-36.20831298828125,-16.87836456298828,286.4425659179688,277.3164978027344,10,22240.406244,0.076934814453125,-0.899810791015625,-0.3384857177734375,22240.35623258333,-1.257973435670919,1.612554160055121,-0.4531192826137879,22240.35623258333,0.8944545592287815,0.1182378736269173,1.16643023481022,-1.264068126678467,1.621736884117126,-0.4186504781246185,0.04210549965500832,-0.06023175641894341,0.2161896526813507,XTrueNorthZVertical,0.4743521348764198,0.2822152918171124,0.3896864174298855,0.7372171438541172,0.04641073569655418,-0.9193519949913025,-0.3906891644001007,24.82766342163086,-33.99691390991211,-19.25066375732422,2,192.168.1.118,10.97.20.126,1,0
2015-02-21 18:59:32.869,57,1424570371.391337,39.63827351110771,-106.3701769229947,2518.255,-1,-1,10,65,-9999,1424570372.850307,27.86972236633301,-33.50802612304688,-16.62873840332031,283.4941711425781,274.3681030273438,10,22240.45547854167,0.0459136962890625,-0.80340576171875,-0.39569091796875,22240.45979579167,-1.333401880909124,1.463194232427444,-0.781926466600421,22240.408014,0.8603869101467922,0.2272655923924878,1.100340610728584,-1.222280144691467,1.59770941734314,-0.6113864779472351,-0.02519847638905048,-0.008448982611298561,0.1031509712338448,XTrueNorthZVertical,0.4318197317748005,0.3044887126336193,0.4070941512087115,0.7450454584113073,0.1021332889795303,-0.8913618326187134,-0.4416366815567017,26.90524101257324,-32.34261703491211,-19.30942344665527,2,192.168.1.118,10.97.20.126,1,0
2015-02-21 18:59:32.937,58,1424570371.391337,39.63827351110771,-106.3701769229947,2518.255,-1,-1,10,65,-9999,1424570372.901208,30.61577033996582,-31.487060546875,-15.91317749023438,282.1564331054688,273.0303649902344,10,22240.50445433334,0.092498779296875,-0.6028594970703125,-0.3353271484375,22240.45979579167,-1.333401880909124,1.463194232427444,-0.781926466600421,22240.45979579167,0.8251526159544336,0.3361333367283107,1.029638542740021,-1.339496493339539,1.472376704216003,-0.7474583983421326,-0.1239959970116615,0.05370708554983139,0.09060971438884735,XTrueNorthZVertical,0.3863279657315285,0.328024981319499,0.4195324563561921,0.7530888875204689,0.1699097007513046,-0.8571128249168396,-0.4863006174564362,28.45461654663086,-31.09217643737793,-19.14163970947266,2,192.168.1.118,10.97.20.126,1,0
2015-02-21 18:59:32.968,59,1424570371.391337,39.63827351110771,-106.3701769229947,2518.255,-1,-1,10,65,-9999,1424570372.954226,33.14008331298828,-29.007568359375,-15.61363983154297,280.8602600097656,271.7341918945312,10,22240.55359145833,0.39794921875,-0.55364990234375,-0.3306427001953125,22240.511577875,-1.650032826075806,2.05717689352712,-0.4636401005001459,22240.511577875,0.8230280211959685,0.4248384552888804,0.9492143318366254,-1.656127333641052,2.066359281539917,-0.4291723370552063,-0.14751897752285,0.2100987434387207,0.1952295452356339,XTrueNorthZVertical,0.3344151626795195,0.3505540651148191,0.4360915035923101,0.7583551851310175,0.240017756819725,-0.8129582405090332,-0.5305566787719727,32.26865386962891,-27.56192016601562,-18.48960113525391,2,192.168.1.118,10.97.20.126,1,0
2015-02-21 18:59:33.037,60,1424570371.391337,39.63827351110771,-106.3701769229947,2518.255,-1,-1,10,65,-9999,1424570373.007963,35.78379058837891,-26.57901000976562,-14.6318359375,278.4820556640625,269.3559875488281,10,22240.60267770834,0.862548828125,-0.786163330078125,-0.416595458984375,22240.56335958334,-1.518504093526755,2.058865603974339,-0.2547497340776007,22240.56335958334,0.8633571859552227,0.4973655268952974,0.8669832044811432,-1.524598479270935,2.068047761917114,-0.2202823311090469,0.08919604867696762,0.2087302505970001,0.2380822002887726,XTrueNorthZVertical,0.2763194474086933,0.373209205309548,0.4619158085442659,0.7556429565554507,0.3087531626224518,-0.7623801231384277,-0.5687249302864075,34.33706665039062,-25.70009613037109,-17.4144172668457,2,192.168.1.118,10.97.20.126,1,0
2015-02-21 18:59:33.065,61,1424570371.391337,39.63827351110771,-106.3701769229947,2518.255,-1,-1,10,65,-9999,1424570373.062546,37.48941040039062,-24.88069152832031,-13.50026702880859,277.6065979003906,268.4805297851562,10,22240.65182241667,0.7825775146484375,-0.582183837890625,-0.5957794189453125,22240.615141125,-1.050784030236607,1.505073239517267,-0.1229573485806314,22240.615141125,0.899999066758852,0.5685562044499084,0.814080168165233,-1.056878447532654,1.514255404472351,-0.0884903147816658,0.5634932518005371,-0.05548310652375221,0.05748902261257172,XTrueNorthZVertical,0.2301480582917636,0.397198218515847,0.483375978695251,0.7453946267660991,0.3696427643299103,-0.7270944118499756,-0.5785309076309204,35.54610443115234,-24.79339981079102,-16.26507949829102,2,192.168.1.118,10.97.20.126,1,0
2015-02-21 18:59:33.105,62,1424570371.391337,39.63827351110771,-106.3701769229947,2518.255,-1,-1,10,65,-9999,1424570373.062546,37.48941040039062,-24.88069152832031,-13.50026702880859,277.6065979003906,268.4805297851562,10,22240.70089904167,0.7513427734375,-0.557586669921875,-0.5669708251953125,22240.66692341667,-0.7092405446527793,0.2498316744925514,-0.4796395733810149,22240.66692341667,0.9212777329850275,0.588806814385834,0.7699524963217672,-0.7153348922729492,0.2590138018131256,-0.4451728463172913,0.3033483326435089,0.1671094298362732,0.00173845561221242,XTrueNorthZVertical,0.2023759551182137,0.4006514030366429,0.4918705781092361,0.7460467816057127,0.3987238109111786,-0.6961011290550232,-0.597044825553894,37.21090316772461,-23.24398803710938,-14.75996971130371,2,192.168.1.118,10.97.20.126,1,0
2015-02-21 18:59:33.164,63,1424570371.391337,39.63827351110771,-106.3701769229947,2518.255,-1,-1,10,65,-9999,1424570373.13595,39.4167594909668,-22.55404663085938,-12.78470611572266,276.9030456542969,267.7769775390625,10,22240.75004341667,0.809814453125,-0.5989837646484375,-0.5441436767578125,22240.71870495833,-0.7925921604500793,0.2185733538299643,-0.5276294699081338,22240.71870495833,0.9205684070840815,0.6019967850873207,0.7277416765443802,-0.7986864447593689,0.2277553677558899,-0.4931631088256836,0.3484956920146942,0.08243668079376221,0.06005841121077538,XTrueNorthZVertical,0.1814476741659195,0.3992093346863456,0.4909879401445666,0.7527546288071931,0.4228360950946808,-0.6651850938796997,-0.6154173016548157,37.86998748779297,-21.98451614379883,-15.01119613647461,2,192.168.1.118,10.97.20.126,1,0
2015-02-21 18:59:33.204,64,1424570371.391337,39.63827351110771,-106.3701769229947,2518.255,-1,-1,10,65,-9999,1424570373.187772,40.23545837402344,-20.78782653808594,-13.11751556396484,277.3976745605469,268.2716064453125,10,22240.799123,0.7237396240234375,-0.4960479736328125,-0.6086578369140625,22240.77048670833,-0.8423879465123809,-0.08555911002486667,-0.6580852148539923,22240.77048670833,0.9223718039316994,0.6052493187584023,0.6769915394021964,-0.8484821319580078,-0.07637718319892883,-0.6236192584037781,0.3652281761169434,0.06398140639066696,0.06468848139047623,XTrueNorthZVertical,0.1587631965823634,0.3928045363164417,0.4893094799987509,0.7622828322627523,0.4434876441955566,-0.6264508962631226,-0.6409977078437805,38.28593063354492,-21.02807235717773,-15.32314014434814,2,192.168.1.118,10.97.20.126,1,0
2015-02-21 18:59:33.262,65,1424570371.391337,39.63827351110771,-106.3701769229947,2518.255,-1,-1,10,65,-9999,1424570373.245234,40.25251388549805,-18.76686096191406,-14.63181304931641,279.3309631347656,270.2048950195312,10,22240.84825541667,0.4735870361328125,-0.4133453369140625,-0.65435791015625,22240.82226870834,-0.7785541057120536,-0.6968182297481047,-0.8164644701454407,22240.82226870834,0.9135499066214274,0.5866808824885943,0.6227742710557076,-0.7846482396125793,-0.6876363754272461,-0.7819988131523132,0.1721114069223404,0.1292045414447784,0.05755769833922386,XTrueNorthZVertical,0.1418244962807111,0.3763859064560036,0.4814187636681104,0.7787525124089677,0.4496690034866333,-0.5832908153533936,-0.6764389276504517,38.93321990966797,-18.09548568725586,-17.30747222900391,2,192.168.1.118,10.97.20.126,1,0
2015-02-21 18:59:33.306,66,1424570371.391337,39.63827351110771,-106.3701769229947,2518.255,-1,-1,10,65,-9999,1424570373.245234,40.25251388549805,-18.76686096191406,-14.63181304931641,279.3309631347656,270.2048950195312,10,22240.89733754167,0.456085205078125,-0.30804443359375,-0.6195220947265625,22240.87405029167,-0.6995652804125214,-0.5625333917869303,-0.845683608361354,22240.87405029167,0.8963364708707883,0.5635330482813018,0.569321852857361,-0.7056593894958496,-0.5533516407012939,-0.81121826171875,-0.02650276944041252,0.1714309900999069,0.07015344500541687,XTrueNorthZVertical,0.1274810596985058,0.357398581546819,0.4698522002313105,0.7970280943500426,0.4499188959598541,-0.5390610098838806,-0.7120296955108643,39.00502014160156,-16.04469871520996,-19.07791519165039,2,192.168.1.118,10.97.20.126,1,0
2015-02-21 18:59:33.362,67,1424570371.391337,39.63827351110771,-106.3701769229947,2518.255,-1,-1,10,65,-9999,1424570373.317586,40.49130249023438,-15.09857177734375,-17.12790679931641,282.5632019042969,273.4371337890625,10,22240.94647429167,0.5316009521484375,-0.2093353271484375,-0.6849517822265625,22240.92583195834,-0.5738012263590555,-0.2435327658822959,-0.8564089570194301,22240.92583195834,0.8755963754268268,0.558471746093682,0.5198778405644471,-0.5798952579498291,-0.2343510985374451,-0.8219439387321472,0.04278875887393951,0.2352537363767624,0.1098749339580536,XTrueNorthZVertical,0.1108415190923741,0.3459833615201573,0.4579942122464939,0.8113266990948939,0.4598815143108368,-0.4967741072177887,-0.7360193133354187,39.10892486572266,-14.68065071105957,-19.94395446777344,2,192.168.1.118,10.97.20.126,1,0
2015-02-21 18:59:33.409,68,1424570371.391337,39.63827351110771,-106.3701769229947,2518.255,-1,-1,10,65,-9999,1424570373.369671,40.79831314086914,-12.75491333007812,-18.02651977539062,284.9607849121094,275.834716796875,10,22240.99554920834,0.55609130859375,-0.343414306640625,-0.6931915283203125,22240.97761429167,-0.1845639877613254,-0.2130598114251733,-0.6927430606480655,22240.92583195834,0.8755963754268268,0.558471746093682,0.5198778405644471,-0.5798952579498291,-0.2343510985374451,-0.8219439387321472,0.04278875887393951,0.2352537363767624,0.1098749339580536,XTrueNorthZVertical,0.1108415190923741,0.3459833615201573,0.4579942122464939,0.8113266990948939,0.4598815143108368,-0.4967741072177887,-0.7360193133354187,39.10892486572266,-14.68065071105957,-19.94395446777344,2,192.168.1.118,10.97.20.126,1,0
2015-02-21 18:59:33.459,69,1424570371.391337,39.63827351110771,-106.3701769229947,2518.255,-1,-1,10,65,-9999,1424570373.420507,41.32705307006836,-10.937744140625,-19.00833129882812,287.001220703125,277.8751525878906,10,22241.044690875,0.5374298095703125,-0.3529815673828125,-0.7421722412109375,22241.02939579167,-0.0114105800065535,-0.1951330088634139,-0.5381588099099801,22241.02939579167,0.8262899840568683,0.5612613204568171,0.4662855709040435,-0.01750449649989605,-0.1859515309333801,-0.5036945343017578,0.05290229991078377,0.1055926233530045,0.007488514762371778,XTrueNorthZVertical,0.09513076419016461,0.3359267026395707,0.4339527574357976,0.8305350277930275,0.4754332602024078,-0.4495714902877808,-0.756206750869751,39.63235473632812,-10.48433494567871,-21.4975757598877,2,192.168.1.118,10.97.20.126,1,0
2015-02-21 18:59:33.539,70,1424570371.391337,39.63827351110771,-106.3701769229947,2518.255,-1,-1,10,65,-9999,1424570373.524915,40.67892074584961,-7.7110595703125,-19.87364196777344,293.6626892089844,284.53662109375,10,22241.09376433333,0.594482421875,-0.3550262451171875,-0.735504150390625,22241.08117754167,0.01098553949657686,-0.02267841457867876,-0.3407232319680837,22241.08117754167,0.8076969591934364,0.5662318127442504,0.4555460108334208,0.004891677759587765,-0.01349703129380941,-0.3062592446804047,0.09836010634899139,0.09046540409326553,0.0103831123560667,XTrueNorthZVertical,0.09243948282566403,0.3354433426868135,0.425575802477359,0.8353550036522013,0.4817485213279724,-0.4399527013301849,-0.7578654289245605,39.68375778198242,-9.91077709197998,-21.67410659790039,2,192.168.1.118,10.97.20.126,1,0
2015-02-21 18:59:33.557,71,1424570371.391337,39.63827351110771,-106.3701769229947,2518.255,-1,-1,10,65,-9999,1424570373.524915,40.67892074584961,-7.7110595703125,-19.87364196777344,293.6626892089844,284.53662109375,10,22241.14300729167,0.4718475341796875,-0.2883758544921875,-0.7488861083984375,22241.132959625,-0.09791617748283435,-0.4852135695425508,-0.3043867957389336,22241.08117754167,0.8076969591934364,0.5662318127442504,0.4555460108334208,0.004891677759587765,-0.01349703129380941,-0.3062592446804047,0.09836010634899139,0.09046540409326553,0.0103831123560667,XTrueNorthZVertical,0.09243948282566403,0.3354433426868135,0.425575802477359,0.8353550036522013,0.4817485213279724,-0.4399527013301849,-0.7578654289245605,39.68375778198242,-9.91077709197998,-21.67410659790039,2,192.168.1.118,10.97.20.126,1,0
2015-02-21 18:59:33.606,72,1424570371.391337,39.63827351110771,-106.3701769229947,2518.255,-1,-1,10,65,-9999,1424570373.576924,40.33779525756836,-7.40533447265625,-19.90690612792969,294.1242980957031,284.9982299804688,10,22241.191988,0.3558807373046875,-0.347015380859375,-0.68182373046875,22241.18474141667,-0.2331216702328492,-0.05463341818243053,-0.1767912858038201,22241.132959625,0.7948178199991487,0.5638183783166348,0.4392779367947368,-0.1040450111031532,-0.4759849607944489,-0.2697975039482117,0.07058092951774597,0.1315543800592422,0.001150105148553848,XTrueNorthZVertical,0.08788581837432954,0.3313439284502344,0.4187095907566475,0.8409337682215157,0.483679324388504,-0.4252860546112061,-0.7649745941162109,39.80208587646484,-8.649299621582031,-21.994873046875,2,192.168.1.118,10.97.20.126,1,0
2015-02-21 18:59:33.656,73,1424570371.391337,39.63827351110771,-106.3701769229947,2518.255,-1,-1,10,65,-9999,1424570373.628838,40.16723251342773,-7.33740234375,-19.97347259521484,293.1559448242188,284.0298767089844,10,22241.24123804167,0.496978759765625,-0.384490966796875,-0.668670654296875,22241.236522875,-0.2125234507816313,0.6099991782115216,0.009445699754293041,22241.236522875,0.7965355730470258,0.5664608479796289,0.4137871960300227,-0.2186521589756012,0.6192275881767273,0.04403429850935936,-0.02074680104851723,0.01594086177647114,0.1144349277019501,XTrueNorthZVertical,0.07573043189981082,0.3285860090916282,0.417342931435908,0.8438726526040431,0.4913583695888519,-0.4020797908306122,-0.7725922465324402,39.56608963012695,-7.768240928649902,-22.73696708679199,2,192.168.1.118,10.97.20.126,1,0
2015-02-21 18:59:33.708,74,1424570371.391337,39.63827351110771,-106.3701769229947,2518.255,-1,-1,10,65,-9999,1424570373.680757,40.38896179199219,-7.0147705078125,-19.524169921875,293.0296630859375,283.9035949707031,10,22241.29022033334,0.5576934814453125,-0.4394073486328125,-0.703521728515625,22241.236522875,-0.2125234507816313,0.6099991782115216,0.009445699754293041,22241.236522875,0.7965355730470258,0.5664608479796289,0.4137871960300227,-0.2186521589756012,0.6192275881767273,0.04403429850935936,-0.02074680104851723,0.01594086177647114,0.1144349277019501,XTrueNorthZVertical,0.07573043189981082,0.3285860090916282,0.417342931435908,0.8438726526040431,0.4913583695888519,-0.4020797908306122,-0.7725922465324402,39.56608963012695,-7.768240928649902,-22.73696708679199,2,192.168.1.118,10.97.20.126,1,0
2015-02-21 18:59:33.753,75,1424570371.391337,39.63827351110771,-106.3701769229947,2518.255,-1,-1,10,65,-9999,1424570373.732573,40.91770553588867,-7.03173828125,-18.94174957275391,293.1459045410156,284.0198364257812,10,22241.33947229167,0.500640869140625,-0.467376708984375,-0.6991424560546875,22241.34008670834,-0.07370298316794292,0.6489495070505845,0.4681400437940528,22241.28830504167,0.8091133630237111,0.5909271222033463,0.4135227837619294,-0.06328168511390686,0.5446015000343323,0.3159685134887695,0.06124003231525421,-0.01616160199046135,0.06908358633518219,XTrueNorthZVertical,0.06836998769174581,0.3392803345326769,0.4234867358959487,0.837181834383437,0.510171115398407,-0.4018376767635345,-0.760428786277771,40.45378875732422,-7.782135963439941,-21.11208724975586,2,192.168.1.118,10.97.20.126,1,0
2015-02-21 18:59:33.793,76,1424570371.391337,39.63827351110771,-106.3701769229947,2518.255,-1,-1,10,65,-9999,1424570373.784091,41.82168197631836,-7.727996826171875,-17.36087799072266,291.5314636230469,282.4053955078125,10,22241.38846045834,0.6341400146484375,-0.5016632080078125,-0.6434173583984375,22241.3918685,-0.2893955956467685,1.001509691115743,0.7483045904703887,22241.34008670834,0.8302603397503843,0.6108066617877824,0.4236257808285942,-0.079831562936306,0.6581777334213257,0.5027279257774353,-0.02219025045633316,-0.05630828440189362,0.04763086140155792,XTrueNorthZVertical,0.06491822861120447,0.3498556333165476,0.4338931973551281,0.8277218087247679,0.5228311419487,-0.4110684394836426,-0.7467733025550842,40.81549835205078,-8.480263710021973,-20.1238956451416,2,192.168.1.118,10.97.20.126,1,0
2015-02-21 18:59:33.853,77,1424570371.391337,39.63827351110771,-106.3701769229947,2518.255,-1,-1,10,65,-9999,1424570373.835952,42.67449188232422,-8.882843017578125,-16.16275024414062,289.3945007324219,280.2684326171875,10,22241.437576375,0.69281005859375,-0.5811767578125,-0.6189727783203125,22241.3918685,-0.2893955956467685,1.001509691115743,0.7483045904703887,22241.3918685,0.8644653057380264,0.6382389982866623,0.4336284576135104,-0.2955241203308105,1.010737776756287,0.782892107963562,0.09349929541349411,-0.08149701356887817,0.08539537340402603,XTrueNorthZVertical,0.05712886584058097,0.3637718036971496,0.449720319189254,0.8137309395309997,0.5406407117843628,-0.4201661944389343,-0.7288127541542053,41.09086608886719,-9.04762077331543,-19.2995491027832,2,192.168.1.118,10.97.20.126,1,0
2015-02-21 18:59:33.891,78,1424570371.391337,39.63827351110771,-106.3701769229947,2518.255,-1,-1,10,65,-9999,1424570373.835952,42.67449188232422,-8.882843017578125,-16.16275024414062,289.3945007324219,280.2684326171875,10,22241.48665154167,0.7029876708984375,-0.44964599609375,-0.6240997314453125,22241.44365066667,-0.3897432392048452,0.9597055188525515,0.9207895447915506,22241.44365066667,0.9162817245213851,0.6688327737231483,0.4471546720787487,-0.3958716988563538,0.9689335823059082,0.9553767442703247,0.1337040662765503,-0.148775041103363,0.08843748271465302,XTrueNorthZVertical,0.04628703115869312,0.3796740469462397,0.4726493461790683,0.7939192429318455,0.5591059923171997,-0.432401716709137,-0.7074102759361267,41.81317901611328,-11.17373085021973,-16.41940116882324,2,192.168.1.118,10.97.20.126,1,0
2015-02-21 18:59:33.950,79,1424570371.391337,39.63827351110771,-106.3701769229947,2518.255,-1,-1,10,65,-9999,1424570373.940057,43.49319076538086,-11.93978881835938,-13.23396301269531,283.0527648925781,273.9266967773438,10,22241.53576229167,0.6573333740234375,-0.40789794921875,-0.5724029541015625,22241.54721379167,-0.7992455358014243,0.6508978757040864,0.9782485768905552,22241.495432125,0.9739479492554746,0.6821957436330104,0.4584969877165792,-0.5557324290275574,0.6007871627807617,0.9502782821655273,0.1376075148582458,-0.007045167963951826,0.07192455977201462,XTrueNorthZVertical,0.0368136427702927,0.3881141711438921,0.4966382065658688,0.7754757749674098,0.5653801560401917,-0.442600816488266,-0.6960242986679077,41.89091491699219,-12.64919948577881,-15.09767532348633,2,192.168.1.118,10.97.20.126,1,0
2015-02-21 18:59:33.989,80,1424570371.391337,39.63827351110771,-106.3701769229947,2518.255,-1,-1,10,65,-9999,1424570373.940057,43.49319076538086,-11.93978881835938,-13.23396301269531,283.0527648925781,273.9266967773438,10,22241.58482391667,0.650543212890625,-0.4385986328125,-0.5011749267578125,22241.54721379167,-0.7992455358014243,0.6508978757040864,0.9782485768905552,22241.54721379167,1.040634493298335,0.681902378337528,0.4627415493257217,-0.8053738474845886,0.660125732421875,1.012835144996643,0.09362123906612396,0.03635356947779655,0.1343005150556564,XTrueNorthZVertical,0.02570132141538762,0.389841994125105,0.5225832505135695,0.7578056795087594,0.5639867782592773,-0.4464029967784882,-0.6947253346443176,41.77247619628906,-13.59324932098389,-14.59707641601562,2,192.168.1.118,10.97.20.126,1,0
2015-02-21 18:59:34.048,81,1424570371.391337,39.63827351110771,-106.3701769229947,2518.255,-1,-1,10,65,-9999,1424570374.043619,42.64037704467773,-14.62310791015625,-11.10393524169922,275.2001647949219,266.0740966796875,10,22241.63392683334,0.7509307861328125,-0.3481597900390625,-0.4441375732421875,22241.598996,-1.092143987229974,0.7574107371856966,1.070272776777698,22241.598996,1.121815457034913,0.6837333486960406,0.4587623066589346,-1.098272323608398,0.766638457775116,1.104858994483948,0.0947725772857666,0.009260238148272038,0.2052254378795624,XTrueNorthZVertical,0.007728095819700739,0.3903956159822741,0.5525906597654753,0.73632543227555,0.5663754940032959,-0.442838728427887,-0.695063054561615,41.34796524047852,-15.92106819152832,-13.40358638763428,2,192.168.1.118,10.97.20.126,1,0
2015-02-21 18:59:34.087,82,1424570371.391337,39.63827351110771,-106.3701769229947,2518.255,-1,-1,10,65,-9999,1424570374.043619,42.64037704467773,-14.62310791015625,-11.10393524169922,275.2001647949219,266.0740966796875,10,22241.68309704167,0.8043060302734375,-0.342041015625,-0.4270782470703125,22241.65077779167,-1.314050553480282,0.4960007035379168,1.093171701094636,22241.65077779167,1.212336644319609,0.676520595363763,0.446973689772643,-1.320178747177124,0.5052284002304077,1.127757549285889,0.2021773010492325,0.1061734482645988,0.2639125883579254,XTrueNorthZVertical,-0.01253549321745932,0.385054297960365,0.5845166691264376,0.7140842754636014,0.5645768642425537,-0.4322385191917419,-0.7031521201133728,40.92538452148438,-17.28464698791504,-13.00556564331055,2,192.168.1.118,10.97.20.126,1,0
2015-02-21 18:59:34.146,83,1424570371.391337,39.63827351110771,-106.3701769229947,2518.255,-1,-1,10,65,-9999,1424570374.095898,42.35042190551758,-16.44027709960938,-10.821044921875,270.6986083984375,261.5725402832031,10,22241.73209541667,0.7997589111328125,-0.2883453369140625,-0.4464263916015625,22241.70255929167,-1.332698007433016,0.1336339613907591,1.106022252302595,22241.70255929167,1.309334750784864,0.6524482678058136,0.4295185501206357,-1.338826179504395,0.1428615599870682,1.140607714653015,0.2541821300983429,0.08412722498178482,0.295436680316925,XTrueNorthZVertical,-0.03051375481429453,0.3712912972287238,0.6177074236980433,0.6925671534202782,0.5519854426383972,-0.4164331257343292,-0.7224233746528625,40.49758911132812,-18.1605396270752,-13.150315284729,2,192.168.1.118,10.97.20.126,1,0
2015-02-21 18:59:34.186,84,1424570371.391337,39.63827351110771,-106.3701769229947,2518.255,-1,-1,10,65,-9999,1424570374.14715,41.77051162719727,-18.13856506347656,-11.58651733398438,266.3252258300781,257.1991577148438,10,22241.78127845833,0.6631317138671875,-0.23382568359375,-0.4596710205078125,22241.75434145833,-1.386486670917674,-0.5101876289808779,1.080782675703587,22241.75434145833,1.400560040964342,0.6027373813841106,0.4055002805174036,-1.392614722251892,-0.500960111618042,1.115367770195007,0.2400135695934296,0.1359183341264725,0.3175289034843445,XTrueNorthZVertical,-0.04033110895135817,0.3462403611572208,0.6484868052389045,0.6767244027715472,0.5209270119667053,-0.3944785296916962,-0.7569820284843445,38.87501525878906,-20.0323429107666,-15.17331600189209,2,192.168.1.118,10.97.20.126,1,0
2015-02-21 18:59:34.244,85,1424570371.391337,39.63827351110771,-106.3701769229947,2518.255,-1,-1,10,65,-9999,1424570374.198805,40.86653518676758,-19.61607360839844,-12.6348876953125,261.506591796875,252.3805236816406,10,22241.83027325,0.6590728759765625,-0.298309326171875,-0.4493408203125,22241.806123125,-1.416770274621292,-0.5339262479895172,1.534024197411409,22241.806123125,1.503927023069761,0.5370029351876104,0.3835138568962841,-1.422898292541504,-0.5246988534927368,1.568608999252319,0.1689096838235855,0.108556367456913,0.357571542263031,XTrueNorthZVertical,-0.0436837436634993,0.3157191524180605,0.6834537448653863,0.6567375167328571,0.4744008481502533,-0.3741813600063324,-0.7968263030052185,37.28565979003906,-21.24443435668945,-17.35640335083008,2,192.168.1.118,10.97.20.126,1,0
2015-02-21 18:59:34.284,86,1424570371.391337,39.63827351110771,-106.3701769229947,2518.255,-1,-1,10,65,-9999,1424570374.251862,39.62143707275391,-20.719970703125,-15.21420288085938,257.6326293945312,248.5065612792969,10,22241.87943895833,0.713836669921875,-0.3284759521484375,-0.5467987060546875,22241.85790491667,-1.308648064892947,-0.7074240024732363,1.878262535702289,22241.85790491667,1.623150567604662,0.4618073523393718,0.3645490380865956,-1.314776062965393,-0.6981966495513916,1.912846922874451,0.2366830855607986,0.04076262190937996,0.3641270399093628,XTrueNorthZVertical,-0.04179200588892087,0.2829220542677215,0.7229793494926798,0.6288954122736554,0.416286289691925,-0.3565280139446259,-0.8364170789718628,35.92717742919922,-22.25150680541992,-18.89178085327148,2,192.168.1.118,10.97.20.126,1,0
2015-02-21 18:59:34.342,87,1424570371.391337,39.63827351110771,-106.3701769229947,2518.255,-1,-1,10,65,-9999,1424570374.30349,36.84127807617188,-22.43527221679688,-18.1263427734375,252.7178649902344,243.591796875,10,22241.928447625,0.6271514892578125,-0.49822998046875,-0.7936248779296875,22241.909687,-0.8123874368326384,-0.8847194246714084,2.252480344700299,22241.909687,1.749876732115603,0.3792252829970993,0.3597718590625129,-0.8185153007507324,-0.8754922151565552,2.28706431388855,0.3740356862545013,-0.0578514002263546,0.2003339231014252,XTrueNorthZVertical,-0.02968550759375906,0.253732084019072,0.763203203239146,0.5935147097273519,0.3464995920658112,-0.3520607054233551,-0.8694776296615601,31.23178863525391,-25.42339324951172,-22.82580375671387,2,192.168.1.118,10.97.20.126,4,0
2015-02-21 18:59:34.382,88,1424570371.391337,39.63827351110771,-106.3701769229947,2518.255,-1,-1,10,65,-9999,1424570374.354714,33.12302780151367,-24.71095275878906,-21.188232421875,246.7493591308594,237.623291015625,10,22241.977508875,0.5606231689453125,-0.2919769287109375,-0.902496337890625,22241.96146875,0.007449660517278653,-1.404807088688547,2.125915744423155,22241.909687,1.749876732115603,0.3792252829970993,0.3597718590625129,-0.8185153007507324,-0.8754922151565552,2.28706431388855,0.3740356862545013,-0.0578514002263546,0.2003339231014252,XTrueNorthZVertical,-0.02968550759375906,0.253732084019072,0.763203203239146,0.5935147097273519,0.3464995920658112,-0.3520607054233551,-0.8694776296615601,31.23178863525391,-25.42339324951172,-22.82580375671387,2,192.168.1.118,10.97.20.126,4,0
2015-02-21 18:59:34.447,89,1424570371.391337,39.63827351110771,-106.3701769229947,2518.255,-1,-1,10,65,-9999,1424570374.407033,28.94426155090332,-27.34330749511719,-23.36817169189453,240.9114379882812,231.7853851318359,10,22242.02661529167,0.113861083984375,-0.428131103515625,-1.055496215820312,22242.01325029167,0.2348737639140123,-2.309602486921408,1.42665486332323,22242.01325029167,1.96764434934051,0.1426350972352639,0.4021031100761242,0.2287459671497345,-2.300375461578369,1.461238265037537,0.1744229197502136,0.1406374126672745,-0.1516357213258743,XTrueNorthZVertical,0.05218639100324419,0.2045218388408263,0.8216562918881124,0.5294604574006426,0.1308138966560364,-0.3913545608520508,-0.9108948111534119,30.165283203125,-27.6722526550293,-26.29277801513672,2,192.168.1.118,10.97.20.126,4,0
2015-02-21 18:59:34.479,90,1424570371.391337,39.63827351110771,-106.3701769229947,2518.255,-1,-1,10,65,-9999,1424570374.460062,23.57156372070312,-29.97567749023438,-24.78263854980469,235.3595886230469,226.2335205078125,10,22242.07569145834,-0.1336669921875,-1.03668212890625,-1.256256103515625,22242.065032625,0.6629851649436291,-1.698314871374507,0.6863149887249412,22242.01325029167,1.96764434934051,0.1426350972352639,0.4021031100761242,0.2287459671497345,-2.300375461578369,1.461238265037537,0.1744229197502136,0.1406374126672745,-0.1516357213258743,XTrueNorthZVertical,0.05218639100324419,0.2045218388408263,0.8216562918881124,0.5294604574006426,0.1308138966560364,-0.3913545608520508,-0.9108948111534119,30.165283203125,-27.6722526550293,-26.29277801513672,2,192.168.1.118,10.97.20.126,4,0
2015-02-21 18:59:34.541,91,1424570371.391337,39.63827351110771,-106.3701769229947,2518.255,-1,-1,10,65,-9999,1424570374.510826,18.72760391235352,-31.80982971191406,-25.94749450683594,233.2368469238281,224.1107788085938,10,22242.12480525,-0.1543121337890625,-0.94830322265625,-1.162322998046875,22242.11681416667,1.25536673359595,-1.015573844832452,0.1701696020694471,22242.11681416667,2.051195679839915,-0.05526651151995492,0.4786408378897156,1.249310731887817,-1.006351232528687,0.2049083262681961,-0.1103167459368706,-0.6468944549560547,-0.3345891833305359,XTrueNorthZVertical,0.1458312019180716,0.1886796295316602,0.8269420077045568,0.5092152921500686,-0.04903078824281693,-0.4605731666088104,-0.8862665295600891,20.19819450378418,-32.80497741699219,-29.71320724487305,2,192.168.1.118,10.97.20.126,4,0
2015-02-21 18:59:34.578,92,1424570371.391337,39.63827351110771,-106.3701769229947,2518.255,-1,-1,10,65,-9999,1424570374.562098,15.4869270324707,-33.8477783203125,-25.64795684814453,232.0403442382812,222.9142913818359,10,22242.17397566667,-0.0910491943359375,-0.3285675048828125,-0.846160888671875,22242.16859591667,0.4202830390053289,-1.070422446430961,-0.2844272023171167,22242.11681416667,2.051195679839915,-0.05526651151995492,0.4786408378897156,1.249310731887817,-1.006351232528687,0.2049083262681961,-0.1103167459368706,-0.6468944549560547,-0.3345891833305359,XTrueNorthZVertical,0.1458312019180716,0.1886796295316602,0.8269420077045568,0.5092152921500686,-0.04903078824281693,-0.4605731666088104,-0.8862665295600891,20.19819450378418,-32.80497741699219,-29.71320724487305,2,192.168.1.118,10.97.20.126,4,0
2015-02-21 18:59:34.641,93,1424570371.391337,39.63827351110771,-106.3701769229947,2518.255,-1,-1,10,65,-9999,1424570374.614781,13.20139694213867,-35.27433776855469,-25.38170623779297,231.1360168457031,222.0099487304688,10,22242.222987125,-0.363250732421875,0.003143310546875,-0.8743133544921875,22242.220378,-0.262455324375636,-1.889811333769417,-0.2833110715042645,22242.16859591667,2.051466388720074,-0.1051501282496208,0.5242210195111574,0.4142271876335144,-1.061199903488159,-0.2496888339519501,-0.01381299551576376,0.08890242874622345,-0.01241942774504423,XTrueNorthZVertical,0.1775617870609361,0.1949499941528886,0.8176878510092149,0.5117156727973505,-0.09086229652166367,-0.5005387663841248,-0.8609326481819153,19.20093536376953,-33.94367218017578,-29.08882331848145,2,192.168.1.118,10.97.20.126,4,0
2015-02-21 18:59:34.677,94,1424570371.391337,39.63827351110771,-106.3701769229947,2518.255,-1,-1,10,65,-9999,1424570374.665612,10.71118927001953,-35.71589660644531,-26.38014984130859,231.6563415527344,222.5302734375,10,22242.27215525,-0.439544677734375,-0.6306915283203125,-0.8295135498046875,22242.220378,-0.262455324375636,-1.889811333769417,-0.2833110715042645,22242.220378,2.037214933813004,-0.1668680405406772,0.5227787743439011,-0.2685111165046692,-1.880588889122009,-0.2485730201005936,-0.1222182512283325,0.4850532412528992,0.01281691435724497,XTrueNorthZVertical,0.20362620417561,0.1770205797394041,0.8083007670078517,0.5233067869761237,-0.14391028881073,-0.4992896914482117,-0.8544001579284668,17.10284042358398,-34.24314117431641,-30.03179168701172,2,192.168.1.118,10.97.20.126,4,0
2015-02-21 18:59:34.737,95,1424570371.391337,39.63827351110771,-106.3701769229947,2518.255,-1,-1,10,65,-9999,1424570374.716898,6.856491088867188,-35.10452270507812,-27.67813873291016,232.0789794921875,222.9529266357422,10,22242.32116895833,-0.5859375,-0.2977752685546875,-0.6853485107421875,22242.32394129167,-0.7577803839449996,-2.806431699874449,-0.05500652705115063,22242.27215979167,2.036482800286552,-0.3013952584842028,0.4869962324284226,-0.9528087377548218,-2.961696863174438,0.6105061173439026,-0.1772031784057617,-0.1627180874347687,0.01439272705465555,XTrueNorthZVertical,0.2491270955238763,0.1264221175803664,0.7977166997368335,0.5344167337783369,-0.2623414993286133,-0.4679734408855438,-0.8439062833786011,13.48045063018799,-33.41427993774414,-32.69207382202148,2,192.168.1.118,10.97.20.126,4,0
2015-02-21 18:59:34.775,96,1424570371.391337,39.63827351110771,-106.3701769229947,2518.255,-1,-1,10,65,-9999,1424570374.769274,2.183097839355469,-33.88175964355469,-29.00940704345703,232.7618408203125,223.6357727050781,10,22242.3703275,-0.8468170166015625,-0.2179107666015625,-0.6356353759765625,22242.32394129167,-0.7577803839449996,-2.806431699874449,-0.05500652705115063,22242.32394129167,2.032976043573377,-0.4491117211076874,0.4418390302356604,-0.7638360857963562,-2.797209501266479,-0.02026920020580292,-0.1934662759304047,0.1298273354768753,0.1289747506380081,XTrueNorthZVertical,0.2971726919771009,0.06728122972603084,0.7830886882059767,0.5421565950834473,-0.3924712240695953,-0.427602618932724,-0.8143232464790344,9.910884857177734,-32.64565277099609,-34.6849250793457,2,192.168.1.118,10.97.20.126,4,0
2015-02-21 18:59:34.838,97,1424570371.391337,39.63827351110771,-106.3701769229947,2518.255,-1,-1,10,65,-9999,1424570374.821151,-1.364585876464844,-32.14947509765625,-30.47377777099609,235.1525573730469,226.0264892578125,10,22242.41936275,-0.8021087646484375,-0.2877349853515625,-0.70306396484375,22242.427505125,-0.9703682832250108,-0.5889032139525679,-0.08981137933739619,22242.375723625,2.014449804292123,-0.5345658623378181,0.4047965130571379,-0.9411197304725647,-0.9028173089027405,0.2111168503761292,-0.3785233497619629,0.1759209632873535,0.1553119271993637,XTrueNorthZVertical,0.3222832711323635,0.02568737726747829,0.7703307300435374,0.5496037282141838,-0.4682936668395996,-0.393831729888916,-0.7909473180770874,3.325668334960938,-30.48172569274902,-37.77317047119141,2,192.168.1.118,10.97.20.126,4,0
2015-02-21 18:59:34.873,98,1424570371.391337,39.63827351110771,-106.3701769229947,2518.255,-1,-1,10,65,-9999,1424570374.821151,-1.364585876464844,-32.14947509765625,-30.47377777099609,235.1525573730469,226.0264892578125,10,22242.46853858334,-0.689910888671875,-0.1131591796875,-0.676177978515625,22242.427505125,-0.9703682832250108,-0.5889032139525679,-0.08981137933739619,22242.427505125,1.990821634057422,-0.5521511377327967,0.3591736722606166,-0.9764238595962524,-0.5796811580657959,-0.05507471039891243,-0.3110597133636475,0.06376577168703079,0.09400445967912674,XTrueNorthZVertical,0.3185321127613192,-0.001755480163649153,0.7677358017406148,0.5559820051709389,-0.49104905128479,-0.3515007495880127,-0.7970684170722961,2.169172286987305,-28.75575256347656,-39.18430709838867,2,192.168.1.118,10.97.20.126,4,0
2015-02-21 18:59:34.936,99,1424570371.391337,39.63827351110771,-106.3701769229947,2518.255,-1,-1,10,65,-9999,1424570374.925252,-4.809944152832031,-29.12651062011719,-32.53722381591797,235.3969421386719,226.2708892822266,10,22242.51754520833,-0.464019775390625,-0.3231658935546875,-0.7156219482421875,22242.47928691667,-0.5068948966091039,-0.2517728526111101,0.02805933156118386,22242.47928691667,1.96488964977705,-0.5669016586658261,0.3295178904901349,-0.5129504203796387,-0.2425509095191956,0.06279561668634415,-0.1403853744268417,0.1908812075853348,0.08761230856180191,XTrueNorthZVertical,0.3168894070905376,-0.02212026152869317,0.762389388454723,0.5637856489787068,-0.5081284046173096,-0.3235868811607361,-0.7981836199760437,1.556068420410156,-27.65386581420898,-39.99813079833984,2,192.168.1.118,10.97.20.126,4,0
2015-02-21 18:59:34.971,100,1424570371.391337,39.63827351110771,-106.3701769229947,2518.255,-1,-1,10,65,-9999,1424570374.925252,-4.809944152832031,-29.12651062011719,-32.53722381591797,235.3969421386719,226.2708892822266,10,22242.566715375,-0.525238037109375,-0.3246917724609375,-0.6722564697265625,22242.531069125,0.1237341926706075,-0.06420668335293837,0.8674309818229411,22242.531069125,1.98714945562292,-0.5777648094613967,0.3073239646402952,0.1176815629005432,-0.05498645082116127,0.9021683931350708,0.0836741030216217,-0.04067635536193848,0.08154858648777008,XTrueNorthZVertical,0.3159748407157423,-0.03068214083443863,0.769999609749769,0.5534610620203365,-0.5205637216567993,-0.302509069442749,-0.7984369993209839,0.3326702117919922,-26.53816413879395,-40.7752799987793,2,192.168.1.118,10.97.20.126,4,0
2015-02-21 18:59:35.037,101,1424570371.391337,39.63827351110771,-106.3701769229947,2518.255,-1,-1,10,65,-9999,1424570375.02836,-7.504806518554688,-28.20944213867188,-32.17111968994141,231.959716796875,222.8336486816406,10,22242.615725625,-0.5068817138671875,0.002197265625,-0.6568756103515625,22242.58285075,0.5914151074927306,-0.4307713663263879,0.8036759705908801,22242.58285075,2.037826961996081,-0.60532180161697,0.2977383719863383,0.5853625535964966,-0.4215511977672577,0.8384130597114563,0.006561115384101868,0.04847053065896034,0.1024689301848412,XTrueNorthZVertical,0.3252317078949026,-0.03398308706864805,0.7806651837716048,0.53257055564394,-0.5439909100532532,-0.2933588325977325,-0.7861389517784119,-1.133279800415039,-27.0890998840332,-40.3968391418457,2,192.168.1.118,10.97.20.126,4,0
2015-02-21 18:59:35.069,102,1424570371.391337,39.63827351110771,-106.3701769229947,2518.255,-1,-1,10,65,-9999,1424570375.02836,-7.504806518554688,-28.20944213867188,-32.17111968994141,231.959716796875,222.8336486816406,10,22242.66478691667,-0.67266845703125,-0.1131439208984375,-0.5814056396484375,22242.63463229167,0.619860064779758,-0.6594154638184869,0.8412007092984236,22242.63463229167,2.093800663773055,-0.6481698692021224,0.3007819789063078,0.6138075590133667,-0.6501954197883606,0.8759374618530273,0.04979918524622917,0.2804438173770905,0.1443195939064026,XTrueNorthZVertical,0.3436679488518896,-0.03452825382647059,0.7876691864286615,0.5101739245487169,-0.5766241550445557,-0.296267181634903,-0.7614002823829651,-2.342763900756836,-27.81327247619629,-39.84898376464844,2,192.168.1.118,10.97.20.126,4,0
2015-02-21 18:59:35.139,103,1424570371.391337,39.63827351110771,-106.3701769229947,2518.255,-1,-1,10,65,-9999,1424570375.081025,-9.380985260009766,-28.9227294921875,-31.03955078125,229.2972106933594,220.171142578125,10,22242.7138985,-0.6195831298828125,-0.0767974853515625,-0.5455322265625,22242.68641470834,0.5303706616181524,-0.7116384548982867,0.5858054249725877,22242.68641470834,2.142550737557765,-0.6990938508589074,0.2984236179125646,0.5243182182312012,-0.7024185061454773,0.6205418109893799,-0.06584212929010391,0.2034071683883667,0.148205429315567,XTrueNorthZVertical,0.3641880079924792,-0.03961994208627371,0.7911782736564078,0.4897288374566236,-0.6150813102722168,-0.2940138578414917,-0.7315946817398071,-6.022743225097656,-29.32318305969238,-38.35213088989258,2,192.168.1.118,10.97.20.126,3,0
2015-02-21 18:59:35.167,104,1424570371.391337,39.63827351110771,-106.3701769229947,2518.255,-1,-1,10,65,-9999,1424570375.13218,-11.70062637329102,-29.46617126464844,-30.10767364501953,227.0716857910156,217.9456329345703,10,22242.76296858333,-0.71368408203125,-0.2114105224609375,-0.4479827880859375,22242.73819616667,0.3876385429953556,-0.673269760441297,0.5349411786809464,22242.73819616667,2.181279769195324,-0.7428511346019699,0.297507660911798,0.3815861642360687,-0.6640498638153076,0.5696772336959839,0.01291830278933048,0.1622331142425537,0.2090085595846176,XTrueNorthZVertical,0.3821392492546078,-0.04331512274725424,0.7924706405659182,0.4733748177507523,-0.6466768383979797,-0.2931382656097412,-0.7041867971420288,-7.286952972412109,-29.80047988891602,-37.76029968261719,2,192.168.1.118,10.97.20.126,3,0
2015-02-21 18:59:35.235,105,1424570371.391337,39.63827351110771,-106.3701769229947,2518.255,-1,-1,10,65,-9999,1424570375.184268,-14.10555648803711,-29.8907470703125,-28.72648620605469,224.6574401855469,215.5313720703125,10,22242.812078625,-0.6501007080078125,-0.1708831787109375,-0.4727020263671875,22242.78997775,0.1676310769183836,-0.4616576433846909,0.3734231217287306,22242.78997775,2.207993065859779,-0.7801793941455899,0.2895375557184186,0.1615787446498871,-0.4524378776550293,0.4081588387489319,-0.05933112651109695,0.08116335421800613,0.2292667478322983,XTrueNorthZVertical,0.3960806929433879,-0.05019264689519226,0.7925972665069411,0.460858325214881,-0.6741283535957336,-0.2855090498924255,-0.6812015771865845,-9.136484146118164,-30.22249794006348,-37.01531219482422,2,192.168.1.118,10.97.20.126,3,0
2015-02-21 18:59:35.266,106,1424570371.391337,39.63827351110771,-106.3701769229947,2518.255,-1,-1,10,65,-9999,1424570375.23607,-15.70883560180664,-29.72091674804688,-27.76132202148438,222.7926025390625,213.6665344238281,10,22242.86114775,-0.553741455078125,-0.192138671875,-0.5547332763671875,22242.841760125,0.17749196348662,-0.4436813060266561,0.6151470685986448,22242.78997775,2.207993065859779,-0.7801793941455899,0.2895375557184186,0.1615787446498871,-0.4524378776550293,0.4081588387489319,-0.05933112651109695,0.08116335421800613,0.2292667478322983,XTrueNorthZVertical,0.3960806929433879,-0.05019264689519226,0.7925972665069411,0.460858325214881,-0.6741283535957336,-0.2855090498924255,-0.6812015771865845,-9.136484146118164,-30.22249794006348,-37.01531219482422,2,192.168.1.118,10.97.20.126,3,0
2015-02-21 18:59:35.334,107,1424570371.391337,39.63827351110771,-106.3701769229947,2518.255,-1,-1,10,65,-9999,1424570375.287772,-17.53384017944336,-29.16050720214844,-26.579833984375,220.1805419921875,211.0544891357422,10,22242.910273875,-0.551116943359375,-0.3891143798828125,-0.57147216796875,22242.89354179167,0.3532542038452335,-0.4301974551114758,0.97656146433999,22242.89354179167,2.272872849621949,-0.8359663116893692,0.254945966442407,0.3472020030021667,-0.4209778606891632,1.011296391487122,0.2579408288002014,-0.06700548529624939,0.1027081459760666,XTrueNorthZVertical,0.4141301799274611,-0.06404176704375081,0.800600572268493,0.4282915009074135,-0.7179628014564514,-0.2521931231021881,-0.6487897038459778,-13.14669418334961,-30.28348541259766,-35.73630523681641,2,192.168.1.118,10.97.20.126,3,0
2015-02-21 18:59:35.363,108,1424570371.391337,39.63827351110771,-106.3701769229947,2518.255,-1,-1,10,65,-9999,1424570375.340034,-19.61469650268555,-28.85479736328125,-26.18045043945312,217.6014404296875,208.4753723144531,10,22242.95934191667,-0.78350830078125,-0.444549560546875,-0.5534820556640625,22242.94532341667,0.367990539421078,-1.088847792748783,0.3852273169443978,22242.94532341667,2.315196609350465,-0.8883561636505821,0.2370752095841916,0.3619383871555328,-1.079628229141235,0.4199619889259338,0.02682104893028736,-0.1769282817840576,0.07213879376649857,XTrueNorthZVertical,0.4336682320241375,-0.07353952310700025,0.8007632100486939,0.4065736396100538,-0.7543296217918396,-0.2348606586456299,-0.6130475997924805,-14.63955116271973,-30.25773239135742,-35.17330551147461,2,192.168.1.118,10.97.20.126,3,0
2015-02-21 18:59:35.432,109,1424570371.391337,39.63827351110771,-106.3701769229947,2518.255,-1,-1,10,65,-9999,1424570375.392047,-21.64438247680664,-28.76986694335938,-25.09879302978516,213.5638122558594,204.4377593994141,10,22243.00845454167,-0.927337646484375,-0.505218505859375,-0.6842041015625,22242.99710545833,0.5631461851537576,-1.119025136324907,-0.1207695617451313,22242.94532341667,2.315196609350465,-0.8883561636505821,0.2370752095841916,0.3619383871555328,-1.079628229141235,0.4199619889259338,0.02682104893028736,-0.1769282817840576,0.07213879376649857,XTrueNorthZVertical,0.4336682320241375,-0.07353952310700025,0.8007632100486939,0.4065736396100538,-0.7543296217918396,-0.2348606586456299,-0.6130475997924805,-14.63955116271973,-30.25773239135742,-35.17330551147461,2,192.168.1.118,10.97.20.126,3,0
2015-02-21 18:59:35.462,110,1424570371.391337,39.63827351110771,-106.3701769229947,2518.255,-1,-1,10,65,-9999,1424570375.443347,-23.43528366088867,-29.16047668457031,-23.45136260986328,212.1116333007812,202.9855804443359,10,22243.05762595834,-1.097793579101562,-0.6086578369140625,-0.7156219482421875,22243.04888725,0.4216343269424351,-1.09096660371205,-0.2888041075686619,22242.99710545833,2.335184662411878,-0.9466519203724539,0.2474430501584016,0.5570952892303467,-1.10980498790741,-0.08603618294000626,-0.0448257178068161,-0.2500388920307159,-0.05435304343700409,XTrueNorthZVertical,0.4591859706977515,-0.07646277776751614,0.7903518872052032,0.3983034298629802,-0.7867477536201477,-0.2449256926774979,-0.5666033625602722,-20.35090637207031,-28.560791015625,-26.80214500427246,2,192.168.1.118,10.97.20.126,3,0
2015-02-21 18:59:35.537,111,1424570371.391337,39.63827351110771,-106.3701769229947,2518.255,-1,-1,10,65,-9999,1424570375.494463,-24.81682968139648,-29.68693542480469,-21.87049102783203,214.1383666992188,205.0122985839844,10,22243.106640125,-0.879180908203125,-0.6633453369140625,-0.6725921630859375,22243.10066875,0.589110141569267,0.2495773426084488,-0.1663751301483022,22243.10066875,2.369624896701507,-1.034529438660886,0.2919102799738381,0.5831269025802612,0.2587935030460358,-0.1314937621355057,-0.09866428375244141,-0.4447769820690155,-0.1737546324729919,XTrueNorthZVertical,0.5008419869494273,-0.0670767055838811,0.7695913013320155,0.3903681448449135,-0.8232564926147461,-0.287782222032547,-0.4893160462379456,-22.05969619750977,-29.83114242553711,-23.91037559509277,2,192.168.1.118,10.97.20.126,3,0
2015-02-21 18:59:35.561,112,1424570371.391337,39.63827351110771,-106.3701769229947,2518.255,-1,-1,10,65,-9999,1424570375.547764,-25.27734756469727,-30.41720581054688,-20.68899536132812,213.1854553222656,204.0593872070312,10,22243.155814,-0.8028717041015625,-0.5509490966796875,-0.6551513671875,22243.10066875,0.589110141569267,0.2495773426084488,-0.1663751301483022,22243.10066875,2.369624896701507,-1.034529438660886,0.2919102799738381,0.5831269025802612,0.2587935030460358,-0.1314937621355057,-0.09866428375244141,-0.4447769820690155,-0.1737546324729919,XTrueNorthZVertical,0.5008419869494273,-0.0670767055838811,0.7695913013320155,0.3903681448449135,-0.8232564926147461,-0.287782222032547,-0.4893160462379456,-22.05969619750977,-29.83114242553711,-23.91037559509277,2,192.168.1.118,10.97.20.126,3,0
2015-02-21 18:59:35.635,113,1424570371.391337,39.63827351110771,-106.3701769229947,2518.255,-1,-1,10,65,-9999,1424570375.599366,-24.9021110534668,-30.62098693847656,-19.99008941650391,211.1749267578125,202.0488586425781,10,22243.20481645834,-0.5764312744140625,-0.660675048828125,-0.5563201904296875,22243.204232625,0.2882400500497831,0.6438114703594946,-0.1819037561484453,22243.152451125,2.393771198465754,-1.01639847486837,0.3056001662649021,0.4106641113758087,0.5616443753242493,0.0483207032084465,-0.008069340139627457,-0.2150035500526428,-0.1573532372713089,XTrueNorthZVertical,0.4962742810210515,-0.05188260001071024,0.7767320807048591,0.384327137392182,-0.8108240962028503,-0.3008655905723572,-0.5020400881767273,-21.37351608276367,-30.92797088623047,-23.12718391418457,2,192.168.1.118,10.97.20.126,3,0
2015-02-21 18:59:35.658,114,1424570371.391337,39.63827351110771,-106.3701769229947,2518.255,-1,-1,10,65,-9999,1424570375.651966,-23.94696426391602,-31.23236083984375,-19.89024353027344,210.3374633789062,201.2114105224609,10,22243.253887,-0.384796142578125,-0.53729248046875,-0.4187164306640625,22243.25601441667,0.219806397414671,0.6021702835550157,-0.03761422092017015,22243.204232625,2.406120865324552,-0.9907433757568862,0.3170771594911965,0.2822569310665131,0.6530274748802185,-0.1470230370759964,0.1562950909137726,-0.3643261790275574,-0.06168050691485405,XTrueNorthZVertical,0.4879492004493824,-0.03913876023780723,0.7836968809835467,0.3823518979729527,-0.7947381138801575,-0.3117907643318176,-0.5207474827766418,-20.98203659057617,-31.17773056030273,-23.15029907226562,2,192.168.1.118,10.97.20.126,3,0
2015-02-21 18:59:35.734,115,1424570371.391337,39.63827351110771,-106.3701769229947,2518.255,-1,-1,10,65,-9999,1424570375.702198,-22.5483512878418,-31.97959899902344,-20.18976593017578,209.8629150390625,200.7368469238281,10,22243.30299333333,-0.38519287109375,-0.355865478515625,-0.3790740966796875,22243.25601441667,0.219806397414671,0.6021702835550157,-0.03761422092017015,22243.25601441667,2.413533195610208,-0.9601006647298883,0.3280359834398259,0.2138233482837677,0.6113861799240112,-0.002733889734372497,0.39076828956604,-0.2151081115007401,0.124143660068512,XTrueNorthZVertical,0.4773333773184474,-0.02688497738442367,0.7908757577978989,0.3820282980819695,-0.775564432144165,-0.3221843540668488,-0.5428600907325745,-20.11687278747559,-31.5953369140625,-23.35121917724609,2,192.168.1.118,10.97.20.126,3,0
2015-02-21 18:59:35.757,116,1424570371.391337,39.63827351110771,-106.3701769229947,2518.255,-1,-1,10,65,-9999,1424570375.702198,-22.5483512878418,-31.97959899902344,-20.18976593017578,209.8629150390625,200.7368469238281,10,22243.352122375,-0.37066650390625,-0.35687255859375,-0.3607025146484375,22243.3077965,0.1073192666596861,0.139546179010735,0.1626405793516841,22243.3077965,2.423403225834014,-0.942167156815846,0.326858437518224,0.1013362780213356,0.148761972784996,0.1975205540657043,0.3808183073997498,-0.0347960963845253,0.1778292506933212,XTrueNorthZVertical,0.4701916044772202,-0.02163747207286267,0.7971734862383724,0.3781086452846541,-0.7660111784934998,-0.3210693895816803,-0.5569033622741699,-19.28595733642578,-31.84262466430664,-23.71354293823242,2,192.168.1.118,10.97.20.126,3,0
2015-02-21 18:59:35.832,117,1424570371.391337,39.63827351110771,-106.3701769229947,2518.255,-1,-1,10,65,-9999,1424570375.806961,-23.65700149536133,-32.06451416015625,-19.24124908447266,208.2260437011719,199.0999755859375,10,22243.401183125,-0.6595001220703125,-0.4952239990234375,-0.3986968994140625,22243.41135979167,0.5733615384630835,-2.474169863321765,0.9898463771217413,22243.35957829167,2.438901640798493,-0.9753256788420221,0.3134635717685039,0.09289437532424927,-1.241880416870117,0.5604622364044189,0.416876345872879,-0.04851728305220604,0.1728640794754028,XTrueNorthZVertical,0.4820040288173455,-0.02981303168022269,0.794123708892567,0.3689862792023552,-0.7875428795814514,-0.3083552718162537,-0.5335665941238403,-19.6533031463623,-31.7517204284668,-23.53315353393555,2,192.168.1.118,10.97.20.126,3,0
2015-02-21 18:59:35.855,118,1424570371.391337,39.63827351110771,-106.3701769229947,2518.255,-1,-1,10,65,-9999,1424570375.806961,-23.65700149536133,-32.06451416015625,-19.24124908447266,208.2260437011719,199.0999755859375,10,22243.45037429167,-0.8913726806640625,-0.326751708984375,-0.3901519775390625,22243.41135979167,0.5733615384630835,-2.474169863321765,0.9898463771217413,22243.41135979167,2.475368045069557,-1.086674363800012,0.2873669538180983,0.5673786401748657,-2.464954137802124,1.024725675582886,0.1138807013630867,-0.1853676438331604,0.05146348848938942,XTrueNorthZVertical,0.523619371130332,-0.05147726693103187,0.7763917812397068,0.3469707294698294,-0.8487897515296936,-0.2834281325340271,-0.4463456869125366,-21.72278594970703,-31.35823440551758,-22.20394134521484,2,192.168.1.118,10.97.20.126,3,0
2015-02-21 18:59:35.932,119,1424570371.391337,39.63827351110771,-106.3701769229947,2518.255,-1,-1,10,65,-9999,1424570375.909519,-30.70122146606445,-29.50013732910156,-13.20066070556641,205.0250854492188,195.8990325927734,10,22243.49937579167,-0.8611297607421875,-0.3737030029296875,-0.264190673828125,22243.463142125,1.226980099536795,-1.64150884637479,1.711364627032004,22243.463142125,2.548598844780376,-1.215625903543617,0.2436226323326648,1.220997333526611,-1.632293343544006,1.746243596076965,-0.00579441525042057,-0.07630028575658798,-0.02300761640071869,XTrueNorthZVertical,0.5712517152889136,-0.07021993849921533,0.7589882620484213,0.3044297883065329,-0.9099007844924927,-0.2412198632955551,-0.337481290102005,-27.71089935302734,-30.20518493652344,-16.37028503417969,2,192.168.1.118,10.97.20.126,3,0
2015-02-21 18:59:35.953,120,1424570371.391337,39.63827351110771,-106.3701769229947,2518.255,-1,-1,10,65,-9999,1424570375.909519,-30.70122146606445,-29.50013732910156,-13.20066070556641,205.0250854492188,195.8990325927734,10,22243.54844545833,-0.717376708984375,-0.4933929443359375,-0.2330780029296875,22243.51492366667,0.9400388731506434,-0.04840907808269734,2.365222339971604,22243.51492366667,2.638375730816941,-1.269977497326011,0.1561512809369221,0.9340561032295227,-0.03919364139437675,2.400100946426392,0.1345900595188141,-0.2246705144643784,0.05348526686429977,XTrueNorthZVertical,0.5883745062186173,-0.08641057883637879,0.765835521624679,0.2446316537858889,-0.9434736967086792,-0.1555174738168716,-0.2926973104476929,-30.05503845214844,-29.01385688781738,-14.25216293334961,2,192.168.1.118,10.97.20.126,3,0
2015-02-21 18:59:36.036,121,1424570371.391337,39.63827351110771,-106.3701769229947,2518.255,-1,-1,10,65,-9999,1424570376.012774,-38.24004745483398,-22.57109069824219,-8.674369812011719,185.5803833007812,176.4543151855469,10,22243.59756620833,-0.73388671875,-0.2799072265625,-0.2541046142578125,22243.56670541667,0.5088752231956868,-0.06959399192205966,2.01669285021628,22243.56670541667,2.70379245855224,-1.2710410586848,0.05676980526575789,0.5028924942016602,-0.06037864461541176,2.051571130752563,0.2340973317623138,-0.463524341583252,0.0622362419962883,XTrueNorthZVertical,0.5841578811591164,-0.1065561665012668,0.7815838501687423,0.1911336661466368,-0.9538697004318237,-0.05673931539058685,-0.2948107123374939,-33.08681869506836,-26.18686485290527,-12.95159530639648,2,192.168.1.118,10.97.20.126,3,0
2015-02-21 18:59:36.052,122,1424570371.391337,39.63827351110771,-106.3701769229947,2518.255,-1,-1,10,65,-9999,1424570376.012774,-38.24004745483398,-22.57109069824219,-8.674369812011719,185.5803833007812,176.4543151855469,10,22243.64667254167,-0.8657073974609375,-0.2357177734375,-0.1009674072265625,22243.6184875,0.04056313919521489,-0.6679833856774898,1.401463223623843,22243.6184875,2.741178492673396,-1.294082151311091,-0.01754362521553942,0.03458051010966301,-0.6587681174278259,1.436341166496277,0.2421905547380447,-0.1930035352706909,0.08403683453798294,XTrueNorthZVertical,0.5893723881605741,-0.1267401007654753,0.7829554159954643,0.1534861277582823,-0.961810290813446,0.01754272542893887,-0.2731542587280273,-36.66267013549805,-21.66161155700684,-11.61276626586914,2,192.168.1.118,10.97.20.126,3,0
2015-02-21 18:59:36.134,123,1424570371.391337,39.63827351110771,-106.3701769229947,2518.255,-1,-1,10,65,-9999,1424570376.116737,-43.73213577270508,-14.52120971679688,-6.644203186035156,176.3285217285156,167.2024688720703,10,22243.695746,-1.054214477539062,0.01806640625,-0.189971923828125,22243.67026933334,-0.8598878443514006,-0.8104728903249804,1.632969952971669,22243.67026933334,2.737945610453265,-1.333585305153425,-0.09959514109654162,-0.8658704161643982,-0.8012577295303345,1.667847514152527,-7.419477333314717e-05,-0.2903180122375488,0.1059747710824013,XTrueNorthZVertical,0.5973235325325825,-0.1621434989530402,0.7750763395688183,0.1271644250160705,-0.9671804308891296,0.09943056851625443,-0.2338281720876694,-37.84259796142578,-19.9231071472168,-10.91975402832031,2,192.168.1.118,10.97.20.126,3,0
2015-02-21 18:59:36.149,124,1424570371.391337,39.63827351110771,-106.3701769229947,2518.255,-1,-1,10,65,-9999,1424570376.116737,-43.73213577270508,-14.52120971679688,-6.644203186035156,176.3285217285156,167.2024688720703,10,22243.74481704167,-1.3072509765625,0.2363128662109375,-0.084930419921875,22243.72205079167,-1.402651259786128,-0.8050951691357834,1.820959831159272,22243.72205079167,2.69848204023772,-1.37833878722874,-0.1983808570614794,-1.408633708953857,-0.7958800792694092,1.855836987495422,-0.1710603088140488,-0.08537261188030243,-0.004954139236360788,XTrueNorthZVertical,0.6005091493639394,-0.2136086341147307,0.7630468842866611,0.1073294240237019,-0.9622862339019775,0.1970822066068649,-0.1875202208757401,-39.59635162353516,-16.61056709289551,-10.22013092041016,2,192.168.1.118,10.97.20.126,3,0
2015-02-21 18:59:36.234,125,1424570371.391337,39.63827351110771,-106.3701769229947,2518.255,-1,-1,10,65,-9999,1424570376.219886,-47.46743392944336,-6.2845458984375,-3.365974426269531,171.0553894042969,161.9293212890625,10,22243.79391795833,-1.31341552734375,0.4047088623046875,-0.0129241943359375,22243.773833125,-2.102580061687445,-1.071637380520255,1.345777057862505,22243.773833125,2.620287685030548,-1.442162153318867,-0.2934681043637158,-2.108562469482422,-1.062422394752502,1.380653858184814,-0.4164917767047882,0.04269642755389214,0.03188344091176987,XTrueNorthZVertical,0.6027412588214532,-0.2744181518004046,0.742799234560528,0.09821909148468808,-0.9493377208709717,0.2892737984657288,-0.1227953061461449,-41.94258499145508,-10.19533538818359,-9.22540283203125,2,192.168.1.118,10.97.20.126,3,0
2015-02-21 18:59:36.247,126,1424570371.391337,39.63827351110771,-106.3701769229947,2518.255,-1,-1,10,65,-9999,1424570376.219886,-47.46743392944336,-6.2845458984375,-3.365974426269531,171.0553894042969,161.9293212890625,10,22243.84297445833,-1.04193115234375,0.576141357421875,0.2784576416015625,22243.82561466667,-1.999876319512975,-0.7815773261815117,1.494840841976965,22243.82561466667,2.517474605425403,-1.528325225431571,-0.3721915983209784,-2.005858659744263,-0.7723624706268311,1.529717326164246,-0.2374592423439026,0.1375933736562729,0.2053075432777405,XTrueNorthZVertical,0.6061332770579356,-0.3358969908590921,0.7145361925373758,0.09598818389785908,-0.9306926131248474,0.3636578619480133,-0.03955132514238358,-42.61138534545898,-7.91094970703125,-8.361822128295898,2,192.168.1.118,10.97.20.126,3,0
2015-02-21 18:59:36.342,127,1424570376.31575,39.63846728053544,-106.3701409637236,2515.967,-1,-1,10,65,-9999,1424570376.273206,-48.62725448608398,-1.936920166015625,-1.801742553710938,171.5113525390625,162.3852996826172,10,22243.89208804167,-0.7466888427734375,0.482086181640625,0.344818115234375,22243.87739645833,-2.049385283125875,-0.4554756475462899,2.138668024986891,22243.87739645833,2.40399641193826,-1.59704981641474,-0.4652889322523063,-2.055367708206177,-0.4462608695030212,2.17354416847229,0.04040247201919556,0.06166442111134529,0.2927175164222717,XTrueNorthZVertical,0.5921694411966448,-0.4013293813004523,0.6928494743164834,0.09071783990057923,-0.8933840394020081,0.4486810266971588,0.02345983870327473,-43.30477523803711,-4.220108985900879,-7.424307346343994,2,192.168.1.118,10.97.20.126,3,0
2015-02-21 18:59:36.346,128,1424570376.31575,39.63846728053544,-106.3701409637236,2515.967,-1,-1,10,65,-9999,1424570376.324266,-49.15600967407227,3.039093017578125,-0.653533935546875,171.8489990234375,162.7229309082031,10,22243.94115608334,-0.59442138671875,0.7196197509765625,0.449371337890625,22243.92917854167,-1.74560568811548,-0.9194608937237101,2.196318005736054,22243.87739645833,2.40399641193826,-1.59704981641474,-0.4652889322523063,-2.055367708206177,-0.4462608695030212,2.17354416847229,0.04040247201919556,0.06166442111134529,0.2927175164222717,XTrueNorthZVertical,0.5921694411966448,-0.4013293813004523,0.6928494743164834,0.09071783990057923,-0.8933840394020081,0.4486810266971588,0.02345983870327473,-43.30477523803711,-4.220108985900879,-7.424307346343994,2,192.168.1.118,10.97.20.126,3,0
2015-02-21 18:59:36.441,129,1424570376.31575,39.63846728053544,-106.3701409637236,2515.967,-1,-1,10,65,-9999,1424570376.378733,-48.90016555786133,8.354736328125,1.759376525878906,169.1893310546875,160.0632629394531,10,22243.99026425,-0.5888519287109375,0.8295745849609375,0.4278411865234375,22243.98096033333,-1.382467960832744,-1.626379428222049,2.492404260989429,22243.98096033333,2.165396695639809,-1.827237381132021,-0.6752453549704478,-1.388450145721436,-1.617164731025696,2.527279615402222,0.1915367990732193,0.1492336541414261,0.2321049124002457,XTrueNorthZVertical,0.5648977402403541,-0.5290370532164678,0.632071947882325,0.03867081605844371,-0.7550286054611206,0.6250888705253601,0.1979793161153793,-43.38664245605469,7.08427619934082,-3.955422878265381,2,192.168.1.118,10.97.20.126,3,0
2015-02-21 18:59:36.450,130,1424570376.31575,39.63846728053544,-106.3701409637236,2515.967,-1,-1,10,65,-9999,1424570376.378733,-48.90016555786133,8.354736328125,1.759376525878906,169.1893310546875,160.0632629394531,10,22244.03933054167,-0.7737274169921875,1.092620849609375,0.459991455078125,22244.03274179167,-1.195954006521263,-1.389560225131734,2.590063976059288,22243.98096033333,2.165396695639809,-1.827237381132021,-0.6752453549704478,-1.388450145721436,-1.617164731025696,2.527279615402222,0.1915367990732193,0.1492336541414261,0.2321049124002457,XTrueNorthZVertical,0.5648977402403541,-0.5290370532164678,0.632071947882325,0.03867081605844371,-0.7550286054611206,0.6250888705253601,0.1979793161153793,-43.38664245605469,7.08427619934082,-3.955422878265381,2,192.168.1.118,10.97.20.126,3,0
2015-02-21 18:59:36.544,131,1424570376.31575,39.63846728053544,-106.3701409637236,2515.967,-1,-1,10,65,-9999,1424570376.50493,-44.94311904907227,22.00900268554688,10.91179656982422,156.0115661621094,146.885498046875,10,22244.08844429167,-0.537017822265625,0.8092041015625,0.485870361328125,22244.08452395834,-1.266154400223533,-0.2780207019988221,3.389019227301894,22244.03274179167,2.02953793765252,-1.995007767340591,-0.7746587153289323,-1.20193612575531,-1.380345702171326,2.624939203262329,-0.1301638931035995,0.3952696025371552,0.1378817409276962,XTrueNorthZVertical,0.5525671191649009,-0.5845916368047701,0.5940559587242208,-0.004444639352515494,-0.6513149738311768,0.699472188949585,0.2941555976867676,-42.45916748046875,12.05587577819824,-0.3290863037109375,2,192.168.1.118,10.97.20.126,3,0
2015-02-21 18:59:36.549,132,1424570376.31575,39.63846728053544,-106.3701409637236,2515.967,-1,-1,10,65,-9999,1424570376.50493,-44.94311904907227,22.00900268554688,10.91179656982422,156.0115661621094,146.885498046875,10,22244.137514,-0.3115081787109375,0.5397796630859375,0.381805419921875,22244.136305625,-1.197940724694462,-0.009528790380303515,3.150932093216592,22244.08452395834,1.839425435395221,-2.176067915378644,-0.8796654013115421,-1.272136449813843,-0.2688062787055969,3.423893928527832,-0.08427238464355469,0.09336595237255096,0.1476689726114273,XTrueNorthZVertical,0.5176752514825852,-0.6429234610030488,0.5626719224167399,-0.04541040560443191,-0.5241718292236328,0.7705256342887878,0.3626764714717865,-38.77796173095703,20.57572555541992,4.598074913024902,2,192.168.1.118,10.97.20.126,3,0
2015-02-21 18:59:36.609,133,1424570376.31575,39.63846728053544,-106.3701409637236,2515.967,-1,-1,10,65,-9999,1424570376.557749,-41.49777603149414,27.6812744140625,13.74071502685547,146.1567687988281,137.0307159423828,10,22244.18663845833,-0.001190185546875,0.74066162109375,0.54840087890625,22244.18808745833,-0.8689865342156563,-0.8997923838090389,1.9275885401483,22244.136305625,1.562778412438809,-2.401054594708156,-0.9643172319159029,-1.203851103782654,-0.0003292695910204202,3.185956478118896,0.04776377603411674,-0.2416276037693024,-0.03535860404372215,XTrueNorthZVertical,0.4625667529865223,-0.7045452647132288,0.5326790833052929,-0.07681798701938858,-0.3845557570457458,0.8216599225997925,0.4207040667533875,-36.36574172973633,24.32808685302734,5.823261260986328,2,192.168.1.118,10.97.20.126,3,0
2015-02-21 18:59:36.645,134,1424570376.31575,39.63846728053544,-106.3701409637236,2515.967,-1,-1,10,65,-9999,1424570376.608778,-37.69424819946289,32.72518920898438,15.85409545898438,137.8213195800781,128.6952667236328,10,22244.23571841667,-0.033050537109375,0.8399810791015625,0.62738037109375,22244.18808745833,-0.8689865342156563,-0.8997923838090389,1.9275885401483,22244.18808745833,1.336480039241473,-2.616629007167402,-0.9998648382130991,-0.8748968243598938,-0.8905929327011108,1.962612509727478,0.2696564197540283,-0.1007363274693489,0.08075600117444992,XTrueNorthZVertical,0.4275186969893883,-0.7423275563725271,0.5044714026531172,-0.1081027594406846,-0.2708466053009033,0.8413979411125183,0.4676448702812195,-32.59023284912109,28.84377861022949,7.358423233032227,2,192.168.1.118,10.97.20.126,3,0
2015-02-21 18:59:36.737,135,1424570376.31575,39.63846728053544,-106.3701409637236,2515.967,-1,-1,10,65,-9999,1424570376.712312,-30.53065872192383,37.07284545898438,20.67991638183594,127.817756652832,118.6916961669922,10,22244.28483675,-0.039398193359375,0.64373779296875,0.71453857421875,22244.29165108333,-1.801739264939952,0.1073648067143265,1.028018530290283,22244.23986954167,1.161620196078077,-2.798233518167077,-0.9915654471947867,-1.081802010536194,-0.4460020065307617,1.461252808570862,0.1512262374162674,0.003097180277109146,0.1119509115815163,XTrueNorthZVertical,0.4075968157455913,-0.769142097571236,0.4743165450129375,-0.1315641462700594,-0.1842767745256424,0.8368839025497437,0.5154294371604919,-27.74892807006836,32.48008728027344,11.1028881072998,2,192.168.1.118,10.97.20.126,3,0
2015-02-21 18:59:36.740,136,1424570376.31575,39.63846728053544,-106.3701409637236,2515.967,-1,-1,10,65,-9999,1424570376.712312,-30.53065872192383,37.07284545898438,20.67991638183594,127.817756652832,118.6916961669922,10,22244.33391791667,-0.0932159423828125,0.7327880859375,0.7712860107421875,22244.29165108333,-1.801739264939952,0.1073648067143265,1.028018530290283,22244.29165108333,1.018952443640039,-2.922420215282993,-0.9374933568829854,-1.807649374008179,0.1165640503168106,1.063041806221008,0.08927439898252487,-0.1623393893241882,0.1368854939937592,XTrueNorthZVertical,0.3893684837413579,-0.7982598082658188,0.4396150681602746,-0.1338360719007278,-0.1286725848913193,0.8060771822929382,0.5776530504226685,-26.2752513885498,33.15502166748047,12.59320068359375,2,192.168.1.118,10.97.20.126,3,0
2015-02-21 18:59:36.808,137,1424570376.31575,39.63846728053544,-106.3701409637236,2515.967,-1,-1,10,65,-9999,1424570376.765615,-28.56919479370117,36.54635620117188,22.89312744140625,128.1230163574219,118.996955871582,10,22244.38303433334,-0.15325927734375,0.720001220703125,0.8448944091796875,22244.34343279167,-1.948161459569163,0.3050240901877895,0.5535790452537569,22244.34343279167,0.9268299188225536,-2.981399553910243,-0.8487123979781123,-1.954071640968323,0.3142232298851013,0.5886020064353943,0.01221143081784248,-0.01764190010726452,0.1187984347343445,XTrueNorthZVertical,0.3765831379935702,-0.8273021985193593,0.3997213408346618,-0.1182332529548907,-0.1054273769259453,0.7504299879074097,0.652487576007843,-24.75020980834961,33.26021575927734,15.14656448364258,2,192.168.1.118,10.97.20.126,2,0
2015-02-21 18:59:36.853,138,1424570376.31575,39.63846728053544,-106.3701409637236,2515.967,-1,-1,10,65,-9999,1424570376.816734,-27.54582595825195,34.84808349609375,25.38924407958984,130.0865478515625,120.9604797363281,10,22244.43210008333,-0.1132354736328125,0.724853515625,0.91107177734375,22244.39521495833,-1.702408416286068,0.4460214256765087,0.1557049089247907,22244.39521495833,0.8803833534562125,-2.993574246867824,-0.7586666784857872,-1.708318471908569,0.4552204608917236,0.1907274723052979,-0.05266537517309189,0.02714875526726246,0.1319591403007507,XTrueNorthZVertical,0.3699672086628094,-0.8497254302135648,0.3633510966211357,-0.0952206819228076,-0.1070331111550331,0.6879543662071228,0.7178180813789368,-23.98266410827637,31.69301795959473,19.19941711425781,2,192.168.1.118,10.97.20.126,2,0
2015-02-21 18:59:36.895,139,1424570376.31575,39.63846728053544,-106.3701409637236,2515.967,-1,-1,10,65,-9999,1424570376.869036,-27.3752555847168,33.08187866210938,27.35285949707031,285.2081298828125,276.0820617675781,10,22244.48122166667,-0.0822906494140625,0.602783203125,0.9306793212890625,22244.446996625,-1.011430498808507,-0.09201727566830883,0.007807323051676295,22244.446996625,0.8630647510951607,-2.993857525162807,-0.6951206344812157,-1.017340540885925,-0.08281832188367844,0.04282954335212708,0.01931010745465755,0.09922222793102264,0.1748677939176559,XTrueNorthZVertical,0.3693489662063852,-0.8621988311519356,0.3375589655414367,-0.0790474631098972,-0.1130448505282402,0.6404780745506287,0.7596109509468079,-24.10876083374023,30.87754821777344,20.33661270141602,2,192.168.1.118,10.97.20.126,2,0
2015-02-21 18:59:36.938,140,1424570376.31575,39.63846728053544,-106.3701409637236,2515.967,-1,-1,10,65,-9999,1424570376.869036,-27.3752555847168,33.08187866210938,27.35285949707031,285.2081298828125,276.0820617675781,10,22244.53029866667,-0.24383544921875,0.5560455322265625,0.9380340576171875,22244.49877820833,-0.7879854243964602,-0.09401917385972139,-0.1429979020995867,22244.49877820833,0.8536732251658423,-3.010863432145156,-0.6501031325672625,-0.7938950061798096,-0.08482076972723007,-0.1079757958650589,-0.008369729854166508,-0.04456904157996178,0.1415570378303528,XTrueNorthZVertical,0.3724881660228598,-0.8694061849446708,0.3157092646860273,-0.07558539451039387,-0.1037671118974686,0.6052684783935547,0.7892290949821472,-23.98213005065918,29.93032264709473,21.84642791748047,2,192.168.1.118,10.97.20.126,2,0
2015-02-21 18:59:36.996,141,1424570376.31575,39.63846728053544,-106.3701409637236,2515.967,-1,-1,10,65,-9999,1424570376.945385,-27.30703353881836,30.840087890625,29.81569671630859,289.2122497558594,280.086181640625,10,22244.57942775,-0.0581207275390625,0.6370391845703125,0.9728240966796875,22244.55056058334,-0.3827055697082018,0.4822135185745765,-0.4078069282466347,22244.55056058334,0.8671145041643099,-2.987999589943418,-0.620366376751069,-0.3886150717735291,0.4914118349552155,-0.372785210609436,-0.05413678288459778,0.06034454703330994,0.1840569823980331,XTrueNorthZVertical,0.3776231019470824,-0.8714609940339408,0.3068681423471894,-0.06155088857708583,-0.1244826018810272,0.5813332796096802,0.8040869235992432,-24.50507736206055,28.43027877807617,23.22614097595215,2,192.168.1.118,10.97.20.126,2,0
2015-02-21 18:59:37.046,142,1424570376.31575,39.63846728053544,-106.3701409637236,2515.967,-1,-1,10,65,-9999,1424570376.998038,-27.85282516479492,29.68527221679688,30.88069915771484,288.2261962890625,279.1001281738281,10,22244.628496125,-0.1551666259765625,0.503936767578125,0.899017333984375,22244.60234208333,-0.07682261006886174,0.08885823398325683,-0.2173903776737511,22244.60234208333,0.8816988152739687,-2.962558183170129,-0.605710036561112,-0.08273206651210785,0.09805644303560257,-0.1823689937591553,0.0695708692073822,-0.0100502846762538,0.1432669311761856,XTrueNorthZVertical,0.381543739317784,-0.8711505454642995,0.3050616221718566,-0.04958375461313962,-0.1463988721370697,0.5693459510803223,0.8089578151702881,-25.12560272216797,27.93598556518555,23.1628589630127,2,192.168.1.118,10.97.20.126,2,0
2015-02-21 18:59:37.094,143,1424570376.31575,39.63846728053544,-106.3701409637236,2515.967,-1,-1,10,65,-9999,1424570377.049641,-28.97853469848633,28.90402221679688,30.48131561279297,287.5062561035156,278.3801879882812,10,22244.677622,-0.2242584228515625,0.5703125,0.870941162109375,22244.65412375,0.2729180853502303,-0.0571865907194895,-0.1360462527061528,22244.65412375,0.8918707985386688,-2.959530733708346,-0.6107749670381011,0.2670086622238159,-0.04798846319317818,-0.1010251864790916,-0.04547862336039543,0.003859572345390916,0.05644184350967407,XTrueNorthZVertical,0.3849837187283999,-0.8686885377368961,0.307530597732794,-0.05091887759662542,-0.1483232527971268,0.5735024809837341,0.8056644797325134,-25.49546051025391,27.61822700500488,23.13975524902344,2,192.168.1.118,10.97.20.126,2,0
2015-02-21 18:59:37.138,144,1424570376.31575,39.63846728053544,-106.3701409637236,2515.967,-1,-1,10,65,-9999,1424570377.101397,-29.06381607055664,28.6492919921875,30.33155059814453,287.3307800292969,278.2047119140625,10,22244.726701625,-0.2487030029296875,0.5447235107421875,0.9268951416015625,22244.70590591667,0.3520547160902618,0.2570413841956138,-0.1257723098528452,22244.65412375,0.8918707985386688,-2.959530733708346,-0.6107749670381011,0.2670086622238159,-0.04798846319317818,-0.1010251864790916,-0.04547862336039543,0.003859572345390916,0.05644184350967407,XTrueNorthZVertical,0.3849837187283999,-0.8686885377368961,0.307530597732794,-0.05091887759662542,-0.1483232527971268,0.5735024809837341,0.8056644797325134,-25.49546051025391,27.61822700500488,23.13975524902344,2,192.168.1.118,10.97.20.126,2,0
2015-02-21 18:59:37.195,145,1424570376.31575,39.63846728053544,-106.3701409637236,2515.967,-1,-1,10,65,-9999,1424570377.154323,-29.40494155883789,28.85308837890625,29.599365234375,287.4719543457031,278.3458862304688,10,22244.775931125,-0.1573333740234375,0.6600494384765625,1.008071899414062,22244.75768754167,0.439546482118199,0.7932965665584053,-0.2935914059441884,22244.75768754167,0.9163428919560003,-2.911888052381336,-0.6423008970146469,0.4336371719837189,0.8024945259094238,-0.2585710883140564,0.001117649488151073,0.0148369437083602,0.1833402663469315,XTrueNorthZVertical,0.3844863291083619,-0.8614024088811103,0.3293341319302877,-0.04117307575740629,-0.1823157668113708,0.5990393757820129,0.7796877026557922,-26.10421371459961,28.03889465332031,21.92313385009766,2,192.168.1.118,10.97.20.126,2,0
2015-02-21 18:59:37.241,146,1424570376.31575,39.63846728053544,-106.3701409637236,2515.967,-1,-1,10,65,-9999,1424570377.205201,-30.44536972045898,29.48141479492188,28.7174072265625,286.9956359863281,277.8695678710938,10,22244.82490366667,-0.1651153564453125,0.7371673583984375,1.150619506835938,22244.80946920834,0.7375065375145533,1.248822281533189,-0.5294734426469047,22244.80946920834,0.9468145547855447,-2.839112345939502,-0.6661203903966304,0.7315973043441772,1.258020162582397,-0.4944534599781036,0.0554661937057972,0.09383633732795715,0.353320449590683,XTrueNorthZVertical,0.3821082359005307,-0.853966468047245,0.3525747900991789,-0.02063067651393658,-0.2342076450586319,0.6179404258728027,0.7505308389663696,-27.19206047058105,28.15264701843262,20.40229225158691,2,192.168.1.118,10.97.20.126,2,0
2015-02-21 18:59:37.287,147,1424570376.31575,39.63846728053544,-106.3701409637236,2515.967,-1,-1,10,65,-9999,1424570377.257766,-32.71384048461914,29.60028076171875,26.33778381347656,284.2109069824219,275.0848388671875,10,22244.874018375,-0.0671539306640625,0.8049163818359375,1.105682373046875,22244.8612515,1.453720569481705,1.361571999971655,-1.085272498985351,22244.8612515,1.018981835509455,-2.724775223734184,-0.7023289465680337,1.447811365127563,1.370769739151001,-1.050252795219421,0.2234534472227097,0.08923227339982986,0.4334854781627655,XTrueNorthZVertical,0.3859246090495639,-0.8366924900606306,0.3885590542924356,0.005456597149778987,-0.309039980173111,0.6459972262382507,0.6979842782020569,-30.24740028381348,28.01313400268555,15.76680755615234,2,192.168.1.118,10.97.20.126,2,0
