loggingTime,loggingSample,locationTimestamp_since1970,locationLatitude,locationLongitude,locationAltitude,locationSpeed,locationCourse,locationVerticalAccuracy,locationHorizontalAccuracy,locationFloor,locationHeadingTimestamp_since1970,locationHeadingX,locationHeadingY,locationHeadingZ,locationTrueHeading,locationMagneticHeading,locationHeadingAccuracy,accelerometerTimestamp_sinceReboot,accelerometerAccelerationX,accelerometerAccelerationY,accelerometerAccelerationZ,gyroTimestamp_sinceReboot,gyroRotationX,gyroRotationY,gyroRotationZ,motionTimestamp_sinceReboot,motionYaw,motionRoll,motionPitch,motionRotationRateX,motionRotationRateY,motionRotationRateZ,motionUserAccelerationX,motionUserAccelerationY,motionUserAccelerationZ,motionAttitudeReferenceFrame,motionQuaternionX,motionQuaternionY,motionQuaternionZ,motionQuaternionW,motionGravityX,motionGravityY,motionGravityZ,motionMagneticFieldX,motionMagneticFieldY,motionMagneticFieldZ,motionMagneticFieldCalibrationAccuracy,IP_en0,IP_pdp_ip0,deviceOrientation,state
2015-03-10 17:30:20.918,1,1426033816.619364,37.78770919006989,-122.3967528416035,12.45586,-1,-1,10,65,-9999,1426033820.880001,5.931884765625,-6.710052490234375,-34.09185028076172,355.1216735839844,341.3516235351562,10,368579.509629,0.0037689208984375,-0.80206298828125,-0.6075439453125,368579.4766845834,-0.216847625443593,0.5048565131107572,-0.08452553720580692,368579.4766845834,-1.270334940244024,-0.06012051139036903,0.9356581427895562,-0.2278664857149124,0.5157687664031982,-0.04844214394688606,-0.05396752804517746,-0.04077443853020668,-0.02310903556644917,XTrueNorthZVertical,0.346921702809003,-0.289027483901629,-0.5402315901871889,0.7101114785860815,-0.03564734011888504,-0.8049896955490112,-0.5922169089317322,7.78127384185791,-7.351611137390137,-34.20043182373047,2,10.3.35.51,10.71.35.210,1,0
2015-03-10 17:30:20.946,2,1426033816.619364,37.78770919006989,-122.3967528416035,12.45586,-1,-1,10,65,-9999,1426033820.931416,6.204730987548828,-6.87994384765625,-34.55787658691406,355.4141540527344,341.6441040039062,10,368579.558733375,-0.014678955078125,-0.7843780517578125,-0.573822021484375,368579.5284580833,-0.01510731391569249,0.05750403952142694,-0.02711204516144268,368579.5284580833,-1.271565198842538,-0.04838910115347349,0.9303617928904536,-0.02612739428877831,0.06841360032558441,0.008974247612059116,0.04576429352164268,0.008577513508498669,0.004208399914205074,XTrueNorthZVertical,0.3479896507188904,-0.2836916438660666,-0.5392861273217394,0.7124554473493259,-0.02890333160758018,-0.8018361926078796,-0.596844494342804,8.420402526855469,-7.051213264465332,-34.11218643188477,2,10.3.35.51,10.71.35.210,1,0
2015-03-10 17:30:21.005,3,1426033816.619364,37.78770919006989,-122.3967528416035,12.45586,-1,-1,10,65,-9999,1426033820.983416,6.238838195800781,-6.67608642578125,-34.52458953857422,355.8354797363281,342.0654296875,10,368579.607745125,-0.0565643310546875,-0.8007049560546875,-0.5907135009765625,368579.5802332084,0.01653902931771909,-0.09869382052113748,-0.05258278414306952,368579.5802332084,-1.272948097618448,-0.04858583498136584,0.930195927045683,0.005480582360178232,-0.08779759705066681,-0.0166227538138628,-0.007441296242177486,0.008981930091977119,0.01504720374941826,XTrueNorthZVertical,0.3476801829393177,-0.2839589214507496,-0.5398334894792166,0.7120854319130504,-0.02902721054852009,-0.8017370700836182,-0.5969716310501099,8.539980888366699,-6.988038063049316,-34.095458984375,2,10.3.35.51,10.71.35.210,1,0
2015-03-10 17:30:21.044,4,1426033816.619364,37.78770919006989,-122.3967528416035,12.45586,-1,-1,10,65,-9999,1426033821.035428,6.443477630615234,-6.845947265625,-34.12515258789062,355.1829528808594,341.4129028320312,10,368579.656894625,-0.0232086181640625,-0.7879638671875,-0.6112518310546875,368579.6320084167,0.008257130959790679,0.05039153519815232,-0.05021523393398908,368579.6320084167,-1.274035167973393,-0.04810704210573463,0.9299839904209263,-0.002800726797431707,0.06128602847456932,-0.01425347290933132,-0.008466635830700397,0.002950091380625963,-0.01115170493721962,XTrueNorthZVertical,0.347578310437478,-0.2839220461277031,-0.5401636685141186,0.7118994580976651,-0.02874955162405968,-0.8016103506088257,-0.5971551537513733,8.453910827636719,-6.978704452514648,-34.11880874633789,2,10.3.35.51,10.71.35.210,1,0
2015-03-10 17:30:21.103,5,1426033816.619364,37.78770919006989,-122.3967528416035,12.45586,-1,-1,10,65,-9999,1426033821.087004,6.631065368652344,-6.557159423828125,-33.80892181396484,354.8408813476562,341.0708312988281,10,368579.7058645834,-0.0243682861328125,-0.7893829345703125,-0.59222412109375,368579.6837817917,-0.008941297043832034,0.05271620851368249,-0.03434199488878979,368579.6837817917,-1.274162795675832,-0.04492356607384156,0.9289087942930739,-0.02000083588063717,0.06361053884029388,0.001619523391127586,0.007264267187565565,0.01837433129549026,0.00548350065946579,XTrueNorthZVertical,0.3480301907140823,-0.2825293102378523,-0.5397897975378664,0.7125160960065152,-0.02688707038760185,-0.8009670972824097,-0.5981043577194214,8.543850898742676,-6.951869964599609,-34.10187911987305,2,10.3.35.51,10.71.35.210,1,0
2015-03-10 17:30:21.142,6,1426033816.619364,37.78770919006989,-122.3967528416035,12.45586,-1,-1,10,65,-9999,1426033821.087004,6.631065368652344,-6.557159423828125,-33.80892181396484,354.8408813476562,341.0708312988281,10,368579.7549174167,-0.0156402587890625,-0.7828826904296875,-0.594512939453125,368579.7355570417,0.04249339835330432,0.07654058130942235,-0.03625840560921081,368579.7355570417,-1.275012441782811,-0.03970495796512873,0.9292581054965646,0.03134969621896744,0.08740003407001495,-0.000415068818256259,0.01029608678072691,0.01467716693878174,0.006480475421994925,XTrueNorthZVertical,0.349444590346491,-0.2809092742935605,-0.5391387285880177,0.7129571702537455,-0.02375433780252934,-0.8011761903762817,-0.5979568958282471,8.696189880371094,-6.935519218444824,-34.06668472290039,2,10.3.35.51,10.71.35.210,1,0
2015-03-10 17:30:21.202,7,1426033816.619364,37.78770919006989,-122.3967528416035,12.45586,-1,-1,10,65,-9999,1426033821.190359,7.159717559814453,-6.710052490234375,-33.79228210449219,354.5035705566406,340.7335205078125,10,368579.8040152917,-0.0373687744140625,-0.8025054931640625,-0.5906982421875,368579.7873319584,0.05003626950873575,0.04959711424498169,-0.02213646129684764,368579.7873319584,-1.274389543241582,-0.03658237952902183,0.9305297857575999,0.03888839110732079,0.06045698001980782,0.01370583940297365,-0.007340286392718554,0.0190691202878952,0.00341212167404592,XTrueNorthZVertical,0.350832882228396,-0.2800205739685856,-0.538209043508579,0.7133272949870172,-0.02184977754950523,-0.8019365668296814,-0.597009539604187,8.837574005126953,-6.969557762145996,-34.0233268737793,2,10.3.35.51,10.71.35.210,1,0
2015-03-10 17:30:21.240,8,1426033816.619364,37.78770919006989,-122.3967528416035,12.45586,-1,-1,10,65,-9999,1426033821.190359,7.159717559814453,-6.710052490234375,-33.79228210449219,354.5035705566406,340.7335205078125,10,368579.8530386667,-0.029266357421875,-0.7800140380859375,-0.5963897705078125,368579.8391055834,0.04600504256668281,0.1086148945300097,0.003290868159010915,368579.7873319584,-1.274389543241582,-0.03658237952902183,0.9305297857575999,0.03888839110732079,0.06045698001980782,0.01370583940297365,-0.007340286392718554,0.0190691202878952,0.00341212167404592,XTrueNorthZVertical,0.350832882228396,-0.2800205739685856,-0.538209043508579,0.7133272949870172,-0.02184977754950523,-0.8019365668296814,-0.597009539604187,8.837574005126953,-6.969557762145996,-34.0233268737793,2,10.3.35.51,10.71.35.210,1,0
2015-03-10 17:30:21.299,9,1426033816.619364,37.78770919006989,-122.3967528416035,12.45586,-1,-1,10,65,-9999,1426033821.294635,7.108551025390625,-6.319366455078125,-34.44139099121094,354.4886474609375,340.7185974121094,10,368579.9021169583,-0.029266357421875,-0.7892913818359375,-0.5969390869140625,368579.8908805417,0.00673939545455452,0.1018486011484454,-0.007476558444288454,368579.8908805417,-1.266220339788134,-0.03349729607727995,0.9323405448546096,-0.004412536509335041,0.1127009689807892,0.0283745639026165,-0.00399711262434721,0.02576480433344841,-0.00214123772457242,XTrueNorthZVertical,0.3534551249872052,-0.2779542457493515,-0.5345177383265179,0.7156128399426507,-0.01995918713510036,-0.8030170202255249,-0.5956218242645264,9.108160972595215,-7.108145713806152,-33.92314529418945,2,10.3.35.51,10.71.35.210,1,0
2015-03-10 17:30:21.338,10,1426033816.619364,37.78770919006989,-122.3967528416035,12.45586,-1,-1,10,65,-9999,1426033821.294635,7.108551025390625,-6.319366455078125,-34.44139099121094,354.4886474609375,340.7185974121094,10,368579.9511700834,-0.062957763671875,-0.7300872802734375,-0.5761260986328125,368579.9426556667,0.02487951721962925,0.1498422261010903,0.01329716332276564,368579.8908805417,-1.266220339788134,-0.03349729607727995,0.9323405448546096,-0.004412536509335041,0.1127009689807892,0.0283745639026165,-0.00399711262434721,0.02576480433344841,-0.00214123772457242,XTrueNorthZVertical,0.3534551249872052,-0.2779542457493515,-0.5345177383265179,0.7156128399426507,-0.01995918713510036,-0.8030170202255249,-0.5956218242645264,9.108160972595215,-7.108145713806152,-33.92314529418945,2,10.3.35.51,10.71.35.210,1,0
2015-03-10 17:30:21.398,11,1426033816.619364,37.78770919006989,-122.3967528416035,12.45586,-1,-1,10,65,-9999,1426033821.345576,6.920963287353516,-6.16650390625,-34.62447357177734,354.5220642089844,340.7520141601562,10,368580.0002474583,-0.0995330810546875,-0.7068634033203125,-0.526641845703125,368579.9944290834,0.1247893370944969,0.3018759674632068,0.2343501864437027,368579.9426556667,-1.259664638733128,-0.03456178365305224,0.9308265250168274,0.01362682040780783,0.1606368720531464,0.04903358221054077,-0.03782122582197189,0.05098463967442513,0.01044986862689257,XTrueNorthZVertical,0.3535310576449677,-0.2767823767522685,-0.5325485178910215,0.7174952408749242,-0.02063519507646561,-0.8021137714385986,-0.5968146324157715,9.231546401977539,-7.092612266540527,-33.89303207397461,2,10.3.35.51,10.71.35.210,1,0
2015-03-10 17:30:21.437,12,1426033816.619364,37.78770919006989,-122.3967528416035,12.45586,-1,-1,10,65,-9999,1426033821.399761,7.398445129394531,-6.16650390625,-34.49132537841797,354.5006408691406,340.7305908203125,10,368580.0492948333,-0.1844940185546875,-0.73223876953125,-0.4769134521484375,368580.0462043334,0.2345661688081082,0.4403414357035877,0.3872286825035924,368579.9944290834,-1.245372415018836,-0.03402364858388687,0.9322850654824811,0.1135343760251999,0.3126679658889771,0.2700895965099335,-0.07085128128528595,0.1062218546867371,0.05616601556539536,XTrueNorthZVertical,0.3561742903859206,-0.2744303097838078,-0.5271300005901819,0.7210838230082117,-0.0202742051333189,-0.8029839396476746,-0.5956557393074036,9.420228004455566,-7.112786293029785,-33.83683776855469,2,10.3.35.51,10.71.35.210,1,0
2015-03-10 17:30:21.497,13,1426033816.619364,37.78770919006989,-122.3967528416035,12.45586,-1,-1,10,65,-9999,1426033821.451103,8.114677429199219,-6.913909912109375,-34.19173431396484,352.4256896972656,338.6556396484375,10,368580.0983716667,-0.262359619140625,-0.7607879638671875,-0.465972900390625,368580.0979793334,0.3012727614763039,0.9882996131606233,0.4919273986506406,368580.0462043334,-1.213436355889574,-0.04207928028195463,0.9402762873653058,0.2233113050460815,0.4511333405971527,0.4229677617549896,-0.1499119848012924,0.08770453929901123,0.100944884121418,XTrueNorthZVertical,0.3613816519719263,-0.273645369921844,-0.5160307568137208,0.7267969513880278,-0.02480114623904228,-0.8077210187911987,-0.5890430212020874,9.918949127197266,-7.53791332244873,-33.60146331787109,2,10.3.35.51,10.71.35.210,1,0
2015-03-10 17:30:21.535,14,1426033816.619364,37.78770919006989,-122.3967528416035,12.45586,-1,-1,10,65,-9999,1426033821.527149,9.717670440673828,-8.03509521484375,-33.69242095947266,348.6906127929688,334.9205627441406,10,368580.1474184167,-0.2395782470703125,-0.79559326171875,-0.4163665771484375,368580.0979793334,0.3012727614763039,0.9882996131606233,0.4919273986506406,368580.0979793334,-1.170333051731028,-0.03976418973210758,0.9516547338437622,0.2900179922580719,0.9990913867950439,0.5276660919189453,-0.2313697785139084,0.05509957671165466,0.1113412082195282,XTrueNorthZVertical,0.3720231869154018,-0.2676937737059972,-0.4984758101399736,0.735840129381336,-0.02307052351534367,-0.8143769502639771,-0.5798775553703308,10.60240650177002,-8.089145660400391,-33.26287460327148,2,10.3.35.51,10.71.35.210,1,0
2015-03-10 17:30:21.609,15,1426033821.549299,37.7878150122951,-122.3967547751118,12.22049,-1,-1,10,65,-9999,1426033821.582365,11.33771514892578,-8.83343505859375,-33.54261779785156,346.0592956542969,332.2892456054688,10,368580.1964902917,-0.1927490234375,-0.8476409912109375,-0.43310546875,368580.2015279167,0.5693422957459359,1.954751718002673,0.6921188156885509,368580.1497528334,-1.122199949934687,-0.01580910242050144,0.9682681961888869,0.3864677250385284,1.497964978218079,0.5772820115089417,-0.2306191772222519,0.02831222675740719,0.150289848446846,XTrueNorthZVertical,0.3903409898396261,-0.2535856765508772,-0.4740661952951134,0.7473884506493016,-0.00895907636731863,-0.8239054679870605,-0.5666564106941223,11.94559288024902,-8.79767894744873,-32.62158584594727,2,10.3.35.51,10.71.35.210,1,0
2015-03-10 17:30:21.639,16,1426033821.549299,37.7878150122951,-122.3967547751118,12.22049,-1,-1,10,65,-9999,1426033821.582365,11.33771514892578,-8.83343505859375,-33.54261779785156,346.0592956542969,332.2892456054688,10,368580.2455335417,-0.1043548583984375,-0.8900909423828125,-0.416351318359375,368580.2015279167,0.5693422957459359,1.954751718002673,0.6921188156885509,368580.2015279167,-1.063322751445243,0.02450594517074853,0.9919915608333315,0.5580881834030151,1.965543031692505,0.7278571128845215,-0.2061530202627182,-0.01052392181009054,0.1137540936470032,XTrueNorthZVertical,0.4156485790028912,-0.2319622346567631,-0.4408145461264883,0.7609943191479879,0.01340399403125048,-0.837117075920105,-0.5468595623970032,14.63779067993164,-10.0672025680542,-31.12315368652344,2,10.3.35.51,10.71.35.210,1,0
2015-03-10 17:30:21.708,17,1426033821.549299,37.7878150122951,-122.3967547751118,12.22049,-1,-1,10,65,-9999,1426033821.635843,13.36703872680664,-10.03945922851562,-32.16118621826172,342.1997375488281,328.4296875,10,368580.294604375,-0.0181884765625,-0.89794921875,-0.380035400390625,368580.2533029583,0.6453614301139208,1.987358130809058,0.8134803981440069,368580.2533029583,-0.9907820884901538,0.0632597417136804,1.024302469229397,0.6341074109077454,1.998149275779724,0.8492183685302734,-0.1372087001800537,-0.03573904931545258,0.1023041531443596,XTrueNorthZVertical,0.4440297490734087,-0.2085901351292656,-0.400539432414706,0.7738836720927504,0.03285384923219681,-0.8543518781661987,-0.5186554789543152,13.50787830352783,-10.48196125030518,-31.49812316894531,2,10.3.35.51,10.71.35.210,1,0
2015-03-10 17:30:21.736,18,1426033821.549299,37.7878150122951,-122.3967547751118,12.22049,-1,-1,10,65,-9999,1426033821.708715,17.20399856567383,-12.2308349609375,-29.68126678466797,334.5657958984375,320.7957458496094,10,368580.3436457917,-0.00433349609375,-0.95965576171875,-0.3900909423828125,368580.3050765,0.6693610389093878,1.888690142950494,0.9113382523989685,368580.3050765,-0.9075324009674295,0.08909424882973384,1.060371084142316,0.6581071615219116,1.899481177330017,0.9470758438110352,-0.06092534214258194,-0.03662759438157082,0.1015703752636909,XTrueNorthZVertical,0.470908587858172,-0.1869218383262061,-0.3575575783769498,0.7845112770188071,0.04346928745508194,-0.872536838054657,-0.4866106510162354,15.83272266387939,-11.93170356750488,-29.85674858093262,2,10.3.35.51,10.71.35.210,1,0
2015-03-10 17:30:21.798,19,1426033821.549299,37.7878150122951,-122.3967547751118,12.22049,-1,-1,10,65,-9999,1426033821.760447,19.4891242980957,-14.40518188476562,-27.78388214111328,328.2433776855469,314.4733276367188,10,368580.3927155,0.0301513671875,-0.9755706787109375,-0.3809814453125,368580.3568517084,0.7044023799004324,1.580795964055926,0.8982536093311911,368580.3568517084,-0.8116006572890183,0.09079754016483571,1.097714946130594,0.6931486129760742,1.591586947441101,0.9339908361434937,-0.04564689099788666,-0.07852042466402054,0.06312956660985947,XTrueNorthZVertical,0.4941327952820915,-0.1701631438090835,-0.3146720701091183,0.7923754228869369,0.04131339490413666,-0.8901685476303101,-0.4537545740604401,18.25199890136719,-14.03841972351074,-27.46367645263672,2,10.3.35.51,10.71.35.210,1,0
2015-03-10 17:30:21.829,20,1426033821.549299,37.7878150122951,-122.3967547751118,12.22049,-1,-1,10,65,-9999,1426033821.813165,21.02390289306641,-16.81729125976562,-25.65348815917969,322.3995971679688,308.6295471191406,10,368580.4418734167,0.0687713623046875,-1.03729248046875,-0.36138916015625,368580.4086267084,0.7809645328146844,1.495610495531998,0.7229012294643408,368580.4086267084,-0.7258963214541417,0.09022897535971096,1.139087324623877,0.7697108387947083,1.506401300430298,0.7586381435394287,0.006135768722742796,-0.07328487932682037,0.03761696070432663,XTrueNorthZVertical,0.5170892827369064,-0.1557494338351632,-0.2759495381310437,0.7951180272954551,0.03770273178815842,-0.9082520008087158,-0.4167215824127197,19.53343772888184,-15.65821361541748,-25.64627075195312,2,10.3.35.51,10.71.35.210,1,0
2015-03-10 17:30:21.904,21,1426033821.549299,37.7878150122951,-122.3967547751118,12.22049,-1,-1,10,65,-9999,1426033821.868181,22.20056915283203,-18.46499633789062,-24.03904724121094,320.3567199707031,306.586669921875,10,368580.4908143334,0.103790283203125,-1.045547485351562,-0.3740692138671875,368580.4604001667,0.6918346564002394,1.412384847254258,0.7471802038581572,368580.4604001667,-0.635490110402272,0.08071472771739695,1.179107315215983,0.6805810928344727,1.423175692558289,0.7829167246818542,0.0429205410182476,-0.1138355955481529,0.02384832873940468,XTrueNorthZVertical,0.5382057784557197,-0.1417071203211751,-0.2381636852422437,0.7959470638838245,0.0307794101536274,-0.9242656230926514,-0.3805072605609894,20.62603950500488,-17.2099781036377,-23.72444343566895,2,10.3.35.51,10.71.35.210,1,0
2015-03-10 17:30:21.928,22,1426033821.549299,37.7878150122951,-122.3967547751118,12.22049,-1,-1,10,65,-9999,1426033821.868181,22.20056915283203,-18.46499633789062,-24.03904724121094,320.3567199707031,306.586669921875,10,368580.5398509583,0.132354736328125,-1.009963989257812,-0.316619873046875,368580.5121752917,0.4918786628026921,1.17312086228325,0.736454322567863,368580.5121752917,-0.5356565124184409,0.05306425769027102,1.21053409666192,0.4806252717971802,1.183911561965942,0.7721903920173645,0.1018470153212547,-0.09697146713733673,-0.009686083532869816,XTrueNorthZVertical,0.5542765400617666,-0.1294826683708155,-0.2029919229689107,0.7967471821879314,0.01869741827249527,-0.9358044266700745,-0.3520235121250153,21.64327239990234,-19.08370590209961,-21.25669479370117,2,10.3.35.51,10.71.35.210,1,0
2015-03-10 17:30:22.005,23,1426033821.549299,37.7878150122951,-122.3967547751118,12.22049,-1,-1,10,65,-9999,1426033821.994377,24.38338088989258,-21.99832153320312,-19.21235656738281,308.572265625,294.8022155761719,10,368580.5889235417,0.105255126953125,-0.9911346435546875,-0.3113555908203125,368580.5639505417,0.4104525124735194,1.020640775122437,0.6120125279956214,368580.5639505417,-0.4334539926412546,0.008858381890117215,1.232987363577256,0.3991990983486176,1.031431555747986,0.6477479338645935,0.09742124378681183,-0.04780414700508118,0.02685758471488953,XTrueNorthZVertical,0.5654237924886839,-0.1207975880300938,-0.1729461574261953,0.7973666293692216,0.002935813274234533,-0.9434831142425537,-0.331407755613327,22.00749588012695,-20.24014854431152,-19.76037979125977,2,10.3.35.51,10.71.35.210,1,0
2015-03-10 17:30:22.027,24,1426033821.549299,37.7878150122951,-122.3967547751118,12.22049,-1,-1,10,65,-9999,1426033821.994377,24.38338088989258,-21.99832153320312,-19.21235656738281,308.572265625,294.8022155761719,10,368580.6379781667,0.1211700439453125,-0.9531097412109375,-0.285430908203125,368580.6157239167,0.2838157405308345,0.8298692251762455,0.4812795479802857,368580.6157239167,-0.3443884245804069,-0.02798792187823492,1.249066233004256,0.2725623250007629,0.8406600952148438,0.5170144438743591,0.1202380210161209,-0.03544109314680099,0.0247637964785099,XTrueNorthZVertical,0.5740697352272464,-0.1113626524548122,-0.1470485163690373,0.7977587793025586,-0.008848861791193485,-0.9486897587776184,-0.3160845935344696,22.27395057678223,-21.20635414123535,-18.40184020996094,2,10.3.35.51,10.71.35.210,1,0
2015-03-10 17:30:22.096,25,1426033821.549299,37.7878150122951,-122.3967547751118,12.22049,-1,-1,10,65,-9999,1426033822.046235,24.36632537841797,-22.96658325195312,-17.63119888305664,305.2227172851562,291.4526672363281,10,368580.6870308333,0.0098114013671875,-0.9591827392578125,-0.2325592041015625,368580.6674989584,0.196816126672344,0.5894699346325367,0.4031029868132277,368580.6674989584,-0.2757093508625091,-0.05730101363330625,1.260556230420024,0.185558944940567,0.6002641916275024,0.4388322234153748,0.08593463152647018,-0.01584883220493793,0.0506664365530014,XTrueNorthZVertical,0.5803583338690868,-0.1038799742038229,-0.1276930579190139,0.7975510489076532,-0.01748370379209518,-0.9522603154182434,-0.3047863245010376,22.53387641906738,-22.12539100646973,-16.94572448730469,2,10.3.35.51,10.71.35.210,1,0
2015-03-10 17:30:22.126,26,1426033821.549299,37.7878150122951,-122.3967547751118,12.22049,-1,-1,10,65,-9999,1426033822.105457,24.26401138305664,-23.7139892578125,-16.86558532714844,302.8887634277344,289.1187133789062,10,368580.736127875,0.01519775390625,-0.929779052734375,-0.230194091796875,368580.719274125,0.1609457436339577,0.6257304707706196,0.3508773325723378,368580.719274125,-0.2099628843992937,-0.09084314497017143,1.267443287031467,0.1496891975402832,0.636530876159668,0.3865971565246582,0.009918131865561008,0.008707295171916485,0.1021318808197975,XTrueNorthZVertical,0.5844462307008884,-0.09837440895697783,-0.1110937299219691,0.7977488951043491,-0.02709952928125858,-0.9543402194976807,-0.2974901497364044,22.57132720947266,-22.6732063293457,-16.15323448181152,2,10.3.35.51,10.71.35.210,1,0
2015-03-10 17:30:22.205,27,1426033821.549299,37.7878150122951,-122.3967547751118,12.22049,-1,-1,10,65,-9999,1426033822.176577,24.46865463256836,-24.39346313476562,-15.96682739257812,300.2551879882812,286.4851379394531,10,368580.785133875,0.0207366943359375,-0.937530517578125,-0.20135498046875,368580.7710475834,0.1080162159169599,0.4361070095703617,0.2615719538420567,368580.7710475834,-0.1515737088376776,-0.1170447498859562,1.275027622384877,0.09675976634025574,0.4469073414802551,0.2972914278507233,0.09699558466672897,0.001851193839684129,0.06621450185775757,XTrueNorthZVertical,0.5889162778474686,-0.0918535063367089,-0.09545087646398767,0.7972638952244656,-0.03403781726956367,-0.9565783739089966,-0.2894811034202576,22.64286994934082,-23.16623306274414,-15.33271217346191,2,10.3.35.51,10.71.35.210,1,0
2015-03-10 17:30:22.221,28,1426033821.549299,37.7878150122951,-122.3967547751118,12.22049,-1,-1,10,65,-9999,1426033822.176577,24.46865463256836,-24.39346313476562,-15.96682739257812,300.2551879882812,286.4851379394531,10,368580.834169625,0.0045928955078125,-0.896392822265625,-0.2661895751953125,368580.8228227083,0.06344422033284869,0.6736660388115009,0.0489323892368979,368580.7710475834,-0.1515737088376776,-0.1170447498859562,1.275027622384877,0.09675976634025574,0.4469073414802551,0.2972914278507233,0.09699558466672897,0.001851193839684129,0.06621450185775757,XTrueNorthZVertical,0.5889162778474686,-0.0918535063367089,-0.09545087646398767,0.7972638952244656,-0.03403781726956367,-0.9565783739089966,-0.2894811034202576,22.64286994934082,-23.16623306274414,-15.33271217346191,2,10.3.35.51,10.71.35.210,1,0
2015-03-10 17:30:22.300,29,1426033821.549299,37.7878150122951,-122.3967547751118,12.22049,-1,-1,10,65,-9999,1426033822.279093,25.18488693237305,-25.17477416992188,-14.20257949829102,296.6301574707031,282.860107421875,10,368580.8832304584,0.0762481689453125,-0.9325408935546875,-0.2597198486328125,368580.8745977917,0.0008484831232992453,0.6397389644205455,-0.2289903084338092,368580.8745977917,-0.1283933940974739,-0.07622623732629048,1.277859118948504,-0.01040864363312721,0.6505395174026489,-0.1932723224163055,0.1002525389194489,0.02009820565581322,0.009820430539548397,XTrueNorthZVertical,0.5927136386026008,-0.06875305632015519,-0.07413604744634643,0.7990415782150708,-0.0219902079552412,-0.957399845123291,-0.287927120923996,23.13402557373047,-23.6810359954834,-13.72921943664551,2,10.3.35.51,10.71.35.210,1,0
2015-03-10 17:30:22.319,30,1426033821.549299,37.7878150122951,-122.3967547751118,12.22049,-1,-1,10,65,-9999,1426033822.279093,25.18488693237305,-25.17477416992188,-14.20257949829102,296.6301574707031,282.860107421875,10,368580.932265,0.00640869140625,-0.913360595703125,-0.25244140625,368580.8745977917,0.0008484831232992453,0.6397389644205455,-0.2289903084338092,368580.8745977917,-0.1283933940974739,-0.07622623732629048,1.277859118948504,-0.01040864363312721,0.6505395174026489,-0.1932723224163055,0.1002525389194489,0.02009820565581322,0.009820430539548397,XTrueNorthZVertical,0.5927136386026008,-0.06875305632015519,-0.07413604744634643,0.7990415782150708,-0.0219902079552412,-0.957399845123291,-0.287927120923996,23.13402557373047,-23.6810359954834,-13.72921943664551,2,10.3.35.51,10.71.35.210,1,0
2015-03-10 17:30:22.407,31,1426033821.549299,37.7878150122951,-122.3967547751118,12.22049,-1,-1,10,65,-9999,1426033822.335115,25.96932220458984,-25.10684204101562,-13.63669967651367,296.0306091308594,282.2605590820312,10,368580.9813440834,0.007537841796875,-0.9039154052734375,-0.2182769775390625,368580.9781464167,0.04363509551262129,0.4553598000388715,-0.3968850383001107,368580.9263712917,-0.1800581582691326,0.002155566448809332,1.278833559907823,0.000933628180064261,0.5644902586936951,-0.3588740229606628,0.0007070729043334723,0.05086619779467583,0.02412951365113258,XTrueNorthZVertical,0.5943882402441466,-0.0527888884186866,-0.0715051505027722,0.7992515273409598,0.0006204417441040277,-0.9576807618141174,-0.2878319025039673,23.75772476196289,-23.4476318359375,-13.04780673980713,2,10.3.35.51,10.71.35.210,1,0
2015-03-10 17:30:22.421,32,1426033821.549299,37.7878150122951,-122.3967547751118,12.22049,-1,-1,10,65,-9999,1426033822.408574,26.97545623779297,-24.6142578125,-12.98759078979492,296.4310913085938,282.6610412597656,10,368581.0303825834,0.055206298828125,-0.824981689453125,-0.2486572265625,368581.0299215417,0.1076042248963246,0.4337130940664894,-0.4429356209214338,368580.9781464167,-0.2413885329230676,0.08617236244950366,1.278327501507752,0.03224292397499084,0.4661053419113159,-0.3613415360450745,-0.012683498673141,0.03807087987661362,0.05944890528917313,XTrueNorthZVertical,0.5957975943943268,-0.03743718327305733,-0.07103681199119767,0.7991104382692895,0.02481423504650593,-0.9575349688529968,-0.287247359752655,24.64788818359375,-22.93917846679688,-12.27769660949707,2,10.3.35.51,10.71.35.210,1,0
2015-03-10 17:30:22.500,33,1426033821.549299,37.7878150122951,-122.3967547751118,12.22049,-1,-1,10,65,-9999,1426033822.460024,27.55525970458984,-24.4783935546875,-12.52156448364258,297.0663146972656,283.2962646484375,10,368581.0794473334,0.08221435546875,-0.8134765625,-0.1483612060546875,368581.0816950417,0.3030453614978607,0.4087219903971859,-0.4243070754124386,368581.0299215417,-0.3135364888817633,0.1791896241365573,1.280433331090424,0.09621216356754303,0.4444585144519806,-0.4073924720287323,0.005917888134717941,0.1202799081802368,0.02828280255198479,XTrueNorthZVertical,0.5988800471139722,-0.02201531940934228,-0.07191216739970145,0.7972996252640809,0.05102791264653206,-0.9581400156021118,-0.2817160189151764,25.2976188659668,-22.55430221557617,-11.65332412719727,2,10.3.35.51,10.71.35.210,1,0
2015-03-10 17:30:22.519,34,1426033821.549299,37.7878150122951,-122.3967547751118,12.22049,-1,-1,10,65,-9999,1426033822.460024,27.55525970458984,-24.4783935546875,-12.52156448364258,297.0663146972656,283.2962646484375,10,368581.1284839584,0.1252288818359375,-0.85308837890625,-0.173736572265625,368581.0816950417,0.3030453614978607,0.4087219903971859,-0.4243070754124386,368581.0816950417,-0.3866827163034021,0.2687932823978327,1.283629623332832,0.2916534245014191,0.4194673001766205,-0.3887643218040466,0.006995818577706814,0.1455736458301544,0.1247045546770096,XTrueNorthZVertical,0.6028201817615623,-0.008657248843764828,-0.0737975811021515,0.7944097399410339,0.07521853595972061,-0.9590502381324768,-0.2730657756328583,25.91433906555176,-22.14508438110352,-11.0683479309082,2,10.3.35.51,10.71.35.210,1,0
2015-03-10 17:30:22.603,35,1426033821.549299,37.7878150122951,-122.3967547751118,12.22049,-1,-1,10,65,-9999,1426033822.564997,29.22647094726562,-23.96881103515625,-11.12348556518555,297.4721374511719,283.7020874023438,10,368581.1775550834,0.0191192626953125,-0.7879180908203125,-0.04132080078125,368581.18524525,0.3923163854500797,1.108654520724029,-0.05193270652098118,368581.1334700834,-0.4725707330158764,0.3750386637129968,1.290458263448025,0.2735115587711334,0.5704380869865417,-0.4243468940258026,0.02387841418385506,0.1078735813498497,0.08371294289827347,XTrueNorthZVertical,0.6092889802010382,0.006494608649653822,-0.07475673773467595,0.7893897809153799,0.1013504713773727,-0.9609619379043579,-0.2574495077133179,26.7110710144043,-21.67773818969727,-10.05288505554199,2,10.3.35.51,10.71.35.210,1,0
2015-03-10 17:30:22.620,36,1426033821.549299,37.7878150122951,-122.3967547751118,12.22049,-1,-1,10,65,-9999,1426033822.564997,29.22647094726562,-23.96881103515625,-11.12348556518555,297.4721374511719,283.7020874023438,10,368581.2267075417,1.979888916015625,-0.8621673583984375,0.8186492919921875,368581.18524525,0.3923163854500797,1.108654520724029,-0.05193270652098118,368581.18524525,-0.5565885624475038,0.4968481263415319,1.304453588277868,0.3809246420860291,1.119399666786194,-0.01639062911272049,-0.1063392832875252,0.1768218576908112,0.1900599002838135,XTrueNorthZVertical,0.619370431068243,0.02626628202722538,-0.0681288917350726,0.7816961321664905,0.1254585385322571,-0.964739978313446,-0.2313807010650635,27.3864574432373,-21.33865356445312,-8.894376754760742,2,10.3.35.51,10.71.35.210,1,0
2015-03-10 17:30:22.673,37,1426033821.549299,37.7878150122951,-122.3967547751118,12.22049,-1,-1,10,65,-9999,1426033822.668845,30.7100944519043,-22.69473266601562,-8.843288421630859,300.6947326660156,286.9246826171875,10,368581.2756850417,-0.42138671875,-1.365447998046875,-0.07647705078125,368581.2370189167,2.853458064719177,-1.09295838189132,-2.20866468686577,368581.2370189167,-0.9099762856644787,0.8612398919127112,1.345782796526221,2.842066287994385,-1.082213282585144,-2.173122882843018,3.309703350067139,-0.9848493933677673,1.144919395446777,XTrueNorthZVertical,0.6521903435956729,0.04434877398400969,-0.07858934116736771,0.752665061503354,0.1692699640989304,-0.9747911095619202,-0.1453618854284286,27.89830017089844,-21.40053176879883,-6.940326690673828,2,10.3.35.51,10.71.35.210,1,0
2015-03-10 17:30:22.712,38,1426033821.549299,37.7878150122951,-122.3967547751118,12.22049,-1,-1,10,65,-9999,1426033822.668845,30.7100944519043,-22.69473266601562,-8.843288421630859,300.6947326660156,286.9246826171875,10,368581.324839375,-0.6242828369140625,-1.0621337890625,0.344512939453125,368581.288793875,0.734604490874694,-3.762666054562191,0.6893720313402432,368581.288793875,-1.067181425983516,0.8744384580537026,1.330164185152339,0.7232130169868469,-3.7519211769104,0.7249133586883545,-1.130601763725281,-0.09283836185932159,0.2609714865684509,XTrueNorthZVertical,0.65081661255776,0.002500297435873631,-0.1375955306629791,0.7466585515879687,0.182832658290863,-0.9711875319480896,-0.1528629660606384,28.99345397949219,-19.55603408813477,-7.836282730102539,2,10.3.35.51,10.71.35.210,1,0
2015-03-10 17:30:22.773,39,1426033821.549299,37.7878150122951,-122.3967547751118,12.22049,-1,-1,10,65,-9999,1426033822.720667,31.08525848388672,-21.67547607421875,-9.475749969482422,305.7877502441406,292.0177001953125,10,368581.3738155,0.8811798095703125,-1.091842651367188,0.0758056640625,368581.3405689584,0.3767110604105425,1.331096914985661,-1.258712462873416,368581.3405689584,-1.197102820681791,0.9713576616474359,1.327747747442438,0.365319699048996,1.341841697692871,-1.223171353340149,-0.4761849641799927,-0.02786531485617161,0.3487896323204041,XTrueNorthZVertical,0.6573436945082396,-0.003285144950656406,-0.1548273067634933,0.7375073000178171,0.198703870177269,-0.9706088304519653,-0.1357769519090652,27.82607650756836,-20.07553482055664,-10.35125827789307,2,10.3.35.51,10.71.35.210,1,0
2015-03-10 17:30:22.811,40,1426033821.549299,37.7878150122951,-122.3967547751118,12.22049,-1,-1,10,65,-9999,1426033822.771198,31.59685897827148,-20.89410400390625,-10.14149475097656,310.2010192871094,296.4309692382812,10,368581.4228524584,0.362396240234375,-0.9247589111328125,0.012115478515625,368581.3923425,0.4268701016455309,0.680692789347675,-0.05831630365390111,368581.3923425,-1.365555398860262,1.211903111809323,1.309245445330048,0.4154788553714752,0.6914374828338623,-0.02277564443647861,0.7188639640808105,-0.1074809581041336,0.07570140063762665,XTrueNorthZVertical,0.6733353408329066,0.03475754817573212,-0.1423724419232106,0.7246665141962632,0.2421040534973145,-0.9659901261329651,-0.09082286059856415,29.34626388549805,-18.88973999023438,-8.15110969543457,2,10.3.35.51,10.71.35.210,1,0
2015-03-10 17:30:22.875,41,1426033821.549299,37.7878150122951,-122.3967547751118,12.22049,-1,-1,10,65,-9999,1426033822.823925,32.44952392578125,-20.58831787109375,-9.409175872802734,310.8927917480469,297.1227416992188,10,368581.4719209584,0.1512451171875,-0.854705810546875,0.1173248291015625,368581.4441177917,0.1345879056932255,-0.9058516079211872,0.1229291190730766,368581.4441177917,-1.389886096089136,1.201735149086609,1.319387925324595,0.1231967657804489,-0.8951070308685303,0.1584693789482117,-0.1036152914166451,0.0628470778465271,0.1996040195226669,XTrueNorthZVertical,0.6743533209695931,0.01942246253354662,-0.1512209034003789,0.7224975032534593,0.232017993927002,-0.9685630202293396,-0.08974073082208633,29.51621246337891,-18.94777488708496,-7.36485767364502,2,10.3.35.51,10.71.35.210,1,0
2015-03-10 17:30:22.910,42,1426033821.549299,37.7878150122951,-122.3967547751118,12.22049,-1,-1,10,65,-9999,1426033822.874234,32.90995788574219,-20.40151977539062,-8.726776123046875,310.1560363769531,296.385986328125,10,368581.5209624583,0.4239349365234375,-0.9666595458984375,0.0100555419921875,368581.49589275,0.1709504409010584,0.3504967668525655,-0.113128153629367,368581.49589275,-1.420000150054261,1.22567046052073,1.323983045422541,0.1595594137907028,0.3612412512302399,-0.07758824527263641,0.08347637951374054,0.06936632096767426,0.1482225358486176,XTrueNorthZVertical,0.6770572198305777,0.01630208265589705,-0.1524544391051589,0.7197815255755006,0.2299086302518845,-0.9696959257125854,-0.08265552669763565,29.22522735595703,-19.14739418029785,-7.983075141906738,2,10.3.35.51,10.71.35.210,1,0
2015-03-10 17:30:23.004,43,1426033821.549299,37.7878150122951,-122.3967547751118,12.22049,-1,-1,10,65,-9999,1426033822.977905,32.15961456298828,-20.43545532226562,-8.793350219726562,312.2466430664062,298.4765930175781,10,368581.570031,0.290771484375,-0.970855712890625,0.0497283935546875,368581.547666375,0.0598281802047391,-0.1413448780109745,0.01691533397974729,368581.547666375,-1.439381720444342,1.251942519463585,1.324179180517372,0.04843726009130478,-0.1306004971265793,0.05245492607355118,0.1410132795572281,0.008302767761051655,0.108388252556324,XTrueNorthZVertical,0.6792429558333607,0.01910643316232596,-0.1504471379934402,0.7180735667175402,0.2318199723958969,-0.9697437882423401,-0.07652790099382401,29.37723159790039,-19.12215042114258,-7.469121932983398,2,10.3.35.51,10.71.35.210,1,0
2015-03-10 17:30:23.010,44,1426033821.549299,37.7878150122951,-122.3967547751118,12.22049,-1,-1,10,65,-9999,1426033822.977905,32.15961456298828,-20.43545532226562,-8.793350219726562,312.2466430664062,298.4765930175781,10,368581.6190545834,0.3204345703125,-0.9497222900390625,0.034423828125,368581.599441375,0.06274860265611999,-0.01239728119042786,0.06136029677986168,368581.599441375,-1.439419257585114,1.248731861800782,1.329174803359252,0.05135779827833176,-0.001653014565818012,0.09689953178167343,0.06053129583597183,0.0001413211284670979,0.1346363723278046,XTrueNorthZVertical,0.6796090355885654,0.01621223487507654,-0.1498630884882272,0.717920479079542,0.2269748151302338,-0.9709512591362,-0.07573744654655457,29.28216552734375,-19.24451637268066,-7.527912139892578,2,10.3.35.51,10.71.35.210,1,0
2015-03-10 17:30:23.070,45,1426033821.549299,37.7878150122951,-122.3967547751118,12.22049,-1,-1,10,65,-9999,1426033823.034128,31.83560180664062,-20.4864501953125,-8.510406494140625,313.080810546875,299.3107604980469,10,368581.6681119584,0.315704345703125,-0.955047607421875,-0.0107421875,368581.651216625,0.04764395190151757,0.05343819148520297,0.1221093980895502,368581.651216625,-1.443653281277082,1.254929453592891,1.336018429642048,0.03625327348709106,0.0641823410987854,0.1576482355594635,0.08102080971002579,0.0168012622743845,0.07371301203966141,XTrueNorthZVertical,0.6809216989005048,0.01462625022094194,-0.1469591435006985,0.717310783620851,0.2211184799671173,-0.9725660085678101,-0.07226342707872391,29.19605827331543,-19.40456390380859,-7.45112419128418,2,10.3.35.51,10.71.35.210,1,0
2015-03-10 17:30:23.106,46,1426033821.549299,37.7878150122951,-122.3967547751118,12.22049,-1,-1,10,65,-9999,1426033823.034128,31.83560180664062,-20.4864501953125,-8.510406494140625,313.080810546875,299.3107604980469,10,368581.717152375,0.270263671875,-0.9906463623046875,0.0013580322265625,368581.7029900417,-0.02661323508927084,-0.0517353662842063,0.1469151457469842,368581.651216625,-1.443653281277082,1.254929453592891,1.336018429642048,0.03625327348709106,0.0641823410987854,0.1576482355594635,0.08102080971002579,0.0168012622743845,0.07371301203966141,XTrueNorthZVertical,0.6809216989005048,0.01462625022094194,-0.1469591435006985,0.717310783620851,0.2211184799671173,-0.9725660085678101,-0.07226342707872391,29.19605827331543,-19.40456390380859,-7.45112419128418,2,10.3.35.51,10.71.35.210,1,0
2015-03-10 17:30:23.198,47,1426033821.549299,37.7878150122951,-122.3967547751118,12.22049,-1,-1,10,65,-9999,1426033823.158746,32.22783660888672,-20.91110229492188,-8.260753631591797,312.7611389160156,298.9910888671875,10,368581.7662098334,0.297088623046875,-0.9299468994140625,0.001861572265625,368581.754765125,-0.03752607028808853,0.1242702869980405,0.1339293059556489,368581.754765125,-1.40492803403448,1.220128557822264,1.351594330570092,-0.0489165335893631,0.135014221072197,0.1694674789905548,0.05045154318213463,0.02192394807934761,0.07347913831472397,XTrueNorthZVertical,0.6801114096724679,0.009927297203828666,-0.1396314475471604,0.7196200493633664,0.2042176425457001,-0.976071298122406,-0.07469984143972397,28.85945892333984,-19.91532897949219,-7.414680004119873,2,10.3.35.51,10.71.35.210,1,0
2015-03-10 17:30:23.208,48,1426033821.549299,37.7878150122951,-122.3967547751118,12.22049,-1,-1,10,65,-9999,1426033823.158746,32.22783660888672,-20.91110229492188,-8.260753631591797,312.7611389160156,298.9910888671875,10,368581.815252,0.3255767822265625,-0.967620849609375,-0.010345458984375,368581.8065402917,-0.06910210606872202,0.0694943896972907,0.1671719479464539,368581.754765125,-1.40492803403448,1.220128557822264,1.351594330570092,-0.0489165335893631,0.135014221072197,0.1694674789905548,0.05045154318213463,0.02192394807934761,0.07347913831472397,XTrueNorthZVertical,0.6801114096724679,0.009927297203828666,-0.1396314475471604,0.7196200493633664,0.2042176425457001,-0.976071298122406,-0.07469984143972397,28.85945892333984,-19.91532897949219,-7.414680004119873,2,10.3.35.51,10.71.35.210,1,0
2015-03-10 17:30:23.308,49,1426033821.549299,37.7878150122951,-122.3967547751118,12.22049,-1,-1,10,65,-9999,1426033823.262917,31.52865219116211,-21.30178833007812,-7.844654083251953,312.2491760253906,298.4791259765625,10,368581.8643055834,0.258544921875,-0.940155029296875,-0.0109710693359375,368581.8583138334,-0.05596047135361702,-0.06902540702932775,0.1841005977316516,368581.8065402917,-1.42768934326366,1.251607509878876,1.349919784137292,-0.0804840624332428,0.08026415109634399,0.2026543468236923,0.1251869946718216,0.01077048387378454,0.06362117826938629,XTrueNorthZVertical,0.6822229140296717,0.01406519505880688,-0.1376555225862658,0.717931097215197,0.2080191820859909,-0.9757058024406433,-0.06874813139438629,28.85992813110352,-20.00879287719727,-7.156733512878418,2,10.3.35.51,10.71.35.210,1,0
2015-03-10 17:30:23.313,50,1426033821.549299,37.7878150122951,-122.3967547751118,12.22049,-1,-1,10,65,-9999,1426033823.262917,31.52865219116211,-21.30178833007812,-7.844654083251953,312.2491760253906,298.4791259765625,10,368581.91334175,0.2280731201171875,-1.004806518554688,-0.02911376953125,368581.9100889583,-0.03047029129603259,-0.01961657827341466,0.1877006588932207,368581.8583138334,-1.416999348007994,1.241890609686942,1.356025184914601,-0.06733943521976471,-0.05824486166238785,0.2195587009191513,0.06195683777332306,0.03772465884685516,0.06304232776165009,XTrueNorthZVertical,0.6822264121778382,0.01211558854861546,-0.1350656931503448,0.7184550305768526,0.2016997784376144,-0.9770252108573914,-0.06884066760540009,28.84503746032715,-20.0734748840332,-7.034602165222168,2,10.3.35.51,10.71.35.210,1,0
2015-03-10 17:30:23.382,51,1426033821.549299,37.7878150122951,-122.3967547751118,12.22049,-1,-1,10,65,-9999,1426033823.367201,31.10231781005859,-22.5758056640625,-8.826637268066406,311.9380493164062,298.1679992675781,10,368581.96241275,0.1058807373046875,-1.036865234375,0.0141143798828125,368581.9618640417,-0.04793343751200919,-0.169525649717866,0.252676995801192,368581.9100889583,-1.405434533040904,1.231406108605016,1.3632863963242,-0.04197365045547485,-0.00887439027428627,0.2230016440153122,0.0418882742524147,-0.01310648024082184,0.05461086332798004,XTrueNorthZVertical,0.6823562981337231,0.00979415247627435,-0.1320346696741216,0.7189303445848236,0.1942719966173172,-0.9785469770431519,-0.06858791410923004,28.74665451049805,-20.23517608642578,-6.973787307739258,2,10.3.35.51,10.71.35.210,1,0
2015-03-10 17:30:23.418,52,1426033821.549299,37.7878150122951,-122.3967547751118,12.22049,-1,-1,10,65,-9999,1426033823.367201,31.10231781005859,-22.5758056640625,-8.826637268066406,311.9380493164062,298.1679992675781,10,368582.0114503333,0.153228759765625,-0.9922027587890625,-0.038818359375,368581.9618640417,-0.04793343751200919,-0.169525649717866,0.252676995801192,368581.9618640417,-1.380683970099722,1.204325555145422,1.374013638742792,-0.05943147465586662,-0.1587789952754974,0.2879701256752014,-0.0763467401266098,-0.05901794135570526,0.08345481008291245,XTrueNorthZVertical,0.6818709463566823,0.0048184538055639,-0.1287587808760411,0.7200347274619301,0.1825326532125473,-0.980700671672821,-0.07005759328603745,28.55001831054688,-20.5021858215332,-7.001633167266846,2,10.3.35.51,10.71.35.210,1,0
2015-03-10 17:30:23.498,53,1426033821.549299,37.7878150122951,-122.3967547751118,12.22049,-1,-1,10,65,-9999,1426033823.470923,30.3178825378418,-23.56103515625,-8.826637268066406,311.150390625,297.3803405761719,10,368582.060523125,0.17803955078125,-0.9723358154296875,-0.092926025390625,368582.06541275,-0.01227504209639322,0.005178250423550071,0.06349774987075928,368582.013637625,-1.343531341129,1.169667027460996,1.384887221824761,0.004439511336386204,0.2332246154546738,0.2143519669771194,-0.01693897694349289,-0.009434141218662262,0.03335403650999069,XTrueNorthZVertical,0.6811109527840417,0.00129323360150208,-0.1235489863194922,0.721679903357567,0.1701677441596985,-0.9827685952186584,-0.07217239588499069,28.26409912109375,-20.83414459228516,-7.179501533508301,2,10.3.35.51,10.71.35.210,1,0
2015-03-10 17:30:23.504,54,1426033821.549299,37.7878150122951,-122.3967547751118,12.22049,-1,-1,10,65,-9999,1426033823.470923,30.3178825378418,-23.56103515625,-8.826637268066406,311.150390625,297.3803405761719,10,368582.1095679583,0.1425018310546875,-0.993682861328125,-0.0233306884765625,368582.06541275,-0.01227504209639322,0.005178250423550071,0.06349774987075928,368582.06541275,-1.327423255233104,1.162904490255597,1.39040837618772,-0.0237728375941515,0.01592468656599522,0.09879013150930405,0.01334718707948923,0.01143834833055735,-0.02175799384713173,XTrueNorthZVertical,0.6814762202381118,0.002478959481664695,-0.1182078105008276,0.7222263958986543,0.1646923571825027,-0.9837741851806641,-0.07116803526878357,28.12182998657227,-21.13211441040039,-6.86021614074707,2,10.3.35.51,10.71.35.210,1,0
2015-03-10 17:30:23.568,55,1426033821.549299,37.7878150122951,-122.3967547751118,12.22049,-1,-1,10,65,-9999,1426033823.522431,30.76126480102539,-23.62896728515625,-8.460472106933594,308.69189453125,294.9218444824219,10,368582.1586625417,0.1359405517578125,-0.97381591796875,-0.0065155029296875,368582.1171879167,-0.04285185983602899,-0.02673707207995952,-0.04940030664042483,368582.1171879167,-1.31559338671107,1.147344239103071,1.392411748697075,-0.05434954911470413,-0.01599073223769665,-0.01410824619233608,-0.01926613040268421,-0.009551243856549263,0.04958128556609154,XTrueNorthZVertical,0.680840633162456,0.0002147298314770443,-0.1185722132543811,0.7227701251133015,0.1617679595947266,-0.9841316342353821,-0.07291197031736374,28.02764129638672,-21.2353630065918,-6.926534652709961,2,10.3.35.51,10.71.35.210,1,0
2015-03-10 17:30:23.605,56,1426033821.549299,37.7878150122951,-122.3967547751118,12.22049,-1,-1,10,65,-9999,1426033823.574137,30.52251815795898,-23.594970703125,-8.626911163330078,308.8047790527344,295.0347290039062,10,368582.2077015,0.1306915283203125,-1.046051025390625,-0.0479583740234375,368582.168961375,-0.047456731676885,0.1046891287671239,-0.2386376094826213,368582.168961375,-1.313160678980977,1.148643087492492,1.384434012735031,-0.05895429477095604,0.1154353469610214,-0.2033459395170212,-0.0252661220729351,-0.004589424468576908,0.06157299876213074,XTrueNorthZVertical,0.6797237553257836,0.004181591936340602,-0.1198778380415675,0.7235934439085712,0.1690191775560379,-0.9826847314834595,-0.07591626048088074,28.07279205322266,-21.15766334533691,-6.981243133544922,2,10.3.35.51,10.71.35.210,1,0
2015-03-10 17:30:23.664,57,1426033821.549299,37.7878150122951,-122.3967547751118,12.22049,-1,-1,10,65,-9999,1426033823.624976,30.64189147949219,-23.034423828125,-8.177532196044922,308.5202331542969,294.7501831054688,10,368582.256772875,0.1517181396484375,-1.07550048828125,-0.0594024658203125,368582.2207365833,-0.08797486344967756,0.09846505498349968,-0.2836663371936811,368582.2207365833,-1.316641092213493,1.159664676361634,1.373162611221701,-0.09947231411933899,0.1092111691832542,-0.2483750283718109,-0.0258282907307148,-0.06928600370883942,0.02088394016027451,XTrueNorthZVertical,0.6787111503960579,0.01076426927406646,-0.1211084765633808,0.7242707222619506,0.179987832903862,-0.9805339574813843,-0.07847061008214951,28.37554931640625,-20.80007553100586,-6.830160140991211,2,10.3.35.51,10.71.35.210,1,0
2015-03-10 17:30:23.694,58,1426033821.549299,37.7878150122951,-122.3967547751118,12.22049,-1,-1,10,65,-9999,1426033823.676943,30.72715377807617,-22.711669921875,-8.061023712158203,308.6160278320312,294.8459777832031,10,368582.305808875,0.1391754150390625,-1.152740478515625,-0.17095947265625,368582.2725118333,-0.164653662819675,0.1967045402226696,-0.1685804938469969,368582.2725118333,-1.308398744074949,1.160237243760398,1.365131820828109,-0.1761373579502106,0.2074498534202576,-0.1332742273807526,-0.03174460679292679,-0.1070882976055145,0.0003921265306416899,XTrueNorthZVertical,0.677477131080416,0.01645637454859323,-0.1205736433269026,0.7254074431110683,0.1872469186782837,-0.9789255261421204,-0.0815078467130661,28.60717582702637,-20.51703071594238,-6.719146728515625,2,10.3.35.51,10.71.35.210,1,0
2015-03-10 17:30:23.761,59,1426033821.549299,37.7878150122951,-122.3967547751118,12.22049,-1,-1,10,65,-9999,1426033823.728916,31.17053604125977,-22.26995849609375,-7.694862365722656,307.8973388671875,294.1272888183594,10,368582.354949625,0.3395843505859375,-0.9073028564453125,-0.0655975341796875,368582.3242854167,-0.154269465097238,0.1088575085053159,-0.1358012418858656,368582.3242854167,-1.276216011753286,1.133121689934643,1.359226805083817,-0.1657530516386032,0.1196027100086212,-0.1004953384399414,-0.06497178226709366,-0.1497999131679535,-0.05171350389719009,XTrueNorthZVertical,0.6746260242654193,0.01944745783909613,-0.1199789843953191,0.7280842014885327,0.1902006566524506,-0.9777024984359741,-0.08900304883718491,28.70516777038574,-20.39372253417969,-6.67648983001709,2,10.3.35.51,10.71.35.210,1,0
2015-03-10 17:30:23.792,60,1426033821.549299,37.7878150122951,-122.3967547751118,12.22049,-1,-1,10,65,-9999,1426033823.780262,31.88676452636719,-21.5904541015625,-7.794727325439453,307.745849609375,293.9757995605469,10,368582.4039316667,0.55181884765625,-0.932525634765625,-0.2188873291015625,368582.3760604167,-0.1122043030472185,0.2231657088136969,-0.4971629070376273,368582.3760604167,-1.270138370620252,1.142589110714025,1.340166262506149,-0.1236877664923668,0.2339107841253281,-0.461857408285141,0.2343087643384933,0.1314205080270767,0.04433741047978401,XTrueNorthZVertical,0.6719845584809176,0.03125069455311132,-0.1207819223041626,0.7299807613108452,0.2079519778490067,-0.9735225439071655,-0.09492029249668121,29.01397895812988,-19.99835968017578,-6.536104202270508,2,10.3.35.51,10.71.35.210,1,0
2015-03-10 17:30:23.862,61,1426033821.549299,37.7878150122951,-122.3967547751118,12.22049,-1,-1,10,65,-9999,1426033823.837313,32.3642578125,-21.31869506835938,-7.961162567138672,309.3450012207031,295.574951171875,10,368582.4530137917,0.1035614013671875,-0.7168426513671875,0.099212646484375,368582.4278357084,-0.3248478623940124,-0.9534899671844156,-0.5355768752331482,368582.4278357084,-1.263328293490202,1.119825057958978,1.315272969306045,-0.3363311886787415,-0.9427449703216553,-0.500271737575531,0.2713574767112732,0.03299135342240334,-0.1558623462915421,XTrueNorthZVertical,0.6661859549783541,0.03341530686228416,-0.1339740360153785,0.7328920014005638,0.227482870221138,-0.967531144618988,-0.1101593822240829,29.41268348693848,-19.38800811767578,-6.592832565307617,2,10.3.35.51,10.71.35.210,1,0
2015-03-10 17:30:23.896,62,1426033821.549299,37.7878150122951,-122.3967547751118,12.22049,-1,-1,10,65,-9999,1426033823.837313,32.3642578125,-21.31869506835938,-7.961162567138672,309.3450012207031,295.574951171875,10,368582.5020572083,-0.0713958740234375,-0.626373291015625,-0.064056396484375,368582.479609125,0.5536887674906682,0.008888566454248466,-0.254422697895739,368582.479609125,-1.326879861424705,1.149192487311028,1.301359334318466,0.5422055125236511,0.01963344775140285,-0.2191178500652313,-0.3365229368209839,0.29433473944664,0.2440933436155319,XTrueNorthZVertical,0.6669131837308291,0.02759185016555897,-0.1519336290630529,0.7289593300839756,0.2428797483444214,-0.9639208912849426,-0.1089309900999069,29.53313636779785,-18.70424270629883,-7.900089263916016,2,10.3.35.51,10.71.35.210,1,0
2015-03-10 17:30:23.949,63,1426033821.549299,37.7878150122951,-122.3967547751118,12.22049,-1,-1,10,65,-9999,1426033823.909768,32.48363494873047,-20.86001586914062,-9.109584808349609,312.673095703125,298.9030456542969,10,368582.5512500417,0.87744140625,-1.178665161132812,0.0537567138671875,368582.5313844167,0.6344736286293498,0.4991102104266932,0.2052154704343449,368582.5313844167,-1.41457279593936,1.254932496145155,1.317365477858713,0.6229904890060425,0.5098549723625183,0.2405199557542801,-0.1560933589935303,0.4067023098468781,-0.003734062425792217,XTrueNorthZVertical,0.6783061414566943,0.03095445552243504,-0.1428132669726248,0.7201020818664142,0.2383229732513428,-0.9680579304695129,-0.07788520306348801,29.66147994995117,-18.78021430969238,-7.208758354187012,2,10.3.35.51,10.71.35.210,1,0
2015-03-10 17:30:23.999,64,1426033821.549299,37.7878150122951,-122.3967547751118,12.22049,-1,-1,10,65,-9999,1426033823.961331,32.77353668212891,-20.843017578125,-8.460475921630859,312.9437561035156,299.1737060546875,10,368582.6001891667,0.0641937255859375,-0.95916748046875,-0.1443023681640625,368582.5831594584,-0.1012629720247369,-0.1607808939624818,-0.5156239397140566,368582.5831594584,-1.517606694145612,1.363498818806591,1.305414232854756,-0.1127459779381752,-0.1500362306833267,-0.4803198277950287,0.5974935293197632,-0.6816598773002625,-0.4267776310443878,XTrueNorthZVertical,0.6866611571293506,0.03880636167609081,-0.1467123195289472,0.7109613591947028,0.2566629350185394,-0.964992344379425,-0.05398104339838028,29.79482269287109,-18.95346832275391,-6.123782634735107,2,10.3.35.51,10.71.35.210,1,0
2015-03-10 17:30:24.046,65,1426033821.549299,37.7878150122951,-122.3967547751118,12.22049,-1,-1,10,65,-9999,1426033824.014776,32.89291381835938,-20.41839599609375,-7.478492736816406,313.4669494628906,299.6968994140625,10,368582.6493787083,0.130218505859375,-0.9356231689453125,0.182769775390625,368582.634933125,0.01093920049360948,0.1961319605883026,-0.2288188008596082,368582.634933125,-1.519482688679695,1.349768709088445,1.300231551035998,-0.0005437005311250687,0.2068765163421631,-0.1935150176286697,-0.3082133233547211,-0.02946767024695873,0.2854937016963959,XTrueNorthZVertical,0.6851789065054735,0.0351014222425904,-0.1538682131895816,0.7110712809505481,0.2607737481594086,-0.963620126247406,-0.05859551206231117,30.02327346801758,-18.4654541015625,-6.488160610198975,2,10.3.35.51,10.71.35.210,1,0
2015-03-10 17:30:24.089,66,1426033821.549299,37.7878150122951,-122.3967547751118,12.22049,-1,-1,10,65,-9999,1426033824.064943,33.25101470947266,-19.78985595703125,-7.162265777587891,312.2655944824219,298.4955444335938,10,368582.698314125,0.4989013671875,-0.9871978759765625,0.0699920654296875,368582.6867081667,0.3806898230791208,0.3948245505647164,-0.1182930882474666,368582.634933125,-1.519482688679695,1.349768709088445,1.300231551035998,-0.0005437005311250687,0.2068765163421631,-0.1935150176286697,-0.3082133233547211,-0.02946767024695873,0.2854937016963959,XTrueNorthZVertical,0.6851789065054735,0.0351014222425904,-0.1538682131895816,0.7110712809505481,0.2607737481594086,-0.963620126247406,-0.05859551206231117,30.02327346801758,-18.4654541015625,-6.488160610198975,2,10.3.35.51,10.71.35.210,1,0
2015-03-10 17:30:24.144,67,1426033821.549299,37.7878150122951,-122.3967547751118,12.22049,-1,-1,10,65,-9999,1426033824.117642,33.42154693603516,-19.65399169921875,-6.696235656738281,312.29541015625,298.5253601074219,10,368582.7474643334,0.29205322265625,-0.944854736328125,-0.006011962890625,368582.7384832917,0.1500020157664951,-0.03100239088183043,-0.03740649435514398,368582.7384832917,-1.603524011538589,1.463507765794152,1.293683293435127,0.138519361615181,-0.02025805786252022,-0.002103450708091259,0.0559958890080452,0.01968007162213326,0.003401571419090033,XTrueNorthZVertical,0.6949746286226925,0.04860449926486542,-0.146582018397677,0.7022546671192171,0.2720070481300354,-0.9618492722511292,-0.02929573692381382,30.42757415771484,-18.19219779968262,-5.260483264923096,2,10.3.35.51,10.71.35.210,1,0
2015-03-10 17:30:24.192,68,1426033821.549299,37.7878150122951,-122.3967547751118,12.22049,-1,-1,10,65,-9999,1426033824.168679,33.76261138916016,-19.78985595703125,-6.063774108886719,312.3797912597656,298.6097412109375,10,368582.7964305417,0.3112335205078125,-0.9182281494140625,0.1035308837890625,368582.790256875,0.05885586009075117,0.00376224767195494,-0.1188520857602743,368582.7384832917,-1.603524011538589,1.463507765794152,1.293683293435127,0.138519361615181,-0.02025805786252022,-0.002103450708091259,0.0559958890080452,0.01968007162213326,0.003401571419090033,XTrueNorthZVertical,0.6949746286226925,0.04860449926486542,-0.146582018397677,0.7022546671192171,0.2720070481300354,-0.9618492722511292,-0.02929573692381382,30.42757415771484,-18.19219779968262,-5.260483264923096,2,10.3.35.51,10.71.35.210,1,0
2015-03-10 17:30:24.242,69,1426033821.549299,37.7878150122951,-122.3967547751118,12.22049,-1,-1,10,65,-9999,1426033824.22283,33.62619018554688,-19.8238525390625,-5.963912963867188,312.6054992675781,298.83544921875,10,368582.8454837917,0.3638153076171875,-0.919464111328125,0.1113739013671875,368582.8420322083,0.1773819749335997,-0.09679152455449389,-0.1079640179595943,368582.790256875,-1.618238320119659,1.478829942667927,1.292431818050941,0.04737331718206406,0.01450647320598364,-0.08354939520359039,0.03281986340880394,0.02838540263473988,0.1119662076234818,XTrueNorthZVertical,0.6963846671892436,0.04930285391321349,-0.1468471715608671,0.7007521455483451,0.2736223936080933,-0.9615061283111572,-0.0252352487295866,30.43321800231934,-18.21455764770508,-5.149300098419189,2,10.3.35.51,10.71.35.210,1,0
2015-03-10 17:30:24.291,70,1426033821.549299,37.7878150122951,-122.3967547751118,12.22049,-1,-1,10,65,-9999,1426033824.22283,33.62619018554688,-19.8238525390625,-5.963912963867188,312.6054992675781,298.83544921875,10,368582.8945087917,0.336883544921875,-0.974151611328125,0.07965087890625,368582.8938072083,0.06592948226211062,-0.142606151103236,-0.06134857887106533,368582.8420322083,-1.638673790054329,1.497340098777771,1.289318191258255,0.1658995300531387,-0.08604738861322403,-0.07266164571046829,0.07316223531961441,0.0540449470281601,0.1325381398200989,XTrueNorthZVertical,0.6980912542154798,0.04975522892747539,-0.1486227781688077,0.6986446344014356,0.2770269811153412,-0.9606459140777588,-0.02038603648543358,30.5079402923584,-18.11563491821289,-5.055234432220459,2,10.3.35.51,10.71.35.210,1,0
2015-03-10 17:30:24.340,71,1426033821.549299,37.7878150122951,-122.3967547751118,12.22049,-1,-1,10,65,-9999,1426033824.298757,33.33629608154297,-19.84085083007812,-5.780830383300781,314.3197937011719,300.5497436523438,10,368582.9435739167,0.2820281982421875,-0.978668212890625,0.12677001953125,368582.94558075,0.02607847234238293,-0.05055025959912104,-0.03669037033802167,368582.8938072083,-1.661339130501076,1.512679269974079,1.287157959523336,0.05444715172052383,-0.1318621337413788,-0.02604656107723713,0.07586172968149185,-0.01090366952121258,0.1039471998810768,XTrueNorthZVertical,0.699695251827258,0.04794876972683583,-0.1519160334245171,0.6964546117493454,0.2793781459331512,-0.9600436091423035,-0.01625494100153446,30.53706550598145,-18.06044578552246,-5.076820373535156,2,10.3.35.51,10.71.35.210,1,0
2015-03-10 17:30:24.393,72,1426033821.549299,37.7878150122951,-122.3967547751118,12.22049,-1,-1,10,65,-9999,1426033824.350274,33.43861389160156,-19.67098999023438,-5.947273254394531,315.0763549804688,301.3063049316406,10,368582.992606375,0.3016510009765625,-0.9760894775390625,0.07440185546875,368582.94558075,0.02607847234238293,-0.05055025959912104,-0.03669037033802167,368582.94558075,-1.664747971384545,1.510793067277558,1.286527719901555,0.01447294093668461,-0.03983935713768005,-0.00151247635949403,0.00207730452530086,-0.01880118064582348,0.1435881704092026,XTrueNorthZVertical,0.6996035654468153,0.04632249707293856,-0.1539808799466343,0.6962032774098303,0.279950886964798,-0.9598670601844788,-0.01681815460324287,30.52773857116699,-18.03518486022949,-5.220666408538818,2,10.3.35.51,10.71.35.210,1,0
2015-03-10 17:30:24.439,73,1426033821.549299,37.7878150122951,-122.3967547751118,12.22049,-1,-1,10,65,-9999,1426033824.401734,33.62618255615234,-19.55209350585938,-6.230216979980469,315.7433776855469,301.9733276367188,10,368583.0416808334,0.3200225830078125,-0.9628448486328125,0.0658416748046875,368583.04913125,-0.1222236477003146,0.09876785639944169,-0.04997954417751706,368582.9973559583,-1.69232753094869,1.541411018947664,1.286161117512179,-0.05240108445286751,0.05755738168954849,0.00714722229167819,0.02096474170684814,-0.01632532477378845,0.08265228569507599,XTrueNorthZVertical,0.7025852849037491,0.04742050111851571,-0.1529554866725764,0.6933468612414996,0.2806862592697144,-0.9597641229629517,-0.008250427432358265,30.55065536499023,-18.05272483825684,-5.02222204208374,2,10.3.35.51,10.71.35.210,1,0
2015-03-10 17:30:24.491,74,1426033821.549299,37.7878150122951,-122.3967547751118,12.22049,-1,-1,10,65,-9999,1426033824.454302,33.59207916259766,-19.51809692382812,-6.097057342529297,315.4549560546875,301.6849060058594,10,368583.0907188334,0.3451690673828125,-0.96832275390625,0.06512451171875,368583.04913125,-0.1222236477003146,0.09876785639944169,-0.04997954417751706,368583.04913125,-1.691719762338932,1.545603389061373,1.284859972395752,-0.1337741613388062,0.1094987988471985,-0.01482042390853167,0.03805604204535484,-0.003446879563853145,0.07294674217700958,XTrueNorthZVertical,0.7028460444377197,0.04954698247293795,-0.1517217862529163,0.6932049273545301,0.2819665372371674,-0.9593979716300964,-0.007105068769305944,30.58798408508301,-18.02998542785645,-4.87452220916748,2,10.3.35.51,10.71.35.210,1,0
2015-03-10 17:30:24.537,75,1426033821.549299,37.7878150122951,-122.3967547751118,12.22049,-1,-1,10,65,-9999,1426033824.506932,33.62618255615234,-19.00851440429688,-6.196922302246094,315.3641357421875,301.5940856933594,10,368583.1397958334,0.323486328125,-0.96075439453125,0.051513671875,368583.1009047084,-0.2097039621355644,0.1443899364013711,-0.05219715841722605,368583.1009047084,-1.672214063928624,1.535663169560885,1.280325749966963,-0.2212403416633606,0.1551281809806824,-0.01705623604357243,0.06236052885651588,-0.01698844879865646,0.08173071593046188,XTrueNorthZVertical,0.7014231896716441,0.0545473990051086,-0.1500127004730506,0.6946411428469486,0.2862265110015869,-0.9581092000007629,-0.01006018090993166,30.6247501373291,-17.97847366333008,-4.833773612976074,2,10.3.35.51,10.71.35.210,1,0
2015-03-10 17:30:24.593,76,1426033821.549299,37.7878150122951,-122.3967547751118,12.22049,-1,-1,10,65,-9999,1426033824.557514,33.67733764648438,-18.8216552734375,-6.146991729736328,315.0552368164062,301.2851867675781,10,368583.1888395834,0.367279052734375,-1.013046264648438,0.0483856201171875,368583.152679875,-0.1998337545035127,0.1433180140626142,0.01141883580593275,368583.152679875,-1.649959731541895,1.522861203691309,1.277857913952084,-0.2113564610481262,0.1540632694959641,0.04654211550951004,0.01886161975562572,0.009111530147492886,0.05271616950631142,XTrueNorthZVertical,0.6997347043190697,0.05876186676134833,-0.1476119643422961,0.6965121190299071,0.2884351313114166,-0.9573994874954224,-0.01383677311241627,30.8022575378418,-17.74452018737793,-4.562776565551758,2,10.3.35.51,10.71.35.210,1,0
2015-03-10 17:30:24.635,77,1426033821.549299,37.7878150122951,-122.3967547751118,12.22049,-1,-1,10,65,-9999,1426033824.610206,33.59207153320312,-18.77066040039062,-5.930625915527344,314.2523498535156,300.4822998046875,10,368583.2379158334,0.41387939453125,-0.9866943359375,-0.0053863525390625,368583.2044550834,-0.3019689117852506,0.178835528256565,0.04373203457630018,368583.2044550834,-1.6143176406307,1.499235714811764,1.278127200032426,-0.3134813010692596,0.1895855367183685,0.07884549349546432,0.1069895252585411,-0.06130634993314743,0.06501608341932297,XTrueNorthZVertical,0.6969461277238986,0.06286463884892014,-0.1433257091078455,0.6998370601276332,0.2877705991268158,-0.9574772119522095,-0.02062826417386532,30.83599472045898,-17.72079086303711,-4.425047397613525,2,10.3.35.51,10.71.35.210,1,0
2015-03-10 17:30:24.690,78,1426033821.549299,37.7878150122951,-122.3967547751118,12.22049,-1,-1,10,65,-9999,1426033824.661263,33.47270202636719,-19.05947875976562,-5.314800262451172,312.6548461914062,298.8847961425781,10,368583.28696325,0.41302490234375,-0.861602783203125,-0.0265655517578125,368583.2562287917,-0.2734943934101234,-0.04208513575819518,0.2082751762107369,368583.2562287917,-1.564248734265675,1.457383185299173,1.2818618047572,-0.2850016355514526,-0.03133100271224976,0.2433685064315796,0.1087144911289215,-0.003381313988938928,0.01056297309696674,XTrueNorthZVertical,0.6926397249402576,0.06424449763269088,-0.1389870906995654,0.7048442962554035,0.2831006944179535,-0.9585480093955994,-0.03224571049213409,30.86790466308594,-17.68006134033203,-4.365086555480957,2,10.3.35.51,10.71.35.210,1,0
2015-03-10 17:30:24.733,79,1426033821.549299,37.7878150122951,-122.3967547751118,12.22049,-1,-1,10,65,-9999,1426033824.714197,33.21690368652344,-19.51809692382812,-5.830753326416016,312.4844665527344,298.7144165039062,10,368583.3361387083,0.1469573974609375,-0.8362884521484375,-0.054840087890625,368583.3080039584,-0.2450012329073656,-0.4791077401113261,0.2424973288504731,368583.3080039584,-1.520745831499759,1.399370112303918,1.291921368868344,-0.2565083205699921,-0.4683537185192108,0.277590274810791,0.07281564176082611,0.1015787571668625,-0.007927405647933483,XTrueNorthZVertical,0.6880938052902086,0.05520584828644675,-0.1401462855993069,0.7098156700547185,0.2712395489215851,-0.9613657593727112,-0.04695845767855644,30.58606147766113,-18.03272819519043,-4.876440048217773,2,10.3.35.51,10.71.35.210,1,0
2015-03-10 17:30:24.796,80,1426033821.549299,37.7878150122951,-122.3967547751118,12.22049,-1,-1,10,65,-9999,1426033824.766658,32.94406127929688,-20.16360473632812,-6.662944793701172,312.1554260253906,298.3853759765625,10,368583.385074625,0.3774566650390625,-0.9083099365234375,-0.030731201171875,368583.359779125,0.01805729745517327,-0.1260663228371899,0.1487114479022427,368583.359779125,-1.478180306773835,1.343346658653932,1.304744459076755,0.006550305057317019,-0.1153124198317528,0.1838040500879288,-0.04252965003252029,0.1519044786691666,0.1020428985357285,XTrueNorthZVertical,0.684322516510468,0.04537407072996695,-0.13980195283741,0.7142123903092946,0.2561526894569397,-0.9648164510726929,-0.05928777530789375,30.24067878723145,-18.39229011535645,-5.629495620727539,2,10.3.35.51,10.71.35.210,1,0
2015-03-10 17:30:24.831,81,1426033821.549299,37.7878150122951,-122.3967547751118,12.22049,-1,-1,10,65,-9999,1426033824.81732,32.68826293945312,-20.28250122070312,-7.345348358154297,312.9500427246094,299.1799926757812,10,368583.434203375,0.316680908203125,-1.083099365234375,-0.0890350341796875,368583.4115527917,0.004096474388759884,-0.2520799150847963,0.1555874635207183,368583.4115527917,-1.471609690381325,1.333432449203102,1.311044850071646,-0.007410414982587099,-0.2413260936737061,0.1906797587871552,0.168848529458046,-0.03377504274249077,-0.0182042270898819,XTrueNorthZVertical,0.6841410975754728,0.04188150984329277,-0.1386876356377212,0.7148165322997151,0.249639019370079,-0.9664538502693176,-0.0603937953710556,30.07198715209961,-18.621826171875,-5.776618003845215,2,10.3.35.51,10.71.35.210,1,0
2015-03-10 17:30:24.891,82,1426033821.549299,37.7878150122951,-122.3967547751118,12.22049,-1,-1,10,65,-9999,1426033824.869022,32.26192474365234,-20.4693603515625,-7.528427124023438,312.9280700683594,299.1580200195312,10,368583.4831941667,0.161651611328125,-1.040939331054688,-0.0459747314453125,368583.4633279584,-0.09016850923957583,-0.2968292771975067,0.2021451120135925,368583.4633279584,-1.451387750739351,1.298303034835505,1.322471186286086,-0.1016752794384956,-0.2860755920410156,0.2372370511293411,0.01484404783695936,-0.08729993551969528,-0.02491654641926289,XTrueNorthZVertical,0.6825588613672341,0.03224045754670989,-0.1395495249619111,0.7166588596643778,0.2367123514413834,-0.9693254232406616,-0.06614790856838226,29.75556564331055,-18.98449325561523,-6.217823028564453,2,10.3.35.51,10.71.35.210,1,0
2015-03-10 17:30:24.929,83,1426033821.549299,37.7878150122951,-122.3967547751118,12.22049,-1,-1,10,65,-9999,1426033824.921462,32.24488067626953,-20.8260498046875,-7.678218841552734,312.0704040527344,298.3003540039062,10,368583.5322610834,0.203857421875,-0.977142333984375,-0.0802154541015625,368583.515103125,-0.06533133628127884,0.4549456784893642,0.1586580882575796,368583.515103125,-1.419175604899177,1.274086542178304,1.331010930037412,-0.07683797925710678,0.4656992554664612,0.1937496364116669,-0.06650266796350479,-0.02545246668159962,0.01203391887247562,XTrueNorthZVertical,0.6813841285738675,0.0315741599233208,-0.1333418306789718,0.718984516752792,0.2271166741847992,-0.9713889360427856,-0.06943748146295547,29.53003692626953,-19.25069808959961,-6.469446182250977,2,10.3.35.51,10.71.35.210,1,0
2015-03-10 17:30:24.989,84,1426033821.549299,37.7878150122951,-122.3967547751118,12.22049,-1,-1,10,65,-9999,1426033824.972609,32.12549591064453,-21.28466796875,-7.794727325439453,311.3346557617188,297.5646057128906,10,368583.5813055834,0.27178955078125,-0.9818878173828125,-0.1480712890625,368583.5668765834,-0.07990601797895548,0.02740446024913338,0.152352521744599,368583.515103125,-1.419175604899177,1.274086542178304,1.331010930037412,-0.07683797925710678,0.4656992554664612,0.1937496364116669,-0.06650266796350479,-0.02545246668159962,0.01203391887247562,XTrueNorthZVertical,0.6813841285738675,0.0315741599233208,-0.1333418306789718,0.718984516752792,0.2271166741847992,-0.9713889360427856,-0.06943748146295547,29.53003692626953,-19.25069808959961,-6.469446182250977,2,10.3.35.51,10.71.35.210,1,0
2015-03-10 17:30:25.027,85,1426033821.549299,37.7878150122951,-122.3967547751118,12.22049,-1,-1,10,65,-9999,1426033824.972609,32.12549591064453,-21.28466796875,-7.794727325439453,311.3346557617188,297.5646057128906,10,368583.6303976667,0.1020050048828125,-0.9487457275390625,-0.10089111328125,368583.6186519167,0.0328636741676868,-0.1434085615396769,0.08673889038777179,368583.6186519167,-1.368394328762809,1.233291083940274,1.346738785863945,0.02135724388062954,-0.1326551884412766,0.1218297779560089,-0.06536559760570526,0.02740262448787689,-0.04909147322177887,XTrueNorthZVertical,0.6799897515723506,0.02875711603447337,-0.1236184887599938,0.7221533581289679,0.2096527069807053,-0.9750039577484131,-0.07357393205165863,29.24601364135742,-19.80290985107422,-6.081257820129395,2,10.3.35.51,10.71.35.210,1,0
2015-03-10 17:30:25.091,86,1426033821.549299,37.7878150122951,-122.3967547751118,12.22049,-1,-1,10,65,-9999,1426033825.075914,31.95497131347656,-21.76025390625,-7.528430938720703,309.1297912597656,295.3597412109375,10,368583.6794480833,0.1846160888671875,-1.001663208007812,-0.158477783203125,368583.670427125,0.00214464362584081,0.2288433019416369,-0.2235124523876253,368583.6186519167,-1.368394328762809,1.233291083940274,1.346738785863945,0.02135724388062954,-0.1326551884412766,0.1218297779560089,-0.06536559760570526,0.02740262448787689,-0.04909147322177887,XTrueNorthZVertical,0.6799897515723506,0.02875711603447337,-0.1236184887599938,0.7221533581289679,0.2096527069807053,-0.9750039577484131,-0.07357393205165863,29.24601364135742,-19.80290985107422,-6.081257820129395,2,10.3.35.51,10.71.35.210,1,0
2015-03-10 17:30:25.126,87,1426033821.549299,37.7878150122951,-122.3967547751118,12.22049,-1,-1,10,65,-9999,1426033825.075914,31.95497131347656,-21.76025390625,-7.528430938720703,309.1297912597656,295.3597412109375,10,368583.728645875,0.176177978515625,-1.050140380859375,-0.1271209716796875,368583.7222007083,0.09254458156414452,0.3027588053645681,-0.27324565416431,368583.670427125,-1.375924731215338,1.24404655642923,1.344388046482193,-0.009361659176647663,0.2395965605974197,-0.1884219646453857,-0.02598702535033226,-0.02248455584049225,-0.07324393093585968,XTrueNorthZVertical,0.6804566232188587,0.03088131365473911,-0.1234692510566296,0.7216512383515725,0.2126020193099976,-0.9744789600372314,-0.07205025851726532,29.18402290344238,-19.87676239013672,-6.137851238250732,2,10.3.35.51,10.71.35.210,1,0
2015-03-10 17:30:25.191,88,1426033821.549299,37.7878150122951,-122.3967547751118,12.22049,-1,-1,10,65,-9999,1426033825.181196,32.75646209716797,-21.19967651367188,-6.613021850585938,307.9285583496094,294.1585083007812,10,368583.777598125,0.1651763916015625,-0.913482666015625,-0.10943603515625,368583.77397575,0.01384923661673906,0.5022508763002237,-0.4347115131591602,368583.7222007083,-1.398986676140425,1.280824224149559,1.33322786007219,0.08103839308023453,0.3135119676589966,-0.2381555140018463,-0.0644586980342865,-0.08053137362003326,-0.07679897546768188,XTrueNorthZVertical,0.6817228101088311,0.04011388877001382,-0.1230303358776546,0.7200753154672049,0.225515216588974,-0.9719130992889404,-0.06728976964950562,29.52397727966309,-19.50874328613281,-5.675375938415527,2,10.3.35.51,10.71.35.210,1,0
2015-03-10 17:30:25.224,89,1426033821.549299,37.7878150122951,-122.3967547751118,12.22049,-1,-1,10,65,-9999,1426033825.181196,32.75646209716797,-21.19967651367188,-6.613021850585938,307.9285583496094,294.1585083007812,10,368583.8267933333,0.300262451171875,-0.9657745361328125,0.035919189453125,368583.8257509583,-0.02156814272022473,0.4509834274195443,-0.6253978419504688,368583.77397575,-1.416361745073311,1.319010424811543,1.319430651650579,0.002343152184039354,0.5130038857460022,-0.3996216952800751,-0.08591622114181519,0.04363162815570831,-0.05204731225967407,XTrueNorthZVertical,0.6828187751656716,0.05268149279467738,-0.1209493330592489,0.7185780937497307,0.2408844828605652,-0.9685736298561096,-0.06196635961532593,29.83416557312012,-19.18139266967773,-5.144203662872314,2,10.3.35.51,10.71.35.210,1,0
2015-03-10 17:30:25.292,90,1426033821.549299,37.7878150122951,-122.3967547751118,12.22049,-1,-1,10,65,-9999,1426033825.284447,33.47269439697266,-19.09329223632812,-4.882064819335938,307.6661071777344,293.8960571289062,10,368583.8757400417,0.3143463134765625,-0.9398651123046875,0.048828125,368583.8257509583,-0.02156814272022473,0.4509834274195443,-0.6253978419504688,368583.8257509583,-1.444707395819231,1.370786441093096,1.29499342758136,-0.0330715999007225,0.4617372751235962,-0.590308666229248,0.03457698598504066,-0.005017258692532778,0.09000814706087112,XTrueNorthZVertical,0.6841369712053486,0.07003212254566041,-0.1217941259369409,0.7156943025589034,0.2668909132480621,-0.9622068405151367,-0.05410421267151833,30.31426239013672,-18.59776878356934,-4.431102275848389,2,10.3.35.51,10.71.35.210,1,0
2015-03-10 17:30:25.321,91,1426033821.549299,37.7878150122951,-122.3967547751118,12.22049,-1,-1,10,65,-9999,1426033825.284447,33.47269439697266,-19.09329223632812,-4.882064819335938,307.6661071777344,293.8960571289062,10,368583.9248301667,0.4158935546875,-0.943634033203125,0.006683349609375,368583.9292999583,-0.01927968839551964,0.2882126194905553,-0.523436056455695,368583.8775245834,-1.463758342390187,1.411971495206681,1.267073401820824,0.04180223494768143,0.4757541716098785,-0.5198508501052856,0.01903560571372509,0.01436455920338631,0.09612919390201569,XTrueNorthZVertical,0.6845566752365752,0.08792964417279521,-0.1241229908915579,0.7129123765113935,0.2953107059001923,-0.9542296528816223,-0.04730107262730598,31.04850578308105,-17.53555870056152,-3.600090980529785,2,10.3.35.51,10.71.35.210,1,0
2015-03-10 17:30:25.365,92,1426033821.549299,37.7878150122951,-122.3967547751118,12.22049,-1,-1,10,65,-9999,1426033825.335791,33.93312835693359,-18.36285400390625,-4.399394989013672,308.8343811035156,295.0643310546875,10,368583.9738742917,0.3871917724609375,-0.90740966796875,0.0496826171875,368583.9292999583,-0.01927968839551964,0.2882126194905553,-0.523436056455695,368583.9292999583,-1.473951884031717,1.44082506731037,1.242879418621422,-0.03090610727667809,0.2989422380924225,-0.488452136516571,0.09653828293085098,0.003081268630921841,0.04842566698789597,XTrueNorthZVertical,0.6844667958156641,0.1031215175263358,-0.1262305131841726,0.710589229426158,0.3193552792072296,-0.9467152953147888,-0.04174231737852097,31.4967041015625,-16.83660125732422,-2.992104530334473,2,10.3.35.51,10.71.35.210,1,0
2015-03-10 17:30:25.420,93,1426033821.549299,37.7878150122951,-122.3967547751118,12.22049,-1,-1,10,65,-9999,1426033825.387404,34.49588012695312,-17.39462280273438,-4.5491943359375,311.1071472167969,297.3370971679688,10,368584.0231625834,0.387725830078125,-0.9203033447265625,0.0491180419921875,368583.981075,-0.03011875403214214,0.2573721488030017,-0.4822723744346673,368583.981075,-1.478049842658108,1.45809407378628,1.219154130982581,-0.04174507036805153,0.2681016325950623,-0.4472887217998505,0.0449368804693222,0.03139867261052132,0.08841966092586517,XTrueNorthZVertical,0.6834877207903767,0.1160862274796145,-0.1299793127875216,0.7088539616535324,0.3422549068927765,-0.9388083219528198,-0.03873704746365547,31.89118576049805,-16.14410781860352,-2.605004549026489,2,10.3.35.51,10.71.35.210,1,0
2015-03-10 17:30:25.461,94,1426033821.549299,37.7878150122951,-122.3967547751118,12.22049,-1,-1,10,65,-9999,1426033825.440316,35.24622344970703,-16.81707763671875,-3.883441925048828,311.422119140625,297.6520690917969,10,368584.0720072084,0.436798095703125,-0.939300537109375,0.0300140380859375,368584.0328487917,-0.005519933991407237,0.2542999261694863,-0.4541051848493352,368584.0328487917,-1.479754114173101,1.47398948997166,1.197934725467426,-0.01714613288640976,0.2650293409824371,-0.4191218912601471,0.02514944784343243,0.01098538562655449,0.08432797342538834,XTrueNorthZVertical,0.6825591281455666,0.1284837362777042,-0.1324893033368488,0.7071432584596263,0.3625763952732086,-0.9312887191772461,-0.03520993143320084,32.34316253662109,-15.29703140258789,-2.09449028968811,2,10.3.35.51,10.71.35.210,1,0
2015-03-10 17:30:25.519,95,1426033821.549299,37.7878150122951,-122.3967547751118,12.22049,-1,-1,10,65,-9999,1426033825.491128,35.89424133300781,-16.20553588867188,-3.2509765625,312.1131896972656,298.3431396484375,10,368584.1210859167,0.4275054931640625,-0.911712646484375,0.022918701171875,368584.084623875,-0.01593236122139904,0.3584897122322203,-0.3686451444170195,368584.084623875,-1.483129769664505,1.493185434362136,1.17842411111519,-0.02755843102931976,0.3692190051078796,-0.3336622416973114,0.07020080089569092,-0.02104853093624115,0.06106503307819366,XTrueNorthZVertical,0.6821560240642754,0.1408529916002931,-0.133878990551059,0.7049113751851317,0.3812304735183716,-0.9240045547485352,-0.02964718639850616,32.64514541625977,-14.69589042663574,-1.670719385147095,2,10.3.35.51,10.71.35.210,1,0
2015-03-10 17:30:25.561,96,1426033821.549299,37.7878150122951,-122.3967547751118,12.22049,-1,-1,10,65,-9999,1426033825.543274,36.2694091796875,-15.76385498046875,-2.518650054931641,311.7672729492188,297.9972229003906,10,368584.170136125,0.5049285888671875,-0.87579345703125,0.017913818359375,368584.1363992083,-0.02578499199025619,0.3685921475113269,-0.311391708354169,368584.1363992083,-1.494255387035773,1.523659022968665,1.158444852489821,-0.03739571198821068,0.3793294131755829,-0.276440441608429,0.04091865569353104,0.01659905910491943,0.03910187631845474,XTrueNorthZVertical,0.6831101581896335,0.1546561372470506,-0.1343057040233722,0.7010021442499577,0.4003197550773621,-0.9161809682846069,-0.01888398267328739,32.90526962280273,-14.16042327880859,-1.091638565063477,2,10.3.35.51,10.71.35.210,1,0
2015-03-10 17:30:25.616,97,1426033821.549299,37.7878150122951,-122.3967547751118,12.22049,-1,-1,10,65,-9999,1426033825.595506,36.23530578613281,-14.8465576171875,-2.285636901855469,311.8783264160156,298.1082763671875,10,368584.2192249167,0.5218353271484375,-0.870208740234375,0.0664215087890625,368584.1881727084,-0.09138557385774204,0.2515632618333209,-0.3083197520367626,368584.1881727084,-1.485206678146702,1.53274082888459,1.144616879407683,-0.1029961779713631,0.262300431728363,-0.2733688354492188,0.1042534410953522,0.04382205381989479,0.03939454257488251,XTrueNorthZVertical,0.6816793336260537,0.165678019925097,-0.1328296165808408,0.7001574181326101,0.4130958020687103,-0.9105517864227295,-0.01572815887629986,33.19776916503906,-13.50020503997803,-0.3444631695747375,2,10.3.35.51,10.71.35.210,1,0
2015-03-10 17:30:25.661,98,1426033821.549299,37.7878150122951,-122.3967547751118,12.22049,-1,-1,10,65,-9999,1426033825.647505,36.28646087646484,-14.863525390625,-1.802967071533203,312.6336364746094,298.8635864257812,10,368584.2682685833,0.499969482421875,-0.884307861328125,0.0519561767578125,368584.2399480417,-0.0274555929420629,0.2496298068819233,-0.2190913386619847,368584.2399480417,-1.480376563129112,1.540604963103757,1.133033326097967,-0.03906606882810593,0.2603668570518494,-0.1841408163309097,0.07437127828598022,0.02142488211393356,0.07695982605218887,XTrueNorthZVertical,0.6806692220055263,0.1740433941030214,-0.1324778749115764,0.6991766280623964,0.4237213730812073,-0.9057022333145142,-0.01279661431908607,33.35099029541016,-13.12163734436035,-0.01420190930366516,2,10.3.35.51,10.71.35.210,1,0
2015-03-10 17:30:25.715,99,1426033821.549299,37.7878150122951,-122.3967547751118,12.22049,-1,-1,10,65,-9999,1426033825.702742,35.96245574951172,-14.43887329101562,-1.253726959228516,313.046142578125,299.2760925292969,10,368584.317457125,0.5137176513671875,-0.872161865234375,0.041229248046875,368584.2917231667,-0.04300445896649053,0.1839583849294414,-0.1953878733797345,368584.2917231667,-1.474580930082534,1.546872716939783,1.124794200578916,-0.05461481586098671,0.1946953237056732,-0.1604376882314682,0.08925370872020721,0.03061206638813019,0.04004288092255592,XTrueNorthZVertical,0.6797589173991051,0.1810205373986841,-0.1311791566254279,0.6985352142230397,0.4312388300895691,-0.9021788239479065,-0.01031875889748335,33.45171737670898,-12.85831165313721,0.3353997766971588,2,10.3.35.51,10.71.35.210,1,0
2015-03-10 17:30:25.790,100,1426033821.549299,37.7878150122951,-122.3967547751118,12.22049,-1,-1,10,65,-9999,1426033825.776236,35.91130065917969,-13.81036376953125,-1.103931427001953,313.6993103027344,299.9292602539062,10,368584.3663889167,0.5518341064453125,-0.83184814453125,-0.010101318359375,368584.3434969584,-0.07631953893894577,0.2117268992995886,-0.1703416422758663,368584.3434969584,-1.474185206729407,1.558066731796379,1.111269755788894,-0.08792585879564285,0.2224673926830292,-0.1354208588600159,0.0714198499917984,0.03288977220654488,0.03965756669640541,XTrueNorthZVertical,0.6791189546711001,0.1896696646384826,-0.1319321306037333,0.6967186046195524,0.4434880018234253,-0.8962625861167908,-0.005645727273076773,33.56076431274414,-12.55599880218506,0.6986908912658691,2,10.3.35.51,10.71.35.210,1,0
2015-03-10 17:30:25.813,101,1426033821.549299,37.7878150122951,-122.3967547751118,12.22049,-1,-1,10,65,-9999,1426033825.776236,35.91130065917969,-13.81036376953125,-1.103931427001953,313.6993103027344,299.9292602539062,10,368584.4155067917,0.5046234130859375,-0.8722076416015625,0.02288818359375,368584.395272,-0.08323470302544551,-0.06423171706718511,-0.1878268927288905,368584.395272,-1.468756899777632,1.558133415048696,1.089674500057699,-0.09484867006540298,-0.05349049344658852,-0.1529672592878342,0.1143810003995895,0.03221302106976509,0.01138359121978283,XTrueNorthZVertical,0.6764032108866935,0.1988686534410369,-0.1375101802642097,0.695716136574913,0.4627369046211243,-0.8864763379096985,-0.005859910044819117,33.78264236450195,-11.92503547668457,0.9963046312332153,2,10.3.35.51,10.71.35.210,1,0
2015-03-10 17:30:25.866,102,1426033821.549299,37.7878150122951,-122.3967547751118,12.22049,-1,-1,10,65,-9999,1426033825.828675,36.57637023925781,-13.75942993164062,-0.8875617980957031,313.8720397949219,300.1019897460938,10,368584.4646122084,0.5388641357421875,-0.8864288330078125,0.013671875,368584.447047375,-0.04940376874984193,0.03164368007232151,-0.1377099294391254,368584.447047375,-1.460076356869718,1.549630858485561,1.084212951421094,-0.06101760268211365,0.0423847883939743,-0.1028506904840469,0.02709449827671051,0.02048656158149242,0.0295344777405262,XTrueNorthZVertical,0.6743701701372454,0.2006904714149904,-0.1392513036624211,0.696819431507838,0.4675039052963257,-0.8839356303215027,-0.009896416217088699,33.94631195068359,-11.45860290527344,0.902366042137146,2,10.3.35.51,10.71.35.210,1,0
2015-03-10 17:30:25.910,103,1426033821.549299,37.7878150122951,-122.3967547751118,12.22049,-1,-1,10,65,-9999,1426033825.882296,37.00270843505859,-13.130859375,-0.6711883544921875,313.7857055664062,300.0156555175781,10,368584.513582625,0.528289794921875,-0.8748016357421875,0.018218994140625,368584.498820875,-0.03848241143553598,0.06066068436149787,-0.06139997788010386,368584.498820875,-1.458158225362169,1.553048530504078,1.076618370247574,-0.0500960685312748,0.07140309363603592,-0.02655921876430511,0.06968129426240921,-0.01186826359480619,0.01948010548949242,XTrueNorthZVertical,0.6735924752193811,0.2050961619793128,-0.1400608425642589,0.6961262381462656,0.4742335081100464,-0.8803589344024658,-0.008417483419179916,34.04606246948242,-11.14676666259766,1.039864540100098,2,10.3.35.51,10.71.35.210,1,0
2015-03-10 17:30:25.961,104,1426033821.549299,37.7878150122951,-122.3967547751118,12.22049,-1,-1,10,65,-9999,1426033825.932414,36.88333129882812,-12.94406127929688,-0.3216743469238281,313.3962707519531,299.626220703125,10,368584.5626191667,0.53167724609375,-0.8605804443359375,0.0263214111328125,368584.55059625,0.005942311340293804,0.03156245365907409,-0.006923686201988004,368584.498820875,-1.458158225362169,1.553048530504078,1.076618370247574,-0.0500960685312748,0.07140309363603592,-0.02655921876430511,0.06968129426240921,-0.01186826359480619,0.01948010548949242,XTrueNorthZVertical,0.6735924752193811,0.2050961619793128,-0.1400608425642589,0.6961262381462656,0.4742335081100464,-0.8803589344024658,-0.008417483419179916,34.04606246948242,-11.14676666259766,1.039864540100098,2,10.3.35.51,10.71.35.210,1,0
2015-03-10 17:30:26.010,105,1426033821.549299,37.7878150122951,-122.3967547751118,12.22049,-1,-1,10,65,-9999,1426033825.991133,36.72985076904297,-12.92706298828125,-0.00543975830078125,312.9089965820312,299.1389465332031,10,368584.6117003334,0.5319976806640625,-0.872955322265625,0.0088348388671875,368584.602371375,-0.007179615982744619,-0.03242345363949671,-0.0150705622926494,368584.602371375,-1.461226734643517,1.560769137876749,1.068128769921006,-0.01878879778087139,-0.02167593315243721,0.01972478069365025,0.05336978286504745,0.00998279731720686,0.005975075997412205,XTrueNorthZVertical,0.6735329126066376,0.2096141269906838,-0.1414666138226406,0.6945520628156017,0.4817406833171844,-0.876300573348999,-0.004830666817724705,34.10451126098633,-10.94499683380127,1.247237205505371,2,10.3.35.51,10.71.35.210,1,0
2015-03-10 17:30:26.049,106,1426033821.549299,37.7878150122951,-122.3967547751118,12.22049,-1,-1,10,65,-9999,1426033825.991133,36.72985076904297,-12.92706298828125,-0.00543975830078125,312.9089965820312,299.1389465332031,10,368584.660834125,0.52459716796875,-0.8671112060546875,0.0168304443359375,368584.6541451667,0.0505084479700068,-0.0257953783185075,-0.005555620350014299,368584.602371375,-1.461226734643517,1.560769137876749,1.068128769921006,-0.01878879778087139,-0.02167593315243721,0.01972478069365025,0.05336978286504745,0.00998279731720686,0.005975075997412205,XTrueNorthZVertical,0.6735329126066376,0.2096141269906838,-0.1414666138226406,0.6945520628156017,0.4817406833171844,-0.876300573348999,-0.004830666817724705,34.10451126098633,-10.94499683380127,1.247237205505371,2,10.3.35.51,10.71.35.210,1,0
2015-03-10 17:30:26.107,107,1426033821.549299,37.7878150122951,-122.3967547751118,12.22049,-1,-1,10,65,-9999,1426033826.061114,36.32057952880859,-12.92706298828125,0.2275733947753906,312.6033020019531,298.833251953125,10,368584.709811625,0.52484130859375,-0.8678131103515625,0.02130126953125,368584.70592025,0.02022857269191487,-0.09255283736352377,0.01820137447014655,368584.6541451667,-1.469071764898632,1.568154767751033,1.061589678005353,0.03890512883663177,-0.01504219602793455,0.02920309640467167,0.03897566348314285,0.006462827790528536,0.02072741650044918,XTrueNorthZVertical,0.6741831460338906,0.2117385804285865,-0.143962626803136,0.6927616174646029,0.4874830842018127,-0.8731315135955811,-0.001287718303501606,34.19049072265625,-10.66927433013916,1.281786441802979,2,10.3.35.51,10.71.35.210,1,0
2015-03-10 17:30:26.146,108,1426033821.549299,37.7878150122951,-122.3967547751118,12.22049,-1,-1,10,65,-9999,1426033826.115055,36.35467529296875,-12.9949951171875,0.06113433837890625,312.6412048339844,298.8711547851562,10,368584.7589682083,0.507843017578125,-0.870361328125,0.0189208984375,368584.757695625,0.03138881555600093,-0.1106993507152147,0.01007740156485984,368584.70592025,-1.474423088509588,1.57157687223618,1.057281584057653,0.008627826347947121,-0.0817965567111969,0.05293068289756775,0.03349287435412407,-0.001077527063898742,0.01360887289047241,XTrueNorthZVertical,0.6745406226498625,0.2125715565150261,-0.1461516118731313,0.691699375082195,0.4912416338920593,-0.8710232973098755,0.0003834364761132747,34.24858856201172,-10.47684288024902,1.317640662193298,2,10.3.35.51,10.71.35.210,1,0
2015-03-10 17:30:26.205,109,1426033821.549299,37.7878150122951,-122.3967547751118,12.22049,-1,-1,10,65,-9999,1426033826.172118,36.26941680908203,-13.01199340820312,0.07778167724609375,312.6827087402344,298.9126586914062,10,368584.8079264584,0.51397705078125,-0.8809051513671875,-0.0081787109375,368584.809469125,0.02288507587926891,-0.1242276764205992,0.02755839096013996,368584.757695625,-1.480801543155365,1.574167160811092,1.055004700942031,0.0197942815721035,-0.09993790090084076,0.04478445276618004,0.01625479385256767,0.009749348275363445,0.01757876016199589,XTrueNorthZVertical,0.6751683536031324,0.212082484801646,-0.1482695505238915,0.690785706067328,0.4932209253311157,-0.8699025511741638,0.001662572147324681,34.27323532104492,-10.40324211120605,1.258608818054199,2,10.3.35.51,10.71.35.210,1,0
2015-03-10 17:30:26.244,110,1426033821.549299,37.7878150122951,-122.3967547751118,12.22049,-1,-1,10,65,-9999,1426033826.172118,36.26941680908203,-13.01199340820312,0.07778167724609375,312.6827087402344,298.9126586914062,10,368584.856976125,0.489593505859375,-0.85955810546875,0.02789306640625,368584.809469125,0.02288507587926891,-0.1242276764205992,0.02755839096013996,368584.809469125,-1.484096188472572,1.573298216939487,1.056292482624221,0.01129280682653189,-0.1134645864367485,0.06225719675421715,0.0218755267560482,-0.0103681618347764,-0.009409897029399872,XTrueNorthZVertical,0.6755862240037527,0.2102352187353979,-0.1492557141496444,0.6907294520429897,0.4921015202999115,-0.8705369830131531,0.001231186557561159,34.27243423461914,-10.41804122924805,1.15360689163208,2,10.3.35.51,10.71.35.210,1,0
2015-03-10 17:30:26.304,111,1426033821.549299,37.7878150122951,-122.3967547751118,12.22049,-1,-1,10,65,-9999,1426033826.294539,36.38878631591797,-13.02896118164062,-1.237075805664062,314.0540771484375,300.2840270996094,10,368584.9060602917,0.5457000732421875,-0.8798828125,0.0259552001953125,368584.913019625,0.06983687221347488,-0.16955947186371,0.03351162126090309,368584.8612443334,-1.49157668016482,1.573764250842849,1.059701339783726,0.0592728778719902,-0.1238726153969765,0.08200161904096603,0.0004629856557585299,0.01265133172273636,0.02644135989248753,XTrueNorthZVertical,0.6767530108935866,0.2067153005813776,-0.1505030301384785,0.6903788974595398,0.4891305267810822,-0.8722094297409058,0.001451706513762474,34.25277709960938,-10.50188159942627,0.9611865282058716,2,10.3.35.51,10.71.35.210,1,0
2015-03-10 17:30:26.343,112,1426033821.549299,37.7878150122951,-122.3967547751118,12.22049,-1,-1,10,65,-9999,1426033826.294539,36.38878631591797,-13.02896118164062,-1.237075805664062,314.0540771484375,300.2840270996094,10,368584.9551361667,0.4978485107421875,-0.8725433349609375,0.024993896484375,368584.913019625,0.06983687221347488,-0.16955947186371,0.03351162126090309,368584.913019625,-1.502497368056131,1.578307556941385,1.059476437564984,0.05825802683830261,-0.1587868332862854,0.06818975508213043,0.05638505145907402,-0.007783404551446438,0.0222797729074955,XTrueNorthZVertical,0.6781979255980979,0.2046589532407867,-0.1528078459157369,0.6890660971094957,0.4893150329589844,-0.8720993995666504,0.003675426822155714,34.24544906616211,-10.53130054473877,0.8983343839645386,2,10.3.35.51,10.71.35.210,1,0
2015-03-10 17:30:26.401,113,1426033821.549299,37.7878150122951,-122.3967547751118,12.22049,-1,-1,10,65,-9999,1426033826.346263,36.61048126220703,-13.28378295898438,-1.386871337890625,315.0484924316406,301.2784423828125,10,368585.004179375,0.5710296630859375,-0.884246826171875,0.059600830078125,368584.96479325,0.1160429834424587,-0.2831741850242344,0.1451622531174941,368584.96479325,-1.510692460866574,1.57507482650173,1.066519328281773,0.104343056678772,-0.2724164426326752,0.17976213991642,0.01467829383909702,0.002980704186484218,0.02292663976550102,XTrueNorthZVertical,0.6794707776257999,0.1983761338335729,-0.1542979953619215,0.6893174434840784,0.483170211315155,-0.8755240440368652,0.00206725625321269,34.19804763793945,-10.70551109313965,0.5930414795875549,2,10.3.35.51,10.71.35.210,1,0
2015-03-10 17:30:26.440,114,1426033821.549299,37.7878150122951,-122.3967547751118,12.22049,-1,-1,10,65,-9999,1426033826.399032,36.23531341552734,-13.28378295898438,-1.420158386230469,315.2012634277344,301.4312133789062,10,368585.053218625,0.57177734375,-0.865875244140625,0.0289306640625,368585.0165685417,0.1820086846953944,-0.4244761861416586,0.1559504523772961,368585.0165685417,-1.527871943054581,1.573431447004825,1.072939419998219,0.1703123450279236,-0.4137161076068878,0.1905429363250732,0.08794860541820526,-0.008614290505647659,0.05501602962613106,XTrueNorthZVertical,0.6816247042622822,0.1897813332209942,-0.1585615762956407,0.6886429205394894,0.4775421321392059,-0.8786079883575439,0.001258383854292333,34.14279937744141,-10.89460945129395,0.2071802914142609,2,10.3.35.51,10.71.35.210,1,0
2015-03-10 17:30:26.500,115,1426033821.549299,37.7878150122951,-122.3967547751118,12.22049,-1,-1,10,65,-9999,1426033826.450588,36.18415069580078,-13.36874389648438,-1.936115264892578,316.0338745117188,302.2638244628906,10,368585.1023035,0.4403839111328125,-0.910675048828125,-0.04095458984375,368585.0683439167,0.3659926359713006,-0.7660439064914064,0.3562870116946157,368585.0683439167,-1.554498222854245,1.566735656821913,1.087344094953849,0.3542964160442352,-0.7552839517593384,0.3908791840076447,0.1004880964756012,0.01536983717232943,0.01877903006970882,XTrueNorthZVertical,0.6848126604905632,0.173458480715915,-0.165056940905885,0.6882586862108254,0.4648347795009613,-0.8853954672813416,-0.001887551043182611,34.03018951416016,-11.23473167419434,-0.4395821392536163,2,10.3.35.51,10.71.35.210,1,0
2015-03-10 17:30:26.539,116,1426033821.549299,37.7878150122951,-122.3967547751118,12.22049,-1,-1,10,65,-9999,1426033826.503025,35.89424896240234,-14.09921264648438,-3.317550659179688,317.8442077636719,304.0741577148438,10,368585.15145175,0.39166259765625,-0.8844146728515625,-0.096832275390625,368585.1201175834,0.3121440513621164,-0.7981240786663919,0.3449619191590538,368585.1201175834,-1.593277223741579,1.561264904593104,1.108689957927389,0.300447940826416,-0.7873641848564148,0.3795537352561951,-0.03411698341369629,0.02142764814198017,-0.04708119109272957,XTrueNorthZVertical,0.6892762171307233,0.1509092762721642,-0.1729429255357845,0.6871793570287108,0.4458143711090088,-0.8951153755187988,-0.004249373450875282,33.69438934326172,-12.08474922180176,-1.764352560043335,2,10.3.35.51,10.71.35.210,1,0
2015-03-10 17:30:26.599,117,1426033821.549299,37.7878150122951,-122.3967547751118,12.22049,-1,-1,10,65,-9999,1426033826.553758,35.72373199462891,-14.8466796875,-3.916725158691406,319.2086486816406,305.4385986328125,10,368585.200421625,0.4770355224609375,-0.9482879638671875,-0.046356201171875,368585.1718927083,-0.04086034797286774,-0.3043633599213408,0.4260937901877728,368585.1718927083,-1.608970800523981,1.547798614158645,1.128474295323345,-0.05255633220076561,-0.2936036288738251,0.4606852233409882,-0.02459050342440605,-0.03773762285709381,-0.1444995999336243,XTrueNorthZVertical,0.6907384460922347,0.1340107121062162,-0.1762058504064118,0.6883843866617834,0.4279260635375977,-0.9037601947784424,-0.009843056090176105,33.41890335083008,-12.67147350311279,-2.660211563110352,2,10.3.35.51,10.71.35.210,1,0
2015-03-10 17:30:26.636,118,1426033821.549299,37.7878150122951,-122.3967547751118,12.22049,-1,-1,10,65,-9999,1426033826.607463,35.24624633789062,-15.56008911132812,-4.948635101318359,319.8642272949219,306.0941772460938,10,368585.2494651667,0.42962646484375,-0.912994384765625,0.05560302734375,368585.2236681667,0.01432807298073531,-0.3019904833900803,0.3207394037803471,368585.2236681667,-1.603720205446134,1.526878832500431,1.147439346120064,0.002632206305861473,-0.2912308275699615,0.3553304970264435,0.009586090222001076,0.0196403693407774,0.05989139527082443,XTrueNorthZVertical,0.6899970863446246,0.1220071800273193,-0.1751163899202899,0.6916303609770842,0.4104273319244385,-0.9117149710655212,-0.01803653687238693,33.13080596923828,-13.2951831817627,-3.17078971862793,2,10.3.35.51,10.71.35.210,1,0
2015-03-10 17:30:26.703,119,1426033821.549299,37.7878150122951,-122.3967547751118,12.22049,-1,-1,10,65,-9999,1426033826.657519,34.76876068115234,-16.13763427734375,-5.314796447753906,318.8758850097656,305.1058349609375,10,368585.2985339584,0.4361572265625,-0.9304351806640625,0.005859375,368585.2754416667,0.04594911618379115,-0.244037168592757,0.3950583761084254,368585.2754416667,-1.60356611670841,1.515771096204203,1.167559025939857,0.03425335511565208,-0.2332776188850403,0.429649144411087,0.06978938728570938,0.008861057460308075,0.04855844378471375,XTrueNorthZVertical,0.6905403581351424,0.1111915544693586,-0.1719949578224285,0.6936917354785442,0.3918042480945587,-0.9197955131530762,-0.02158090472221375,32.76815032958984,-14.04642105102539,-3.662321805953979,2,10.3.35.51,10.71.35.210,1,0
2015-03-10 17:30:26.737,120,1426033821.549299,37.7878150122951,-122.3967547751118,12.22049,-1,-1,10,65,-9999,1426033826.708582,34.44474792480469,-17.00393676757812,-5.764175415039062,319.0356140136719,305.2655639648438,10,368585.3475769167,0.3709869384765625,-0.93353271484375,0.0374755859375,368585.3272169583,0.05755357431770242,-0.3338067363010389,0.3948573074461244,368585.3272169583,-1.606992685647694,1.503934270326115,1.189470161094306,0.04585792869329453,-0.3230472803115845,0.4294477701187134,0.02508782595396042,-0.001515582902356982,0.03136454150080681,XTrueNorthZVertical,0.6913170037248981,0.09822754596098468,-0.169748637455627,0.6954261909387414,0.3713202476501465,-0.9281719326972961,-0.02486429922282696,32.43826675415039,-14.69391632080078,-4.039026737213135,2,10.3.35.51,10.71.35.210,1,0
2015-03-10 17:30:26.795,121,1426033821.549299,37.7878150122951,-122.3967547751118,12.22049,-1,-1,10,65,-9999,1426033826.761586,34.39358520507812,-17.768310546875,-6.379997253417969,318.6955261230469,304.9254760742188,10,368585.3966505,0.372406005859375,-0.9633026123046875,0.0247955322265625,368585.3789921667,0.08243868417562084,-0.3746353926569347,0.5132715695231896,368585.3789921667,-1.611410758719314,1.489343526226829,1.214214192273444,0.07074316591024399,-0.363876074552536,0.547861635684967,0.03280586376786232,-0.03186824172735214,0.06773874163627625,XTrueNorthZVertical,0.6920416505083925,0.08293106190024306,-0.1678246604608614,0.6971626163680976,0.3479161858558655,-0.9370954036712646,-0.02840158529579639,32.06229782104492,-15.36655426025391,-4.51046085357666,2,10.3.35.51,10.71.35.210,1,0
2015-03-10 17:30:26.833,122,1426033821.549299,37.7878150122951,-122.3967547751118,12.22049,-1,-1,10,65,-9999,1426033826.812801,33.64324951171875,-18.27792358398438,-7.278759002685547,318.7194519042969,304.9494018554688,10,368585.445700625,0.327423095703125,-0.9301300048828125,0.06536865234375,368585.4307658334,0.04164598049444111,-0.5297224482088271,0.5343851106453378,368585.3789921667,-1.611410758719314,1.489343526226829,1.214214192273444,0.07074316591024399,-0.363876074552536,0.547861635684967,0.03280586376786232,-0.03186824172735214,0.06773874163627625,XTrueNorthZVertical,0.6920416505083925,0.08293106190024306,-0.1678246604608614,0.6971626163680976,0.3479161858558655,-0.9370954036712646,-0.02840158529579639,32.06229782104492,-15.36655426025391,-4.51046085357666,2,10.3.35.51,10.71.35.210,1,0
2015-03-10 17:30:26.897,123,1426033821.549299,37.7878150122951,-122.3967547751118,12.22049,-1,-1,10,65,-9999,1426033826.868441,33.08049011230469,-18.8385009765625,-7.661563873291016,318.2859191894531,304.515869140625,10,368585.4947859584,0.264068603515625,-0.9469757080078125,0.022613525390625,368585.4825411667,0.0905306991478266,-0.4776208972747349,0.6638653396839003,368585.4825411667,-1.610211128143379,1.442274591517852,1.275131556353706,0.07883540540933609,-0.4668617844581604,0.698454737663269,-0.01884648017585278,0.01852882094681263,0.09033890813589096,XTrueNorthZVertical,0.692291141893952,0.0453917058509066,-0.1627075632951626,0.7015688520223515,0.2889728248119354,-0.9566086530685425,-0.03734513744711876,30.82936096191406,-17.30692672729492,-5.872560501098633,2,10.3.35.51,10.71.35.210,1,0
2015-03-10 17:30:26.931,124,1426033821.549299,37.7878150122951,-122.3967547751118,12.22049,-1,-1,10,65,-9999,1426033826.92103,32.33015441894531,-19.89169311523438,-7.761425018310547,317.0312805175781,303.26123046875,10,368585.5438344167,0.1268768310546875,-1.01385498046875,-0.031982421875,368585.5343164167,0.01920192409168932,-0.6550462817341028,0.7357485848789921,368585.4825411667,-1.610211128143379,1.442274591517852,1.275131556353706,0.07883540540933609,-0.4668617844581604,0.698454737663269,-0.01884648017585278,0.01852882094681263,0.09033890813589096,XTrueNorthZVertical,0.692291141893952,0.0453917058509066,-0.1627075632951626,0.7015688520223515,0.2889728248119354,-0.9566086530685425,-0.03734513744711876,30.82936096191406,-17.30692672729492,-5.872560501098633,2,10.3.35.51,10.71.35.210,1,0
2015-03-10 17:30:26.997,125,1426033821.549299,37.7878150122951,-122.3967547751118,12.22049,-1,-1,10,65,-9999,1426033826.975453,31.59687042236328,-21.36953735351562,-7.944507598876953,314.7053527832031,300.935302734375,10,368585.5929132084,0.0388641357421875,-0.9568328857421875,-0.1008453369140625,368585.5860900834,-0.04957154789851692,-0.4745225756625367,0.541717592074653,368585.5343164167,-1.59171609055427,1.394838065610212,1.309939445092074,0.007506758440285921,-0.6442872881889343,0.7703375816345215,-0.05223570019006729,-0.0586109384894371,0.004070688039064407,XTrueNorthZVertical,0.6905846521426433,0.02278517528118541,-0.1605936980156913,0.7048286143144107,0.2539263665676117,-0.9661693572998047,-0.04514734819531441,30.13128280639648,-18.26239967346191,-6.561748027801514,2,10.3.35.51,10.71.35.210,1,0
2015-03-10 17:30:27.029,126,1426033821.549299,37.7878150122951,-122.3967547751118,12.22049,-1,-1,10,65,-9999,1426033826.975453,31.59687042236328,-21.36953735351562,-7.944507598876953,314.7053527832031,300.935302734375,10,368585.6419644583,0.0506134033203125,-0.990234375,-0.05755615234375,368585.6378655834,-0.02264113032341765,-0.2958154117705135,0.1775340414318433,368585.5860900834,-1.559821058285582,1.334566421801,1.345649982107106,-0.06126659363508224,-0.4637636840343475,0.5763062834739685,-0.2046130150556564,-0.001862088916823268,-0.01328750606626272,XTrueNorthZVertical,0.6883861441700293,-0.0001409622530500469,-0.1577955362089788,0.7079725296811883,0.2170489281415939,-0.974761426448822,-0.0522489920258522,29.00790214538574,-19.60184669494629,-7.666508674621582,2,10.3.35.51,10.71.35.210,1,0
2015-03-10 17:30:27.091,127,1426033821.549299,37.7878150122951,-122.3967547751118,12.22049,-1,-1,10,65,-9999,1426033827.045978,30.36904525756836,-22.93234252929688,-9.309303283691406,314.1318359375,300.3617858886719,10,368585.6910294167,0.0618743896484375,-1.060699462890625,-0.0707550048828125,368585.689640625,0.06093339205712198,-0.3145222542155571,0.08733863426525762,368585.6378655834,-1.531171000827907,1.289409520753279,1.362628587809538,-0.03433607146143913,-0.2850566208362579,0.2121224105358124,-0.1520614624023438,-0.01434084959328175,-0.02183445170521736,XTrueNorthZVertical,0.6864069450160586,-0.01228475594219847,-0.157327490793297,0.7098892087024179,0.1985397338867188,-0.9784111976623535,-0.05738918110728264,28.4626579284668,-20.17413711547852,-8.206547737121582,2,10.3.35.51,10.71.35.210,1,0
2015-03-10 17:30:27.128,128,1426033821.549299,37.7878150122951,-122.3967547751118,12.22049,-1,-1,10,65,-9999,1426033827.098114,30.23262023925781,-23.17013549804688,-10.04162979125977,314.0940856933594,300.3240356445312,10,368585.7401742917,0.0579376220703125,-0.9624176025390625,-0.119415283203125,368585.689640625,0.06093339205712198,-0.3145222542155571,0.08733863426525762,368585.689640625,-1.525616481432593,1.267905883630968,1.370680649760188,0.04923856630921364,-0.3037635982036591,0.1219266504049301,-0.1266236007213593,-0.06475621461868286,0.02909587509930134,XTrueNorthZVertical,0.6855064741655607,-0.0208414080518419,-0.1599747209746951,0.7099680525367914,0.1897339522838593,-0.9800435900688171,-0.05929302051663399,28.16856002807617,-20.4218692779541,-8.599157333374023,2,10.3.35.51,10.71.35.210,1,0
2015-03-10 17:30:27.190,129,1426033821.549299,37.7878150122951,-122.3967547751118,12.22049,-1,-1,10,65,-9999,1426033827.150611,29.75513458251953,-23.20413208007812,-10.47436904907227,314.4913024902344,300.7212524414062,10,368585.7891349167,0.0631866455078125,-1.066680908203125,-0.0557708740234375,368585.793189625,0.05746116262787667,-0.1799561864432703,-0.2267471278476355,368585.7414143333,-1.531843950521803,1.267566097218796,1.36786708866032,-0.01234850287437439,-0.1077257394790649,-0.2168480604887009,-0.1344070136547089,0.01706282235682011,-0.05923466011881828,XTrueNorthZVertical,0.6851429990367529,-0.02210789074627962,-0.1632631068528607,0.709531893127239,0.1923446357250214,-0.9794804453849792,-0.06018062308430672,28.02492523193359,-20.48538017272949,-8.91172981262207,2,10.3.35.51,10.71.35.210,1,0
2015-03-10 17:30:27.226,130,1426033821.549299,37.7878150122951,-122.3967547751118,12.22049,-1,-1,10,65,-9999,1426033827.200958,29.92566680908203,-22.89837646484375,-11.04025268554688,314.8687133789062,301.0986633300781,10,368585.83818275,0.1300506591796875,-0.979583740234375,-0.066497802734375,368585.793189625,0.05746116262787667,-0.1799561864432703,-0.2267471278476355,368585.793189625,-1.5437032508566,1.270489744842979,1.362273485746703,0.04576163738965988,-0.1692006289958954,-0.1921332776546478,-0.1345636993646622,-0.08834312856197357,0.005466911010444164,XTrueNorthZVertical,0.6847221723867671,-0.02316579521757538,-0.1683791886851259,0.7087082465852361,0.1977503448724747,-0.9783377647399902,-0.06123778596520424,28.06435012817383,-20.34409523010254,-9.109130859375,2,10.3.35.51,10.71.35.210,1,0
2015-03-10 17:30:27.291,131,1426033821.549299,37.7878150122951,-122.3967547751118,12.22049,-1,-1,10,65,-9999,1426033827.252929,29.99387741088867,-22.8304443359375,-10.84051895141602,314.9735412597656,301.2034912109375,10,368585.8872491667,0.2313995361328125,-0.9772491455078125,-0.037384033203125,368585.8449650417,0.09231901181981481,-0.07125793497114116,-0.3787851302674962,368585.8449650417,-1.561987117421477,1.281743789077239,1.359255125687175,0.08060923963785172,-0.06050837785005569,-0.3441326320171356,-0.07120588421821594,-0.001875265617854893,-0.006647882051765919,XTrueNorthZVertical,0.6851865932698069,-0.02437974462490081,-0.1720305844202852,0.7073404243118389,0.2012565433979034,-0.9777084589004517,-0.05984992161393166,28.07529449462891,-20.25311088562012,-9.276611328125,2,10.3.35.51,10.71.35.210,1,0
2015-03-10 17:30:27.324,132,1426033821.549299,37.7878150122951,-122.3967547751118,12.22049,-1,-1,10,65,-9999,1426033827.306481,30.55663681030273,-22.4737548828125,-10.72400665283203,315.6518859863281,301.8818359375,10,368585.9362922917,0.2127532958984375,-0.96875,-0.060394287109375,368585.896738625,0.03350815915148599,0.1051003208394321,-0.388024701353417,368585.896738625,-1.586859106975597,1.309121394106009,1.340642930703244,0.0217985026538372,0.1158497706055641,-0.3533725142478943,0.01103839837014675,-0.003617732785642147,0.02163216285407543,XTrueNorthZVertical,0.6857219694492479,-0.0166518068000055,-0.1778130453375268,0.705613673506283,0.2203611433506012,-0.9736314415931702,-0.05901619419455528,28.45623779296875,-19.72869491577148,-9.245926856994629,2,10.3.35.51,10.71.35.210,1,0
2015-03-10 17:30:27.393,133,1426033821.549299,37.7878150122951,-122.3967547751118,12.22049,-1,-1,10,65,-9999,1426033827.35652,31.119384765625,-21.53945922851562,-10.44106292724609,316.4296264648438,302.6595764160156,10,368585.98536375,0.3155975341796875,-0.960479736328125,-0.0340423583984375,368585.948513875,-0.03843101242649746,0.2155232354334966,-0.4359421598988858,368585.948513875,-1.607475343497576,1.338607121142316,1.323520892255389,-0.05017530173063278,0.226226881146431,-0.4013340473175049,-0.01965871639549732,-0.01543297618627548,-0.03051563911139965,XTrueNorthZVertical,0.6868669279722939,-0.007263527984952783,-0.180835992009209,0.7038888021551821,0.2381950914859772,-0.9695829153060913,-0.0563221275806427,28.82673835754395,-19.29412460327148,-9.0123291015625,2,10.3.35.51,10.71.35.210,1,0
2015-03-10 17:30:27.422,134,1426033821.549299,37.7878150122951,-122.3967547751118,12.22049,-1,-1,10,65,-9999,1426033827.409507,31.54571151733398,-20.53720092773438,-10.35784149169922,317.1235046386719,303.3534545898438,10,368586.034508125,0.4569244384765625,-0.891326904296875,0.0271148681640625,368586.0002892084,-0.07291841591080557,0.428421659296611,-0.4706117236017553,368586.0002892084,-1.612421140550056,1.360705593288699,1.302431958014882,-0.08466258645057678,0.4391251802444458,-0.4360039532184601,0.09809725731611252,0.01359858177602291,0.04820234328508377,XTrueNorthZVertical,0.687249213388829,0.006299060904962262,-0.1822235875523907,0.7031667242226297,0.2593246102333069,-0.9642058610916138,-0.05529768019914627,29.28080940246582,-18.74787521362305,-8.695829391479492,2,10.3.35.51,10.71.35.210,1,0
2015-03-10 17:30:27.489,135,1426033821.549299,37.7878150122951,-122.3967547751118,12.22049,-1,-1,10,65,-9999,1426033827.460795,31.95499420166016,-20.09555053710938,-9.692096710205078,318.3856811523438,304.6156311035156,10,368586.0834665833,0.316741943359375,-0.9778594970703125,-0.069671630859375,368586.0520630417,-0.01937396429810844,0.5258853657102409,-0.2994724645794103,368586.0520630417,-1.613457160649842,1.388318318604402,1.283902223859747,-0.03111802972853184,0.5365887880325317,-0.2648650109767914,0.1766947656869888,0.05216022580862045,0.05742358043789864,XTrueNorthZVertical,0.6883537152648453,0.02222323815832261,-0.1794527848071882,0.7024756407008601,0.2782765626907349,-0.9591273665428162,-0.05135058239102364,29.96464347839355,-17.99920082092285,-7.912964344024658,2,10.3.35.51,10.71.35.210,1,0
2015-03-10 17:30:27.520,136,1426033821.549299,37.7878150122951,-122.3967547751118,12.22049,-1,-1,10,65,-9999,1426033827.512551,32.72238159179688,-19.84075927734375,-9.076278686523438,317.9034118652344,304.1333618164062,10,368586.1325299167,0.2946929931640625,-0.985076904296875,-0.051422119140625,368586.1038382084,-0.01788232777155506,-0.1113100135531699,-0.2356841638337234,368586.1038382084,-1.618432054067423,1.398169140474269,1.274520728900431,-0.02962626516819,-0.1006066799163818,-0.2010770887136459,0.06005071476101875,-0.04537003859877586,0.003626275341957808,XTrueNorthZVertical,0.6886070947277551,0.02729665797448401,-0.1810290269881312,0.7016435635905539,0.2876207828521729,-0.9564304947853088,-0.05015032365918159,30.22845840454102,-17.71080589294434,-7.552066326141357,2,10.3.35.51,10.71.35.210,1,0
2015-03-10 17:30:27.594,137,1426033821.549299,37.7878150122951,-122.3967547751118,12.22049,-1,-1,10,65,-9999,1426033827.567988,33.08050537109375,-19.85775756835938,-8.593608856201172,317.4779663085938,303.7079162597656,10,368586.1815825833,0.3957672119140625,-0.972320556640625,0.0085601806640625,368586.155613625,-0.08585045984812134,0.3665047618489228,-0.1436514418310921,368586.155613625,-1.601220152904323,1.393405956816246,1.265919802559644,-0.09759428352117538,0.3772079944610596,-0.1090447157621384,0.0009064374025911093,0.004894156008958817,0.05161138996481895,XTrueNorthZVertical,0.6872544207631406,0.03459263817153762,-0.1795742205440052,0.7030205169325874,0.2954650223255157,-0.9538840055465698,-0.05296942219138145,30.38689422607422,-17.43691062927246,-7.553603172302246,2,10.3.35.51,10.71.35.210,1,0
2015-03-10 17:30:27.618,138,1426033821.549299,37.7878150122951,-122.3967547751118,12.22049,-1,-1,10,65,-9999,1426033827.567988,33.08050537109375,-19.85775756835938,-8.593608856201172,317.4779663085938,303.7079162597656,10,368586.2306309583,0.330413818359375,-0.902008056640625,-0.1480865478515625,368586.2073873333,0.007379086748391554,-0.003434412541766186,-0.01705168782755935,368586.2073873333,-1.603903554875751,1.403517642235764,1.264631903122945,-0.004364626947790384,0.007268716115504503,0.01755472645163536,0.0797564908862114,0.008290949277579784,0.01495107542723417,XTrueNorthZVertical,0.6881049852614087,0.03767916837174597,-0.1774822235426171,0.7025609633632336,0.297196626663208,-0.9534966349601746,-0.05018362030386925,30.5678539276123,-17.29864692687988,-7.129456996917725,2,10.3.35.51,10.71.35.210,1,0
2015-03-10 17:30:27.691,139,1426033821.549299,37.7878150122951,-122.3967547751118,12.22049,-1,-1,10,65,-9999,1426033827.641883,33.01229095458984,-19.34811401367188,-8.294010162353516,317.537841796875,303.7677917480469,10,368586.2796975833,0.338104248046875,-1.003860473632812,0.009857177734375,368586.259162625,-0.01156637493032314,-0.1288517230213038,-0.1239408539711977,368586.259162625,-1.602236854841835,1.398676460320688,1.265033348740317,-0.0233099702745676,-0.1181487068533897,-0.08933478593826294,0.01150189433246851,0.06599853932857513,-0.04545913636684418,XTrueNorthZVertical,0.6876745118245777,0.03640938155038997,-0.1784239766483599,0.7028108171230918,0.2965730428695679,-0.9536175727844238,-0.05155624449253082,30.53114700317383,-17.34429931640625,-7.175687789916992,2,10.3.35.51,10.71.35.210,1,0
2015-03-10 17:30:27.716,140,1426033821.549299,37.7878150122951,-122.3967547751118,12.22049,-1,-1,10,65,-9999,1426033827.693793,32.73944854736328,-19.0423583984375,-8.460453033447266,317.8439025878906,304.0738525390625,10,368586.3288494584,0.2544403076171875,-0.9463958740234375,0.071014404296875,368586.3109377917,0.1044893916853679,-0.2196514014392284,-0.03745523020309242,368586.3109377917,-1.599793193979662,1.387085455465486,1.259689997855184,0.09274592995643616,-0.2089484930038452,-0.002849543699994683,-0.08454567193984985,-0.06784093379974365,0.1888396441936493,XTrueNorthZVertical,0.6861560818364254,0.03506653085695433,-0.1833776332146795,0.7030880818186441,0.3009610772132874,-0.9519954919815063,-0.05592034012079239,30.56951522827148,-17.17558288574219,-7.41419792175293,2,10.3.35.51,10.71.35.210,1,0
2015-03-10 17:30:27.792,141,1426033821.549299,37.7878150122951,-122.3967547751118,12.22049,-1,-1,10,65,-9999,1426033827.74569,33.18282318115234,-19.34811401367188,-8.393878936767578,317.8986511230469,304.1286010742188,10,368586.377820375,0.387481689453125,-0.9774169921875,0.02001953125,368586.3627116667,0.09335977517381777,0.1946416556422943,-0.02220650243351672,368586.3627116667,-1.634661420739801,1.4228782539321,1.263421794208875,0.08161642402410507,0.2053444534540176,0.01239883899688721,0.08645819127559662,-0.01528309844434261,-0.03924110159277916,XTrueNorthZVertical,0.6903104671044189,0.03429456401083902,-0.1820063755868605,0.6994062185292718,0.2992534637451172,-0.9531311988830566,-0.04459068551659584,30.52643013000488,-17.27608680725098,-7.357988834381104,2,10.3.35.51,10.71.35.210,1,0
2015-03-10 17:30:27.814,142,1426033821.549299,37.7878150122951,-122.3967547751118,12.22049,-1,-1,10,65,-9999,1426033827.7979,33.01229858398438,-19.38211059570312,-8.62689208984375,318.8076477050781,305.03759765625,10,368586.4269383751,0.3626708984375,-0.9116363525390625,0.157745361328125,368586.414487,0.2251276595887583,-0.2424379403581643,0.1928669250918655,368586.3627116667,-1.634661420739801,1.4228782539321,1.263421794208875,0.08161642402410507,0.2053444534540176,0.01239883899688721,0.08645819127559662,-0.01528309844434261,-0.03924110159277916,XTrueNorthZVertical,0.6903104671044189,0.03429456401083902,-0.1820063755868605,0.6994062185292718,0.2992534637451172,-0.9531311988830566,-0.04459068551659584,30.52643013000488,-17.27608680725098,-7.357988834381104,2,10.3.35.51,10.71.35.210,1,0
2015-03-10 17:30:27.895,143,1426033821.549299,37.7878150122951,-122.3967547751118,12.22049,-1,-1,10,65,-9999,1426033827.84912,32.89292907714844,-19.77279663085938,-8.510387420654297,318.8007202148438,305.0306701660156,10,368586.4759313334,0.2782745361328125,-0.8920135498046875,-0.1262359619140625,368586.4662622917,0.121026290474215,-0.09317521811027528,0.158705226208874,368586.4662622917,-1.676568237770375,1.449754704989117,1.284371729096877,0.1092831790447235,-0.08247263729572296,0.193309873342514,0.007399748079478741,0.04728809744119644,-0.08377563208341599,XTrueNorthZVertical,0.694601644548453,0.02171795726352403,-0.1801174208345574,0.6961426849583978,0.2804573178291321,-0.9592601656913757,-0.03411377221345901,30.20856475830078,-17.79739952087402,-7.427068710327148,2,10.3.35.51,10.71.35.210,1,0
2015-03-10 17:30:27.913,144,1426033821.549299,37.7878150122951,-122.3967547751118,12.22049,-1,-1,10,65,-9999,1426033827.901215,32.53481292724609,-19.78976440429688,-8.660186767578125,319.3227844238281,305.552734375,10,368586.5249743334,0.2960357666015625,-1.004776000976562,0.0414886474609375,368586.518036,-0.02290558221966252,-0.4941165170666857,-0.2406898414186364,368586.4662622917,-1.676568237770375,1.449754704989117,1.284371729096877,0.1092831790447235,-0.08247263729572296,0.193309873342514,0.007399748079478741,0.04728809744119644,-0.08377563208341599,XTrueNorthZVertical,0.694601644548453,0.02171795726352403,-0.1801174208345574,0.6961426849583978,0.2804573178291321,-0.9592601656913757,-0.03411377221345901,30.20856475830078,-17.79739952087402,-7.427068710327148,2,10.3.35.51,10.71.35.210,1,0
2015-03-10 17:30:27.999,145,1426033821.549299,37.7878150122951,-122.3967547751118,12.22049,-1,-1,10,65,-9999,1426033827.952995,32.4324951171875,-19.99359130859375,-9.192783355712891,320.3163757324219,306.5463256835938,10,368586.5740584584,0.2049407958984375,-0.8236236572265625,-0.168670654296875,368586.5698111667,0.1657910989212479,-0.416690701010921,-0.1805993398465245,368586.518036,-1.676469862539059,1.433358335825881,1.281273653933418,-0.03464857861399651,-0.4834140539169312,-0.2060855478048325,0.02112178131937981,0.04497388750314713,0.03334661573171616,XTrueNorthZVertical,0.6929276696025957,0.01714719797595063,-0.1868363322627657,0.6961676814055526,0.2828027904033661,-0.9583802819252014,-0.03911443799734116,30.0355281829834,-17.94699478149414,-7.761345863342285,2,10.3.35.51,10.71.35.210,1,0
2015-03-10 17:30:28.011,146,1426033821.549299,37.7878150122951,-122.3967547751118,12.22049,-1,-1,10,65,-9999,1426033828.004881,32.14259338378906,-19.46697998046875,-9.941749572753906,322.1810913085938,308.4110412597656,10,368586.62322075,0.25823974609375,-0.9240264892578125,-0.120391845703125,368586.6215865,-0.1864188794605656,-0.3237535695020988,-0.8208291248559715,368586.5698111667,-1.691167553576794,1.42357217501722,1.276968879787374,0.1540482044219971,-0.405988335609436,-0.1459953337907791,-0.1125193610787392,0.04752020165324211,-0.04317796230316162,XTrueNorthZVertical,0.6918480493335929,0.01019001625468547,-0.1968122044585359,0.6946275503926536,0.2864848077297211,-0.9571424126625061,-0.04248487949371338,29.95434379577637,-17.79076766967773,-8.407852172851562,2,10.3.35.51,10.71.35.210,1,0
2015-03-10 17:30:28.106,147,1426033821.549299,37.7878150122951,-122.3967547751118,12.22049,-1,-1,10,65,-9999,1426033828.055782,32.60302734375,-18.70254516601562,-10.65742874145508,325.17724609375,311.4071960449219,10,368586.6721964583,0.4040679931640625,-0.9739990234375,-0.0885162353515625,368586.6733602083,0.03404798190444504,-0.4397970855767755,-0.9614107408985293,368586.6215865,-1.702485890743499,1.42044223020916,1.249047164862322,-0.1981616467237473,-0.3130512833595276,-0.786225438117981,-0.04944480955600739,0.04395961761474609,-0.1497612744569778,XTrueNorthZVertical,0.6899904109315166,0.01515659938338342,-0.2113645471366602,0.6921044544847973,0.3126589357852936,-0.9486837387084961,-0.04736702144145966,30.08590888977051,-17.38425445556641,-8.780200958251953,2,10.3.35.51,10.71.35.210,1,0
