loggingTime,loggingSample,locationTimestamp_since1970,locationLatitude,locationLongitude,locationAltitude,locationSpeed,locationCourse,locationVerticalAccuracy,locationHorizontalAccuracy,locationFloor,locationHeadingTimestamp_since1970,locationHeadingX,locationHeadingY,locationHeadingZ,locationTrueHeading,locationMagneticHeading,locationHeadingAccuracy,accelerometerTimestamp_sinceReboot,accelerometerAccelerationX,accelerometerAccelerationY,accelerometerAccelerationZ,gyroTimestamp_sinceReboot,gyroRotationX,gyroRotationY,gyroRotationZ,motionTimestamp_sinceReboot,motionYaw,motionRoll,motionPitch,motionRotationRateX,motionRotationRateY,motionRotationRateZ,motionUserAccelerationX,motionUserAccelerationY,motionUserAccelerationZ,motionAttitudeReferenceFrame,motionQuaternionX,motionQuaternionY,motionQuaternionZ,motionQuaternionW,motionGravityX,motionGravityY,motionGravityZ,motionMagneticFieldX,motionMagneticFieldY,motionMagneticFieldZ,motionMagneticFieldCalibrationAccuracy,IP_en0,IP_pdp_ip0,deviceOrientation,state
2015-03-01 09:53:05.793,1,1425232383.175024,37.77930168682229,-122.4388260803895,57.17865,-1,-1,10,65,-9999,1425232385.692973,-24.38582611083984,-30.09609985351562,-19.93775939941406,82.29613494873047,68.51833343505859,10,177192.2119895417,-0.0525970458984375,-0.9344329833984375,-0.3954010009765625,177192.1872510833,-0.03326394727952572,0.2224115015929865,0.05438174945941805,177192.1872510833,-2.693159788500153,-0.1963023764090688,1.190612255115352,-0.05644586682319641,0.2354888319969177,0.08295398950576782,-0.02773373946547508,-0.003318939357995987,0.002804126823320985,XTrueNorthZVertical,-0.04497564548435237,0.5621343155738097,0.8155841815042904,-0.1296327427808079,-0.07237917929887772,-0.9285963177680969,-0.3639644086360931,-25.46093559265137,-30.58154106140137,-18.58563613891602,2,192.168.1.8,10.83.46.32,1,0
2015-03-01 09:53:05.865,2,1425232383.175024,37.77930168682229,-122.4388260803895,57.17865,-1,-1,10,65,-9999,1425232385.796923,-24.74391937255859,-30.62287902832031,-20.2872314453125,82.79221343994141,69.01441192626953,10,177192.261033,-0.0481109619140625,-0.9178924560546875,-0.35577392578125,177192.2390223333,-0.02061979105604751,-0.04537733549775113,-0.03184448241851348,177192.2390223333,-2.69927208271901,-0.1832041473515142,1.187510626077952,-0.04380277171730995,-0.03229847177863121,-0.003276829607784748,0.013457958586514,0.001095066079869866,0.004094454925507307,XTrueNorthZVertical,-0.04824227273710455,0.5601937022382385,0.8164939069677115,-0.1311236116481111,-0.06813020259141922,-0.927440881729126,-0.3677113950252533,-25.28513145446777,-30.52176094055176,-18.92088890075684,2,192.168.1.8,10.83.46.32,1,0
2015-03-01 09:53:05.896,3,1425232383.175024,37.77930168682229,-122.4388260803895,57.17865,-1,-1,10,65,-9999,1425232385.848656,-24.77803039550781,-30.724853515625,-20.2872314453125,82.81148529052734,69.03368377685547,10,177192.3100663333,-0.065948486328125,-0.924224853515625,-0.3593902587890625,177192.2907903334,0.009418269195065226,-0.1386945000941276,-0.0478902943023499,177192.2390223333,-2.69927208271901,-0.1832041473515142,1.187510626077952,-0.04380277171730995,-0.03229847177863121,-0.003276829607784748,0.013457958586514,0.001095066079869866,0.004094454925507307,XTrueNorthZVertical,-0.04824227273710455,0.5601937022382385,0.8164939069677115,-0.1311236116481111,-0.06813020259141922,-0.927440881729126,-0.3677113950252533,-25.28513145446777,-30.52176094055176,-18.92088890075684,2,192.168.1.8,10.83.46.32,1,0
2015-03-01 09:53:05.899,4,1425232383.175024,37.77930168682229,-122.4388260803895,57.17865,-1,-1,10,65,-9999,1425232385.848656,-24.77803039550781,-30.724853515625,-20.2872314453125,82.81148529052734,69.03368377685547,10,177192.3591000834,-0.06402587890625,-0.925689697265625,-0.365020751953125,177192.3425615,0.0238091927775264,-0.08085676648811377,-0.03469805952653339,177192.3425615,-2.705938455027368,-0.1865969319999924,1.187883179505154,0.0006344730500131845,-0.06777642667293549,-0.006137304473668337,0.0001146575668826699,0.002439769683405757,0.009381013922393322,XTrueNorthZVertical,-0.04503158444164883,0.5607163857862572,0.8169057061743601,-0.1274141314239133,-0.06931326538324356,-0.9275801777839661,-0.3671385943889618,-25.36711502075195,-30.57206344604492,-18.72896957397461,2,192.168.1.8,10.83.46.32,1,0
2015-03-01 09:53:05.900,5,1425232383.175024,37.77930168682229,-122.4388260803895,57.17865,-1,-1,10,65,-9999,1425232385.848656,-24.77803039550781,-30.724853515625,-20.2872314453125,82.81148529052734,69.03368377685547,10,177192.4081282083,-0.082672119140625,-0.919158935546875,-0.3572540283203125,177192.3943326667,0.03117176792715947,-0.07866578385930557,-0.02375752745237887,177192.3943326667,-2.706486493985279,-0.1895370128338427,1.188294145865293,0.008097138255834579,-0.06559870392084122,0.004859852138906717,-0.009086182340979576,-0.0002754139131866395,0.002178917871788144,XTrueNorthZVertical,-0.04372416713678884,0.5610782448653118,0.8168973594583079,-0.1263254012871845,-0.07032055407762527,-0.9277336001396179,-0.3665587902069092,-25.40676879882812,-30.59768486022949,-18.63313102722168,2,192.168.1.8,10.83.46.32,1,0
2015-03-01 09:53:05.967,6,1425232383.175024,37.77930168682229,-122.4388260803895,57.17865,-1,-1,10,65,-9999,1425232385.957295,-24.539306640625,-30.65689086914062,-20.15409088134766,82.67697143554688,68.899169921875,10,177192.457183125,-0.067108154296875,-0.9249267578125,-0.3589324951171875,177192.4461008333,0.04547960088361017,-0.01165798767182187,-0.05483208999975044,177192.3943326667,-2.706486493985279,-0.1895370128338427,1.188294145865293,0.008097138255834579,-0.06559870392084122,0.004859852138906717,-0.009086182340979576,-0.0002754139131866395,0.002178917871788144,XTrueNorthZVertical,-0.04372416713678884,0.5610782448653118,0.8168973594583079,-0.1263254012871845,-0.07032055407762527,-0.9277336001396179,-0.3665587902069092,-25.40676879882812,-30.59768486022949,-18.63313102722168,2,192.168.1.8,10.83.46.32,1,0
2015-03-01 09:53:05.992,7,1425232383.175024,37.77930168682229,-122.4388260803895,57.17865,-1,-1,10,65,-9999,1425232385.957295,-24.539306640625,-30.65689086914062,-20.15409088134766,82.67697143554688,68.899169921875,10,177192.5061930833,-0.0731353759765625,-0.946014404296875,-0.3677825927734375,177192.4978719583,0.04059056975444271,-0.01529053939868995,-0.05228530904930767,177192.4461008333,-2.706328627253255,-0.1906526902111101,1.189529679913587,0.02240773104131222,0.001407738891430199,-0.02621201425790787,0.00184765481390059,-2.859077540051658e-05,0.004056753125041723,XTrueNorthZVertical,-0.04345491468101687,0.5616355491030424,0.8165859019656839,-0.1259549428881144,-0.07051220536231995,-0.9281940460205078,-0.3653543591499329,-25.44925308227539,-30.61399269104004,-18.54817008972168,2,192.168.1.8,10.83.46.32,1,0
2015-03-01 09:53:06.075,8,1425232383.175024,37.77930168682229,-122.4388260803895,57.17865,-1,-1,10,65,-9999,1425232386.029812,-24.67572021484375,-30.7928466796875,-20.0875244140625,82.53639221191406,68.75859069824219,10,177192.5552432083,-0.075958251953125,-0.9359283447265625,-0.3590240478515625,177192.5496430833,0.04294080941643764,0.003800597191652081,-0.0344229549859282,177192.5496430833,-2.706728648471086,-0.1916139436033684,1.192015172151557,0.01995940133929253,0.01684872061014175,-0.005746946204453707,-0.0008500079275108874,-0.007636278867721558,0.003065655473619699,XTrueNorthZVertical,-0.04323613436017721,0.5626903161880691,0.8159756118730179,-0.1252758880849828,-0.07042379677295685,-0.9291160106658936,-0.3630204796791077,-25.456787109375,-30.66657257080078,-18.45071983337402,2,192.168.1.8,10.83.46.32,1,0
2015-03-01 09:53:06.091,9,1425232383.175024,37.77930168682229,-122.4388260803895,57.17865,-1,-1,10,65,-9999,1425232386.083205,-24.60750579833984,-30.69087219238281,-20.15409088134766,82.53324890136719,68.75544738769531,10,177192.604265875,-0.052154541015625,-0.9244842529296875,-0.3621826171875,177192.5496430833,0.04294080941643764,0.003800597191652081,-0.0344229549859282,177192.5496430833,-2.706728648471086,-0.1916139436033684,1.192015172151557,0.01995940133929253,0.01684872061014175,-0.005746946204453707,-0.0008500079275108874,-0.007636278867721558,0.003065655473619699,XTrueNorthZVertical,-0.04323613436017721,0.5626903161880691,0.8159756118730179,-0.1252758880849828,-0.07042379677295685,-0.9291160106658936,-0.3630204796791077,-25.456787109375,-30.66657257080078,-18.45071983337402,2,192.168.1.8,10.83.46.32,1,0
2015-03-01 09:53:06.175,10,1425232383.175024,37.77930168682229,-122.4388260803895,57.17865,-1,-1,10,65,-9999,1425232386.134128,-24.55635833740234,-30.60591125488281,-20.20401763916016,82.52687835693359,68.74907684326172,10,177192.653309,-0.0618896484375,-0.937896728515625,-0.355255126953125,177192.6531824583,0.022720226207793,-0.1038233350967391,-0.03778626112658927,177192.6014112917,-2.703316099752239,-0.1925182852969694,1.193402069886738,0.02842788025736809,0.04062236472964287,0.01932452991604805,0.01162177883088589,0.003846755251288414,-0.002154302783310413,XTrueNorthZVertical,-0.04398799319813576,0.5632222432472862,0.8154141697590341,-0.1262754745599788,-0.07050544768571854,-0.9296280145645142,-0.3616915345191956,-25.43960571289062,-30.68437957763672,-18.44480895996094,2,192.168.1.8,10.83.46.32,1,0
2015-03-01 09:53:06.189,11,1425232383.175024,37.77930168682229,-122.4388260803895,57.17865,-1,-1,10,65,-9999,1425232386.134128,-24.55635833740234,-30.60591125488281,-20.20401763916016,82.52687835693359,68.74907684326172,10,177192.7023318333,-0.0334014892578125,-0.9662628173828125,-0.3753814697265625,177192.7049537917,0.05322700281075968,-0.06826720506698218,-0.003265568128655162,177192.6531824583,-2.706065070963941,-0.1910654345724664,1.194805085915742,-0.000257242179941386,-0.09077360481023788,-0.009116624481976032,0.005156934261322021,-0.01315423939377069,0.00122922332957387,XTrueNorthZVertical,-0.04396776114841282,0.563746840964331,0.8151839899043337,-0.1254248796660816,-0.06973212957382202,-0.9301440715789795,-0.3605126738548279,-25.4138355255127,-30.729248046875,-18.40559577941895,2,192.168.1.8,10.83.46.32,1,0
2015-03-01 09:53:06.265,12,1425232383.175024,37.77930168682229,-122.4388260803895,57.17865,-1,-1,10,65,-9999,1425232386.24035,-24.28352355957031,-30.43598937988281,-20.27059173583984,82.479736328125,68.70193481445312,10,177192.7513867917,-0.0812530517578125,-0.92919921875,-0.3498077392578125,177192.7049537917,0.05322700281075968,-0.06826720506698218,-0.003265568128655162,177192.7049537917,-2.706284134234718,-0.1935852616544129,1.196015439556761,0.0303490050137043,-0.05521170794963837,0.02547190338373184,0.03702221438288689,-0.03567496314644814,-0.01615069434046745,XTrueNorthZVertical,-0.04301855516095362,0.5643881786421941,0.814931863548059,-0.1245048113454458,-0.07042370736598969,-0.9305878281593323,-0.3592307865619659,-25.46599006652832,-30.75213432312012,-18.29495620727539,2,192.168.1.8,10.83.46.32,1,0
2015-03-01 09:53:06.287,13,1425232383.175024,37.77930168682229,-122.4388260803895,57.17865,-1,-1,10,65,-9999,1425232386.24035,-24.28352355957031,-30.43598937988281,-20.27059173583984,82.479736328125,68.70193481445312,10,177192.8005208333,-0.0986480712890625,-0.9355316162109375,-0.3430633544921875,177192.7567218333,0.02331224691811762,-0.1954701650574179,0.01100817636584253,177192.7567218333,-2.700754460450917,-0.2041598808860347,1.197486982353891,0.0004390558751765639,-0.1824143379926682,0.03974343836307526,-0.007312345318496227,0.001926313736476004,0.007316913921386003,XTrueNorthZVertical,-0.04044470489813449,0.5655102998161329,0.8144200452790505,-0.1236216770979366,-0.073940709233284,-0.9311255216598511,-0.3571246564388275,-25.58885192871094,-30.76315879821777,-18.10399055480957,2,192.168.1.8,10.83.46.32,1,0
2015-03-01 09:53:06.367,14,1425232383.175024,37.77930168682229,-122.4388260803895,57.17865,-1,-1,10,65,-9999,1425232386.34176,-24.41993713378906,-31.38760375976562,-19.5716552734375,82.80039215087891,69.02259063720703,10,177192.8494717917,-0.0658721923828125,-0.938079833984375,-0.347259521484375,177192.860264125,0.08769363363856519,-0.08178328023135234,-0.01032507554623721,177192.808493,-2.6962778139182,-0.2134767931050293,1.199738989326347,0.04843588545918465,-0.0005871554603800178,0.009382856078445911,-0.02182776667177677,-0.003587141167372465,0.01130670588463545,XTrueNorthZVertical,-0.03818745804718791,0.5668833107068346,0.8137327047322038,-0.1225729084766733,-0.07682030647993088,-0.9319444894790649,-0.3543700575828552,-25.72164535522461,-30.77325439453125,-17.89747047424316,2,192.168.1.8,10.83.46.32,1,0
2015-03-01 09:53:06.385,15,1425232383.175024,37.77930168682229,-122.4388260803895,57.17865,-1,-1,10,65,-9999,1425232386.34176,-24.41993713378906,-31.38760375976562,-19.5716552734375,82.80039215087891,69.02259063720703,10,177192.898506375,-0.0854644775390625,-0.939849853515625,-0.34002685546875,177192.860264125,0.08769363363856519,-0.08178328023135234,-0.01032507554623721,177192.860264125,-2.69436660648351,-0.2167670466575843,1.202840820618786,0.0649273544549942,-0.06869539618492126,0.01848138682544231,0.01196459028869867,-0.005732280202209949,0.01271332986652851,XTrueNorthZVertical,-0.03776512098085925,0.5682679787017303,0.8128588070873408,-0.1220895667670356,-0.0773637592792511,-0.9330646991729736,-0.3512906134128571,-25.75454139709473,-30.80707168579102,-17.79167366027832,2,192.168.1.8,10.83.46.32,1,0
2015-03-01 09:53:06.466,16,1425232383.175024,37.77930168682229,-122.4388260803895,57.17865,-1,-1,10,65,-9999,1425232386.444831,-25.01674652099609,-31.33659362792969,-19.68815612792969,82.44123840332031,68.66343688964844,10,177192.9475621667,-0.075836181640625,-0.9416961669921875,-0.339080810546875,177192.9120325417,0.06578460629881032,-0.1153114130910139,-0.02411785314786659,177192.9120325417,-2.691903880836398,-0.2252155222691344,1.205750761715821,0.04302271828055382,-0.1022238582372665,0.00468821357935667,-0.0154621722176671,-8.13470032881014e-05,0.01007050555199385,XTrueNorthZVertical,-0.03538735224485798,0.5698767765415713,0.8120948449302052,-0.1203750815191312,-0.07972215116024017,-0.9341074824333191,-0.3479763865470886,-25.8621940612793,-30.87900352478027,-17.50856971740723,2,192.168.1.8,10.83.46.32,1,0
2015-03-01 09:53:06.483,17,1425232383.175024,37.77930168682229,-122.4388260803895,57.17865,-1,-1,10,65,-9999,1425232386.444831,-25.01674652099609,-31.33659362792969,-19.68815612792969,82.44123840332031,68.66343688964844,10,177192.9965952917,-0.0567779541015625,-0.957305908203125,-0.3311614990234375,177192.9638035833,0.05894587493559584,-0.004518585421537443,-0.05381316456668613,177192.9638035833,-2.691377175304188,-0.2261813990755437,1.208893470049049,0.03618824109435081,0.008568222634494305,-0.02500627748668194,0.01383247133344412,-0.006181447766721249,0.00456729531288147,XTrueNorthZVertical,-0.03553028091480162,0.5711560830648623,0.8112488332387592,-0.1199735847515478,-0.07939948886632919,-0.9352248311042786,-0.345036655664444,-25.89023017883301,-30.92627906799316,-17.38323593139648,2,192.168.1.8,10.83.46.32,1,0
2015-03-01 09:53:06.568,18,1425232383.175024,37.77930168682229,-122.4388260803895,57.17865,-1,-1,10,65,-9999,1425232386.550938,-24.93149566650391,-31.149658203125,-19.03913879394531,83.19093322753906,69.41313171386719,10,177193.045653625,-0.0672149658203125,-0.9504547119140625,-0.3304290771484375,177193.0155749167,0.04470648521916017,-0.08351699810099392,-0.03099892877241333,177193.0155749167,-2.694703975467116,-0.2241882130786995,1.21166232432919,0.02205247618257999,-0.07038424164056778,-0.002136892173439264,0.01586450450122356,-0.01600793190300465,0.01318517699837685,XTrueNorthZVertical,-0.03572545850540701,0.5721796804996989,0.8106774625960399,-0.1188955803634116,-0.07813562452793121,-0.9362015128135681,-0.342668205499649,-25.83084487915039,-31.01669883728027,-17.31032943725586,2,192.168.1.8,10.83.46.32,1,0
2015-03-01 09:53:06.582,19,1425232383.175024,37.77930168682229,-122.4388260803895,57.17865,-1,-1,10,65,-9999,1425232386.550938,-24.93149566650391,-31.149658203125,-19.03913879394531,83.19093322753906,69.41313171386719,10,177193.0947827084,-0.0561065673828125,-0.9456634521484375,-0.335540771484375,177193.067343,0.00922545633214349,-0.1061514705216864,-0.0364797142957964,177193.067343,-2.697634784479348,-0.2256691227813153,1.213160149090993,-0.01342101488262415,-0.0930170863866806,-0.007624600548297167,0.01407437957823277,-0.01020300947129726,0.01008456386625767,XTrueNorthZVertical,-0.03446804292707728,0.5729043901149793,0.8104781100702949,-0.1171227964740804,-0.07832913845777512,-0.9367269277572632,-0.3411850333213806,-25.87034797668457,-31.08065223693848,-17.1357479095459,2,192.168.1.8,10.83.46.32,1,0
2015-03-01 09:53:06.665,20,1425232383.175024,37.77930168682229,-122.4388260803895,57.17865,-1,-1,10,65,-9999,1425232386.652539,-25.17021942138672,-31.11567687988281,-18.97257995605469,83.30847930908203,69.53067779541016,10,177193.1437306667,-0.076812744140625,-0.95001220703125,-0.3372650146484375,177193.1191143334,-0.007531153246635077,-0.178535123685604,-0.04807804715920048,177193.1191143334,-2.703627478700866,-0.2257351581619141,1.213019558423388,-0.03017358481884003,-0.1653986424207687,-0.01923086494207382,0.01809366978704929,-0.01008438784629107,0.005752174649387598,XTrueNorthZVertical,-0.03270762650927245,0.5729538451767153,0.8108639444359319,-0.1146898802528524,-0.07838114351034164,-0.9366776943206787,-0.341308206319809,-25.89180946350098,-31.12326622009277,-17.02563285827637,2,192.168.1.8,10.83.46.32,1,0
2015-03-01 09:53:06.680,21,1425232383.175024,37.77930168682229,-122.4388260803895,57.17865,-1,-1,10,65,-9999,1425232386.652539,-25.17021942138672,-31.11567687988281,-18.97257995605469,83.30847930908203,69.53067779541016,10,177193.1927982084,-0.08465576171875,-0.9541473388671875,-0.340362548828125,177193.170885375,-0.03199521733621197,-0.1973048167323735,-0.07447050619410375,177193.170885375,-2.710642241777028,-0.228134209677637,1.211941826004216,-0.05463389679789543,-0.1841679960489273,-0.04562536254525185,-0.002435407834127545,-0.01743561215698719,0.003174093784764409,XTrueNorthZVertical,-0.02959650380674921,0.5727764736695451,0.8115846663329411,-0.1112721443111938,-0.07942799478769302,-0.936299741268158,-0.3421023190021515,-25.95950317382812,-31.15630340576172,-16.86133575439453,2,192.168.1.8,10.83.46.32,1,0
2015-03-01 09:53:06.768,22,1425232383.175024,37.77930168682229,-122.4388260803895,57.17865,-1,-1,10,65,-9999,1425232386.756194,-25.03380584716797,-31.55752563476562,-18.47334289550781,84.8623046875,71.08450317382812,10,177193.24185425,-0.0811767578125,-0.952789306640625,-0.3433837890625,177193.2226538333,-0.07143130675810533,-0.1783082223607293,-0.1054595812704838,177193.2226538333,-2.720382691166433,-0.2280155812630379,1.209569172757109,-0.09396505355834961,-0.1650808602571487,-0.07654254138469696,-0.001760430168360472,-0.01731022261083126,0.004873541183769703,XTrueNorthZVertical,-0.02657707378107187,0.5719757565160828,0.8127480723199615,-0.1076009600354078,-0.07988934963941574,-0.9354638457298279,-0.3442747890949249,-26.04875946044922,-31.17701530456543,-16.68447113037109,2,192.168.1.8,10.83.46.32,1,0
2015-03-01 09:53:06.778,23,1425232383.175024,37.77930168682229,-122.4388260803895,57.17865,-1,-1,10,65,-9999,1425232386.756194,-25.03380584716797,-31.55752563476562,-18.47334289550781,84.8623046875,71.08450317382812,10,177193.2908642917,-0.0887298583984375,-0.939788818359375,-0.337921142578125,177193.2744248333,-0.1167806790644106,-0.1957242306254115,-0.1294029973669502,177193.2744248333,-2.734584207246593,-0.2237550991155451,1.205427807656481,-0.1393104642629623,-0.1824977248907089,-0.1004843860864639,-0.01135639566928148,-0.01362442225217819,0.006666000932455063,XTrueNorthZVertical,-0.0237769646828485,0.5702993643629168,0.8145474917780667,-0.1034682422246013,-0.07928080856800079,-0.9339921474456787,-0.3483865857124329,-26.0699577331543,-31.19857788085938,-16.61089134216309,2,192.168.1.8,10.83.46.32,1,0
2015-03-01 09:53:06.866,24,1425232383.175024,37.77930168682229,-122.4388260803895,57.17865,-1,-1,10,65,-9999,1425232386.808698,-24.84623718261719,-31.54049682617188,-18.22371673583984,85.14230346679688,71.364501953125,10,177193.3399160417,-0.079986572265625,-0.934722900390625,-0.3402099609375,177193.3261961667,-0.1388260602519776,-0.2063510423231547,-0.135211085388304,177193.3261961667,-2.750815169706844,-0.217616146332393,1.200006374158073,-0.1613501757383347,-0.1931256949901581,-0.1062901839613914,-0.001631799270398915,0.001850355649366975,0.01550310291349888,XTrueNorthZVertical,-0.02105585421115478,0.5680262258774836,0.8167461591227266,-0.09913915387151323,-0.07823270559310913,-0.9320414066314697,-0.3538057208061218,-26.0866756439209,-31.20477294921875,-16.57296752929688,2,192.168.1.8,10.83.46.32,1,0
2015-03-01 09:53:06.875,25,1425232383.175024,37.77930168682229,-122.4388260803895,57.17865,-1,-1,10,65,-9999,1425232386.859575,-25.06790924072266,-31.42155456542969,-18.77290344238281,85.15872192382812,71.38092041015625,10,177193.3889401667,-0.0756378173828125,-0.929779052734375,-0.3420562744140625,177193.3779643333,-0.1274905813881643,-0.2514162553411485,-0.1267544836628664,177193.3261961667,-2.750815169706844,-0.217616146332393,1.200006374158073,-0.1613501757383347,-0.1931256949901581,-0.1062901839613914,-0.001631799270398915,0.001850355649366975,0.01550310291349888,XTrueNorthZVertical,-0.02105585421115478,0.5680262258774836,0.8167461591227266,-0.09913915387151323,-0.07823270559310913,-0.9320414066314697,-0.3538057208061218,-26.0866756439209,-31.20477294921875,-16.57296752929688,2,192.168.1.8,10.83.46.32,1,0
2015-03-01 09:53:06.966,26,1425232383.175024,37.77930168682229,-122.4388260803895,57.17865,-1,-1,10,65,-9999,1425232386.911937,-25.05086517333984,-31.77841186523438,-18.72297668457031,85.19136047363281,71.41355895996094,10,177193.4379995417,-0.086273193359375,-0.9343414306640625,-0.3489227294921875,177193.4297357083,-0.09758914130097261,-0.322854220001979,-0.1470224711389144,177193.4297357083,-2.784999184980141,-0.2111958336635308,1.190356498273995,-0.1200980097055435,-0.3096306025981903,-0.11810003221035,-0.007836679928004742,-0.002284728456288576,0.01278228871524334,XTrueNorthZVertical,-0.01298633752056741,0.564173909720457,0.8208629100223686,-0.08788196704336056,-0.07784142345190048,-0.9285014271736145,-0.3630782961845398,-26.16341400146484,-31.26746368408203,-16.33209419250488,2,192.168.1.8,10.83.46.32,1,0
2015-03-01 09:53:06.974,27,1425232383.175024,37.77930168682229,-122.4388260803895,57.17865,-1,-1,10,65,-9999,1425232386.96399,-25.15317535400391,-31.60848999023438,-18.85610198974609,86.30010986328125,72.52230834960938,10,177193.4870344583,-0.095245361328125,-0.92156982421875,-0.3366241455078125,177193.48150675,-0.06568127564851524,-0.3204557771242537,-0.16304165141185,177193.4297357083,-2.784999184980141,-0.2111958336635308,1.190356498273995,-0.1200980097055435,-0.3096306025981903,-0.11810003221035,-0.007836679928004742,-0.002284728456288576,0.01278228871524334,XTrueNorthZVertical,-0.01298633752056741,0.564173909720457,0.8208629100223686,-0.08788196704336056,-0.07784142345190048,-0.9285014271736145,-0.3630782961845398,-26.16341400146484,-31.26746368408203,-16.33209419250488,2,192.168.1.8,10.83.46.32,1,0
2015-03-01 09:53:07.065,28,1425232383.175024,37.77930168682229,-122.4388260803895,57.17865,-1,-1,10,65,-9999,1425232387.015586,-24.93149566650391,-31.69345092773438,-18.07395172119141,88.12844848632812,74.35064697265625,10,177193.5360898333,-0.0758819580078125,-0.9207611083984375,-0.3339996337890625,177193.5332751667,-0.02766145529432602,-0.3122385935808142,-0.1669873908829115,177193.48150675,-2.801581715325157,-0.2123770135853272,1.187638435928328,-0.08818307518959045,-0.3072342574596405,-0.1341140121221542,-0.01438352651894093,0.007795687764883041,0.02321241050958633,XTrueNorthZVertical,-0.00755409757764188,0.5632202413790292,0.8222938993295243,-0.08098543689730263,-0.07880190014839172,-0.9274886846542358,-0.3654517829418182,-26.25073432922363,-31.32689476013184,-16.07608222961426,2,192.168.1.8,10.83.46.32,1,0
2015-03-01 09:53:07.073,29,1425232383.175024,37.77930168682229,-122.4388260803895,57.17865,-1,-1,10,65,-9999,1425232387.067175,-24.88033294677734,-32.1182861328125,-17.79103851318359,88.18167877197266,74.40387725830078,10,177193.5852315,-0.06634521484375,-0.918548583984375,-0.3278350830078125,177193.5332751667,-0.02766145529432602,-0.3122385935808142,-0.1669873908829115,177193.5332751667,-2.81867079602963,-0.2119238069554318,1.187303843341063,-0.05015279352664948,-0.2990190386772156,-0.1380563974380493,-0.0009188257390633225,0.007167007774114609,0.0301585104316473,XTrueNorthZVertical,-0.002895969693029217,0.5631129515560545,0.8230447172259856,-0.07411351529261188,-0.07870153337717056,-0.9273635149002075,-0.365790843963623,-26.32657814025879,-31.47793197631836,-15.65141868591309,2,192.168.1.8,10.83.46.32,1,0
2015-03-01 09:53:07.137,30,1425232383.175024,37.77930168682229,-122.4388260803895,57.17865,-1,-1,10,65,-9999,1425232387.119246,-25.23841857910156,-32.54312133789062,-17.275146484375,88.33528137207031,74.55747985839844,10,177193.6341717917,-0.06097412109375,-0.9286651611328125,-0.320159912109375,177193.6368175833,0.06655106406053513,-0.4579286852263619,-0.2013978290117163,177193.5850464583,-2.838489396187785,-0.2104281745440106,1.189670563372461,-0.01633735932409763,-0.3693361878395081,-0.1484468877315521,0.009122693911194801,0.01522157620638609,0.03665805235505104,XTrueNorthZVertical,0.001852138374511602,0.564017918163873,0.8231047060216969,-0.06617403608465157,-0.07769569009542465,-0.9282464981079102,-0.3637607097625732,-26.33994674682617,-31.66066932678223,-15.25533008575439,2,192.168.1.8,10.83.46.32,1,0
2015-03-01 09:53:07.170,31,1425232383.175024,37.77930168682229,-122.4388260803895,57.17865,-1,-1,10,65,-9999,1425232387.119246,-25.23841857910156,-32.54312133789062,-17.275146484375,88.33528137207031,74.55747985839844,10,177193.6832030417,-0.0359649658203125,-0.9389190673828125,-0.307708740234375,177193.6368175833,0.06655106406053513,-0.4579286852263619,-0.2013978290117163,177193.6368175833,-2.860209690399506,-0.2105097229775857,1.195445657495381,0.04430630058050156,-0.4446173906326294,-0.1723472476005554,0.01562977954745293,0.001713962992653251,0.0383460596203804,XTrueNorthZVertical,0.007508952744357754,0.5662955326148702,0.8222130412193397,-0.05673361235840294,-0.07660389691591263,-0.9303791522979736,-0.3585059642791748,-26.35629272460938,-31.90312576293945,-14.71231746673584,2,192.168.1.8,10.83.46.32,1,0
2015-03-01 09:53:07.266,32,1425232383.175024,37.77930168682229,-122.4388260803895,57.17865,-1,-1,10,65,-9999,1425232387.223408,-25.34072113037109,-32.57710266113281,-16.34321594238281,92.09093475341797,78.31313323974609,10,177193.73226425,-0.0223388671875,-0.9608612060546875,-0.3005828857421875,177193.740357,0.1677682297145227,-0.74740763781525,-0.2664412775791575,177193.6885857917,-2.886244176279135,-0.2103463741143592,1.203707959124446,0.08674295991659164,-0.5549165606498718,-0.1941125094890594,0.03897272795438766,-0.005542783997952938,0.04327994957566261,XTrueNorthZVertical,0.01413789961053689,0.5694785120904223,0.8206285297280482,-0.04542205204003975,-0.07493769377470016,-0.9333763122558594,-0.3509886860847473,-26.33572959899902,-32.34805679321289,-13.74584674835205,2,192.168.1.8,10.83.46.32,1,0
2015-03-01 09:53:07.269,33,1425232383.175024,37.77930168682229,-122.4388260803895,57.17865,-1,-1,10,65,-9999,1425232387.223408,-25.34072113037109,-32.57710266113281,-16.34321594238281,92.09093475341797,78.31313323974609,10,177193.7812939583,-0.0087432861328125,-0.9530029296875,-0.3105926513671875,177193.740357,0.1677682297145227,-0.74740763781525,-0.2664412775791575,177193.740357,-2.918301648095032,-0.2121838656428844,1.214357809832081,0.1455539762973785,-0.7340936660766602,-0.2374119311571121,0.0511460080742836,-0.02371570095419884,0.04053040966391563,XTrueNorthZVertical,0.02321435154622009,0.5735019145069641,0.8182903694304112,-0.03094384898233876,-0.0734848752617836,-0.9371455311775208,-0.3411132991313934,-26.32403564453125,-32.74162292480469,-12.80418014526367,2,192.168.1.8,10.83.46.32,1,0
2015-03-01 09:53:07.337,34,1425232383.175024,37.77930168682229,-122.4388260803895,57.17865,-1,-1,10,65,-9999,1425232387.327062,-24.59044647216797,-33.63069152832031,-13.48085021972656,97.01052093505859,83.23271942138672,10,177193.8303646667,-0.0692291259765625,-0.9740142822265625,-0.3106231689453125,177193.79212825,0.2590193139372157,-1.016930192775629,-0.3625502339462641,177193.79212825,-2.954681539357511,-0.2215432216125728,1.227526957994805,0.2368073165416718,-1.003615736961365,-0.3335248529911041,0.06249644607305527,-0.005087489262223244,0.009341402910649776,XTrueNorthZVertical,0.03655701602538474,0.5783534913530455,0.8148719747314853,-0.01242943963084491,-0.07395579665899277,-0.9416593313217163,-0.3283416330814362,-26.35781478881836,-33.17052841186523,-11.57141017913818,2,192.168.1.8,10.83.46.32,1,0
2015-03-01 09:53:07.374,35,1425232383.175024,37.77930168682229,-122.4388260803895,57.17865,-1,-1,10,65,-9999,1425232387.327062,-24.59044647216797,-33.63069152832031,-13.48085021972656,97.01052093505859,83.23271942138672,10,177193.8793914584,-0.0926055908203125,-0.93572998046875,-0.2934722900390625,177193.8438965417,0.2612840661282191,-1.198027810062107,-0.4851965253115743,177193.8438965417,-3.006680398514314,-0.2298614860803848,1.244055798202456,0.2390730082988739,-1.184713125228882,-0.4561730027198792,-0.01387775596231222,-0.02684446237981319,0.01171936932951212,XTrueNorthZVertical,0.05396986664572227,0.5838058875037289,0.8100048558945817,0.0122505179763521,-0.0731278583407402,-0.9470935463905334,-0.3125158846378326,-26.26001739501953,-33.94034194946289,-9.34776496887207,2,192.168.1.8,10.83.46.32,1,0
2015-03-01 09:53:07.438,36,1425232383.175024,37.77930168682229,-122.4388260803895,57.17865,-1,-1,10,65,-9999,1425232387.430072,-24.01068878173828,-35.26203918457031,-10.21907806396484,103.8108978271484,90.03309631347656,10,177193.9284410417,-0.0554656982421875,-0.935516357421875,-0.264007568359375,177193.8956679167,0.2905990781433753,-0.9831911375576333,-0.6019849275431461,177193.8956679167,-3.077989139548829,-0.2149488533965049,1.262275764210001,0.2683882117271423,-0.9698765873908997,-0.5729615688323975,-0.01437969505786896,0.02108218334615231,0.009124979376792908,XTrueNorthZVertical,0.06790580115938993,0.5891162890612973,0.8043049840768289,0.03773983669789444,-0.06476764380931854,-0.9527838230133057,-0.2966615855693817,-25.91052055358887,-34.62084197998047,-7.678414344787598,2,192.168.1.8,10.83.46.32,1,0
2015-03-01 09:53:07.470,37,1425232383.175024,37.77930168682229,-122.4388260803895,57.17865,-1,-1,10,65,-9999,1425232387.430072,-24.01068878173828,-35.26203918457031,-10.21907806396484,103.8108978271484,90.03309631347656,10,177193.9774712083,-0.03094482421875,-0.96484375,-0.23785400390625,177193.947439,0.2612595650461904,-1.011122903702602,-0.6599411718176685,177193.947439,3.111695439713986,-0.1744722911796394,1.280569043514574,0.2390489280223846,-0.997808575630188,-0.6309181451797485,0.002205721102654934,0.02009902521967888,0.0234636478126049,XTrueNorthZVertical,0.07875677305308107,0.5940409402876938,0.7980090467323239,0.0639866849196729,-0.04967581480741501,-0.9581788778305054,-0.281825453042984,-25.27540016174316,-35.38690567016602,-6.151173114776611,2,192.168.1.8,10.83.46.32,1,0
2015-03-01 09:53:07.523,38,1425232383.175024,37.77930168682229,-122.4388260803895,57.17865,-1,-1,10,65,-9999,1425232387.482527,-23.29451751708984,-35.9417724609375,-8.921035766601562,106.9979858398438,93.22018432617188,10,177194.0265300417,0.0056915283203125,-0.9727020263671875,-0.2326507568359375,177193.9992075417,0.3477103014040156,-1.090451814673338,-0.6715485594287789,177193.9992075417,3.006463607802542,-0.125308122173531,1.298865557187423,0.3255003690719604,-1.077137589454651,-0.6425257921218872,0.01545653585344553,-0.001101365429349244,0.0282198004424572,XTrueNorthZVertical,0.09050039233871653,0.5988044614178378,0.7904943494956762,0.09144168601520511,-0.03356871753931046,-0.9632540941238403,-0.2664857804775238,-22.97048377990723,-36.2989501953125,-8.471800804138184,2,192.168.1.8,10.83.46.32,1,0
2015-03-01 09:53:07.568,39,1425232383.175024,37.77930168682229,-122.4388260803895,57.17865,-1,-1,10,65,-9999,1425232387.533505,-22.04973602294922,-36.87641906738281,-6.973960876464844,111.6546783447266,97.87687683105469,10,177194.0755641667,0.01611328125,-0.9878997802734375,-0.23016357421875,177194.0509786667,0.4371570939881799,-1.25924829088474,-0.6980281038313277,177194.0509786667,2.886372027621052,-0.06715626760309173,1.321033524291265,0.4149480760097504,-1.245934009552002,-0.6690061688423157,0.03585866838693619,-0.0147020174190402,0.02354873530566692,XTrueNorthZVertical,0.1043310650132842,0.6048194296997061,0.7801915279556018,0.120870462026435,-0.01658681780099869,-0.9689710736274719,-0.2466169744729996,-22.27417182922363,-37.09283828735352,-6.709012985229492,2,192.168.1.8,10.83.46.32,1,0
2015-03-01 09:53:07.621,40,1425232383.175024,37.77930168682229,-122.4388260803895,57.17865,-1,-1,10,65,-9999,1425232387.585768,-20.60033416748047,-38.01493835449219,-5.559425354003906,115.2074890136719,101.4296875,10,177194.1247179167,-0.0135345458984375,-0.9997406005859375,-0.21807861328125,177194.1027500417,0.4310869509155623,-1.47227135068687,-0.7109878446439803,177194.1027500417,2.747740754312394,-0.001004677501559622,1.343109793237948,0.4088782668113708,-1.458957195281982,-0.6819663047790527,0.00712375296279788,-0.02019355818629265,-0.0007466814713552594,XTrueNorthZVertical,0.1221233537611705,0.6101014289295197,0.7676634001257272,0.1534765113786289,-0.0002267801610287279,-0.9741911888122559,-0.2257242649793625,-21.4854736328125,-37.85866928100586,-4.703632354736328,2,192.168.1.8,10.83.46.32,1,0
2015-03-01 09:53:07.668,41,1425232383.175024,37.77930168682229,-122.4388260803895,57.17865,-1,-1,10,65,-9999,1425232387.641917,-19.1168212890625,-39.01753234863281,-3.21295166015625,121.1620483398438,107.3842468261719,10,177194.1736375834,-0.0422515869140625,-1.001602172851562,-0.20263671875,177194.1545182917,0.3179753088849538,-1.455125653272831,-0.7381286519451958,177194.1027500417,2.747740754312394,-0.001004677501559622,1.343109793237948,0.4088782668113708,-1.458957195281982,-0.6819663047790527,0.00712375296279788,-0.02019355818629265,-0.0007466814713552594,XTrueNorthZVertical,0.1221233537611705,0.6101014289295197,0.7676634001257272,0.1534765113786289,-0.0002267801610287279,-0.9741911888122559,-0.2257242649793625,-21.4854736328125,-37.85866928100586,-4.703632354736328,2,192.168.1.8,10.83.46.32,1,0
2015-03-01 09:53:07.719,42,1425232383.175024,37.77930168682229,-122.4388260803895,57.17865,-1,-1,10,65,-9999,1425232387.715569,-16.72956848144531,-40.682861328125,0.5147781372070312,131.6735382080078,117.8957290649414,10,177194.222680625,-0.0340118408203125,-0.9946136474609375,-0.1997528076171875,177194.2062896667,0.1892002849030444,-1.283340045053924,-0.7263321798966899,177194.2062896667,2.409507546831411,0.188868319213395,1.365062915945636,0.1669918149709702,-1.270026206970215,-0.697310745716095,-0.08532057702541351,-0.02093598991632462,0.001067473203875124,XTrueNorthZVertical,0.1564347959323374,0.6125372948219916,0.7426304609859956,0.2209665541269911,0.03835402056574821,-0.9789113998413086,-0.2006524354219437,-19.0284538269043,-39.43077850341797,-0.4000682830810547,2,192.168.1.8,10.83.46.32,1,0
2015-03-01 09:53:07.766,43,1425232383.175024,37.77930168682229,-122.4388260803895,57.17865,-1,-1,10,65,-9999,1425232387.715569,-16.72956848144531,-40.682861328125,0.5147781372070312,131.6735382080078,117.8957290649414,10,177194.2716985834,-0.0365447998046875,-0.9867401123046875,-0.1879425048828125,177194.2580607917,0.2072333475922979,-1.216214537146258,-0.6889163644777306,177194.2580607917,2.238520498094829,0.2952869027108874,1.365199081793264,0.1850248575210571,-1.202901005744934,-0.6598948240280151,-0.08483226597309113,-0.01274472940713167,-0.0008663387852720916,XTrueNorthZVertical,0.1695530606121393,0.6112232027221043,0.7310658215957381,0.2513975400416686,0.05941112339496613,-0.9789392352104187,-0.1953159123659134,-17.7865161895752,-39.99769973754883,0.9232115745544434,2,192.168.1.8,10.83.46.32,1,0
2015-03-01 09:53:07.818,44,1425232383.175024,37.77930168682229,-122.4388260803895,57.17865,-1,-1,10,65,-9999,1425232387.767019,-15.41658020019531,-41.03971862792969,1.929306030273438,136.5805969238281,122.8027954101562,10,177194.3208567917,-0.0510711669921875,-1.004531860351562,-0.1890411376953125,177194.3098293333,0.2251771943850338,-1.12407102764228,-0.5457128663419898,177194.2580607917,2.238520498094829,0.2952869027108874,1.365199081793264,0.1850248575210571,-1.202901005744934,-0.6598948240280151,-0.08483226597309113,-0.01274472940713167,-0.0008663387852720916,XTrueNorthZVertical,0.1695530606121393,0.6112232027221043,0.7310658215957381,0.2513975400416686,0.05941112339496613,-0.9789392352104187,-0.1953159123659134,-17.7865161895752,-39.99769973754883,0.9232115745544434,2,192.168.1.8,10.83.46.32,1,0
2015-03-01 09:53:07.869,45,1425232383.175024,37.77930168682229,-122.4388260803895,57.17865,-1,-1,10,65,-9999,1425232387.818872,-13.4215087890625,-41.12471008300781,3.244003295898438,141.6050415039062,127.8272399902344,10,177194.3697717917,-0.017425537109375,-1.003494262695312,-0.2037811279296875,177194.3616008333,0.2354798993781143,-0.7881763730466189,-0.4098722096719911,177194.3098293333,2.094397075955825,0.3774778237004495,1.365155372858276,0.2029644548892975,-1.110759258270264,-0.5166839361190796,-0.1155599281191826,-0.01655309274792671,0.002990173641592264,XTrueNorthZVertical,0.183716746557098,0.609375716301674,0.7192336183324108,0.2785900181808905,0.07526146620512009,-0.9789302945137024,-0.1898187845945358,-16.24617576599121,-40.57530212402344,2.595195293426514,2,192.168.1.8,10.83.46.32,1,0
2015-03-01 09:53:07.915,46,1425232383.175024,37.77930168682229,-122.4388260803895,57.17865,-1,-1,10,65,-9999,1425232387.87215,-12.00621032714844,-41.31161499023438,3.859748840332031,144.9825592041016,131.2047576904297,10,177194.418943,-0.015899658203125,-0.998260498046875,-0.21807861328125,177194.413371875,0.2493421854841948,-0.6337915930741804,-0.2926968501340307,177194.413371875,1.896799356769262,0.4906311494433263,1.369030201219255,0.2271181046962738,-0.6204820871353149,-0.2636584937572479,-0.1068303808569908,-0.01790545508265495,-0.04130345210433006,XTrueNorthZVertical,0.2047128845785615,0.6080400352956948,0.7001304122148563,0.3133645781039312,0.09442498534917831,-0.9797141551971436,-0.1767598986625671,-14.57005214691162,-41.04000473022461,4.523275375366211,2,192.168.1.8,10.83.46.32,1,0
2015-03-01 09:53:07.966,47,1425232383.175024,37.77930168682229,-122.4388260803895,57.17865,-1,-1,10,65,-9999,1425232387.923023,-10.48859405517578,-41.87240600585938,4.908157348632812,149.0911712646484,135.3133697509766,10,177194.467861125,-0.0264434814453125,-1.008087158203125,-0.2188568115234375,177194.413371875,0.2493421854841948,-0.6337915930741804,-0.2926968501340307,177194.413371875,1.896799356769262,0.4906311494433263,1.369030201219255,0.2271181046962738,-0.6204820871353149,-0.2636584937572479,-0.1068303808569908,-0.01790545508265495,-0.04130345210433006,XTrueNorthZVertical,0.2047128845785615,0.6080400352956948,0.7001304122148563,0.3133645781039312,0.09442498534917831,-0.9797141551971436,-0.1767598986625671,-14.57005214691162,-41.04000473022461,4.523275375366211,2,192.168.1.8,10.83.46.32,1,0
2015-03-01 09:53:08.014,48,1425232383.175024,37.77930168682229,-122.4388260803895,57.17865,-1,-1,10,65,-9999,1425232387.976974,-9.789466857910156,-42.39920043945312,6.023147583007812,152.0067138671875,138.2289123535156,10,177194.517031875,-0.020477294921875,-0.9832000732421875,-0.2080841064453125,177194.5169115417,0.07761889523479543,-0.2635855699422656,-0.2369041579290887,177194.465140125,1.86060727913376,0.4977492253397292,1.372844336031659,0.1241391822695732,-0.4506849944591522,-0.2163649201393127,-0.1259089112281799,-0.02843973413109779,-0.04703468456864357,XTrueNorthZVertical,0.2143027877723412,0.6063620781860487,0.6943878118663308,0.3228388368453414,0.09389597177505493,-0.9804713726043701,-0.1727986931800842,-14.13641834259033,-41.08457946777344,5.408065795898438,2,192.168.1.8,10.83.46.32,1,0
2015-03-01 09:53:08.067,49,1425232383.175024,37.77930168682229,-122.4388260803895,57.17865,-1,-1,10,65,-9999,1425232388.054338,-8.595840454101562,-42.43318176269531,6.622238159179688,155.5091552734375,141.7313537597656,10,177194.5659599167,-0.0034637451171875,-0.981597900390625,-0.20806884765625,177194.5686827083,0.04120149890850688,-0.1303987532985308,-0.2096208715095539,177194.5169115417,1.878720007370038,0.4598741280735621,1.373549931098105,0.05530203133821487,-0.2502876818180084,-0.2078045010566711,-0.1097902432084084,-0.003231024136766791,-0.0372193418443203,XTrueNorthZVertical,0.2221672127894701,0.6023592003860914,0.6930649803259763,0.3278201623918317,0.08697835355997086,-0.9806098937988281,-0.1756102442741394,-14.08652687072754,-41.06508636474609,5.679524898529053,2,192.168.1.8,10.83.46.32,1,0
2015-03-01 09:53:08.112,50,1425232383.175024,37.77930168682229,-122.4388260803895,57.17865,-1,-1,10,65,-9999,1425232388.054338,-8.595840454101562,-42.43318176269531,6.622238159179688,155.5091552734375,141.7313537597656,10,177194.615124125,0.02362060546875,-1.009262084960938,-0.21575927734375,177194.5686827083,0.04120149890850688,-0.1303987532985308,-0.2096208715095539,177194.5686827083,1.912583929035631,0.4155506632693527,1.373282305841822,0.01894585601985455,-0.1169794574379921,-0.1803766191005707,-0.08268150687217712,-0.001040463685058057,-0.02853705734014511,XTrueNorthZVertical,0.2272910671111804,0.5988095488979078,0.6937034969125903,0.3294561516873749,0.07921776175498962,-0.9805574417114258,-0.1795317828655243,-14.23679351806641,-41.00352478027344,5.749200344085693,2,192.168.1.8,10.83.46.32,1,0
2015-03-01 09:53:08.168,51,1425232383.175024,37.77930168682229,-122.4388260803895,57.17865,-1,-1,10,65,-9999,1425232388.129719,-7.879661560058594,-42.16128540039062,6.522392272949219,157.0474548339844,143.2696533203125,10,177194.66405675,0.033599853515625,-1.007064819335938,-0.2102813720703125,177194.6204512917,0.05924095318437662,-0.05818074875441608,-0.1099499371844664,177194.6204512917,1.924473720242913,0.3983882168060138,1.372350432596391,0.03695311024785042,-0.04476529732346535,-0.08068288117647171,-0.05285888165235519,-0.02888793684542179,-0.03405230492353439,XTrueNorthZVertical,0.2294385149553865,0.5970799627159146,0.6939010845589798,0.3306883326931354,0.07647948712110519,-0.9803741574287415,-0.181706964969635,-7.828446388244629,-42.17859268188477,6.572227001190186,2,192.168.1.8,10.83.46.32,1,0
2015-03-01 09:53:08.210,52,1425232383.175024,37.77930168682229,-122.4388260803895,57.17865,-1,-1,10,65,-9999,1425232388.18229,-7.964920043945312,-42.21224975585938,6.472465515136719,157.0178375244141,143.2400360107422,10,177194.71312275,0.0377197265625,-0.9735260009765625,-0.233062744140625,177194.7239937084,-0.08374230152921462,0.04859656462343891,0.1163511111805808,177194.6722224167,1.932098102399336,0.3895403389324982,1.372567770100066,-0.01000318862497807,0.01302513014525175,0.04760749265551567,-0.04118802025914192,-0.02664784714579582,-0.02810195460915565,XTrueNorthZVertical,0.2302916258539869,0.596553482959073,0.6940986208561387,0.3306309364076468,0.07478787004947662,-0.9804169535636902,-0.1821794211864471,-7.805193901062012,-42.17829132080078,6.601725578308105,2,192.168.1.8,10.83.46.32,1,0
2015-03-01 09:53:08.265,53,1425232383.175024,37.77930168682229,-122.4388260803895,57.17865,-1,-1,10,65,-9999,1425232388.24487,-7.675041198730469,-42.02534484863281,6.289413452148438,157.5479888916016,143.7701873779297,10,177194.76214525,0.04864501953125,-0.9611053466796875,-0.246124267578125,177194.7239937084,-0.08374230152921462,0.04859656462343891,0.1163511111805808,177194.7239937084,1.971156490549875,0.3535989479918661,1.371173171402871,-0.1060465648770332,0.06201254576444626,0.1456241607666016,-0.02595724351704121,0.003197405952960253,-0.04729046300053596,XTrueNorthZVertical,0.2307911878835975,0.5947432949223628,0.6966915706393783,0.3280803235390239,0.06866659224033356,-0.9801414012908936,-0.1860316842794418,-8.065704345703125,-42.15228271484375,6.453027248382568,2,192.168.1.8,10.83.46.32,1,0
2015-03-01 09:53:08.308,54,1425232383.175024,37.77930168682229,-122.4388260803895,57.17865,-1,-1,10,65,-9999,1425232388.24487,-7.675041198730469,-42.02534484863281,6.289413452148438,157.5479888916016,143.7701873779297,10,177194.811200375,0.0289459228515625,-0.9586029052734375,-0.23980712890625,177194.7757620834,-0.1007356661289012,0.003438407283401304,-0.009692042155125372,177194.7757620834,2.006869454965421,0.3204137221778066,1.365106867987,-0.1230471283197403,0.01685595512390137,0.01958071812987328,-0.01604914478957653,0.01329845283180475,-0.04455604031682014,XTrueNorthZVertical,0.230254406743174,0.5916580671865002,0.7000836728466734,0.3268126271661798,0.06432795524597168,-0.9789204001426697,-0.1938472837209702,-8.367897987365723,-42.15238952636719,6.055291175842285,2,192.168.1.8,10.83.46.32,1,0
2015-03-01 09:53:08.365,55,1425232383.175024,37.77930168682229,-122.4388260803895,57.17865,-1,-1,10,65,-9999,1425232388.311219,-7.879661560058594,-42.05935668945312,5.956573486328125,157.7080383300781,143.9302368164062,10,177194.8602345417,-0.0046844482421875,-0.949371337890625,-0.2456817626953125,177194.827533375,-0.07690676595930825,-0.08412180198455091,-0.08091695392874956,177194.827533375,2.03005330053173,0.2950618221901298,1.355773701748411,-0.09924264997243881,-0.07070118188858032,-0.05163976177573204,-0.04245536401867867,0.01928418874740601,-0.04154842346906662,XTrueNorthZVertical,0.2300242773047765,0.5873793767364497,0.7031218187274644,0.328167655654487,0.06204764917492867,-0.9769715666770935,-0.204148605465889,-8.414560317993164,-42.1928596496582,5.698229312896729,2,192.168.1.8,10.83.46.32,1,0
2015-03-01 09:53:08.406,56,1425232383.175024,37.77930168682229,-122.4388260803895,57.17865,-1,-1,10,65,-9999,1425232388.362371,-8.425315856933594,-42.1953125,5.790153503417969,157.25048828125,143.4726867675781,10,177194.90928125,-0.0203399658203125,-0.938812255859375,-0.2573699951171875,177194.87930475,-0.04325399716063096,0.0355856911178568,-0.08277610668573387,177194.87930475,2.057887339403915,0.2650498360067466,1.348424462452144,-0.06562390923500061,0.04900417476892471,-0.0534796342253685,-0.06547873467206955,0.02605153247714043,-0.03354146331548691,XTrueNorthZVertical,0.2306952711642909,0.5834025966496277,0.705969708694129,0.3286759422965079,0.05777304992079735,-0.975377082824707,-0.2128422111272812,-8.547930717468262,-42.21124267578125,5.353142738342285,2,192.168.1.8,10.83.46.32,1,0
2015-03-01 09:53:08.472,57,1425232383.175024,37.77930168682229,-122.4388260803895,57.17865,-1,-1,10,65,-9999,1425232388.415204,-7.964920043945312,-42.55216979980469,5.906654357910156,157.6814270019531,143.9036254882812,10,177194.9583197917,0.006988525390625,-0.91815185546875,-0.2616424560546875,177194.9310732917,0.0270457324502997,0.3876406735242277,-0.08445043606306669,177194.9310732917,2.066234478311582,0.2681397443790594,1.345390086404515,0.00466097192838788,0.4010571837425232,-0.05514362826943398,-0.07337445020675659,0.04124696925282478,-0.04582168906927109,XTrueNorthZVertical,0.2264547642977938,0.5839181832278801,0.7084113693663086,0.3254399012544371,0.05921429395675659,-0.9747033715248108,-0.2155155837535858,-8.677146911621094,-42.22280883789062,5.045145988464355,2,192.168.1.8,10.83.46.32,1,0
2015-03-01 09:53:08.505,58,1425232383.175024,37.77930168682229,-122.4388260803895,57.17865,-1,-1,10,65,-9999,1425232388.466819,-7.828514099121094,-42.72212219238281,5.773521423339844,158.9503173828125,145.1725158691406,10,177195.0074833333,0.024810791015625,-0.91278076171875,-0.24017333984375,177194.9828445,0.09695264580044367,0.5997401490603184,-0.1254031957257602,177194.9828445,2.052995333025958,0.3076653567392782,1.346173333447807,0.07456323504447937,0.6131566762924194,-0.09609465301036835,-0.04857787489891052,0.05745871737599373,-0.04182486981153488,XTrueNorthZVertical,0.2165023894753167,0.5890558921209824,0.7104730115553333,0.3183833753728216,0.06745299696922302,-0.9748781323432922,-0.212279736995697,-8.706418991088867,-42.23556137084961,4.885477066040039,2,192.168.1.8,10.83.46.32,1,0
2015-03-01 09:53:08.573,59,1425232383.175024,37.77930168682229,-122.4388260803895,57.17865,-1,-1,10,65,-9999,1425232388.570097,-7.879661560058594,-42.70512390136719,5.623741149902344,156.9917755126953,143.2139739990234,10,177195.0564139167,0.028289794921875,-0.95196533203125,-0.2030792236328125,177195.034616,0.1506981660754418,0.6393450828953228,-0.2084546732682082,177195.034616,2.020095824771367,0.3713139193538687,1.348049565971831,0.1283038854598999,0.6527612805366516,-0.1791435331106186,-0.05369604006409645,0.05293106287717819,-0.02404947392642498,XTrueNorthZVertical,0.2040859148521747,0.5961724491801322,0.711563937266119,0.3108120266867355,0.08015477657318115,-0.9752943515777588,-0.2058546990156174,-8.639397621154785,-42.26142501831055,4.779641151428223,2,192.168.1.8,10.83.46.32,1,0
2015-03-01 09:53:08.602,60,1425232383.175024,37.77930168682229,-122.4388260803895,57.17865,-1,-1,10,65,-9999,1425232388.570097,-7.879661560058594,-42.70512390136719,5.623741149902344,156.9917755126953,143.2139739990234,10,177195.1055661667,0.048797607421875,-0.911956787109375,-0.13763427734375,177195.0863842917,0.2397968835051328,0.7253563976732849,-0.2560445629995972,177195.0863842917,1.960303873491952,0.4643099009015109,1.351876397442417,0.2174025475978851,0.7387720942497253,-0.2267327904701233,-0.06430872529745102,0.0242740623652935,0.02378837950527668,XTrueNorthZVertical,0.1899858049986745,0.6056515134797448,0.7107318263039355,0.303235736269056,0.09725245088338852,-0.9761325716972351,-0.194183275103569,-8.340843200683594,-42.31519317626953,4.833933353424072,2,192.168.1.8,10.83.46.32,1,0
2015-03-01 09:53:08.664,61,1425232383.175024,37.77930168682229,-122.4388260803895,57.17865,-1,-1,10,65,-9999,1425232388.626841,-7.760307312011719,-42.756103515625,5.773513793945312,156.026123046875,142.2483215332031,10,177195.1544939583,0.095550537109375,-0.82574462890625,-0.084716796875,177195.13815575,0.2423194296896558,0.7102586711375166,-0.2997038932781382,177195.0863842917,1.960303873491952,0.4643099009015109,1.351876397442417,0.2174025475978851,0.7387720942497253,-0.2267327904701233,-0.06430872529745102,0.0242740623652935,0.02378837950527668,XTrueNorthZVertical,0.1899858049986745,0.6056515134797448,0.7107318263039355,0.303235736269056,0.09725245088338852,-0.9761325716972351,-0.194183275103569,-8.340843200683594,-42.31519317626953,4.833933353424072,2,192.168.1.8,10.83.46.32,1,0
2015-03-01 09:53:08.700,62,1425232383.175024,37.77930168682229,-122.4388260803895,57.17865,-1,-1,10,65,-9999,1425232388.626841,-7.760307312011719,-42.756103515625,5.773513793945312,156.026123046875,142.2483215332031,10,177195.203556375,0.080322265625,-0.7667083740234375,-0.0309600830078125,177195.1899270834,0.2049893680577971,0.5851857073869263,-0.3405149727708395,177195.1899270834,1.80190743958763,0.6888744296990407,1.354763042117901,0.1825955659151077,0.5986010432243347,-0.3112035691738129,-0.05090225115418434,0.1859381645917892,0.1134428456425667,XTrueNorthZVertical,0.1600119023800563,0.6258262797770883,0.7063613777310438,0.2894672092660083,0.136259913444519,-0.9767554402351379,-0.1654753237962723,-7.659645080566406,-42.40744781494141,5.142976760864258,2,192.168.1.8,10.83.46.32,1,0
2015-03-01 09:53:08.765,63,1425232383.175024,37.77930168682229,-122.4388260803895,57.17865,-1,-1,10,65,-9999,1425232388.751985,-6.822456359863281,-42.501220703125,5.956581115722656,153.4189453125,139.6411437988281,10,177195.2525864583,0.127410888671875,-0.8925018310546875,0.0389556884765625,177195.241695375,0.1541208607084116,0.6671093362077258,-0.3596164956894328,177195.1899270834,1.80190743958763,0.6888744296990407,1.354763042117901,0.1825955659151077,0.5986010432243347,-0.3112035691738129,-0.05090225115418434,0.1859381645917892,0.1134428456425667,XTrueNorthZVertical,0.1600119023800563,0.6258262797770883,0.7063613777310438,0.2894672092660083,0.136259913444519,-0.9767554402351379,-0.1654753237962723,-7.659645080566406,-42.40744781494141,5.142976760864258,2,192.168.1.8,10.83.46.32,1,0
2015-03-01 09:53:08.798,64,1425232383.175024,37.77930168682229,-122.4388260803895,57.17865,-1,-1,10,65,-9999,1425232388.751985,-6.822456359863281,-42.501220703125,5.956581115722656,153.4189453125,139.6411437988281,10,177195.3016464583,0.1060943603515625,-0.956329345703125,-0.0245361328125,177195.2934667083,0.304805178346185,0.5393223449902357,-0.2514649911890969,177195.2934667083,1.649306318146454,0.9019468012091605,1.347031313830539,0.2824195921421051,0.552734375,-0.2221502214670181,-0.06814850866794586,-0.004133373498916626,0.1269931942224503,XTrueNorthZVertical,0.1309131178598905,0.6434770626277453,0.7011159571370338,0.2779126529060094,0.1740902811288834,-0.9750689268112183,-0.1375980526208878,-6.656434059143066,-42.54862213134766,5.368321418762207,2,192.168.1.8,10.83.46.32,1,0
2015-03-01 09:53:08.869,65,1425232383.175024,37.77930168682229,-122.4388260803895,57.17865,-1,-1,10,65,-9999,1425232388.856715,-6.805412292480469,-42.92605590820312,6.8052978515625,151.3980255126953,137.6202239990234,10,177195.3506656667,0.1332550048828125,-0.7819976806640625,-0.0293121337890625,177195.34523825,0.724586744118252,0.3553184200061539,-0.4958848560304983,177195.2934667083,1.649306318146454,0.9019468012091605,1.347031313830539,0.2824195921421051,0.552734375,-0.2221502214670181,-0.06814850866794586,-0.004133373498916626,0.1269931942224503,XTrueNorthZVertical,0.1309131178598905,0.6434770626277453,0.7011159571370338,0.2779126529060094,0.1740902811288834,-0.9750689268112183,-0.1375980526208878,-6.656434059143066,-42.54862213134766,5.368321418762207,2,192.168.1.8,10.83.46.32,1,0
2015-03-01 09:53:08.896,66,1425232383.175024,37.77930168682229,-122.4388260803895,57.17865,-1,-1,10,65,-9999,1425232388.856715,-6.805412292480469,-42.92605590820312,6.8052978515625,151.3980255126953,137.6202239990234,10,177195.3997216667,0.24456787109375,-0.7162017822265625,-0.0396881103515625,177195.3970066667,0.6838134815130298,-0.02846120256967682,-0.7307650115311267,177195.34523825,1.506591090576338,1.063016096454269,1.34808824298248,0.7022013664245605,0.3687303364276886,-0.4665703773498535,-0.07493087649345398,0.1635963469743729,0.07784007489681244,XTrueNorthZVertical,0.1215945102302249,0.6568992305331737,0.6914687900767856,0.2748983283139527,0.193003386259079,-0.9753028750419617,-0.1073963493108749,-6.296651363372803,-42.50149917602539,6.122645378112793,2,192.168.1.8,10.83.46.32,1,0
2015-03-01 09:53:08.946,67,1425232383.175024,37.77930168682229,-122.4388260803895,57.17865,-1,-1,10,65,-9999,1425232388.907411,-5.560623168945312,-43.04499816894531,7.986854553222656,152.1152954101562,138.3374938964844,10,177195.4487522084,0.250457763671875,-0.770538330078125,0.075592041015625,177195.3970066667,0.6838134815130298,-0.02846120256967682,-0.7307650115311267,177195.3970066667,1.310013528236216,1.263316223406606,1.333688419602499,0.6614282727241516,-0.01504942588508129,-0.7014507651329041,-0.0036151974927634,0.2558043301105499,0.02807752601802349,XTrueNorthZVertical,0.1132162560991766,0.6720387290887141,0.6759438600470195,0.280438810755056,0.2238758206367493,-0.9720213413238525,-0.07109205424785614,-4.960684776306152,-42.39817428588867,7.82932186126709,2,192.168.1.8,10.83.46.32,1,0
2015-03-01 09:53:08.994,68,1425232383.175024,37.77930168682229,-122.4388260803895,57.17865,-1,-1,10,65,-9999,1425232388.959103,-4.537506103515625,-43.14694213867188,9.284896850585938,153.625,139.8471984863281,10,177195.4978078333,0.2054290771484375,-0.72589111328125,0.0887603759765625,177195.5005492917,0.06944831701043233,0.6588543357768072,-0.3274527002562189,177195.4487779167,1.175483660859517,1.387944407458422,1.31093325321589,0.38064906001091,-0.07044517993927002,-0.4903801381587982,-0.002206916455179453,0.1958868354558945,0.1223141402006149,XTrueNorthZVertical,0.1087769965001266,0.6817671996034251,0.6623387342318473,0.2909784429588094,0.2526646852493286,-0.9664251804351807,-0.04672210291028023,-3.711929321289062,-42.30461883544922,8.947216987609863,2,192.168.1.8,10.83.46.32,1,0
2015-03-01 09:53:09.035,69,1425232383.175024,37.77930168682229,-122.4388260803895,57.17865,-1,-1,10,65,-9999,1425232389.010634,-3.65081787109375,-42.60317993164062,10.38324737548828,156.1994934082031,142.4216918945312,10,177195.54684225,0.2828521728515625,-0.8056793212890625,0.0666961669921875,177195.5005492917,0.06944831701043233,0.6588543357768072,-0.3274527002562189,177195.5005492917,1.133721192027792,1.44396675390289,1.294287494413271,0.04706361144781113,0.6722658276557922,-0.2981390953063965,-0.06537694483995438,0.236123263835907,0.123291939496994,XTrueNorthZVertical,0.09858269165934004,0.6877613465046593,0.6576491772752318,0.291141452462154,0.2708060145378113,-0.962014377117157,-0.03453156724572182,-3.139163017272949,-42.26603317260742,9.340250968933105,2,192.168.1.8,10.83.46.32,1,0
2015-03-01 09:53:09.092,70,1425232383.175024,37.77930168682229,-122.4388260803895,57.17865,-1,-1,10,65,-9999,1425232389.066408,-3.292732238769531,-42.21232604980469,10.13362121582031,154.7957763671875,141.0179748535156,10,177195.5959525833,0.344879150390625,-0.8305206298828125,0.1270294189453125,177195.6040892917,-0.04951855099282435,0.6477252518974751,-0.1691642587579422,177195.55231775,1.119992175184529,1.50496913605704,1.278777274003484,0.05827093124389648,1.047784209251404,-0.295407235622406,-0.004410709720104933,0.1519852429628372,0.08563323318958282,XTrueNorthZVertical,0.07773231748436488,0.6960525498684891,0.6566910604615658,0.2796880195918529,0.287262886762619,-0.9576645493507385,-0.01893706992268562,-2.662759780883789,-42.2874755859375,9.391022682189941,2,192.168.1.8,10.83.46.32,1,0
2015-03-01 09:53:09.136,71,1425232383.175024,37.77930168682229,-122.4388260803895,57.17865,-1,-1,10,65,-9999,1425232389.066408,-3.292732238769531,-42.21232604980469,10.13362121582031,154.7957763671875,141.0179748535156,10,177195.644940875,0.4168853759765625,-0.879913330078125,0.0746002197265625,177195.6040892917,-0.04951855099282435,0.6477252518974751,-0.1691642587579422,177195.6040892917,1.122802884293454,1.545184608934234,1.268407830199137,-0.07169891893863678,0.6612216830253601,-0.1397329866886139,0.04717563092708588,0.1241072863340378,0.1346557885408401,XTrueNorthZVertical,0.05985442965870944,0.7018577235893755,0.6572061964931838,0.2681290751343409,0.2977035343647003,-0.9546279311180115,-0.007626366335898638,-2.610639572143555,-42.31768035888672,9.268790245056152,2,192.168.1.8,10.83.46.32,1,0
2015-03-01 09:53:09.190,72,1425232383.175024,37.77930168682229,-122.4388260803895,57.17865,-1,-1,10,65,-9999,1425232389.140858,-3.292739868164062,-42.89204406738281,10.13362121582031,152.5009155273438,138.7231140136719,10,177195.6940049583,0.1537322998046875,-0.84014892578125,0.0652618408203125,177195.6558604584,0.01872788141765522,0.1595521114355192,0.09379466937982771,177195.6558604584,1.13272882868028,1.55817188610613,1.26872761967872,-0.003452240722253919,0.1730484366416931,0.1232256069779396,0.07053928822278976,0.07569477707147598,0.105318121612072,XTrueNorthZVertical,0.05220605781236884,0.7038442425573991,0.6589211646140237,0.2601936031562935,0.2974721789360046,-0.9547231197357178,-0.003755619516596198,-2.731093406677246,-42.35636138916016,9.054933547973633,2,192.168.1.8,10.83.46.32,1,0
2015-03-01 09:53:09.242,73,1425232383.175024,37.77930168682229,-122.4388260803895,57.17865,-1,-1,10,65,-9999,1425232389.192317,-3.531463623046875,-42.756103515625,9.601089477539062,150.1601257324219,136.38232421875,10,177195.7430310833,0.33441162109375,-1.0762939453125,0.08123779296875,177195.7076289583,-0.2024947850647199,0.1489202397317049,-0.2700562524428311,177195.7076289583,1.152444248862982,1.539964572931759,1.26566134591216,-0.2246746867895126,0.1624164283275604,-0.2406256049871445,-0.1129622608423233,0.07825709134340286,0.06561177223920822,XTrueNorthZVertical,0.05019695130453009,0.7020325720780468,0.6606483785959845,0.2611020035024107,0.3002791404724121,-0.9538064002990723,-0.00926106795668602,-2.757800102233887,-42.40182113647461,8.831313133239746,2,192.168.1.8,10.83.46.32,1,0
2015-03-01 09:53:09.295,74,1425232389.265956,37.77936185823079,-122.4388403138415,55.88205,-1,-1,10,65,-9999,1425232389.269144,-3.497367858886719,-42.48420715332031,8.635879516601562,149.0272979736328,135.2494964599609,10,177195.7920992917,0.3997344970703125,-1.219024658203125,0.098876953125,177195.7594002917,-0.3762886830616559,0.6865016763173558,0.08976344243777477,177195.7594002917,1.206482663653622,1.511799103605941,1.261316457233408,-0.3984683752059937,0.6999977827072144,0.119193822145462,0.03895368427038193,-0.1597210168838501,0.1116469278931618,XTrueNorthZVertical,0.03905905812659134,0.699639483897076,0.6664947207852087,0.2544872732951637,0.3040333688259125,-0.9524921178817749,-0.01795796491205692,-2.658634185791016,-42.53414535522461,8.20307445526123,2,192.168.1.8,10.83.46.32,1,0
2015-03-01 09:53:09.329,75,1425232389.265956,37.77936185823079,-122.4388403138415,55.88205,-1,-1,10,65,-9999,1425232389.269144,-3.497367858886719,-42.48420715332031,8.635879516601562,149.0272979736328,135.2494964599609,10,177195.84112825,0.4651641845703125,-0.9542388916015625,0.1016693115234375,177195.8111716667,-0.5333049325072017,1.063570665578405,0.1637045122071708,177195.8111716667,1.281583930560671,1.48614540435243,1.269749293987395,-0.555484414100647,1.077066540718079,0.193134605884552,0.1033146381378174,-0.2242184430360794,0.1378942430019379,XTrueNorthZVertical,0.02444568929040289,0.6977585774355577,0.6761057557864988,0.2354068508685649,0.2954585552215576,-0.9550265669822693,-0.02507075108587742,-3.283418655395508,-42.6510124206543,7.322729110717773,2,192.168.1.8,10.83.46.32,1,0
2015-03-01 09:53:09.386,76,1425232389.265956,37.77936185823079,-122.4388403138415,55.88205,-1,-1,10,65,-9999,1425232389.327614,-4.043022155761719,-42.756103515625,8.103347778320312,147.1736907958984,133.3958892822266,10,177195.8901778334,0.4445037841796875,-1.113998413085938,0.0132293701171875,177195.8629402083,-0.9749539803060182,0.7649927568091521,-0.02979464732747949,177195.8629402083,1.419992676416568,1.403347430189766,1.267403562433822,-0.997133195400238,0.7784885764122009,-0.0003648861602414399,0.2074026018381119,-0.01361292228102684,0.08632307499647141,XTrueNorthZVertical,0.003907391974139369,0.6892662525845727,0.6910448535296497,0.2176092330289063,0.2945810258388519,-0.9543283581733704,-0.04979353025555611,-3.924924850463867,-42.90523910522461,5.219915866851807,2,192.168.1.8,10.83.46.32,1,0
2015-03-01 09:53:09.429,77,1425232389.265956,37.77936185823079,-122.4388403138415,55.88205,-1,-1,10,65,-9999,1425232389.397688,-4.9979248046875,-42.72212219238281,5.141128540039062,141.6972351074219,127.9194259643555,10,177195.9392082917,0.4372406005859375,-1.336959838867188,-0.0457763671875,177195.9147115833,-1.018598929514673,0.6794248583526882,0.0421666284875516,177195.9147115833,1.588246598331328,1.271850318195476,1.258084765724834,-1.040777921676636,0.6929205656051636,0.07159609347581863,0.1043965071439743,-0.2783707678318024,0.130871906876564,XTrueNorthZVertical,-0.01074987581816612,0.6742273030111094,0.7089206607475399,0.2067207859959756,0.293995201587677,-0.9515028595924377,-0.09060396999120712,-4.121844291687012,-43.09043502807617,3.120424747467041,2,192.168.1.8,10.83.46.32,1,0
2015-03-01 09:53:09.491,78,1425232389.265956,37.77936185823079,-122.4388403138415,55.88205,-1,-1,10,65,-9999,1425232389.450673,-5.526527404785156,-42.73910522460938,2.794662475585938,139.3261566162109,125.5483551025391,10,177195.9882647917,0.4060821533203125,-1.18328857421875,-0.1563720703125,177195.9664829583,-0.952596742954803,0.73729268567902,0.1029708572318047,177195.9664829583,1.744734825264781,1.164699431890471,1.244329234919349,-0.9747755527496338,0.7507882118225098,0.1324000507593155,0.1892094910144806,-0.3714832961559296,0.00850523728877306,XTrueNorthZVertical,-0.02930526724318461,0.6601506811840223,0.7258730636072159,0.1909203434074373,0.2946161925792694,-0.947181224822998,-0.1266845613718033,-4.326497077941895,-43.1724853515625,0.9643821716308594,2,192.168.1.8,10.83.46.32,1,0
2015-03-01 09:53:09.530,79,1425232389.265956,37.77936185823079,-122.4388403138415,55.88205,-1,-1,10,65,-9999,1425232389.502961,-5.748199462890625,-43.12995910644531,0.4814682006835938,135.9171752929688,122.1393737792969,10,177196.0372989583,0.3353271484375,-1.039810180664062,-0.11993408203125,177196.0182514584,-0.8569226807937064,0.7455703229792043,-0.01483780201337648,177195.9664829583,1.744734825264781,1.164699431890471,1.244329234919349,-0.9747755527496338,0.7507882118225098,0.1324000507593155,0.1892094910144806,-0.3714832961559296,0.00850523728877306,XTrueNorthZVertical,-0.02930526724318461,0.6601506811840223,0.7258730636072159,0.1909203434074373,0.2946161925792694,-0.947181224822998,-0.1266845613718033,-4.326497077941895,-43.1724853515625,0.9643821716308594,2,192.168.1.8,10.83.46.32,1,0
2015-03-01 09:53:09.583,80,1425232389.265956,37.77936185823079,-122.4388403138415,55.88205,-1,-1,10,65,-9999,1425232389.556267,-5.952827453613281,-43.06198120117188,-2.314315795898438,131.5835418701172,117.8057327270508,10,177196.086353375,0.361083984375,-1.002395629882812,-0.135589599609375,177196.0700228333,-0.978206232629223,0.8821228426085812,-0.1575134616210636,177196.0700228333,1.989179957175573,1.015308125750889,1.198943981288615,-1.000384569168091,0.8956180810928345,-0.1280848681926727,0.09375496208667755,-0.06051633134484291,0.01525018364191055,XTrueNorthZVertical,-0.06791971850782409,0.6321244166054245,0.7544513899467786,0.1631218456544251,0.3087108433246613,-0.9316558837890625,-0.191611260175705,-4.288054466247559,-43.02886962890625,-3.693397760391235,2,192.168.1.8,10.83.46.32,1,0
2015-03-01 09:53:09.629,81,1425232389.265956,37.77936185823079,-122.4388403138415,55.88205,-1,-1,10,65,-9999,1425232389.608941,-5.441276550292969,-43.09597778320312,-4.67742919921875,129.6198577880859,115.8420562744141,10,177196.1355165417,0.4053497314453125,-0.938232421875,-0.13104248046875,177196.121794375,-0.9693027524728701,0.6449297317012189,-0.02677382370300261,177196.121794375,2.095961939891971,0.9529098618403884,1.167332397978973,-0.9914806485176086,0.6584248542785645,0.002654350828379393,0.02692369744181633,-0.0676896870136261,0.109324038028717,XTrueNorthZVertical,-0.08705864216067213,0.6153857584443347,0.76866030503761,0.1512696239890281,0.3200154006481171,-0.9197065830230713,-0.2274423241615295,-3.904697418212891,-42.82948684692383,-5.822392463684082,2,192.168.1.8,10.83.46.32,1,0
2015-03-01 09:53:09.682,82,1425232389.265956,37.77936185823079,-122.4388403138415,55.88205,-1,-1,10,65,-9999,1425232389.608941,-5.441276550292969,-43.09597778320312,-4.67742919921875,129.6198577880859,115.8420562744141,10,177196.1844417917,0.4566497802734375,-0.9046783447265625,-0.1156463623046875,177196.17356275,-0.6630626629313504,0.2090970277231353,0.3237309326328331,177196.121794375,2.095961939891971,0.9529098618403884,1.167332397978973,-0.9914806485176086,0.6584248542785645,0.002654350828379393,0.02692369744181633,-0.0676896870136261,0.109324038028717,XTrueNorthZVertical,-0.08705864216067213,0.6153857584443347,0.76866030503761,0.1512696239890281,0.3200154006481171,-0.9197065830230713,-0.2274423241615295,-3.904697418212891,-42.82948684692383,-5.822392463684082,2,192.168.1.8,10.83.46.32,1,0
2015-03-01 09:53:09.720,83,1425232389.265956,37.77936185823079,-122.4388403138415,55.88205,-1,-1,10,65,-9999,1425232389.68366,-5.304862976074219,-42.92605590820312,-7.672927856445312,127.0470504760742,113.2692489624023,10,177196.233584625,0.610076904296875,-0.812591552734375,-0.079437255859375,177196.2253340833,-0.3767704489028512,-0.7675624409449696,0.7870053811153112,177196.17356275,2.19168779565708,0.8908638460941851,1.149197577869653,-0.6852399110794067,0.2225923389196396,0.3531578183174133,0.163870707154274,0.009664870798587799,0.1365349739789963,XTrueNorthZVertical,-0.09733950846916824,0.6015633840446671,0.7807425666276804,0.1381577441788676,0.3182154893875122,-0.9124358892440796,-0.2572930157184601,-3.947039604187012,-42.430908203125,-8.218945503234863,2,192.168.1.8,10.83.46.32,1,0
2015-03-01 09:53:09.780,84,1425232389.265956,37.77936185823079,-122.4388403138415,55.88205,-1,-1,10,65,-9999,1425232389.735715,-6.481430053710938,-42.80708312988281,-8.987617492675781,124.8643341064453,111.0865325927734,10,177196.2825363333,0.4352264404296875,-1.046096801757812,-0.0530242919921875,177196.2771055,0.6207852469424515,-1.041143387090521,0.5291314927629385,177196.2771055,2.362566626215417,0.6613941127141828,1.189909564599552,0.5986084342002869,-1.027648329734802,0.5585577487945557,0.197846382856369,-0.09359152615070343,0.294302761554718,XTrueNorthZVertical,-0.04746690411909903,0.5925103714913513,0.7937335894746907,0.1290943228086127,0.228331595659256,-0.9283353686332703,-0.293356716632843,-6.446120262145996,-41.87197494506836,-9.417932510375977,2,192.168.1.8,10.83.46.32,1,0
2015-03-01 09:53:09.818,85,1425232389.265956,37.77936185823079,-122.4388403138415,55.88205,-1,-1,10,65,-9999,1425232389.793328,-8.1695556640625,-42.48420715332031,-8.671424865722656,125.0553359985352,111.2775344848633,10,177196.3315677917,1.00408935546875,-1.154937744140625,-0.3913116455078125,177196.2771055,0.6207852469424515,-1.041143387090521,0.5291314927629385,177196.2771055,2.362566626215417,0.6613941127141828,1.189909564599552,0.5986084342002869,-1.027648329734802,0.5585577487945557,0.197846382856369,-0.09359152615070343,0.294302761554718,XTrueNorthZVertical,-0.04746690411909903,0.5925103714913513,0.7937335894746907,0.1290943228086127,0.228331595659256,-0.9283353686332703,-0.293356716632843,-6.446120262145996,-41.87197494506836,-9.417932510375977,2,192.168.1.8,10.83.46.32,1,0
2015-03-01 09:53:09.878,86,1425232389.265956,37.77936185823079,-122.4388403138415,55.88205,-1,-1,10,65,-9999,1425232389.865502,-9.277915954589844,-42.56916809082031,-5.992118835449219,125.9019927978516,112.1241912841797,10,177196.3806324167,0.117462158203125,-1.134979248046875,-0.1384429931640625,177196.3806454167,0.534760882675148,0.06105722904781066,-0.5602851511946854,177196.328874,2.273308731461704,0.7177220781675232,1.229663654843002,1.015679359436035,-0.8521216511726379,-0.5193768739700317,0.9150745868682861,-0.2418888062238693,-0.01934029534459114,XTrueNorthZVertical,-0.03310354967143704,0.6106497773134868,0.7790945303650624,0.1379228761831927,0.2200267314910889,-0.9423763155937195,-0.252021998167038,-8.156828880310059,-42.11301422119141,-6.593352794647217,2,192.168.1.8,10.83.46.32,1,0
2015-03-01 09:53:09.917,87,1425232389.265956,37.77936185823079,-122.4388403138415,55.88205,-1,-1,10,65,-9999,1425232389.865502,-9.277915954589844,-42.56916809082031,-5.992118835449219,125.9019927978516,112.1241912841797,10,177196.4296665417,0.701904296875,-1.2135009765625,-0.0948944091796875,177196.4324169584,0.6408311267835869,-0.367420356631692,-0.1044100294848836,177196.3806454167,2.15754886193452,0.7974477327967948,1.230105810921572,0.5125845074653625,0.07455199211835861,-0.5308594703674316,-0.1216388344764709,-0.1924550831317902,0.09496420621871948,XTrueNorthZVertical,-0.02828175779973686,0.6184630485684115,0.76922006443608,0.158126831225565,0.2391009926795959,-0.9425241351127625,-0.233407199382782,-7.283227920532227,-42.46717071533203,-5.196751594543457,2,192.168.1.8,10.83.46.32,1,0
2015-03-01 09:53:09.977,88,1425232389.265956,37.77936185823079,-122.4388403138415,55.88205,-1,-1,10,65,-9999,1425232389.917048,-8.305961608886719,-43.06196594238281,-4.57757568359375,128.797607421875,115.0198059082031,10,177196.4787300834,0.2033233642578125,-1.047103881835938,0.061004638671875,177196.4324169584,0.6408311267835869,-0.367420356631692,-0.1044100294848836,177196.4324169584,2.064792293513355,0.8876956237150104,1.239534061503125,0.6186549663543701,-0.3539257049560547,-0.07498463988304138,0.4496442675590515,-0.2678684294223785,0.1103954762220383,XTrueNorthZVertical,-0.03112313878245304,0.6295922557581656,0.759036596111596,0.1628139737192627,0.2522600293159485,-0.9456325769424438,-0.2052898854017258,-6.658329010009766,-42.64303588867188,-4.555244922637939,2,192.168.1.8,10.83.46.32,1,0
2015-03-01 09:53:10.015,89,1425232389.265956,37.77936185823079,-122.4388403138415,55.88205,-1,-1,10,65,-9999,1425232389.96877,-7.351066589355469,-43.16390991210938,-3.512504577636719,129.9474487304688,116.1696395874023,10,177196.5278815,0.31329345703125,-1.002960205078125,0.0554046630859375,177196.4841853333,0.2950231213462149,-0.4583148435844234,-0.1467540245010344,177196.4841853333,1.999605690759457,0.9130364322747415,1.249988259993868,0.2728471755981445,-0.4448203146457672,-0.1173288971185684,-0.04622012749314308,-0.09812296181917191,0.2537824213504791,XTrueNorthZVertical,-0.01694311122462783,0.6350779844174,0.7518436787127122,0.1764085316059286,0.2495434880256653,-0.9489809274673462,-0.1927777677774429,-6.413768768310547,-42.84282684326172,-2.620607376098633,2,192.168.1.8,10.83.46.32,1,0
2015-03-01 09:53:10.081,90,1425232389.265956,37.77936185823079,-122.4388403138415,55.88205,-1,-1,10,65,-9999,1425232390.023719,-6.90771484375,-43.265869140625,-2.380874633789062,132.0087432861328,118.2309341430664,10,177196.5768102917,0.17913818359375,-1.0020751953125,0.0319061279296875,177196.5877281667,0.1644006625161175,-0.3722489340041147,0.001762746325523448,177196.5359569167,1.949660412443496,0.9536504768136772,1.259993861760168,0.3514548540115356,-0.4329587519168854,0.01189084630459547,0.06388475000858307,-0.05087174102663994,0.2323873043060303,XTrueNorthZVertical,-0.01311684415071102,0.6413553027472044,0.7459119045426418,0.1791835853319103,0.2494087070226669,-0.952088475227356,-0.1769826412200928,-6.347810745239258,-42.89089965820312,-1.894269943237305,2,192.168.1.8,10.83.46.32,1,0
2015-03-01 09:53:10.113,91,1425232389.265956,37.77936185823079,-122.4388403138415,55.88205,-1,-1,10,65,-9999,1425232390.080158,-6.771293640136719,-43.265869140625,-1.215957641601562,132.2087707519531,118.4309616088867,10,177196.62585025,0.2753448486328125,-1.00762939453125,-0.018951416015625,177196.5877281667,0.1644006625161175,-0.3722489340041147,0.001762746325523448,177196.5877281667,1.929254755114967,0.9479407598387138,1.266423134054168,0.1423351317644119,-0.3586327135562897,0.03128140419721603,-0.04454946145415306,-0.04265385121107101,0.1804597675800323,XTrueNorthZVertical,-0.00242131600674389,0.6423235140766099,0.7433473874222614,0.1866796846441267,0.2434172630310059,-0.9540349841117859,-0.1748292744159698,-6.402756690979004,-42.90124130249023,-1.414403915405273,2,192.168.1.8,10.83.46.32,1,0
2015-03-01 09:53:10.175,92,1425232389.265956,37.77936185823079,-122.4388403138415,55.88205,-1,-1,10,65,-9999,1425232390.150339,-7.129379272460938,-42.90902709960938,-0.4005203247070312,131.8092041015625,118.0314025878906,10,177196.6749052917,0.2051849365234375,-0.915008544921875,-0.078125,177196.6394966667,0.1144959531652316,-0.442569968903766,0.031760859160285,177196.6394966667,1.910308651942045,0.9496102943819016,1.275141139532979,0.09243065118789673,-0.4289538860321045,0.06127922236919403,0.03621147572994232,-0.04418200999498367,0.06744834035634995,XTrueNorthZVertical,0.005811876856197072,0.6443434742638567,0.7405962132024299,0.1905386071232618,0.2369361072778702,-0.9566114544868469,-0.169575423002243,-6.629140853881836,-42.88461303710938,-0.6905231475830078,2,192.168.1.8,10.83.46.32,1,0
2015-03-01 09:53:10.211,93,1425232389.265956,37.77936185823079,-122.4388403138415,55.88205,-1,-1,10,65,-9999,1425232390.202462,-7.010017395019531,-42.926025390625,-0.2507476806640625,132.2352600097656,118.4574508666992,10,177196.7239330417,0.31396484375,-0.9689788818359375,-0.0747833251953125,177196.6912680833,0.08467946791681351,-0.2013134068051608,-0.11494469580891,177196.6912680833,1.897218079683755,0.9451975283846692,1.276377656988309,0.06261435896158218,-0.1876974552869797,-0.08542659878730774,-0.01400455646216869,0.02545244246721268,0.1178177446126938,XTrueNorthZVertical,0.01205429154959654,0.6441206707761109,0.739174687281784,0.1964282051267265,0.2352264821529388,-0.9569709897041321,-0.1699265092611313,-6.63018798828125,-42.88792037963867,-0.4230794906616211,2,192.168.1.8,10.83.46.32,1,0
2015-03-01 09:53:10.276,94,1425232389.265956,37.77936185823079,-122.4388403138415,55.88205,-1,-1,10,65,-9999,1425232390.254652,-6.82244873046875,-43.04496765136719,-0.3006744384765625,131.9437866210938,118.1659851074219,10,177196.7730015834,0.3440704345703125,-0.9466400146484375,-0.1032562255859375,177196.7430396667,-0.006198773753268435,-0.01857474965497566,-0.2833049462337573,177196.7430396667,1.874223413629718,0.9648346303337202,1.269019394450629,-0.02826366201043129,-0.004958935081958771,-0.2537871301174164,0.1038148328661919,-0.005273146089166403,0.09225458651781082,XTrueNorthZVertical,0.009853698015270718,0.6444085863728816,0.7377710045270001,0.2008343244488116,0.2442991882562637,-0.954809844493866,-0.1692809611558914,-6.33504581451416,-42.93355560302734,-0.2988395690917969,2,192.168.1.8,10.83.46.32,1,0
2015-03-01 09:53:10.310,95,1425232389.265956,37.77936185823079,-122.4388403138415,55.88205,-1,-1,10,65,-9999,1425232390.254652,-6.82244873046875,-43.04496765136719,-0.3006744384765625,131.9437866210938,118.1659851074219,10,177196.822032125,0.23486328125,-0.9716339111328125,-0.169464111328125,177196.7948081667,-0.153159992187111,0.5030538193688826,-0.3940663486023708,177196.7948081667,1.861392678817728,0.9858625282234527,1.255013929188496,-0.175224632024765,0.5166695117950439,-0.3645488619804382,0.05453208833932877,0.01505258958786726,0.01299627311527729,XTrueNorthZVertical,0.001700725017621059,0.643630390521058,0.7378946652430198,0.2030972513139405,0.2589292228221893,-0.9505537152290344,-0.1714740544557571,-5.659197807312012,-43.02587127685547,-0.5100855827331543,2,192.168.1.8,10.83.46.32,1,0
2015-03-01 09:53:10.374,96,1425232389.265956,37.77936185823079,-122.4388403138415,55.88205,-1,-1,10,65,-9999,1425232390.30859,-6.072166442871094,-43.35086059570312,-0.0344085693359375,133.3270416259766,119.5492401123047,10,177196.871073125,0.590240478515625,-0.8144073486328125,-0.047271728515625,177196.8465794167,-0.5267737962498913,1.713420321077436,-0.7199680238397276,177196.8465794167,1.868825903312881,1.046596560214947,1.21983630098609,-0.5488382577896118,1.727035760879517,-0.6904508471488953,0.04648049175739288,0.04934887588024139,0.06220010668039322,XTrueNorthZVertical,-0.03459361300765934,0.6424670877489811,0.7411338901179106,0.1917286691404642,0.2976357042789459,-0.9390431046485901,-0.1720786392688751,-4.590424537658691,-43.13094711303711,-1.470226287841797,2,192.168.1.8,10.83.46.32,1,0
2015-03-01 09:53:10.410,97,1425232389.265956,37.77936185823079,-122.4388403138415,55.88205,-1,-1,10,65,-9999,1425232390.38363,-4.298789978027344,-43.28288269042969,-1.332466125488281,132.2209320068359,118.4431304931641,10,177196.9201044583,0.6154022216796875,-0.8336181640625,0.0553436279296875,177196.898350875,-0.328902791469767,0.3205780162182883,-0.4074926752380053,177196.898350875,1.892158386919666,1.074368589170096,1.185065208874018,-0.3509670197963715,0.3341934084892273,-0.3779757618904114,0.2863665521144867,0.0967353954911232,0.2021307796239853,XTrueNorthZVertical,-0.06368951299516694,0.6374521437304822,0.7452265061445486,0.1850293692382423,0.3308209478855133,-0.9265236258506775,-0.1791968196630478,-3.646762847900391,-43.18199157714844,-2.351387023925781,2,192.168.1.8,10.83.46.32,1,0
2015-03-01 09:53:10.479,98,1425232389.265956,37.77936185823079,-122.4388403138415,55.88205,-1,-1,10,65,-9999,1425232390.434414,-3.582611083984375,-43.11296081542969,-2.59722900390625,130.7350463867188,116.9572448730469,10,177196.969158125,0.432220458984375,-1.009109497070312,-0.054412841796875,177196.9501194167,0.209420069163362,-0.4972350787031685,0.06599712655379864,177196.9501194167,1.882998864296795,1.073836439716626,1.177451175359831,0.1873560845851898,-0.4836198389530182,0.095513716340065,0.1383330971002579,-0.01115183625370264,0.2090981006622314,XTrueNorthZVertical,-0.06304732394624536,0.6361285838811106,0.744908278202476,0.1909898409112747,0.3369171321392059,-0.9236320853233337,-0.1827309131622314,-2.651893615722656,-43.21011734008789,-3.060306549072266,2,192.168.1.8,10.83.46.32,1,0
2015-03-01 09:53:10.509,99,1425232389.265956,37.77936185823079,-122.4388403138415,55.88205,-1,-1,10,65,-9999,1425232390.486246,-3.292732238769531,-43.23190307617188,-2.713722229003906,130.7896575927734,117.011848449707,10,177197.018248875,0.230377197265625,-0.9941558837890625,-0.0099945068359375,177197.0018908333,0.4094567565419387,-1.039765467542514,0.4010387706523073,177196.9501194167,1.882998864296795,1.073836439716626,1.177451175359831,0.1873560845851898,-0.4836198389530182,0.095513716340065,0.1383330971002579,-0.01115183625370264,0.2090981006622314,XTrueNorthZVertical,-0.06304732394624536,0.6361285838811106,0.744908278202476,0.1909898409112747,0.3369171321392059,-0.9236320853233337,-0.1827309131622314,-2.651893615722656,-43.21011734008789,-3.060306549072266,2,192.168.1.8,10.83.46.32,1,0
2015-03-01 09:53:10.579,100,1425232389.265956,37.77936185823079,-122.4388403138415,55.88205,-1,-1,10,65,-9999,1425232390.538739,-3.514404296875,-43.180908203125,-1.632011413574219,131.6753082275391,117.8975067138672,10,177197.0672590417,0.1862335205078125,-1.020278930664062,-0.15155029296875,177197.0536622083,0.6247834506869875,-1.500435877111112,0.4502012570073881,177197.0536622083,1.837405494630766,1.022723454859134,1.231727973755954,0.6027199029922485,-1.486820816993713,0.4797172844409943,0.04774299636483192,-0.003437737002968788,0.1421908438205719,XTrueNorthZVertical,-0.01178113642430791,0.6428136957158439,0.7373439232501831,0.2073058099137091,0.2838915288448334,-0.9430649280548096,-0.1733035147190094,-3.886164665222168,-43.18829345703125,-1.783539295196533,2,192.168.1.8,10.83.46.32,1,0
2015-03-01 09:53:10.607,101,1425232389.265956,37.77936185823079,-122.4388403138415,55.88205,-1,-1,10,65,-9999,1425232390.594528,-4.196479797363281,-43.01095581054688,0.2318496704101562,134.7881774902344,121.0103759765625,10,177197.11629525,0.260162353515625,-1.007293701171875,-0.0507049560546875,177197.1054307917,0.2058530311993098,-0.5029491571380424,0.2019243359592249,177197.0536622083,1.837405494630766,1.022723454859134,1.231727973755954,0.6027199029922485,-1.486820816993713,0.4797172844409943,0.04774299636483192,-0.003437737002968788,0.1421908438205719,XTrueNorthZVertical,-0.01178113642430791,0.6428136957158439,0.7373439232501831,0.2073058099137091,0.2838915288448334,-0.9430649280548096,-0.1733035147190094,-3.886164665222168,-43.18829345703125,-1.783539295196533,2,192.168.1.8,10.83.46.32,1,0
2015-03-01 09:53:10.676,102,1425232389.265956,37.77936185823079,-122.4388403138415,55.88205,-1,-1,10,65,-9999,1425232390.668548,-5.151390075683594,-43.044921875,1.563186645507812,137.6851806640625,123.9073715209961,10,177197.165342625,0.267669677734375,-0.9428253173828125,0.05859375,177197.15720225,0.1016629788204668,-0.9443244319767989,0.1215128500053724,177197.15720225,1.824159558038191,0.9460409639908955,1.266972297045185,0.07959987968206406,-0.9307097196578979,0.1510282605886459,0.04751670360565186,0.02907430753111839,0.2248048931360245,XTrueNorthZVertical,0.03219399971308327,0.6414601123585399,0.7324335240328692,0.2259061886303625,0.2426596879959106,-0.9541994333267212,-0.174984946846962,-5.662710189819336,-43.02579498291016,0.4764890670776367,2,192.168.1.8,10.83.46.32,1,0
2015-03-01 09:53:10.701,103,1425232389.265956,37.77936185823079,-122.4388403138415,55.88205,-1,-1,10,65,-9999,1425232390.668548,-5.151390075683594,-43.044921875,1.563186645507812,137.6851806640625,123.9073715209961,10,177197.2144927917,0.213165283203125,-0.9873809814453125,-0.029022216796875,177197.2089737917,-0.07171812920750686,-0.1384494892738403,-0.1749651562443528,177197.15720225,1.824159558038191,0.9460409639908955,1.266972297045185,0.07959987968206406,-0.9307097196578979,0.1510282605886459,0.04751670360565186,0.02907430753111839,0.2248048931360245,XTrueNorthZVertical,0.03219399971308327,0.6414601123585399,0.7324335240328692,0.2259061886303625,0.2426596879959106,-0.9541994333267212,-0.174984946846962,-5.662710189819336,-43.02579498291016,0.4764890670776367,2,192.168.1.8,10.83.46.32,1,0
2015-03-01 09:53:10.773,104,1425232389.265956,37.77936185823079,-122.4388403138415,55.88205,-1,-1,10,65,-9999,1425232390.726412,-4.929710388183594,-42.9599609375,1.846084594726562,139.1756591796875,125.3978576660156,10,177197.2634418333,0.1092987060546875,-1.049423217773438,-0.081878662109375,177197.26074225,-0.1859818547256836,-0.1261275755422617,-0.1249192993556928,177197.2089737917,1.825574546262579,0.9205358817621296,1.265541482974759,-0.0937810093164444,-0.124834917485714,-0.1454500406980515,-0.03783442452549934,-0.01912999711930752,0.1751068234443665,XTrueNorthZVertical,0.04061499002163559,0.6382625179879367,0.7322722295744863,0.233984540225444,0.2392046600580215,-0.9537703990936279,-0.1819427609443665,-5.785791397094727,-43.00649642944336,0.6912527084350586,2,192.168.1.8,10.83.46.32,1,0
2015-03-01 09:53:10.801,105,1425232389.265956,37.77936185823079,-122.4388403138415,55.88205,-1,-1,10,65,-9999,1425232390.726412,-4.929710388183594,-42.9599609375,1.846084594726562,139.1756591796875,125.3978576660156,10,177197.312476125,0.1376953125,-1.08251953125,-0.131439208984375,177197.26074225,-0.1859818547256836,-0.1261275755422617,-0.1249192993556928,177197.26074225,1.837378933859206,0.9019894160966579,1.255891317432932,-0.2080445438623428,-0.1125131174921989,-0.09540444612503052,-0.1477540135383606,-0.08761108666658401,0.1113878637552261,XTrueNorthZVertical,0.04053453019793691,0.6342980694869994,0.7342707328997682,0.2384730682211219,0.2429993748664856,-0.9508258104324341,-0.1920458227396011,-5.455975532531738,-43.0537109375,0.349815845489502,2,192.168.1.8,10.83.46.32,1,0
2015-03-01 09:53:10.875,106,1425232389.265956,37.77936185823079,-122.4388403138415,55.88205,-1,-1,10,65,-9999,1425232390.800606,-4.486366271972656,-43.26582336425781,1.71295166015625,139.9109802246094,126.1331787109375,10,177197.3615104583,0.8748016357421875,-1.22607421875,-0.2489013671875,177197.364285125,-0.09780672156203209,1.278645424684332,-0.5054860843924519,177197.3125137917,1.865434795706579,0.9026324466840593,1.245869391636359,-0.2989878058433533,1.300861716270447,-0.07220784574747086,-0.1128951385617256,-0.1348454803228378,0.06634429842233658,XTrueNorthZVertical,0.02819053599608622,0.6327033585532903,0.7386189179743665,0.2309412269805386,0.250590443611145,-0.947674036026001,-0.1977835148572922,-5.359800338745117,-43.06672668457031,-0.2045817375183105,2,192.168.1.8,10.83.46.32,1,0
2015-03-01 09:53:10.897,107,1425232389.265956,37.77936185823079,-122.4388403138415,55.88205,-1,-1,10,65,-9999,1425232390.876247,-4.14532470703125,-43.2998046875,0.64788818359375,136.3924865722656,122.6146850585938,10,177197.410530125,0.690887451171875,-0.617828369140625,-0.280731201171875,177197.364285125,-0.09780672156203209,1.278645424684332,-0.5054860843924519,177197.364285125,1.862834862968346,0.9846071608908763,1.230173099795634,-0.1198689416050911,1.292259573936462,-0.4759718477725983,0.5964992046356201,-0.2835275828838348,-0.06409451365470886,XTrueNorthZVertical,-0.00635289601769308,0.638401293961171,0.740304342788819,0.2106013085955691,0.2783024609088898,-0.9425466656684875,-0.1848068535327911,-5.187785148620605,-43.08151245117188,-0.7631163597106934,2,192.168.1.8,10.83.46.32,1,0
2015-03-01 09:53:10.974,108,1425232389.265956,37.77936185823079,-122.4388403138415,55.88205,-1,-1,10,65,-9999,1425232390.928493,-3.429153442382812,-43.53768920898438,-0.31732177734375,134.7697448730469,120.9919357299805,10,177197.4595797917,-0.0172271728515625,-0.3914794921875,0.017242431640625,177197.467825125,-0.1407517920362139,-1.535212233573694,-0.5554714875243671,177197.4160536667,1.811266713522375,1.030109624230943,1.191496400471822,-0.2385375946760178,-1.267611980438232,-1.311418294906616,0.3734342455863953,0.3110957145690918,-0.09014389663934708,XTrueNorthZVertical,-0.01941297666361879,0.6358690782740186,0.7373702097852548,0.2271097265784052,0.3174532055854797,-0.9289240837097168,-0.1905872970819473,-3.145291328430176,-43.26405334472656,-1.356802940368652,2,192.168.1.8,10.83.46.32,1,0
2015-03-01 09:53:10.995,109,1425232389.265956,37.77936185823079,-122.4388403138415,55.88205,-1,-1,10,65,-9999,1425232390.979751,-1.502304077148438,-44.30239868164062,-1.066200256347656,140.0507049560547,126.2729034423828,10,177197.508607375,-0.3109283447265625,-0.7454681396484375,-0.0503387451171875,177197.467825125,-0.1407517920362139,-1.535212233573694,-0.5554714875243671,177197.467825125,1.773223599771339,0.9643100524196633,1.129046088224044,-0.16281358897686,-1.521598339080811,-0.5259578227996826,-0.3685034215450287,0.5125252604484558,0.26092329621315,XTrueNorthZVertical,-0.003976690883603293,0.6149339443971492,0.7368584423132659,0.2808559568581534,0.3512762486934662,-0.9040047526359558,-0.243680864572525,-0.6529130935668945,-43.34612655639648,-2.049199104309082,2,192.168.1.8,10.83.46.32,1,0
2015-03-01 09:53:11.074,110,1425232389.265956,37.77936185823079,-122.4388403138415,55.88205,-1,-1,10,65,-9999,1425232391.031491,-0.8543319702148438,-44.64225769042969,-1.698585510253906,142.9122619628906,129.1344604492188,10,177197.5576484583,1.001068115234375,-0.6070709228515625,-0.07391357421875,177197.5195967084,-0.2926624953559687,1.313705407803007,0.5447155125137552,177197.5195967084,1.813055816302769,0.9317678684774803,1.133541367457665,-0.3147240579128265,1.327319145202637,0.5742288827896118,-0.6566231250762939,0.3611786961555481,0.30992791056633,XTrueNorthZVertical,-0.002671232724689413,0.6113226901639949,0.7421492555960451,0.2747579261420585,0.3398964107036591,-0.9059174656867981,-0.25255486369133,-0.4058666229248047,-43.34078598022461,-2.218931198120117,2,192.168.1.8,10.83.46.32,1,0
2015-03-01 09:53:11.095,111,1425232389.265956,37.77936185823079,-122.4388403138415,55.88205,-1,-1,10,65,-9999,1425232391.083738,-1.638717651367188,-44.33638000488281,-1.399032592773438,139.1792907714844,125.401481628418,10,177197.6066734167,0.34051513671875,-1.233306884765625,-0.295074462890625,177197.5713651667,0.6326118127112754,-0.1317718791565757,0.8792319812453002,177197.5713651667,1.84152854460605,0.9696500043819601,1.181119230715403,0.6107292175292969,-0.118081733584404,0.9088631272315979,0.815661609172821,0.1144848987460136,0.0005362063529901206,XTrueNorthZVertical,-0.01000968571190624,0.6264736446446796,0.7420903608706442,0.2381858048114952,0.3132904469966888,-0.9250317811965942,-0.2148611545562744,-2.614216804504395,-43.27033996582031,-2.087011337280273,2,192.168.1.8,10.83.46.32,1,0
2015-03-01 09:53:11.176,112,1425232389.265956,37.77936185823079,-122.4388403138415,55.88205,-1,-1,10,65,-9999,1425232391.135308,-2.6959228515625,-44.030517578125,-0.8665084838867188,138.6164245605469,124.838623046875,10,177197.6557161667,0.3223419189453125,-1.111709594726562,-0.1456451416015625,177197.6231365833,-0.001377919548006998,-0.5882379563122661,-0.1221474812931383,177197.6231365833,1.865662271552187,0.8894100576685962,1.200757172283212,-0.02326032333076,-0.5745479464530945,-0.09251660853624344,-0.0750388503074646,-0.3740527927875519,-0.1623581498861313,XTrueNorthZVertical,0.0185972141061436,0.6210935734528857,0.7431044783027703,0.2483800586251738,0.2808951735496521,-0.9323132038116455,-0.2277938276529312,-3.828418731689453,-43.20146560668945,-1.577566623687744,2,192.168.1.8,10.83.46.32,1,0
2015-03-01 09:53:11.194,113,1425232389.265956,37.77936185823079,-122.4388403138415,55.88205,-1,-1,10,65,-9999,1425232391.135308,-2.6959228515625,-44.030517578125,-0.8665084838867188,138.6164245605469,124.838623046875,10,177197.704732,0.50433349609375,-0.9656829833984375,-0.0678253173828125,177197.6749080833,0.1701445683552004,0.09929143386975126,0.06691032449158681,177197.6749080833,1.859345038482724,0.8979949130030215,1.196770272890831,0.1482623815536499,0.1129813194274902,0.0965408980846405,0.09584666043519974,-0.02200169116258621,0.1512725949287415,XTrueNorthZVertical,0.01609432666245729,0.6212058179020198,0.7427822608700015,0.2492364739440747,0.2857451438903809,-0.9308639168739319,-0.2276886105537415,-3.679997444152832,-43.21346664428711,-1.601871967315674,2,192.168.1.8,10.83.46.32,1,0
2015-03-01 09:53:11.273,114,1425232389.265956,37.77936185823079,-122.4388403138415,55.88205,-1,-1,10,65,-9999,1425232391.242377,-2.747085571289062,-43.46977233886719,0.1153411865234375,139.7579193115234,125.9801177978516,10,177197.7537774167,0.2552337646484375,-0.7076263427734375,-0.193572998046875,177197.7266768334,0.2160662539797637,-0.2121873598520633,-0.2678072129022592,177197.7266768334,1.831700527271426,0.9168485306800437,1.207473385274892,0.1941843181848526,-0.1984976232051849,-0.2381769716739655,0.09925437718629837,0.04362304881215096,0.09295771270990372,XTrueNorthZVertical,0.02118205984324043,0.6256656235755873,0.738503553618588,0.2504123632382145,0.2820627689361572,-0.934721052646637,-0.2161877006292343,-3.783866882324219,-43.22261428833008,-1.000089168548584,2,192.168.1.8,10.83.46.32,1,0
2015-03-01 09:53:11.290,115,1425232389.265956,37.77936185823079,-122.4388403138415,55.88205,-1,-1,10,65,-9999,1425232391.242377,-2.747085571289062,-43.46977233886719,0.1153411865234375,139.7579193115234,125.9801177978516,10,177197.8028114584,0.24359130859375,-0.8414154052734375,-0.06268310546875,177197.778448125,-0.007189203362668904,0.09866186258805652,-0.731510962952458,177197.778448125,1.770471664176807,0.9694529665586303,1.188284206325181,-0.02907092869281769,0.1123514622449875,-0.7018809914588928,-0.05624907463788986,-0.007755930535495281,0.03260935097932816,XTrueNorthZVertical,0.01470815683335981,0.6278533430797035,0.732667161773627,0.2622645273727364,0.3077749609947205,-0.9277299046516418,-0.2111676931381226,-2.805704116821289,-43.30382537841797,-0.6471948623657227,2,192.168.1.8,10.83.46.32,1,0
2015-03-01 09:53:11.368,116,1425232389.265956,37.77936185823079,-122.4388403138415,55.88205,-1,-1,10,65,-9999,1425232391.317515,-1.417037963867188,-43.945556640625,1.147132873535156,143.2076721191406,129.4298706054688,10,177197.851873625,0.3510589599609375,-0.961090087890625,0.0764923095703125,177197.8302197084,-0.07970947669050762,-0.1266966930672117,-1.084092452306338,177197.8302197084,1.712571877281831,1.028961954843209,1.155177925508333,-0.1015910059213638,-0.1130072176456451,-1.054462790489197,-0.01322081871330738,0.2505296468734741,0.04684332013130188,XTrueNorthZVertical,2.946006530917e-05,0.629197792498385,0.7269976345765744,0.2749264973053528,0.3459234535694122,-0.9148668050765991,-0.2082202732563019,-1.903871536254883,-43.35254287719727,-0.6667237281799316,2,192.168.1.8,10.83.46.32,1,0
2015-03-01 09:53:11.389,117,1425232389.265956,37.77936185823079,-122.4388403138415,55.88205,-1,-1,10,65,-9999,1425232391.368577,0.7656021118164062,-44.62528991699219,1.047286987304688,145.7175598144531,131.9397583007812,10,177197.9010131667,0.5565185546875,-0.6631927490234375,-0.0958251953125,177197.8819882083,-0.2211286568958953,0.2877518926219716,-1.241086597514836,177197.8302197084,1.712571877281831,1.028961954843209,1.155177925508333,-0.1015910059213638,-0.1130072176456451,-1.054462790489197,-0.01322081871330738,0.2505296468734741,0.04684332013130188,XTrueNorthZVertical,2.946006530917e-05,0.629197792498385,0.7269976345765744,0.2749264973053528,0.3459234535694122,-0.9148668050765991,-0.2082202732563019,-1.903871536254883,-43.35254287719727,-0.6667237281799316,2,192.168.1.8,10.83.46.32,1,0
2015-03-01 09:53:11.474,118,1425232389.265956,37.77936185823079,-122.4388403138415,55.88205,-1,-1,10,65,-9999,1425232391.421439,3.732612609863281,-44.69326782226562,0.7144546508789062,148.7618713378906,134.9840698242188,10,177197.949964375,0.452362060546875,-0.5032196044921875,0.0041046142578125,177197.9337597917,-0.7398535813832402,-0.4974465336937208,-1.816036445252042,177197.9337597917,1.635548733954973,1.085576133520708,1.022480889519519,-0.7617346048355103,-0.483757346868515,-1.786407351493835,-0.01845666207373142,0.1897990703582764,0.2718756198883057,XTrueNorthZVertical,-0.04219269360942338,0.6137290706426936,0.717693593173218,0.3263009551402104,0.4610836207866669,-0.8534038066864014,-0.2431128025054932,4.235631942749023,-43.15584945678711,-1.773262023925781,2,192.168.1.8,10.83.46.32,1,0
2015-03-01 09:53:11.486,119,1425232389.265956,37.77936185823079,-122.4388403138415,55.88205,-1,-1,10,65,-9999,1425232391.476925,7.432861328125,-44.23445129394531,-1.0994873046875,153.1495819091797,139.3717803955078,10,177197.998997375,0.4520263671875,-0.85113525390625,-0.027587890625,177197.9855311667,-0.586181463318507,-1.17414644561904,-2.336218651487878,177197.9855311667,1.603490291005099,1.075478975206408,0.9106955937692526,-0.6080623269081116,-1.160457372665405,-2.306589841842651,-0.1251487880945206,0.1041394472122192,0.05484089627861977,XTrueNorthZVertical,-0.06786883341599702,0.5913242358934934,0.7109261191471182,0.3745844699976311,0.5395011901855469,-0.7899304628372192,-0.291458934545517,6.623811721801758,-42.79494476318359,-2.868821144104004,2,192.168.1.8,10.83.46.32,1,0
2015-03-01 09:53:11.567,120,1425232389.265956,37.77936185823079,-122.4388403138415,55.88205,-1,-1,10,65,-9999,1425232391.550435,15.12323379516602,-42.75605773925781,-3.845352172851562,164.4823760986328,150.7045745849609,10,177198.0480549583,0.5169219970703125,-0.4365081787109375,-0.3549346923828125,177198.0372997083,-0.562120601817968,0.08482620809287687,-2.578436082107785,177197.9855311667,1.603490291005099,1.075478975206408,0.9106955937692526,-0.6080623269081116,-1.160457372665405,-2.306589841842651,-0.1251487880945206,0.1041394472122192,0.05484089627861977,XTrueNorthZVertical,-0.06786883341599702,0.5913242358934934,0.7109261191471182,0.3745844699976311,0.5395011901855469,-0.7899304628372192,-0.291458934545517,6.623811721801758,-42.79494476318359,-2.868821144104004,2,192.168.1.8,10.83.46.32,1,0
2015-03-01 09:53:11.585,121,1425232389.265956,37.77936185823079,-122.4388403138415,55.88205,-1,-1,10,65,-9999,1425232391.550435,15.12323379516602,-42.75605773925781,-3.845352172851562,164.4823760986328,150.7045745849609,10,177198.09714775,0.5801544189453125,-0.6685791015625,-0.305755615234375,177198.0890711667,-0.4051118092234745,-0.1329455342489736,-3.078405694618246,177198.0372997083,1.560290541694537,1.078044561408932,0.7883618107013908,-0.5840012431144714,0.09851513803005219,-2.548807621002197,-0.184551939368248,0.09564337879419327,0.2540225088596344,XTrueNorthZVertical,-0.09907459324008619,0.5687103482519679,0.6974818717877375,0.4245842741390359,0.6211364269256592,-0.7091993093490601,-0.3335055410861969,13.80576324462891,-40.77034378051758,-5.540043354034424,2,192.168.1.8,10.83.46.32,1,0
2015-03-01 09:53:11.666,122,1425232389.265956,37.77936185823079,-122.4388403138415,55.88205,-1,-1,10,65,-9999,1425232391.655043,25.62715148925781,-38.57572937011719,-6.408157348632812,175.4746704101562,161.6968688964844,10,177198.1461250834,0.921112060546875,-0.430572509765625,-0.3593292236328125,177198.140842875,-0.4441289834058983,0.479845702049387,-2.485870461571028,177198.140842875,1.451083630353813,1.158056277732987,0.5249746348083861,-0.4660091698169708,0.4935343563556671,-2.456242561340332,0.2236872613430023,-0.04585178941488266,0.0691504180431366,XTrueNorthZVertical,-0.188173972280777,0.539479653793094,0.6425871854112896,0.5105232325740079,0.7926701307296753,-0.5011910796165466,-0.3471045196056366,21.95362854003906,-36.83002471923828,-6.715621471405029,2,192.168.1.8,10.83.46.32,1,0
2015-03-01 09:53:11.681,123,1425232389.265956,37.77936185823079,-122.4388403138415,55.88205,-1,-1,10,65,-9999,1425232391.655043,25.62715148925781,-38.57572937011719,-6.408157348632812,175.4746704101562,161.6968688964844,10,177198.1951540833,0.9764251708984375,-0.37322998046875,-0.2200927734375,177198.140842875,-0.4441289834058983,0.479845702049387,-2.485870461571028,177198.140842875,1.451083630353813,1.158056277732987,0.5249746348083861,-0.4660091698169708,0.4935343563556671,-2.456242561340332,0.2236872613430023,-0.04585178941488266,0.0691504180431366,XTrueNorthZVertical,-0.188173972280777,0.539479653793094,0.6425871854112896,0.5105232325740079,0.7926701307296753,-0.5011910796165466,-0.3471045196056366,21.95362854003906,-36.83002471923828,-6.715621471405029,2,192.168.1.8,10.83.46.32,1,0
2015-03-01 09:53:11.767,124,1425232389.265956,37.77936185823079,-122.4388403138415,55.88205,-1,-1,10,65,-9999,1425232391.757104,33.41983413696289,-31.18363952636719,-8.155532836914062,186.4177856445312,172.6399841308594,10,177198.244211375,1.266128540039062,-0.0557098388671875,-0.24285888671875,177198.2443827917,-0.08939193146570872,-0.0554656560230803,-2.154958581374905,177198.1926112917,1.429626124290859,1.174096550780257,0.3977670862296405,-0.6225820779800415,0.1896483600139618,-2.465415000915527,0.0519198551774025,-0.03237804770469666,0.1631267070770264,XTrueNorthZVertical,-0.2316845743162832,0.5178962698935796,0.6176275493210659,0.5446484412234324,0.8503323197364807,-0.3873607218265533,-0.3562114238739014,28.61878776550293,-31.71857070922852,-7.642599105834961,2,192.168.1.8,10.83.46.32,1,0
2015-03-01 09:53:11.780,125,1425232389.265956,37.77936185823079,-122.4388403138415,55.88205,-1,-1,10,65,-9999,1425232391.757104,33.41983413696289,-31.18363952636719,-8.155532836914062,186.4177856445312,172.6399841308594,10,177198.293230375,1.177520751953125,-0.0848236083984375,-0.193145751953125,177198.2961542917,0.08709815081882347,-0.1429358504461878,-1.613631408716058,177198.2443827917,1.398656245195685,1.191050836670149,0.2876516806479152,-0.1112716868519783,-0.04177729040384293,-2.125331163406372,0.3755297064781189,0.2279913425445557,0.1125948205590248,XTrueNorthZVertical,-0.2665483760559789,0.5012236112226578,0.5889187634818701,0.5752404256891938,0.8905988335609436,-0.2837011814117432,-0.3554536998271942,31.80915641784668,-28.44910049438477,-7.895467758178711,2,192.168.1.8,10.83.46.32,4,0
2015-03-01 09:53:11.869,126,1425232389.265956,37.77936185823079,-122.4388403138415,55.88205,-1,-1,10,65,-9999,1425232391.809847,36.47211074829102,-27.86996459960938,-9.137397766113281,189.8848876953125,176.1070861816406,10,177198.34227975,1.231033325195312,0.0673065185546875,-0.368011474609375,177198.2961542917,0.08709815081882347,-0.1429358504461878,-1.613631408716058,177198.2961542917,1.368611452576504,1.195592452861461,0.2039775469959154,0.06521861255168915,-0.1292476058006287,-1.584004402160645,0.2663770020008087,0.1177424043416977,0.165719211101532,XTrueNorthZVertical,-0.2887223503444545,0.4870389366572425,0.5641948711596105,0.6009298033063498,0.9111437797546387,-0.2025660127401352,-0.358864963054657,33.42539978027344,-26.4774227142334,-8.074698448181152,2,192.168.1.8,10.83.46.32,4,0
2015-03-01 09:53:11.878,127,1425232389.265956,37.77936185823079,-122.4388403138415,55.88205,-1,-1,10,65,-9999,1425232391.861122,38.41601943969727,-25.38896179199219,-9.104110717773438,194.7212524414062,180.9434509277344,10,177198.3913036667,1.271957397460938,0.07379150390625,-0.279266357421875,177198.3479229583,0.03410816934508083,-0.02547579898769799,-0.7198889279553522,177198.3479229583,1.342567615670819,1.196517620997381,0.1512021612119059,0.01222882885485888,-0.01178769208490849,-0.6902621984481812,0.3108811974525452,0.2179332077503204,-0.006581459194421768,XTrueNorthZVertical,-0.3004386614033804,0.4785620157596373,0.5458031138738281,0.6187196224826818,0.9201521277427673,-0.1506266891956329,-0.3614300191402435,35.99034118652344,-22.83913993835449,-8.159727096557617,2,192.168.1.8,10.83.46.32,4,0
2015-03-01 09:53:11.965,128,1425232389.265956,37.77936185823079,-122.4388403138415,55.88205,-1,-1,10,65,-9999,1425232391.913172,39.28566741943359,-24.08049011230469,-8.854484558105469,196.6351470947266,182.8573455810547,10,177198.4403626667,1.226333618164062,0.02825927734375,-0.325042724609375,177198.451465875,0.2885564335872846,0.08608987803011947,0.7740467055670945,177198.3996945833,1.331636385154855,1.196494439930776,0.1392550938948436,0.1280752271413803,-0.2015822678804398,0.07515742629766464,0.3502044081687927,0.2125969678163528,0.08281712979078293,XTrueNorthZVertical,-0.3018345835114165,0.4773406948834993,0.5399992344579893,0.6240533427061149,0.9217529892921448,-0.1388054639101028,-0.3620834946632385,36.41847229003906,-22.19061660766602,-8.048833847045898,2,192.168.1.8,10.83.46.32,4,0
2015-03-01 09:53:11.975,129,1425232389.265956,37.77936185823079,-122.4388403138415,55.88205,-1,-1,10,65,-9999,1425232391.964822,39.18335723876953,-23.84257507324219,-8.455093383789062,197.5407257080078,183.7629241943359,10,177198.4894032917,1.152999877929688,-0.01495361328125,-0.28411865234375,177198.451465875,0.2885564335872846,0.08608987803011947,0.7740467055670945,177198.451465875,1.328186308345271,1.194047268359458,0.1640957962440995,0.2666775584220886,0.0997776985168457,0.8036727905273438,0.2506250739097595,0.1672208160161972,0.05501966923475266,XTrueNorthZVertical,-0.2919595139454028,0.4829917144454794,0.5442928859369106,0.6206640821454966,0.9173741936683655,-0.1633603423833847,-0.3629572987556458,36.26633834838867,-22.40604209899902,-8.13844108581543,2,192.168.1.8,10.83.46.32,4,0
2015-03-01 09:53:12.035,130,1425232389.265956,37.77936185823079,-122.4388403138415,55.88205,-1,-1,10,65,-9999,1425232392.017094,38.48423004150391,-25.35498046875,-7.406661987304688,196.9720153808594,183.1942138671875,10,177198.538461,1.115386962890625,-0.06573486328125,-0.2220458984375,177198.5032347083,0.4370625517694821,0.1542385724285931,1.298039895322834,177198.5032347083,1.33325942677498,1.199894436996261,0.2211306018126873,0.4151839017868042,0.1679262518882751,1.327665686607361,0.2622478604316711,0.1811705976724625,0.08136779814958572,XTrueNorthZVertical,-0.2754091976495254,0.4973274466815727,0.5562013590771562,0.6061808602564245,0.9093067049980164,-0.219332829117775,-0.3536303639411926,34.76128387451172,-24.9169921875,-7.369440078735352,2,192.168.1.8,10.83.46.32,4,0
2015-03-01 09:53:12.073,131,1425232389.265956,37.77936185823079,-122.4388403138415,55.88205,-1,-1,10,65,-9999,1425232392.0692,36.86430358886719,-28.1248779296875,-6.624504089355469,193.3640747070312,179.5862731933594,10,177198.5874924583,1.1202392578125,-0.25897216796875,-0.2361602783203125,177198.5550060417,0.5495752488709318,0.28020369514436,1.786388271784517,177198.5550060417,1.342284321629849,1.206042257247753,0.3044709999644267,0.5276967883110046,0.2938912510871887,1.816013813018799,0.2395094782114029,0.1877890378236771,0.1266589164733887,XTrueNorthZVertical,-0.250798594476876,0.5166660674836137,0.5736247433071155,0.5840469982274974,0.8912431001663208,-0.2997885346412659,-0.3403124809265137,32.98513793945312,-27.40866851806641,-6.652636528015137,2,192.168.1.8,10.83.46.32,4,0
2015-03-01 09:53:12.136,132,1425232389.265956,37.77936185823079,-122.4388403138415,55.88205,-1,-1,10,65,-9999,1425232392.124212,34.42589569091797,-31.33659362792969,-5.243247985839844,188.0216522216797,174.2438507080078,10,177198.6365459167,1.021804809570312,-0.42535400390625,-0.167266845703125,177198.6067777083,0.5281011157371869,0.4255004378969031,2.274489240580932,177198.6067777083,1.353694224042601,1.222105190499972,0.4121608349503406,0.5063136219978333,0.439300149679184,2.304208755493164,0.2444731742143631,0.1483318358659744,0.06964761763811111,XTrueNorthZVertical,-0.2210949964506136,0.5427606212866944,0.5936630213289602,0.5514454915808248,0.8611176609992981,-0.4005901515483856,-0.3130558133125305,31.42924880981445,-29.34882926940918,-5.861793518066406,2,192.168.1.8,10.83.46.32,4,0
2015-03-01 09:53:12.173,133,1425232389.265956,37.77936185823079,-122.4388403138415,55.88205,-1,-1,10,65,-9999,1425232392.124212,34.42589569091797,-31.33659362792969,-5.243247985839844,188.0216522216797,174.2438507080078,10,177198.68558625,0.8871917724609375,-0.5623626708984375,-0.188507080078125,177198.6585462083,0.5570542041602012,0.3415935530123216,2.589697258777184,177198.6585462083,1.373728615364302,1.233203354901273,0.5388254199229336,0.5352669954299927,0.3553931415081024,2.619416475296021,0.2013814598321915,0.002248673001304269,0.09967134147882462,XTrueNorthZVertical,-0.1855510249965341,0.5687065177370322,0.6176927818774594,0.5104893177882394,0.8098642826080322,-0.5131281614303589,-0.2842874228954315,25.8764762878418,-34.64419555664062,-3.701333522796631,2,192.168.1.8,10.83.46.32,4,0
2015-03-01 09:53:12.235,134,1425232389.265956,37.77936185823079,-122.4388403138415,55.88205,-1,-1,10,65,-9999,1425232392.198502,28.23608779907227,-36.55351257324219,-2.697074890136719,180.590087890625,166.8122863769531,10,177198.734648125,0.6959381103515625,-0.8626861572265625,-0.16778564453125,177198.7103179167,0.4123039420633425,0.1378361632747951,2.837296405327922,177198.7103179167,1.403858072307721,1.227879360015688,0.6765046624061688,0.3905169069766998,0.1516356021165848,2.867015600204468,0.1169216483831406,-0.07635178416967392,0.06530091166496277,XTrueNorthZVertical,-0.1437818768255889,0.5901137504185732,0.6438495848105015,0.4653495977821884,0.7343661785125732,-0.6260713338851929,-0.2621850669384003,21.48066711425781,-37.61791229248047,-2.643020153045654,2,192.168.1.8,10.83.46.32,4,0
2015-03-01 09:53:12.271,135,1425232389.265956,37.77936185823079,-122.4388403138415,55.88205,-1,-1,10,65,-9999,1425232392.250355,22.89886856079102,-39.73124694824219,-1.082832336425781,173.728271484375,159.9504699707031,10,177198.7836849167,0.438232421875,-0.9139862060546875,-0.1994476318359375,177198.76208925,0.2548029972994023,0.2010801138936698,2.987660611002668,177198.76208925,1.455429054507821,1.204694478378474,0.8197675163917238,0.2330161780118942,0.2148794382810593,3.017379522323608,0.01779922842979431,-0.15754733979702,0.03929468616843224,XTrueNorthZVertical,-0.1004585081665361,0.6064383387277694,0.6712916975771113,0.4141353507916949,0.6371690034866333,-0.7309871912002563,-0.2442812621593475,18.14416885375977,-39.36756896972656,-2.120296955108643,2,192.168.1.8,10.83.46.32,4,0
2015-03-01 09:53:12.337,136,1425232389.265956,37.77936185823079,-122.4388403138415,55.88205,-1,-1,10,65,-9999,1425232392.302275,16.69199752807617,-42.28022766113281,-0.01776123046875,166.5728454589844,152.7950439453125,10,177198.83274425,0.3180084228515625,-0.912322998046875,-0.0983428955078125,177198.8138580417,0.2701308209533533,-0.1052776873680314,2.886501235944335,177198.8138580417,1.533317191064669,1.139651272852486,0.9590766880333103,0.2483442276716232,-0.09147851169109344,2.916219711303711,-0.1735783219337463,-0.09279156476259232,0.121496744453907,XTrueNorthZVertical,-0.05225560854037987,0.6142239820180685,0.6975028203733562,0.3653601913378335,0.5217228531837463,-0.8186616897583008,-0.2399965077638626,9.044244766235352,-42.42288970947266,-1.418513298034668,2,192.168.1.8,10.83.46.32,4,0
2015-03-01 09:53:12.372,137,1425232389.265956,37.77936185823079,-122.4388403138415,55.88205,-1,-1,10,65,-9999,1425232392.352873,10.10998916625977,-44.115478515625,0.8476028442382812,158.6791076660156,144.9013061523438,10,177198.8817727917,0.15216064453125,-0.243438720703125,0.0113372802734375,177198.8656294167,0.6179537740714792,0.0749594625702423,3.105174458315178,177198.8138580417,1.533317191064669,1.139651272852486,0.9590766880333103,0.2483442276716232,-0.09147851169109344,2.916219711303711,-0.1735783219337463,-0.09279156476259232,0.121496744453907,XTrueNorthZVertical,-0.05225560854037987,0.6142239820180685,0.6975028203733562,0.3653601913378335,0.5217228531837463,-0.8186616897583008,-0.2399965077638626,9.044244766235352,-42.42288970947266,-1.418513298034668,2,192.168.1.8,10.83.46.32,4,0
2015-03-01 09:53:12.438,138,1425232389.265956,37.77936185823079,-122.4388403138415,55.88205,-1,-1,10,65,-9999,1425232392.406613,3.323371887207031,-44.72724914550781,1.613121032714844,150.0868377685547,136.3090362548828,10,177198.930815375,0.353973388671875,-0.4985198974609375,-0.1486053466796875,177198.9174010833,1.346301966913359,0.9991677072531276,2.415109738775405,177198.9174010833,1.708607183176497,1.018570211641926,1.251684422804478,1.324515700340271,1.012966632843018,2.444827556610107,-0.07701248675584793,0.7439937591552734,0.1424184590578079,XTrueNorthZVertical,0.03789950729818484,0.6451949475323547,0.7211882657023355,0.2493483406638145,0.2670912146568298,-0.9495143890380859,-0.1645742207765579,-0.7881040573120117,-43.3918571472168,0.1943607330322266,2,192.168.1.8,10.83.46.32,4,0
2015-03-01 09:53:12.476,139,1425232389.265956,37.77936185823079,-122.4388403138415,55.88205,-1,-1,10,65,-9999,1425232392.457317,-2.218467712402344,-43.69064331054688,3.360496520996094,142.0773315429688,128.2995300292969,10,177198.9798494584,0.7943115234375,-0.5762481689453125,-0.238616943359375,177198.969169625,-0.07978005045939474,0.7585537659255586,-0.3443805510930895,177198.9174010833,1.708607183176497,1.018570211641926,1.251684422804478,1.324515700340271,1.012966632843018,2.444827556610107,-0.07701248675584793,0.7439937591552734,0.1424184590578079,XTrueNorthZVertical,0.03789950729818484,0.6451949475323547,0.7211882657023355,0.2493483406638145,0.2670912146568298,-0.9495143890380859,-0.1645742207765579,-0.7881040573120117,-43.3918571472168,0.1943607330322266,2,192.168.1.8,10.83.46.32,4,0
2015-03-01 09:53:12.535,140,1425232389.265956,37.77936185823079,-122.4388403138415,55.88205,-1,-1,10,65,-9999,1425232392.508631,-4.690986633300781,-42.99392700195312,4.109367370605469,136.3164215087891,122.5386199951172,10,177199.0289054583,-0.0582427978515625,-0.8513031005859375,-0.16229248046875,177199.0209412917,-0.2131024220026145,-1.579019901924952,-0.8160026780124209,177199.0209412917,1.702482089220263,1.041090813264552,1.273574004827238,-0.2348881363868713,-1.565221309661865,-0.786285400390625,-0.2963396012783051,0.01178720779716969,0.2436056733131409,XTrueNorthZVertical,0.03922861505059025,0.6515149253872619,0.7195057595626608,0.2372780695055184,0.2527299821376801,-0.9561536908149719,-0.1479788422584534,-5.449047088623047,-43.00186920166016,2.158511161804199,2,192.168.1.8,10.83.46.32,4,0
2015-03-01 09:53:12.575,141,1425232389.265956,37.77936185823079,-122.4388403138415,55.88205,-1,-1,10,65,-9999,1425232392.560995,-3.32684326171875,-43.4697265625,3.543556213378906,141.6412811279297,127.8634719848633,10,177199.0779307917,-0.103424072265625,-0.6905517578125,0.1096038818359375,177199.0727126667,-0.8497156342517339,0.6422892074804053,-1.328417242296823,177199.0209412917,1.702482089220263,1.041090813264552,1.273574004827238,-0.2348881363868713,-1.565221309661865,-0.786285400390625,-0.2963396012783051,0.01178720779716969,0.2436056733131409,XTrueNorthZVertical,0.03922861505059025,0.6515149253872619,0.7195057595626608,0.2372780695055184,0.2527299821376801,-0.9561536908149719,-0.1479788422584534,-5.449047088623047,-43.00186920166016,2.158511161804199,2,192.168.1.8,10.83.46.32,1,0
2015-03-01 09:53:12.624,142,1425232389.265956,37.77936185823079,-122.4388403138415,55.88205,-1,-1,10,65,-9999,1425232392.612881,0.3051986694335938,-44.540283203125,2.26214599609375,144.6399230957031,130.8621215820312,10,177199.1269697083,0.511383056640625,-0.2707977294921875,-0.4197845458984375,177199.1244815,-1.070064251264345,-0.03166045798718901,-2.91219008781924,177199.0727126667,1.672830051897125,1.032586758580329,1.21648581250399,-0.8715011477470398,0.6560876965522766,-1.298700213432312,-0.5068952441215515,0.06552569568157196,0.06588947772979736,XTrueNorthZVertical,0.03231467824241795,0.6403390927986177,0.7187663385672058,0.2688801980434586,0.297895610332489,-0.9378859400749207,-0.1778432130813599,-4.169651031494141,-43.14595794677734,2.133667469024658,2,192.168.1.8,10.83.46.32,1,0
2015-03-01 09:53:12.674,143,1425232389.265956,37.77936185823079,-122.4388403138415,55.88205,-1,-1,10,65,-9999,1425232392.612881,0.3051986694335938,-44.540283203125,2.26214599609375,144.6399230957031,130.8621215820312,10,177199.1759964167,0.0894317626953125,-0.898590087890625,-0.2021026611328125,177199.1244815,-1.070064251264345,-0.03166045798718901,-2.91219008781924,177199.1244815,1.622448876488506,1.144902237231577,1.091474855461234,-1.091849446296692,-0.0178620982915163,-2.882473230361938,0.2132901400327682,0.7155246138572693,-0.1173328012228012,XTrueNorthZVertical,-0.03530219480090765,0.635208226219599,0.7146040507199912,0.2908699325008242,0.4199801385402679,-0.8873080611228943,-0.1905285269021988,1.863707542419434,-43.35920715332031,-0.1329350471496582,2,192.168.1.8,10.83.46.32,1,0
2015-03-01 09:53:12.724,144,1425232389.265956,37.77936185823079,-122.4388403138415,55.88205,-1,-1,10,65,-9999,1425232392.716207,11.06489181518555,-43.91152954101562,-1.049537658691406,155.0879821777344,141.3101806640625,10,177199.225046125,0.7666473388671875,-0.9116363525390625,-0.0201568603515625,177199.2280245833,-0.6753901693012182,0.1599222908270402,-2.279219014676912,177199.176252875,1.581869114346143,1.163781194458139,0.9647398870403147,-0.9399995803833008,0.2839692533016205,-2.582116603851318,-0.4336638152599335,-0.07668931037187576,0.02339707873761654,XTrueNorthZVertical,-0.07367776553407758,0.6179172408070456,0.7054964367116777,0.339152842712106,0.5230956077575684,-0.8219007849693298,-0.2254997342824936,6.755598068237305,-42.84470367431641,-1.485057830810547,2,192.168.1.8,10.83.46.32,1,0
2015-03-01 09:53:12.774,145,1425232389.265956,37.77936185823079,-122.4388403138415,55.88205,-1,-1,10,65,-9999,1425232392.716207,11.06489181518555,-43.91152954101562,-1.049537658691406,155.0879821777344,141.3101806640625,10,177199.2740655,0.7771148681640625,-0.437774658203125,-0.0822296142578125,177199.2280245833,-0.6753901693012182,0.1599222908270402,-2.279219014676912,177199.2280245833,1.559345991627177,1.205538676313191,0.8242281546707231,-0.6971750259399414,0.1737203598022461,-2.249502897262573,0.1323242038488388,-0.1776125282049179,0.2224193215370178,XTrueNorthZVertical,-0.1305574921814202,0.6013872740471474,0.6921464650372856,0.3771224752505386,0.6343231201171875,-0.7340238094329834,-0.2425761818885803,10.27394390106201,-42.08876037597656,-2.548455238342285,2,192.168.1.8,10.83.46.32,1,0
2015-03-01 09:53:12.822,146,1425232389.265956,37.77936185823079,-122.4388403138415,55.88205,-1,-1,10,65,-9999,1425232392.768075,16.45326995849609,-42.45011901855469,-2.613845825195312,159.1765747070312,145.3987731933594,10,177199.3232145,0.52020263671875,-0.673431396484375,-0.2859344482421875,177199.3315647917,-0.1779452335041515,0.07780505019499197,-3.041321442755002,177199.2797930833,1.553117357981431,1.176438400733887,0.703453655799595,-1.079735994338989,-1.335516810417175,-2.314689159393311,0.07303766161203384,0.2090806812047958,0.2107779979705811,XTrueNorthZVertical,-0.1606171143899047,0.5724494179731108,0.6837114818384249,0.4231340432804665,0.7040771842002869,-0.646855354309082,-0.2930076122283936,17.57652282714844,-39.35531234741211,-5.073204040527344,2,192.168.1.8,10.83.46.32,1,0
2015-03-01 09:53:12.874,147,1425232389.265956,37.77936185823079,-122.4388403138415,55.88205,-1,-1,10,65,-9999,1425232392.821946,21.85869598388672,-40.66584777832031,-4.727333068847656,167.7992248535156,154.0214233398438,10,177199.372137875,1.009475708007812,-0.2973175048828125,-0.2721405029296875,177199.3315647917,-0.1779452335041515,0.07780505019499197,-3.041321442755002,177199.3315647917,1.521152512809496,1.16240513857536,0.5684458075905323,-0.1997296512126923,0.09160285443067551,-3.011605978012085,-0.2532299757003784,-0.135108470916748,0.04874516651034355,XTrueNorthZVertical,-0.1934973220423263,0.5433405740347845,0.6645667739923831,0.475069271189603,0.7734326124191284,-0.538322925567627,-0.3346796035766602,21.75791168212891,-36.87196350097656,-7.110814094543457,2,192.168.1.8,10.83.46.32,1,0
