loggingTime,loggingSample,locationTimestamp_since1970,locationLatitude,locationLongitude,locationAltitude,locationSpeed,locationCourse,locationVerticalAccuracy,locationHorizontalAccuracy,locationFloor,locationHeadingTimestamp_since1970,locationHeadingX,locationHeadingY,locationHeadingZ,locationTrueHeading,locationMagneticHeading,locationHeadingAccuracy,accelerometerTimestamp_sinceReboot,accelerometerAccelerationX,accelerometerAccelerationY,accelerometerAccelerationZ,gyroTimestamp_sinceReboot,gyroRotationX,gyroRotationY,gyroRotationZ,motionTimestamp_sinceReboot,motionYaw,motionRoll,motionPitch,motionRotationRateX,motionRotationRateY,motionRotationRateZ,motionUserAccelerationX,motionUserAccelerationY,motionUserAccelerationZ,motionAttitudeReferenceFrame,motionQuaternionX,motionQuaternionY,motionQuaternionZ,motionQuaternionW,motionGravityX,motionGravityY,motionGravityZ,motionMagneticFieldX,motionMagneticFieldY,motionMagneticFieldZ,motionMagneticFieldCalibrationAccuracy,IP_en0,IP_pdp_ip0,deviceOrientation,state
2015-03-09 08:06:54.428,1,1425913614.274031,37.77936915404888,-122.4389868603297,62.90787,0.33,214.1015625,3,10,-9999,1425913614.405327,-6.296546936035156,-33.66188049316406,-29.91232299804688,60.78513336181641,47.00994873046875,10,348449.9641659167,0.2334747314453125,-0.949005126953125,-0.3072967529296875,348449.9339020834,-0.04211762632349415,0.05122164250993002,-0.07583351204000631,348449.9339020834,-2.61097501487414,0.6113457128810372,1.218198267801182,-0.05301157012581825,0.06316522508859634,-0.04111840948462486,-0.01852568611502647,0.01045438274741173,-0.001406463677994907,XTrueNorthZVertical,-0.3812425038465215,0.4618007275544115,0.7096336484681811,-0.3712335345647393,0.1982131898403168,-0.9384786486625671,-0.28278848528862,-7.027746200561523,-32.88595581054688,-31.43009376525879,2,192.168.1.8,10.71.35.210,1,0
2015-03-09 08:06:54.468,2,1425913614.274031,37.77936915404888,-122.4389868603297,62.90787,0.33,214.1015625,3,10,-9999,1425913614.405327,-6.296546936035156,-33.66188049316406,-29.91232299804688,60.78513336181641,47.00994873046875,10,348450.0131984584,0.199432373046875,-0.93267822265625,-0.2877349853515625,348449.9856800417,-0.0397905561629829,-0.3270457692416547,-0.06506528648837992,348449.9856800417,-2.618587752212381,0.6119010286881588,1.213228647039216,-0.0506897047162056,-0.3151001632213593,-0.03035991638898849,0.02667538821697235,-0.005982866510748863,0.0003902229364030063,XTrueNorthZVertical,-0.3795894310277974,0.461156811648075,0.7124021863542964,-0.3684147048270916,0.2010467797517776,-0.9367508888244629,-0.2864925265312195,-6.8980712890625,-32.73160552978516,-31.61937141418457,2,192.168.1.8,10.71.35.210,1,0
2015-03-09 08:06:54.561,3,1425913614.274031,37.77936915404888,-122.4389868603297,62.90787,0.33,214.1015625,3,10,-9999,1425913614.508925,-6.654506683349609,-33.30509948730469,-31.06095504760742,59.03422164916992,45.25903701782227,10,348450.0622575,0.1917724609375,-0.935394287109375,-0.289642333984375,348450.0374585417,-0.004388356844232569,-0.2890499173372763,-0.03428447060924408,348450.0374585417,-2.619420674029251,0.5963852867760681,1.211913293031664,-0.01523395720869303,-0.2770152986049652,0.0005131157813593745,-0.0003395617532078177,-0.008992264047265053,0.01900531351566315,XTrueNorthZVertical,-0.3738310865862193,0.4636292359967813,0.7158644637559572,-0.3644671874049057,0.1972694993019104,-0.9362897276878357,-0.2905965149402618,-7.272728443145752,-32.68862915039062,-31.57985877990723,2,192.168.1.8,10.71.35.210,1,0
2015-03-09 08:06:54.565,4,1425913614.274031,37.77936915404888,-122.4389868603297,62.90787,0.33,214.1015625,3,10,-9999,1425913614.560967,-7.199974060058594,-33.10122680664062,-30.7280158996582,59.70186614990234,45.92668151855469,10,348450.1112816667,0.1829071044921875,-0.9347381591796875,-0.2889251708984375,348450.0892370833,0.04271044598214578,-0.1565211677989,-0.01080417822634246,348450.0892370833,-2.619784319153381,0.5875113666306251,1.213861616847875,0.03186602890491486,-0.1444869339466095,0.02399479784071445,-0.001685441355220973,-0.006997478660196066,-0.001938410568982363,XTrueNorthZVertical,-0.3706088686827046,0.4660908798047046,0.7170087282390094,-0.3623628744481412,0.1936715245246887,-0.9369722604751587,-0.2908167243003845,-7.542469501495361,-32.6988410949707,-31.50592422485352,2,192.168.1.8,10.71.35.210,1,0
2015-03-09 08:06:54.655,5,1425913614.274031,37.77936915404888,-122.4389868603297,62.90787,0.33,214.1015625,3,10,-9999,1425913614.626462,-7.438625335693359,-32.96530151367188,-30.26190185546875,60.18837356567383,46.41318893432617,10,348450.1603390417,0.1972808837890625,-0.9304962158203125,-0.2949981689453125,348450.1410150417,0.03049479237806133,0.03372014677425629,-0.003352653496300753,348450.1410150417,-2.617006900354842,0.5842880124201277,1.215548330036782,0.01965232938528061,0.04575429111719131,0.0314471609890461,-0.006100584287196398,0.01013105921447277,0.005223989486694336,XTrueNorthZVertical,-0.3701386055719961,0.4668372227884234,0.7166053740431132,-0.3626805328516803,0.1918610781431198,-0.9375602602958679,-0.2901208400726318,-7.859848976135254,-32.74966812133789,-31.37527847290039,2,192.168.1.8,10.71.35.210,1,0
2015-03-09 08:06:54.658,6,1425913614.274031,37.77936915404888,-122.4389868603297,62.90787,0.33,214.1015625,3,10,-9999,1425913614.626462,-7.438625335693359,-32.96530151367188,-30.26190185546875,60.18837356567383,46.41318893432617,10,348450.2093749584,0.1826629638671875,-0.9347381591796875,-0.28564453125,348450.1927935834,0.02032817491668383,-0.1115132127443429,-0.009453689237563279,348450.1927935834,-2.615768577208775,0.5820672700332515,1.216084548985465,0.009546969085931778,-0.09935936331748962,0.02543559856712818,0.00429628835991025,0.004198659677058458,-0.002552627120167017,XTrueNorthZVertical,-0.3696442668515793,0.4672258693485734,0.7166334862339767,-0.3626286810719806,0.1909399181604385,-0.9377466440200806,-0.2901262044906616,-7.860647201538086,-32.75263595581055,-31.37197875976562,2,192.168.1.8,10.71.35.210,1,0
2015-03-09 08:06:54.753,7,1425913614.274031,37.77936915404888,-122.4389868603297,62.90787,0.33,214.1015625,3,10,-9999,1425913614.692514,-7.336345672607422,-33.16917419433594,-30.26190185546875,59.94366073608398,46.16847610473633,10,348450.2584173334,0.1829071044921875,-0.9352264404296875,-0.2936553955078125,348450.24457225,0.04181136279813503,-0.01094585839633468,-0.02059342576125572,348450.24457225,-2.614366215253038,0.5771488515378395,1.218462189451369,0.0310305617749691,0.001206899876706302,0.01429890654981136,-0.01774606667459011,-0.007627725601196289,-9.886088810162619e-05,XTrueNorthZVertical,-0.3682658267504877,0.4688112843925792,0.7165852944262705,-0.3620798078029416,0.1882935464382172,-0.9385697841644287,-0.2891925275325775,-7.954487800598145,-32.75688552856445,-31.34387588500977,2,192.168.1.8,10.71.35.210,1,0
2015-03-09 08:06:54.755,8,1425913614.274031,37.77936915404888,-122.4389868603297,62.90787,0.33,214.1015625,3,10,-9999,1425913614.692514,-7.336345672607422,-33.16917419433594,-30.26190185546875,59.94366073608398,46.16847610473633,10,348450.3074589167,0.1920013427734375,-0.9344482421875,-0.2936248779296875,348450.2963500834,0.04788150587075264,7.723167161229791e-06,-0.02699673028624225,348450.24457225,-2.614366215253038,0.5771488515378395,1.218462189451369,0.0310305617749691,0.001206899876706302,0.01429890654981136,-0.01774606667459011,-0.007627725601196289,-9.886088810162619e-05,XTrueNorthZVertical,-0.3682658267504877,0.4688112843925792,0.7165852944262705,-0.3620798078029416,0.1882935464382172,-0.9385697841644287,-0.2891925275325775,-7.954487800598145,-32.75688552856445,-31.34387588500977,2,192.168.1.8,10.71.35.210,1,0
2015-03-09 08:06:54.858,9,1425913614.274031,37.77936915404888,-122.4389868603297,62.90787,0.33,214.1015625,3,10,-9999,1425913614.824494,-7.063610076904297,-33.2711181640625,-30.26190185546875,59.3182258605957,45.54304122924805,10,348450.3565106667,0.1853790283203125,-0.9409637451171875,-0.2941436767578125,348450.34812875,0.03570100599305723,-0.01576138627941595,-0.01923787676640539,348450.34812875,-2.61587493839462,0.5797800936952308,1.220719989252496,0.02497372590005398,-0.003487119916826487,0.01571958884596825,0.002094757510349154,0.000885230430867523,-0.002979198703542352,XTrueNorthZVertical,-0.3689068389660343,0.4695172806042506,0.7157065757593163,-0.3622504323332002,0.18789242208004,-0.9393465518951416,-0.2869225442409515,-8.072700500488281,-32.83954620361328,-31.2269401550293,2,192.168.1.8,10.71.35.210,1,0
2015-03-09 08:06:54.861,10,1425913614.274031,37.77936915404888,-122.4389868603297,62.90787,0.33,214.1015625,3,10,-9999,1425913614.824494,-7.063610076904297,-33.2711181640625,-30.26190185546875,59.3182258605957,45.54304122924805,10,348450.4055615833,0.1934051513671875,-0.9439849853515625,-0.2946319580078125,348450.399907125,0.04783356897113121,0.008398811129782894,-0.02109250214953657,348450.34812875,-2.61587493839462,0.5797800936952308,1.220719989252496,0.02497372590005398,-0.003487119916826487,0.01571958884596825,0.002094757510349154,0.000885230430867523,-0.002979198703542352,XTrueNorthZVertical,-0.3689068389660343,0.4695172806042506,0.7157065757593163,-0.3622504323332002,0.18789242208004,-0.9393465518951416,-0.2869225442409515,-8.072700500488281,-32.83954620361328,-31.2269401550293,2,192.168.1.8,10.71.35.210,1,0
2015-03-09 08:06:54.955,11,1425913614.274031,37.77936915404888,-122.4389868603297,62.90787,0.33,214.1015625,3,10,-9999,1425913614.903168,-7.472709655761719,-33.20314025878906,-30.19530868530273,59.33574295043945,45.5605583190918,10,348450.4546249167,0.189361572265625,-0.9412994384765625,-0.2903900146484375,348450.4516853333,0.01228223263133644,-0.004308728327639199,-0.04150243611168584,348450.399907125,-2.615429152378585,0.5796603069056098,1.221978025950391,0.03710469976067543,0.02067235484719276,0.01386529672890902,0.001998360268771648,-0.004863854497671127,-0.005410458892583847,XTrueNorthZVertical,-0.3689975108966471,0.4699604003798624,0.7152758592039891,-0.362434152915412,0.1872106194496155,-0.9397772550582886,-0.2859561145305634,-8.084463119506836,-32.85579299926758,-31.20680618286133,2,192.168.1.8,10.71.35.210,1,0
2015-03-09 08:06:54.957,12,1425913614.274031,37.77936915404888,-122.4389868603297,62.90787,0.33,214.1015625,3,10,-9999,1425913614.903168,-7.472709655761719,-33.20314025878906,-30.19530868530273,59.33574295043945,45.5605583190918,10,348450.5036560417,0.1877899169921875,-0.943878173828125,-0.29583740234375,348450.4516853333,0.01228223263133644,-0.004308728327639199,-0.04150243611168584,348450.4516853333,-2.616733187676749,0.5816592331031714,1.221658947538094,0.00155150075443089,0.007964839227497578,-0.006546524818986654,0.001826966414228082,-0.009504819288849831,-0.007670944556593895,XTrueNorthZVertical,-0.369398817353755,0.4697111688909839,0.7152375608245392,-0.3624240252454506,0.1879465878009796,-0.9396681785583496,-0.2858318686485291,-8.059503555297852,-32.88238906860352,-31.18523597717285,2,192.168.1.8,10.71.35.210,1,0
2015-03-09 08:06:55.013,13,1425913614.274031,37.77936915404888,-122.4389868603297,62.90787,0.33,214.1015625,3,10,-9999,1425913614.97679,-7.694305419921875,-33.01622009277344,-30.34512710571289,59.36239242553711,45.58720779418945,10,348450.5527222084,0.1617889404296875,-0.9317169189453125,-0.3035430908203125,348450.555242375,-0.07461005583522391,-0.04709587334917927,0.03067934944160382,348450.5034637083,-2.614846095870924,0.5807474316265896,1.221296961204147,-0.003340255236253142,0.01850744336843491,0.02749698050320148,-0.001257511903531849,-0.004074512980878353,-0.008130858652293682,XTrueNorthZVertical,-0.3695075944337556,0.4693829987093905,0.7151708878884484,-0.3628696049930978,0.1878724992275238,-0.9395442605018616,-0.2862874865531921,-8.039009094238281,-32.87571716308594,-31.19755935668945,2,192.168.1.8,10.71.35.210,1,0
2015-03-09 08:06:55.058,14,1425913614.274031,37.77936915404888,-122.4389868603297,62.90787,0.33,214.1015625,3,10,-9999,1425913615.028057,-7.711353302001953,-33.23707580566406,-30.22860717773438,59.38330841064453,45.60812377929688,10,348450.601763625,0.1262969970703125,-0.9431915283203125,-0.3062744140625,348450.555242375,-0.07461005583522391,-0.04709587334917927,0.03067934944160382,348450.555242375,-2.601919910381111,0.5670981631451112,1.220050008437245,-0.08528151363134384,-0.03470264375209808,0.06568598747253418,-0.02278777584433556,0.007399621419608593,-0.01373009011149406,XTrueNorthZVertical,-0.3676258089676587,0.4689826908841468,0.7157052535234352,-0.3642423660744765,0.1845767199993134,-0.9391165375709534,-0.2898130118846893,-8.044022560119629,-32.84043884277344,-31.23340606689453,2,192.168.1.8,10.71.35.210,1,0
2015-03-09 08:06:55.160,15,1425913614.274031,37.77936915404888,-122.4389868603297,62.90787,0.33,214.1015625,3,10,-9999,1425913615.136528,-7.574985504150391,-32.96522521972656,-30.66141891479492,57.89474105834961,44.11955642700195,10,348450.6508290417,0.0429840087890625,-0.9365692138671875,-0.32659912109375,348450.65879875,-0.08942309045046265,0.5954463344347836,0.3325196305462036,348450.60702025,-2.573119278578499,0.5409003163880257,1.218906888490968,-0.1122480854392052,0.1641984581947327,0.1475726515054703,-0.05117742344737053,-0.004468376282602549,-0.01080582197755575,XTrueNorthZVertical,-0.364961133368493,0.4680481547102969,0.7155662603839997,-0.3683737693367529,0.1774744242429733,-0.9387231469154358,-0.2954685986042023,-8.333463668823242,-32.55902099609375,-31.45138549804688,2,192.168.1.8,10.71.35.210,1,0
2015-03-09 08:06:55.166,16,1425913614.274031,37.77936915404888,-122.4389868603297,62.90787,0.33,214.1015625,3,10,-9999,1425913615.136528,-7.574985504150391,-32.96522521972656,-30.66141891479492,57.89474105834961,44.11955642700195,10,348450.6998655833,0.041473388671875,-0.912750244140625,-0.32171630859375,348450.65879875,-0.08942309045046265,0.5954463344347836,0.3325196305462036,348450.65879875,-2.529857514432456,0.5212954068429155,1.220728568497828,-0.1000989079475403,0.6078335642814636,0.3675376772880554,-0.1278121471405029,0.002780262613669038,-0.02919157221913338,XTrueNorthZVertical,-0.3681358091699828,0.4645129186806103,0.7105344592339055,-0.3792684637026956,0.1707961559295654,-0.9393494725227356,-0.2974075376987457,-8.379986763000488,-32.38561248779297,-31.61762237548828,2,192.168.1.8,10.71.35.210,1,0
2015-03-09 08:06:55.213,17,1425913615.156526,37.77936642993035,-122.4389822502829,63.03275,0.32,214.1015625,4,10,-9999,1425913615.20957,-6.961334228515625,-32.65939331054688,-30.69470977783203,54.61917877197266,40.843994140625,10,348450.7489266667,-0.009033203125,-0.9418182373046875,-0.294525146484375,348450.7105773333,0.03498275144706286,0.7341152681824464,0.3080012379703891,348450.7105773333,-2.482273446306185,0.5116454474809008,1.228302687209838,0.02438684180378914,0.7466292381286621,0.3430588841438293,-0.1308606863021851,0.02622494846582413,-0.02375965192914009,XTrueNorthZVertical,-0.3761435999342074,0.4605443958763455,0.7008854085692348,-0.3939219550149532,0.1644300222396851,-0.9419201612472534,-0.292829692363739,-8.099359512329102,-32.10778427124023,-31.97212600708008,2,192.168.1.8,10.71.35.210,1,0
2015-03-09 08:06:55.253,18,1425913615.156526,37.77936642993035,-122.4389822502829,63.03275,0.32,214.1015625,4,10,-9999,1425913615.20957,-6.961334228515625,-32.65939331054688,-30.69470977783203,54.61917877197266,40.843994140625,10,348450.7979615417,0.0280609130859375,-0.970245361328125,-0.2391815185546875,348450.762355375,0.1513351942081888,0.9833027240073077,0.2721449696857802,348450.762355375,-2.44455766596089,0.5190200396808231,1.240234551657238,0.1407393962144852,0.9958165884017944,0.3072022795677185,-0.1633178293704987,-0.002794019877910614,0.00631715776398778,XTrueNorthZVertical,-0.3880882714819037,0.4565879620163941,0.6883466154705187,-0.4087711760665437,0.1609984934329987,-0.9458601474761963,-0.2818298637866974,-7.090818405151367,-31.96145629882812,-32.35601806640625,2,192.168.1.8,10.71.35.210,1,0
2015-03-09 08:06:55.312,19,1425913615.156526,37.77936642993035,-122.4389822502829,63.03275,0.32,214.1015625,4,10,-9999,1425913615.261897,-5.716976165771484,-32.88026428222656,-30.61147308349609,51.14852905273438,37.37334442138672,10,348450.8470295834,0.056243896484375,-1.017578125,-0.15789794921875,348450.8141339167,0.2029818772280954,1.367834156958868,0.2183089019337194,348450.8141339167,-2.418938665941874,0.556987628401724,1.255639065209107,0.1923861652612686,1.380347847938538,0.2533658742904663,-0.1268552541732788,-0.03254397958517075,0.03867355734109879,XTrueNorthZVertical,-0.4077675483368854,0.4496310527023598,0.6707988645854464,-0.4261296013803884,0.1638578176498413,-0.9507476687431335,-0.2631150782108307,-6.390333652496338,-32.03914642333984,-32.4250373840332,2,192.168.1.8,10.71.35.210,1,0
2015-03-09 08:06:55.358,20,1425913615.156526,37.77936642993035,-122.4389822502829,63.03275,0.32,214.1015625,4,10,-9999,1425913615.317275,-3.824874877929688,-33.16909790039062,-30.29518127441406,47.13784027099609,33.36265563964844,10,348450.896066,0.09716796875,-1.020584106445312,-0.098602294921875,348450.8659124583,0.09460853140895593,1.605537795847198,0.1097531295799095,348450.8659124583,-2.406148864461827,0.6202822277168781,1.267171421197213,0.08409001678228378,1.618202328681946,0.1448371857404709,-0.1126911193132401,-0.06081670150160789,0.0981132760643959,XTrueNorthZVertical,-0.4321935095623973,0.4376826177693923,0.6511996891063226,-0.4445015998116745,0.1737873107194901,-0.9542589783668518,-0.2432853877544403,-4.860363006591797,-32.24910354614258,-32.48227691650391,2,192.168.1.8,10.71.35.210,1,0
2015-03-09 08:06:55.414,21,1425913615.156526,37.77936642993035,-122.4389822502829,63.03275,0.32,214.1015625,4,10,-9999,1425913615.369978,-1.660030364990234,-33.25407409667969,-30.57817840576172,43.03866958618164,29.26348495483398,10,348450.9451373334,0.122161865234375,-1.069931030273438,-0.0693206787109375,348450.9176905833,-0.04339780785949524,1.678375517976974,0.09959956160787344,348450.9176905833,-2.388813625209575,0.6875745400767456,1.271460189769904,-0.05391620472073555,1.691039800643921,0.134683221578598,-0.07674110680818558,-0.08200415968894958,0.1496371477842331,XTrueNorthZVertical,-0.4576989887216518,0.4202017658413943,0.6309630033792248,-0.4645727187494534,0.187153697013855,-0.9555324912071228,-0.2278842180967331,-1.341578483581543,-32.41831588745117,-32.64933776855469,2,192.168.1.8,10.71.35.210,1,0
2015-03-09 08:06:55.461,22,1425913615.156526,37.77936642993035,-122.4389822502829,63.03275,0.32,214.1015625,4,10,-9999,1425913615.443253,1.902587890625,-33.16912841796875,-31.29399490356445,36.45314788818359,22.67796325683594,10,348450.994177125,0.156982421875,-1.039779663085938,-0.115814208984375,348450.9694691667,-0.08807526462277354,1.559158046515141,0.1540641353771929,348450.9694691667,-2.358821942043259,0.7406712093861035,1.272995360701218,-0.09859356284141541,1.571822285652161,0.1891474425792694,-0.04198822006583214,-0.13099105656147,0.1297709047794342,XTrueNorthZVertical,-0.4804143336014629,0.4011586308090444,0.610911993036962,-0.4848302472968458,0.1979940831661224,-0.9559840559959412,-0.2165476381778717,0.1842408180236816,-32.35985946655273,-32.73426055908203,2,192.168.1.8,10.71.35.210,1,0
2015-03-09 08:06:55.516,23,1425913615.156526,37.77936642993035,-122.4389822502829,63.03275,0.32,214.1015625,4,10,-9999,1425913615.502478,4.152664184570312,-33.23707580566406,-30.92776489257812,32.04363632202148,18.26845169067383,10,348451.043274,0.138397216796875,-1.014175415039062,-0.123870849609375,348451.0212477084,-0.07620262616709129,1.220532053905495,0.1038773972668677,348451.0212477084,-2.323895092182847,0.7768969421965553,1.276743464009018,-0.08672082424163818,1.233196139335632,0.1389603912830353,-0.05245202407240868,-0.04516595974564552,0.08126610517501831,XTrueNorthZVertical,-0.4983426293055044,0.3851176145657111,0.5922529962919861,-0.50256884710843,0.2031936049461365,-0.9570770859718323,-0.2066780924797058,2.293196201324463,-32.2236213684082,-32.7888069152832,2,192.168.1.8,10.71.35.210,1,0
2015-03-09 08:06:55.561,24,1425913615.156526,37.77936642993035,-122.4389822502829,63.03275,0.32,214.1015625,4,10,-9999,1425913615.502478,4.152664184570312,-33.23707580566406,-30.92776489257812,32.04363632202148,18.26845169067383,10,348451.0922959584,0.1141204833984375,-1.005386352539062,-0.1198577880859375,348451.0730258333,-0.1239294023785103,1.177304954671874,-0.05151645444260179,348451.0212477084,-2.323895092182847,0.7768969421965553,1.276743464009018,-0.08672082424163818,1.233196139335632,0.1389603912830353,-0.05245202407240868,-0.04516595974564552,0.08126610517501831,XTrueNorthZVertical,-0.4983426293055044,0.3851176145657111,0.5922529962919861,-0.50256884710843,0.2031936049461365,-0.9570770859718323,-0.2066780924797058,2.293196201324463,-32.2236213684082,-32.7888069152832,2,192.168.1.8,10.71.35.210,1,0
2015-03-09 08:06:55.595,25,1425913615.156526,37.77936642993035,-122.4389822502829,63.03275,0.32,214.1015625,4,10,-9999,1425913615.57285,6.845935821533203,-32.7613525390625,-30.46165084838867,27.34181976318359,13.56663417816162,10,348451.1414452083,0.177093505859375,-0.9808349609375,-0.13177490234375,348451.124804375,-0.227703202678974,1.463782791028352,-0.1821064227074003,348451.124804375,-2.291407593497558,0.8713349160181869,1.26443044501872,-0.2382204383611679,1.476446628570557,-0.1470238268375397,-0.08861164003610611,-0.06200599670410156,0.0759439617395401,XTrueNorthZVertical,-0.5310880362305229,0.3476506399424455,0.5634257682015045,-0.5288061506635472,0.230777770280838,-0.9534358978271484,-0.1941690593957901,6.290534973144531,-31.88364028930664,-32.59737777709961,2,192.168.1.8,10.71.35.210,1,0
2015-03-09 08:06:55.661,26,1425913615.156526,37.77936642993035,-122.4389822502829,63.03275,0.32,214.1015625,4,10,-9999,1425913615.624464,9.044868469238281,-32.404541015625,-30.41170883178711,24.8749885559082,11.09980297088623,10,348451.1903735833,0.2124786376953125,-0.807891845703125,-0.128570556640625,348451.1765829584,-0.275667266543519,1.47084336371037,-0.2201182535783193,348451.1765829584,-2.272755913643847,0.9289610110157835,1.250448390570462,-0.2861841022968292,1.483507037162781,-0.1850358843803406,-0.05046488717198372,0.07049431651830673,0.05118909850716591,XTrueNorthZVertical,-0.5497173144468016,0.3217946137143807,0.5472455768676417,-0.5429377407339172,0.2522318661212921,-0.9491258859634399,-0.1885181963443756,8.526094436645508,-31.53047752380371,-32.43240737915039,2,192.168.1.8,10.71.35.210,1,0
2015-03-09 08:06:55.694,27,1425913615.156526,37.77936642993035,-122.4389822502829,63.03275,0.32,214.1015625,4,10,-9999,1425913615.675788,11.82336807250977,-32.08171081542969,-29.99554824829102,21.19795989990234,7.422775745391846,10,348451.2394482917,0.302581787109375,-0.9307861328125,-0.14764404296875,348451.2283610834,-0.3518440600480366,1.466858209455175,-0.3116215391562428,348451.1765829584,-2.272755913643847,0.9289610110157835,1.250448390570462,-0.2861841022968292,1.483507037162781,-0.1850358843803406,-0.05046488717198372,0.07049431651830673,0.05118909850716591,XTrueNorthZVertical,-0.5497173144468016,0.3217946137143807,0.5472455768676417,-0.5429377407339172,0.2522318661212921,-0.9491258859634399,-0.1885181963443756,8.526094436645508,-31.53047752380371,-32.43240737915039,2,192.168.1.8,10.71.35.210,1,0
2015-03-09 08:06:55.754,28,1425913615.156526,37.77936642993035,-122.4389822502829,63.03275,0.32,214.1015625,4,10,-9999,1425913615.728726,14.53368377685547,-31.5889892578125,-29.74584579467773,18.68303298950195,4.907847881317139,10,348451.2884687083,0.272796630859375,-0.9842376708984375,-0.1833343505859375,348451.2801396667,-0.2618875384312311,1.432290378505947,-0.1641250253432943,348451.2283610834,-2.255760840577117,0.9867600228266857,1.230261587892445,-0.3623607754707336,1.479521751403809,-0.276539534330368,-0.008839454501867294,0.1029002964496613,0.04512321949005127,XTrueNorthZVertical,-0.5672900056404406,0.2934303959391629,0.5327579873181401,-0.5552022965737972,0.2786301076412201,-0.9425762295722961,-0.1841613054275513,12.60118293762207,-30.67345428466797,-31.92296600341797,2,192.168.1.8,10.71.35.210,1,0
2015-03-09 08:06:55.792,29,1425913615.156526,37.77936642993035,-122.4389822502829,63.03275,0.32,214.1015625,4,10,-9999,1425913615.781129,17.34627532958984,-31.09625244140625,-28.36415863037109,14.34708786010742,0.5719033479690552,10,348451.337585,0.3101959228515625,-0.984710693359375,-0.1741180419921875,348451.33191825,-0.1947095662500913,1.49026499859199,-0.1889502140766859,348451.33191825,-2.210718572534934,1.090753479765311,1.201684997505584,-0.2052260935306549,1.502928376197815,-0.1538689285516739,-0.0177628118544817,-0.05192502960562706,-0.000695087481290102,XTrueNorthZVertical,-0.5992943073191168,0.2398698937568124,0.4985631321931824,-0.5785702908328064,0.3200089037418365,-0.9326483607292175,-0.1666175276041031,16.52218246459961,-29.65712547302246,-31.08373641967773,2,192.168.1.8,10.71.35.210,1,0
2015-03-09 08:06:55.853,30,1425913615.156526,37.77936642993035,-122.4389822502829,63.03275,0.32,214.1015625,4,10,-9999,1425913615.840421,19.56225204467773,-30.7904052734375,-27.49851989746094,13.55298614501953,359.7778015136719,10,348451.386551125,0.3011016845703125,-0.8575592041015625,-0.2006988525390625,348451.33191825,-0.1947095662500913,1.49026499859199,-0.1889502140766859,348451.33191825,-2.210718572534934,1.090753479765311,1.201684997505584,-0.2052260935306549,1.502928376197815,-0.1538689285516739,-0.0177628118544817,-0.05192502960562706,-0.000695087481290102,XTrueNorthZVertical,-0.5992943073191168,0.2398698937568124,0.4985631321931824,-0.5785702908328064,0.3200089037418365,-0.9326483607292175,-0.1666175276041031,16.52218246459961,-29.65712547302246,-31.08373641967773,2,192.168.1.8,10.71.35.210,1,0
2015-03-09 08:06:55.890,31,1425913615.156526,37.77936642993035,-122.4389822502829,63.03275,0.32,214.1015625,4,10,-9999,1425913615.840421,19.56225204467773,-30.7904052734375,-27.49851989746094,13.55298614501953,359.7778015136719,10,348451.4356135417,0.2175140380859375,-0.7618865966796875,-0.2095489501953125,348451.435475125,-0.06035388820392074,1.397859167720639,-0.3214115856394831,348451.3836964167,-2.192342239121689,1.147720079314459,1.190088369229559,-0.2036983370780945,1.455446839332581,-0.1404407918453217,-0.03231263533234596,0.04095063358545303,-0.04412803426384926,XTrueNorthZVertical,-0.6150126639394737,0.2132616813006296,0.4795236738820181,-0.588503131344457,0.3388159275054932,-0.9284018278121948,-0.152557760477066,20.20456314086914,-28.96669960021973,-29.5200309753418,2,192.168.1.8,10.71.35.210,1,0
2015-03-09 08:06:55.952,32,1425913615.156526,37.77936642993035,-122.4389822502829,63.03275,0.32,214.1015625,4,10,-9999,1425913615.91032,23.14191627502441,-30.00886535644531,-25.66736221313477,10.84864044189453,357.0734558105469,10,348451.48464,0.1857452392578125,-0.7244110107421875,-0.1837005615234375,348451.487253625,-0.05482995947087838,1.693134224105975,-0.3765808318332376,348451.435475125,-2.187159348077736,1.213233150158167,1.177862039409548,-0.07087013870477676,1.410522222518921,-0.2863306999206543,-0.1223398372530937,0.146064281463623,-0.07774905860424042,XTrueNorthZVertical,-0.6307008880768933,0.1876437595028357,0.4613982583100829,-0.5950780347649547,0.3586832284927368,-0.9237895011901855,-0.1340124160051346,21.59267425537109,-28.70339012145996,-28.78537750244141,2,192.168.1.8,10.71.35.210,1,0
2015-03-09 08:06:55.988,33,1425913615.156526,37.77936642993035,-122.4389822502829,63.03275,0.32,214.1015625,4,10,-9999,1425913615.969286,25.59654235839844,-29.15936279296875,-23.83620834350586,3.844551086425781,350.0693664550781,10,348451.5337002084,0.2113189697265625,-0.7507476806640625,-0.09759521484375,348451.487253625,-0.05482995947087838,1.693134224105975,-0.3765808318332376,348451.487253625,-2.193813025908004,1.297677701760082,1.161119574818298,-0.06534609943628311,1.705797076225281,-0.3415003418922424,-0.1978039145469666,0.1928386092185974,-0.07626132667064667,XTrueNorthZVertical,-0.6490168716620004,0.1582955603932225,0.4415681626637961,-0.5989467292775076,0.3835491538047791,-0.9172496199607849,-0.1074392348527908,23.70287322998047,-28.32199096679688,-27.47298431396484,2,192.168.1.8,10.71.35.210,1,0
2015-03-09 08:06:56.058,34,1425913615.156526,37.77936642993035,-122.4389822502829,63.03275,0.32,214.1015625,4,10,-9999,1425913616.019516,27.96593856811523,-28.80256652832031,-21.78864288330078,0.4624710083007812,346.6872863769531,10,348451.5827345417,0.264801025390625,-0.73883056640625,-0.1373748779296875,348451.5390317084,-0.1171777563829414,2.048426545133447,-0.3573046055471351,348451.5390317084,-2.190780110899207,1.390080713356431,1.142901411501823,-0.1276938021183014,2.061089515686035,-0.3222244381904602,-0.1968800574541092,0.1590936034917831,-0.02301360666751862,XTrueNorthZVertical,-0.6690549087235853,0.1227791704187994,0.4158304202326845,-0.6036355497863701,0.4081990122795105,-0.9098412990570068,-0.07458160817623138,27.7625560760498,-27.51136207580566,-24.3123779296875,2,192.168.1.8,10.71.35.210,1,0
2015-03-09 08:06:56.086,35,1425913615.156526,37.77936642993035,-122.4389822502829,63.03275,0.32,214.1015625,4,10,-9999,1425913616.019516,27.96593856811523,-28.80256652832031,-21.78864288330078,0.4624710083007812,346.6872863769531,10,348451.6318020833,0.2592926025390625,-0.7525634765625,-0.131134033203125,348451.6425891667,0.2334148842688669,1.572538300463918,-0.1832329398485038,348451.5908104167,-2.191748893514567,1.49251365661877,1.129641625642133,0.08562443405389786,1.930778026580811,-0.2422556430101395,-0.1608752459287643,0.1654286682605743,-0.1039835661649704,XTrueNorthZVertical,-0.6896986750782549,0.08729307700284654,0.3853927014110459,-0.6067685991664447,0.4256762862205505,-0.904259204864502,-0.0333913117647171,29.46925354003906,-27.16133117675781,-22.63959503173828,2,192.168.1.8,10.71.35.210,1,0
2015-03-09 08:06:56.159,36,1425913615.156526,37.77936642993035,-122.4389822502829,63.03275,0.32,214.1015625,4,10,-9999,1425913616.091832,31.47741317749023,-28.90451049804688,-17.92657852172852,355.4684448242188,341.6932678222656,10,348451.6808532917,0.2274932861328125,-0.6656036376953125,-0.0623779296875,348451.6425891667,0.2334148842688669,1.572538300463918,-0.1832329398485038,348451.6425891667,-2.211579006255973,1.597490271754684,1.120731406086252,0.2228990644216537,1.585200786590576,-0.1481534987688065,-0.1727535575628281,0.1563697904348373,-0.133498340845108,XTrueNorthZVertical,-0.7087275162200085,0.05925261001365966,0.3574059317541756,-0.6053556366622467,0.4348690211772919,-0.9004188776016235,0.01161112822592258,31.66661834716797,-26.84909820556641,-19.87655448913574,2,192.168.1.8,10.71.35.210,1,0
2015-03-09 08:06:56.184,37,1425913615.156526,37.77936642993035,-122.4389822502829,63.03275,0.32,214.1015625,4,10,-9999,1425913616.144269,33.19905853271484,-29.19334411621094,-14.61385250091553,351.8874206542969,338.1122436523438,10,348451.7299970834,0.2796478271484375,-0.688812255859375,-0.0072021484375,348451.6943672083,0.3221013443618136,1.528441146502167,-0.2018505663970298,348451.6943672083,-2.241312405799095,1.700146141428295,1.111970551838687,0.3115856349468231,1.541103601455688,-0.1667714715003967,-0.2148609757423401,0.2450533956289291,-0.09870905429124832,XTrueNorthZVertical,-0.7261353834082944,0.03594205443785484,0.3321640653681299,-0.6009181460864945,0.4391956925392151,-0.8965731859207153,0.05712885409593582,34.14077758789062,-26.73486328125,-15.43958568572998,2,192.168.1.8,10.71.35.210,1,0
2015-03-09 08:06:56.256,38,1425913615.156526,37.77936642993035,-122.4389822502829,63.03275,0.32,214.1015625,4,10,-9999,1425913616.195667,34.44342041015625,-29.10838317871094,-11.06807041168213,347.6851501464844,333.9099731445312,10,348451.7789707084,0.263092041015625,-0.6566009521484375,0.1707000732421875,348451.7461459584,0.4529592266322741,1.824552435469789,-0.1459537445934656,348451.7461459584,-2.278606499858547,1.820300598488381,1.101338162751838,0.4424435794353485,1.837214708328247,-0.1108749732375145,-0.1681460589170456,0.2043593227863312,-0.113067053258419,XTrueNorthZVertical,-0.7454861749485293,0.01024081469939588,0.3021923096381749,-0.5939909995977096,0.4383944869041443,-0.8918135762214661,0.1117090210318565,34.95796585083008,-26.69830703735352,-13.55977249145508,2,192.168.1.8,10.71.35.210,1,0
2015-03-09 08:06:56.285,39,1425913615.156526,37.77936642993035,-122.4389822502829,63.03275,0.32,214.1015625,4,10,-9999,1425913616.247938,35.29571914672852,-28.70062255859375,-7.63881778717041,344.1709899902344,330.3958129882812,10,348451.8280435,0.425262451171875,-0.6478729248046875,0.571441650390625,348451.7979245,0.4205964930656312,1.66680940936276,-0.4269212343384604,348451.7979245,-2.321878862890944,1.947384807007343,1.083747198535027,0.410130500793457,1.679757118225098,-0.3918240964412689,-0.1749848872423172,0.2455952167510986,0.1005295291543007,XTrueNorthZVertical,-0.7653688928286487,-0.01636193684614305,0.2718567290789809,-0.5831266369323272,0.4352235198020935,-0.8837177753448486,0.1721145063638687,36.0770378112793,-26.70412445068359,-10.20113849639893,2,192.168.1.8,10.71.35.210,1,0
2015-03-09 08:06:56.360,40,1425913616.291448,37.77937192007693,-122.4389787298836,63.14774,0.33,214.1015625,4,10,-9999,1425913616.307615,36.19915771484375,-27.69818115234375,-4.392681121826172,341.0650634765625,327.2898864746094,10,348451.8770921667,0.504425048828125,-0.60699462890625,0.5852813720703125,348451.8497027084,0.3280857336473307,1.365392304555374,-0.08398624708506588,348451.8497027084,-2.332911994239718,2.029237675921065,1.06435850568045,0.3176198303699493,1.378339886665344,-0.04888950288295746,0.07675490528345108,0.235210970044136,0.3751013576984406,XTrueNorthZVertical,-0.7782032559099515,-0.04162626727132194,0.2487110645358604,-0.5751606416248277,0.434979110956192,-0.8744779229164124,0.2146661132574081,37.61356353759766,-26.06242752075195,-4.969507694244385,2,192.168.1.8,10.71.35.210,1,0
2015-03-09 08:06:56.380,41,1425913616.291448,37.77937192007693,-122.4389787298836,63.14774,0.33,214.1015625,4,10,-9999,1425913616.307615,36.19915771484375,-27.69818115234375,-4.392681121826172,341.0650634765625,327.2898864746094,10,348451.9261607084,0.50042724609375,-0.7456512451171875,0.67193603515625,348451.9014813334,0.2858948703938594,1.061217230123102,0.1745257346644897,348451.9014813334,-2.372904426683413,2.124940941425696,1.061784020895543,0.2754290997982025,1.074164628982544,0.2096221297979355,0.08625210821628571,0.2371788918972015,0.3880982398986816,XTrueNorthZVertical,-0.7907587068303321,-0.05401091730857974,0.2232651999343749,-0.5673941749916079,0.4143887758255005,-0.8732262253761292,0.2564330101013184,37.80551147460938,-26.06432342529297,-3.181243896484375,2,192.168.1.8,10.71.35.210,1,0
2015-03-09 08:06:56.450,42,1425913616.291448,37.77937192007693,-122.4389787298836,63.14774,0.33,214.1015625,4,10,-9999,1425913616.43402,36.40370941162109,-28.44577026367188,1.73336124420166,331.6731567382812,317.8979797363281,10,348451.9752175,0.3934173583984375,-0.9627838134765625,0.68707275390625,348451.953260125,-0.1520712919334866,0.5825779400475207,0.1812787122406037,348451.953260125,-2.385671581658394,2.178744296083292,1.069940382395935,-0.1625369787216187,0.5955252647399902,0.2163747847080231,0.09228027611970901,0.03270471468567848,0.3990247547626495,XTrueNorthZVertical,-0.7957973076466761,-0.06197824180766223,0.2034809272875373,-0.5669751897989657,0.3941394090652466,-0.8771718740463257,0.274269312620163,37.67826461791992,-26.42595291137695,-0.8622493743896484,2,192.168.1.8,10.71.35.210,1,0
2015-03-09 08:06:56.478,43,1425913616.291448,37.77937192007693,-122.4389787298836,63.14774,0.33,214.1015625,4,10,-9999,1425913616.43402,36.40370941162109,-28.44577026367188,1.73336124420166,331.6731567382812,317.8979797363281,10,348452.0243702917,0.424102783203125,-0.9622344970703125,0.5731048583984375,348452.00503825,-0.4811977889348203,0.8034237692356496,0.4221595023093987,348452.00503825,-2.377987251879687,2.206804978277455,1.095428095359184,-0.4916633367538452,0.816370964050293,0.4572551846504211,0.03768867254257202,-0.07498707622289658,0.3705616593360901,XTrueNorthZVertical,-0.794692453860715,-0.06624363770328173,0.1837411503668949,-0.5747302713753284,0.3681798577308655,-0.8891242742538452,0.2718486189842224,37.13498306274414,-27.18345832824707,0.8826169967651367,2,192.168.1.8,10.71.35.210,1,0
2015-03-09 08:06:56.556,44,1425913616.291448,37.77937192007693,-122.4389787298836,63.14774,0.33,214.1015625,4,10,-9999,1425913616.506927,35.29571533203125,-29.72007751464844,3.514575481414795,325.6558532714844,311.8806762695312,10,348452.07330475,0.4931488037109375,-0.9621734619140625,0.458770751953125,348452.0568170833,-0.7180199215023345,0.7680226351813353,0.4136925142557098,348452.0568170833,-2.356201044491072,2.226842784964957,1.131708337614437,-0.7284853458404541,0.7809697389602661,0.4487878382205963,0.09050342440605164,-0.0646478459239006,0.2284170389175415,XTrueNorthZVertical,-0.7903181704136004,-0.07109594316967274,0.1603082459232998,-0.587063738959021,0.3368647396564484,-0.9051397442817688,0.2593148946762085,36.74108505249023,-27.69402313232422,1.363870620727539,2,192.168.1.8,10.71.35.210,1,0
2015-03-09 08:06:56.576,45,1425913616.291448,37.77937192007693,-122.4389787298836,63.14774,0.33,214.1015625,4,10,-9999,1425913616.506927,35.29571533203125,-29.72007751464844,3.514575481414795,325.6558532714844,311.8806762695312,10,348452.1223699167,0.43231201171875,-1.067230224609375,0.440948486328125,348452.108595625,-1.006540668731012,0.3324921999869758,0.2148135030029904,348452.108595625,-2.292410390346111,2.19586689005849,1.174553810442498,-1.017006039619446,0.3454391658306122,0.249908521771431,0.1301971226930618,-0.09940915554761887,0.1980765163898468,XTrueNorthZVertical,-0.7792587086553643,-0.07534884060120856,0.1422539913923377,-0.6056750201803052,0.312979131937027,-0.922517716884613,0.2258431613445282,36.11396408081055,-28.48361206054688,1.786518096923828,2,192.168.1.8,10.71.35.210,1,0
2015-03-09 08:06:56.647,46,1425913616.291448,37.77937192007693,-122.4389787298836,63.14774,0.33,214.1015625,4,10,-9999,1425913616.56174,34.3240966796875,-30.62057495117188,3.664397716522217,320.0173645019531,306.2421875,10,348452.1714076667,0.3220672607421875,-1.109466552734375,0.455474853515625,348452.1603737917,-1.215645685937418,0.353671787504158,-0.09726450196409195,348452.108595625,-2.292410390346111,2.19586689005849,1.174553810442498,-1.017006039619446,0.3454391658306122,0.249908521771431,0.1301971226930618,-0.09940915554761887,0.1980765163898468,XTrueNorthZVertical,-0.7792587086553643,-0.07534884060120856,0.1422539913923377,-0.6056750201803052,0.312979131937027,-0.922517716884613,0.2258431613445282,36.11396408081055,-28.48361206054688,1.786518096923828,2,192.168.1.8,10.71.35.210,1,0
2015-03-09 08:06:56.675,47,1425913616.291448,37.77937192007693,-122.4389787298836,63.14774,0.33,214.1015625,4,10,-9999,1425913616.637385,33.62520980834961,-31.28321838378906,2.449175357818604,316.251953125,302.4767761230469,10,348452.2204740833,0.376312255859375,-1.046707153320312,0.3250885009765625,348452.2121525417,-1.183498402102962,0.6983522105359904,-0.3054067864364339,348452.2121525417,-2.005152494338748,1.973121218981784,1.225137938988606,-1.193963527679443,0.7112988829612732,-0.270312488079071,0.09070299565792084,-0.1269422173500061,0.2595607340335846,XTrueNorthZVertical,-0.745882936810383,-0.09995928624537756,0.1222704359825527,-0.6470832535970198,0.311762809753418,-0.9408525824546814,0.1326664239168167,35.64385986328125,-29.12457466125488,0.02697229385375977,2,192.168.1.8,10.71.35.210,1,0
2015-03-09 08:06:56.750,48,1425913616.291448,37.77937192007693,-122.4389787298836,63.14774,0.33,214.1015625,4,10,-9999,1425913616.690018,34.0343132019043,-31.35118103027344,1.516951084136963,312.9164428710938,299.1412658691406,10,348452.2695845834,0.3509979248046875,-1.05157470703125,0.2333221435546875,348452.2639311667,-0.8390491414537486,0.3722896803687929,-0.6464083187384309,348452.2121525417,-2.005152494338748,1.973121218981784,1.225137938988606,-1.193963527679443,0.7112988829612732,-0.270312488079071,0.09070299565792084,-0.1269422173500061,0.2595607340335846,XTrueNorthZVertical,-0.745882936810383,-0.09995928624537756,0.1222704359825527,-0.6470832535970198,0.311762809753418,-0.9408525824546814,0.1326664239168167,35.64385986328125,-29.12457466125488,0.02697229385375977,2,192.168.1.8,10.71.35.210,1,0
2015-03-09 08:06:56.774,49,1425913616.291448,37.77937192007693,-122.4389787298836,63.14774,0.33,214.1015625,4,10,-9999,1425913616.741034,35.02298355102539,-31.079345703125,0.6180210113525391,311.3469543457031,297.57177734375,10,348452.3185901667,0.3410186767578125,-1.043975830078125,0.2176055908203125,348452.3157095833,-0.9232423161555137,0.09585009710915086,-0.5120648912332747,348452.2639311667,-1.841694917254401,1.846008691243077,1.219752328331648,-0.8495141863822937,0.3852362334728241,-0.6113143563270569,-0.01759812608361244,-0.09034369140863419,0.1000015288591385,XTrueNorthZVertical,-0.7295393562704195,-0.1204035958150272,0.1174001655238474,-0.6629423156164965,0.3309373557567596,-0.939014196395874,0.09344939887523651,35.94300842285156,-28.75167655944824,-0.4092245101928711,2,192.168.1.8,10.71.35.210,1,0
2015-03-09 08:06:56.850,50,1425913616.291448,37.77937192007693,-122.4389787298836,63.14774,0.33,214.1015625,4,10,-9999,1425913616.793133,35.44913482666016,-30.28077697753906,0.2684383392333984,310.6126403808594,296.8374633789062,10,348452.3676146667,0.3885345458984375,-1.024261474609375,0.1156005859375,348452.3157095833,-0.9232423161555137,0.09585009710915086,-0.5120648912332747,348452.3157095833,-1.698689303220927,1.723282031804224,1.201490441419964,-0.9337072968482971,0.1087965369224548,-0.4769712686538696,-0.01263303495943546,-0.1258020102977753,0.1998244971036911,XTrueNorthZVertical,-0.7131744698979203,-0.1371017643627206,0.1200081339627455,-0.676892414206176,0.3567797541618347,-0.9325781464576721,0.0548294372856617,37.11712265014648,-27.19016647338867,-1.319232225418091,2,192.168.1.8,10.71.35.210,1,0
2015-03-09 08:06:56.870,51,1425913616.291448,37.77937192007693,-122.4389787298836,63.14774,0.33,214.1015625,4,10,-9999,1425913616.847898,36.21620178222656,-29.61811828613281,-1.013370513916016,310.5751647949219,296.7999877929688,10,348452.416703875,0.4203338623046875,-0.989013671875,0.201934814453125,348452.4192669584,-0.8386011977583973,-0.4490662177507962,-0.1155958386954344,348452.3674881667,-1.586973401004725,1.609811101182502,1.186506661581225,-0.6947459578514099,-0.3890546560287476,-0.309484601020813,0.005816686432808638,-0.09106247127056122,0.08713790774345398,XTrueNorthZVertical,-0.6977744476740071,-0.1429066085457552,0.1270554462132201,-0.690322711438194,0.3746154308319092,-0.9270649552345276,0.0146229574456811,37.49912261962891,-26.6196174621582,-1.984380841255188,2,192.168.1.8,10.71.35.210,1,0
2015-03-09 08:06:56.918,52,1425913616.291448,37.77937192007693,-122.4389787298836,63.14774,0.33,214.1015625,4,10,-9999,1425913616.900705,36.71053314208984,-29.39724731445312,-3.094226837158203,311.8530578613281,298.077880859375,10,348452.4657142917,0.3023834228515625,-0.9845123291015625,-0.0497589111328125,348452.4192669584,-0.8386011977583973,-0.4490662177507962,-0.1155958386954344,348452.4192669584,-1.480372419457287,1.489198735153149,1.175974783886585,-0.849065899848938,-0.4361200630664825,-0.0805029571056366,0.03697016835212708,-0.06594844907522202,0.23328597843647,XTrueNorthZVertical,-0.6814526308526726,-0.1412328896544024,0.13511297932619,-0.705280140464819,0.3833636939525604,-0.9230652451515198,-0.03135116398334503,37.86003875732422,-25.95820045471191,-3.393478631973267,2,192.168.1.8,10.71.35.210,1,0
2015-03-09 08:06:56.968,53,1425913616.291448,37.77937192007693,-122.4389787298836,63.14774,0.33,214.1015625,4,10,-9999,1425913616.951152,36.82985687255859,-29.48219299316406,-5.741077423095703,313.4296264648438,299.6544494628906,10,348452.5147782083,0.169219970703125,-0.93145751953125,0.0843505859375,348452.5228240417,-0.2590435487031355,0.03642458686123175,0.5291948759968824,348452.471045125,-1.378671871962001,1.366807901077155,1.178676499417635,-0.6588316559791565,-0.5738990306854248,0.3373011648654938,-0.07184150815010071,-0.06041128188371658,0.02765540219843388,XTrueNorthZVertical,-0.6664436128992735,-0.1309417957723077,0.139170121330393,-0.7206516809161038,0.3742249310016632,-0.9241010546684265,-0.07741431146860123,37.76348876953125,-25.53452682495117,-6.374422550201416,2,192.168.1.8,10.71.35.210,1,0
2015-03-09 08:06:57.008,54,1425913616.291448,37.77937192007693,-122.4389787298836,63.14774,0.33,214.1015625,4,10,-9999,1425913616.951152,36.82985687255859,-29.48219299316406,-5.741077423095703,313.4296264648438,299.6544494628906,10,348452.563810625,1.334732055664062,-1.15655517578125,0.35333251953125,348452.5228240417,-0.2590435487031355,0.03642458686123175,0.5291948759968824,348452.5228240417,-1.295391101389713,1.273817330723922,1.193841933473774,-0.2695080637931824,0.04937050864100456,0.5642871260643005,-0.1827572584152222,-0.001667514909058809,0.1920659095048904,XTrueNorthZVertical,-0.6571430723991207,-0.1196048399760957,0.1345893540439561,-0.7319449305533874,0.3519772291183472,-0.9297900199890137,-0.107715331017971,37.37519073486328,-25.78768539428711,-7.537671089172363,2,192.168.1.8,10.71.35.210,1,0
2015-03-09 08:06:57.067,55,1425913616.291448,37.77937192007693,-122.4389787298836,63.14774,0.33,214.1015625,4,10,-9999,1425913617.027455,35.90937805175781,-30.43365478515625,-7.738701820373535,311.9486083984375,298.1734313964844,10,348452.6128762084,-0.248291015625,-1.343841552734375,-0.324737548828125,348452.5746025417,0.9536076789045971,-2.299862507866662,-0.06719634799266132,348452.5746025417,-1.386813996386752,1.296873152020382,1.221078391094998,0.9431432485580444,-2.286916494369507,-0.03210451826453209,0.6091216206550598,-0.5537099242210388,0.0753975510597229,XTrueNorthZVertical,-0.6677010127539594,-0.08850129333530031,0.151108169760317,-0.7235393635522807,0.3298584818840027,-0.9394693970680237,-0.0926857590675354,36.39997863769531,-26.84884452819824,-8.538573265075684,2,192.168.1.8,10.71.35.210,1,0
2015-03-09 08:06:57.110,56,1425913616.291448,37.77937192007693,-122.4389787298836,63.14774,0.33,214.1015625,4,10,-9999,1425913617.078592,35.43208312988281,-31.21525573730469,-8.404574394226074,314.6525573730469,300.8773803710938,10,348452.6618972917,0.756622314453125,-1.386245727539062,0.0635223388671875,348452.626381,0.4359115335463499,0.5733998879827806,-0.4115779643501868,348452.626381,-1.451613754343655,1.31227345538411,1.215966034436067,0.4254472255706787,0.5863455533981323,-0.3764864802360535,-0.2990356683731079,-0.5050588250160217,-0.2671352624893188,XTrueNorthZVertical,-0.6708910270735442,-0.07412384212338355,0.1710272893715999,-0.7177468655758181,0.3358856439590454,-0.9377054572105408,-0.08882176876068115,35.50847625732422,-27.27019882202148,-10.68693161010742,2,192.168.1.8,10.71.35.210,1,0
2015-03-09 08:06:57.165,57,1425913616.291448,37.77937192007693,-122.4389787298836,63.14774,0.33,214.1015625,4,10,-9999,1425913617.133088,35.19344329833984,-31.14729309082031,-9.636443138122559,318.4687194824219,304.6935424804688,10,348452.7110644167,0.251922607421875,-0.754913330078125,0.1163787841796875,348452.6781595834,0.06862486760137983,-1.940385561818349,0.37178847345164,348452.6781595834,-1.473904010848534,1.291075166811483,1.219993570511064,0.05816065892577171,-1.927440047264099,0.4068796336650848,0.2723357081413269,-0.2340290695428848,0.2318409085273743,XTrueNorthZVertical,-0.6702516276984719,-0.0576519176326162,0.1847706228980083,-0.7164487698414652,0.3302949070930481,-0.9390971660614014,-0.09487802535295486,35.86957168579102,-26.96166229248047,-10.25518894195557,2,192.168.1.8,10.71.35.210,1,0
2015-03-09 08:06:57.208,58,1425913616.291448,37.77937192007693,-122.4389787298836,63.14774,0.33,214.1015625,4,10,-9999,1425913617.184359,34.27295684814453,-31.65704345703125,-10.73513507843018,319.3364868164062,305.5613098144531,10,348452.7599826667,0.5644683837890625,-0.7972564697265625,0.1182861328125,348452.7299382917,0.2877372452359762,-0.4391528669090853,0.1842651810870185,348452.7299382917,-1.495206541855276,1.260425566420578,1.242361102482515,0.2772731482982635,-0.4262074530124664,0.2193560004234314,0.1234373450279236,0.1683194786310196,0.1757848113775253,XTrueNorthZVertical,-0.6706227107287136,-0.03174942992412535,0.195155266415436,-0.714962646910537,0.3071504235267639,-0.9465482234954834,-0.09851430356502533,34.41852951049805,-27.67991638183594,-12.95813369750977,2,192.168.1.8,10.71.35.210,1,0
2015-03-09 08:06:57.263,59,1425913617.253287,37.77937711685689,-122.4389755447604,63.02011,0.34,214.1015625,4,10,-9999,1425913617.239884,33.50588226318359,-32.04782104492188,-12.34987735748291,321.9854431152344,308.2102661132812,10,348452.8090337917,0.2735748291015625,-1.021926879882812,0.006317138671875,348452.7817166667,0.3204573750209077,-0.9845501486619007,0.01571691148921163,348452.7817166667,-1.524917707840302,1.245750399827915,1.251233067999583,0.3101040720939636,-0.9713835120201111,0.05084870383143425,0.06145961955189705,-0.0002732843568082899,0.2352128624916077,XTrueNorthZVertical,-0.6705644050524537,-0.01344607115188575,0.2077004493349494,-0.7120555569096577,0.2977017462253571,-0.9493727087974548,-0.1003251671791077,33.76994705200195,-28.21573066711426,-13.49775791168213,2,192.168.1.8,10.71.35.210,1,0
2015-03-09 08:06:57.306,60,1425913617.253287,37.77937711685689,-122.4389755447604,63.02011,0.34,214.1015625,4,10,-9999,1425913617.239884,33.50588226318359,-32.04782104492188,-12.34987735748291,321.9854431152344,308.2102661132812,10,348452.8580618334,0.2824859619140625,-0.9914398193359375,-0.0938262939453125,348452.8334955,0.3342197925861102,-0.4332526335140148,-0.0655017785910439,348452.8334955,-1.578397256725983,1.266111944198391,1.256091819457253,0.3238665759563446,-0.420086145401001,-0.03037033975124359,0.01151436287909746,-0.08034685254096985,0.001854800619184971,XTrueNorthZVertical,-0.6734760011818433,-0.0009831374438288667,0.218189008612249,-0.7062737972814225,0.2952788472175598,-0.9508878588676453,-0.0928582176566124,33.09589385986328,-28.47375297546387,-14.58195877075195,2,192.168.1.8,10.71.35.210,1,0
2015-03-09 08:06:57.361,61,1425913617.253287,37.77937711685689,-122.4389755447604,63.02011,0.34,214.1015625,4,10,-9999,1425913617.311195,33.09678268432617,-32.0478515625,-13.68162631988525,325.5192565917969,311.7440795898438,10,348452.907230875,0.2632293701171875,-0.9970703125,-0.0870513916015625,348452.885274125,0.3715301468259023,-0.3077426450285424,-0.05283551813051804,348452.885274125,-1.632009581209412,1.295435611771945,1.260034137778468,0.3611770570278168,-0.2945762872695923,-0.01770439185202122,-0.1027668714523315,-0.02697941847145557,0.01510203815996647,XTrueNorthZVertical,-0.6770244943916099,0.008206375101265642,0.22581191445578,-0.700413791714536,0.2942646741867065,-0.9521007537841797,-0.08314097672700882,32.80203628540039,-28.66023254394531,-14.87763118743896,2,192.168.1.8,10.71.35.210,1,0
2015-03-09 08:06:57.409,62,1425913617.253287,37.77937711685689,-122.4389755447604,63.02011,0.34,214.1015625,4,10,-9999,1425913617.364746,32.97746276855469,-32.2347412109375,-13.36533451080322,326.3373107910156,312.5621337890625,10,348452.9561591667,0.2861175537109375,-0.9231719970703125,0.0700531005859375,348452.9370524167,0.4079243736507072,0.1584642101302219,-0.1295002027467381,348452.885274125,-1.632009581209412,1.295435611771945,1.260034137778468,0.3611770570278168,-0.2945762872695923,-0.01770439185202122,-0.1027668714523315,-0.02697941847145557,0.01510203815996647,XTrueNorthZVertical,-0.6770244943916099,0.008206375101265642,0.22581191445578,-0.700413791714536,0.2942646741867065,-0.9521007537841797,-0.08314097672700882,32.80203628540039,-28.66023254394531,-14.87763118743896,2,192.168.1.8,10.71.35.210,1,0
2015-03-09 08:06:57.460,63,1425913617.253287,37.77937711685689,-122.4389755447604,63.02011,0.34,214.1015625,4,10,-9999,1425913617.415058,32.85813903808594,-32.38764953613281,-13.08233737945557,326.6739807128906,312.8988037109375,10,348453.005349875,0.2322845458984375,-1.0001220703125,0.1277008056640625,348452.98883125,0.4058985070094839,0.2860927432628522,-0.1535128610315465,348452.98883125,-1.763699784650946,1.433368655599459,1.255551621770524,0.39554563164711,0.299258828163147,-0.1183824762701988,0.05580438300967216,-0.02871061488986015,0.1336466073989868,XTrueNorthZVertical,-0.6919157356028859,0.003865977182678265,0.2257703907925403,-0.6857590033091511,0.3071259260177612,-0.9507205486297607,-0.04247533902525902,32.76165771484375,-29.03825378417969,-14.21900177001953,2,192.168.1.8,10.71.35.210,1,0
2015-03-09 08:06:57.540,64,1425913617.253287,37.77937711685689,-122.4389755447604,63.02011,0.34,214.1015625,4,10,-9999,1425913617.518581,33.23315048217773,-32.86338806152344,-11.45094394683838,328.6220092773438,314.8468322753906,10,348453.0542357917,0.2731475830078125,-0.958953857421875,0.118896484375,348453.040610125,0.2861470717490899,-0.003943875258298344,-0.06035175767504868,348453.040610125,-1.8111879701919,1.483860893484924,1.252680258677345,0.2757942676544189,0.009222100488841534,-0.0252216849476099,0.003589011030271649,-0.01758087053894997,0.1742977350950241,XTrueNorthZVertical,-0.6974360321926794,0.002089451986741969,0.2254251919757006,-0.6802662044707812,0.311596542596817,-0.9498263597488403,-0.02715723030269146,33.24336624145508,-29.00654602050781,-13.12345218658447,2,192.168.1.8,10.71.35.210,1,0
2015-03-09 08:06:57.558,65,1425913617.253287,37.77937711685689,-122.4389755447604,63.02011,0.34,214.1015625,4,10,-9999,1425913617.518581,33.23315048217773,-32.86338806152344,-11.45094394683838,328.6220092773438,314.8468322753906,10,348453.103298,0.2978973388671875,-0.9279937744140625,0.12506103515625,348453.092388375,0.1286890038786999,0.4331788639518195,-0.1078002335525544,348453.040610125,-1.8111879701919,1.483860893484924,1.252680258677345,0.2757942676544189,0.009222100488841534,-0.0252216849476099,0.003589011030271649,-0.01758087053894997,0.1742977350950241,XTrueNorthZVertical,-0.6974360321926794,0.002089451986741969,0.2254251919757006,-0.6802662044707812,0.311596542596817,-0.9498263597488403,-0.02715723030269146,33.24336624145508,-29.00654602050781,-13.12345218658447,2,192.168.1.8,10.71.35.210,1,0
2015-03-09 08:06:57.608,66,1425913617.253287,37.77937711685689,-122.4389755447604,63.02011,0.34,214.1015625,4,10,-9999,1425913617.572026,33.72748565673828,-32.67648315429688,-10.33560657501221,327.8940124511719,314.1188354492188,10,348453.1524213334,0.3297576904296875,-0.980743408203125,0.1132049560546875,348453.14416725,0.1347809848722562,2.001573552075683,-0.5229303221646889,348453.092388375,-1.84562394265015,1.526435359478596,1.253271890842253,0.1183363199234009,0.4463447034358978,-0.07267051190137863,-0.1169622987508774,-0.0425272136926651,0.1631529033184052,XTrueNorthZVertical,-0.7021945362163275,-9.090434718711439e-05,0.2220079903832851,-0.6764874634336903,0.3119085729122162,-0.9500112533569336,-0.0138456504791975,33.31700897216797,-29.09494781494141,-12.7352819442749,2,192.168.1.8,10.71.35.210,1,0
2015-03-09 08:06:57.654,67,1425913617.253287,37.77937711685689,-122.4389755447604,63.02011,0.34,214.1015625,4,10,-9999,1425913617.622348,34.83547592163086,-32.11578369140625,-8.054991722106934,324.8596801757812,311.0845031738281,10,348453.2013765,0.3770751953125,-0.8523101806640625,0.272216796875,348453.1959459167,-0.2588981401076171,2.463257294439056,-1.007261053805878,348453.1959459167,-1.84174876306133,1.704425420527916,1.201516468828503,-0.2692506015300751,2.476422786712646,-0.9721320271492004,0.03628633543848991,0.0168923269957304,0.1994999200105667,XTrueNorthZVertical,-0.7195324092327123,-0.07948402539294093,0.1748608071316384,-0.667367298294584,0.357726126909256,-0.9325875043869019,0.04808919504284859,35.43987274169922,-28.23053550720215,-8.110396385192871,2,192.168.1.8,10.71.35.210,1,0
2015-03-09 08:06:57.694,68,1425913617.253287,37.77937711685689,-122.4389755447604,63.02011,0.34,214.1015625,4,10,-9999,1425913617.675045,36.01165008544922,-31.18130493164062,-4.975321769714355,322.5462341308594,308.7710571289062,10,348453.2505145417,0.625244140625,-0.9338531494140625,0.0741424560546875,348453.1959459167,-0.2588981401076171,2.463257294439056,-1.007261053805878,348453.1959459167,-1.84174876306133,1.704425420527916,1.201516468828503,-0.2692506015300751,2.476422786712646,-0.9721320271492004,0.03628633543848991,0.0168923269957304,0.1994999200105667,XTrueNorthZVertical,-0.7195324092327123,-0.07948402539294093,0.1748608071316384,-0.667367298294584,0.357726126909256,-0.9325875043869019,0.04808919504284859,35.43987274169922,-28.23053550720215,-8.110396385192871,2,192.168.1.8,10.71.35.210,1,0
2015-03-09 08:06:57.753,69,1425913617.253287,37.77937711685689,-122.4389755447604,63.02011,0.34,214.1015625,4,10,-9999,1425913617.726258,36.89804458618164,-29.78805541992188,-2.311823844909668,320.2153625488281,306.440185546875,10,348453.29946775,0.3897247314453125,-0.9799041748046875,0.2421417236328125,348453.299503125,0.01809831013596049,-0.1720037211121847,-0.2488947744210615,348453.2477244583,-1.816980711965102,1.769783624577006,1.158888351184045,0.1235849261283875,1.119402647018433,-0.8113661408424377,0.257794976234436,0.04962887987494469,0.02611357904970646,XTrueNorthZVertical,-0.723892008362567,-0.124704186010179,0.1573692331049444,-0.6600486055018578,0.3924583196640015,-0.9163585901260376,0.07914154976606369,37.26837921142578,-26.65179443359375,-4.413163185119629,2,192.168.1.8,10.71.35.210,1,0
2015-03-09 08:06:57.792,70,1425913617.253287,37.77937711685689,-122.4389755447604,63.02011,0.34,214.1015625,4,10,-9999,1425913617.778238,37.51169967651367,-28.59869384765625,-0.9134883880615234,319.8263549804688,306.0511779785156,10,348453.3484962917,0.3907928466796875,-0.885284423828125,0.1650390625,348453.3512820417,0.2058764670169025,-0.5160343328380378,0.1080673486098894,348453.299503125,-1.812632560668746,1.774124060539687,1.136739012039626,0.007746047340333462,-0.1588384062051773,-0.213766485452652,-0.02216719277203083,-0.07263727486133575,0.1572191417217255,XTrueNorthZVertical,-0.7240024879434203,-0.1352097982232015,0.1617990130425615,-0.6567798704492004,0.4118919372558594,-0.9072669148445129,0.08492258191108704,38.38108825683594,-25.31547164916992,-2.178389072418213,2,192.168.1.8,10.71.35.210,1,0
2015-03-09 08:06:57.851,71,1425913617.253287,37.77937711685689,-122.4389755447604,63.02011,0.34,214.1015625,4,10,-9999,1425913617.831676,38.00603485107422,-27.902099609375,-0.8635473251342773,319.9059448242188,306.1307678222656,10,348453.3975566667,0.4994354248046875,-0.7582855224609375,0.1993255615234375,348453.3512820417,0.2058764670169025,-0.5160343328380378,0.1080673486098894,348453.3512820417,-1.826801591946429,1.775143192099653,1.134506847798268,0.1955243051052094,-0.5028691291809082,0.1431952714920044,-0.02299432083964348,0.02104146406054497,0.07928600162267685,XTrueNorthZVertical,-0.7250324277635197,-0.1311659620573307,0.1668243117517611,-0.6552046466792643,0.4137871563434601,-0.9063258767127991,0.08575306087732315,38.75579071044922,-24.72574615478516,-2.313547372817993,2,192.168.1.8,10.71.35.210,1,0
2015-03-09 08:06:57.891,72,1425913617.253287,37.77937711685689,-122.4389755447604,63.02011,0.34,214.1015625,4,10,-9999,1425913617.882322,38.07421875,-27.86810302734375,-1.362953186035156,320.4781188964844,306.7029418945312,10,348453.446709125,0.3908233642578125,-0.9622955322265625,0.0751495361328125,348453.4030602917,0.2021051645972413,-0.8868113377076657,0.2642196685978134,348453.4030602917,-1.847514340774122,1.769578090227364,1.142580082661241,0.1917531043291092,-0.8736462593078613,0.2993472814559937,0.09236375987529755,0.151422381401062,0.117324210703373,XTrueNorthZVertical,-0.7258210999742076,-0.1190983068345302,0.1729355818094489,-0.6550516159954449,0.4070716798305511,-0.9097079038619995,0.08200135082006454,38.58007431030273,-24.95067596435547,-2.787086963653564,2,192.168.1.8,10.71.35.210,1,0
2015-03-09 08:06:57.950,73,1425913617.253287,37.77937711685689,-122.4389755447604,63.02011,0.34,214.1015625,4,10,-9999,1425913617.933895,37.66511154174805,-28.58172607421875,-2.39505672454834,322.7522888183594,308.9771118164062,10,348453.4956614167,0.397125244140625,-0.92437744140625,0.12786865234375,348453.5066180417,0.3486261625028939,-0.5537414980802517,0.1943878563904097,348453.45483925,-1.885197659466494,1.754506219234119,1.157570107975894,0.256422758102417,-0.8019383549690247,0.3280009329319,-0.003985489718616009,-0.04646548256278038,0.001792126917280257,XTrueNorthZVertical,-0.7263462432411957,-0.09539307912496355,0.1857760310901877,-0.6548347673951611,0.3948088586330414,-0.9158300757408142,0.07335741072893143,38.15938568115234,-25.45029067993164,-3.856175184249878,2,192.168.1.8,10.71.35.210,1,0
2015-03-09 08:06:57.988,74,1425913617.253287,37.77937711685689,-122.4389755447604,63.02011,0.34,214.1015625,4,10,-9999,1425913617.933895,37.66511154174805,-28.58172607421875,-2.39505672454834,322.7522888183594,308.9771118164062,10,348453.5446928333,0.3312530517578125,-0.878448486328125,0.1772003173828125,348453.5066180417,0.3486261625028939,-0.5537414980802517,0.1943878563904097,348453.5066180417,-1.922229245964497,1.755373110556029,1.16810491641852,0.3382743299007416,-0.5405767560005188,0.2295147329568863,-0.003510046517476439,0.07136150449514389,0.09360248595476151,XTrueNorthZVertical,-0.7278596159568732,-0.07863084761365301,0.1940984027906934,-0.6529650758114173,0.3852391839027405,-0.9200095534324646,0.07192485779523849,37.42045593261719,-26.24310493469238,-5.453006744384766,2,192.168.1.8,10.71.35.210,1,0
2015-03-09 08:06:58.047,75,1425913617.253287,37.77937711685689,-122.4389755447604,63.02011,0.34,214.1015625,4,10,-9999,1425913617.985706,37.22191619873047,-29.12542724609375,-3.393868446350098,324.4638061523438,310.6886291503906,10,348453.5937497917,0.488677978515625,-0.69598388671875,0.087615966796875,348453.5583962917,0.420423387594776,-0.08203015526440267,-0.1784957089014709,348453.5583962917,-1.9774536520785,1.789854592949384,1.166325679828897,0.4100716412067413,-0.06886550784111023,-0.1433691829442978,-0.03673093020915985,0.07012871652841568,0.06816785037517548,XTrueNorthZVertical,-0.7333645112432438,-0.07025547687004249,0.2000141185977597,-0.6459373227434059,0.3841277956962585,-0.9193108677864075,0.08551867306232452,37.04460144042969,-26.67364501953125,-5.91105842590332,2,192.168.1.8,10.71.35.210,1,0
2015-03-09 08:06:58.086,76,1425913617.253287,37.77937711685689,-122.4389755447604,63.02011,0.34,214.1015625,4,10,-9999,1425913618.039391,37.30714416503906,-29.34628295898438,-3.710160255432129,326.1228637695312,312.3476867675781,10,348453.64278425,0.3866424560546875,-0.764862060546875,0.29638671875,348453.6101752084,0.4463103786547823,-0.3450492708428084,-0.6575166299612604,348453.6101752084,-2.007924902688889,1.819264992150285,1.14035989020511,0.4359587132930756,-0.3318847417831421,-0.6223903894424438,0.11581040173769,0.2115028351545334,-0.0299825631082058,XTrueNorthZVertical,-0.7384807555047257,-0.07715810294476616,0.2072899923040246,-0.6369644188825365,0.4044532775878906,-0.9087837338447571,0.1026143953204155,37.12202453613281,-26.63152503967285,-5.607460498809814,2,192.168.1.8,10.71.35.210,1,0
2015-03-09 08:06:58.148,77,1425913617.253287,37.77937711685689,-122.4389755447604,63.02011,0.34,214.1015625,4,10,-9999,1425913618.121194,38.27876663208008,-28.41180419921875,-3.893277168273926,330.7699584960938,316.9947814941406,10,348453.6918442917,0.499725341796875,-0.58642578125,0.27392578125,348453.661954125,0.4094402449431803,-1.360854810690097,-0.8507614576118081,348453.661954125,-2.031145202236725,1.789797673558506,1.105278687842196,0.3990887105464935,-1.347690343856812,-0.815635621547699,-0.02852631919085979,0.1725504994392395,0.233318492770195,XTrueNorthZVertical,-0.7373780375542572,-0.070957155931043,0.236610881363745,-0.6286923043172375,0.4381637573242188,-0.8935893177986145,0.09752257913351059,37.8592643737793,-25.5379753112793,-5.76318359375,2,192.168.1.8,10.71.35.210,1,0
2015-03-09 08:06:58.185,78,1425913617.253287,37.77937711685689,-122.4389755447604,63.02011,0.34,214.1015625,4,10,-9999,1425913618.121194,38.27876663208008,-28.41180419921875,-3.893277168273926,330.7699584960938,316.9947814941406,10,348453.7408734167,0.1162872314453125,-0.4740447998046875,0.0232086181640625,348453.7137325833,0.5517824767823895,-1.793677343688064,-1.384418726331227,348453.7137325833,-2.060291270142402,1.725314444208812,1.050958662354085,0.5414310693740845,-1.780513048171997,-1.349293231964111,-0.08499827980995178,0.2488965392112732,0.2318536788225174,XTrueNorthZVertical,-0.7313047214736188,-0.05846776203881151,0.2863073375003691,-0.6162816276497717,0.4908210337162018,-0.8678998351097107,0.07645014673471451,38.32266998291016,-24.28216171264648,-7.776622772216797,2,192.168.1.8,10.71.35.210,1,0
2015-03-09 08:06:58.245,79,1425913617.253287,37.77937711685689,-122.4389755447604,63.02011,0.34,214.1015625,4,10,-9999,1425913618.193315,39.30152893066406,-25.42144775390625,-6.689948081970215,339.9135437011719,326.1383666992188,10,348453.789931875,0.1930999755859375,-0.6269378662109375,0.016357421875,348453.76551125,0.9621119512135471,-1.307434462384198,-2.334408767211061,348453.76551125,-2.103780081770799,1.679993708457461,0.9517517739891752,0.9517605900764465,-1.294270277023315,-2.299283742904663,-0.430683046579361,0.1681624799966812,-0.06169559061527252,XTrueNorthZVertical,-0.7264178129434904,-0.06273376856503894,0.3460247418488052,-0.5904646681056613,0.5768012404441833,-0.814433217048645,0.06323672831058502,38.867919921875,-22.30923652648926,-10.50281143188477,2,192.168.1.8,10.71.35.210,1,0
2015-03-09 08:06:58.286,80,1425913617.253287,37.77937711685689,-122.4389755447604,63.02011,0.34,214.1015625,4,10,-9999,1425913618.245483,40.34133529663086,-21.97232055664062,-8.837393760681152,351.1475830078125,337.3724060058594,10,348453.8389687084,0.8477630615234375,-0.703887939453125,0.2046051025390625,348453.817290125,0.9227245976396022,0.2443298499965567,-2.98022426629084,348453.817290125,-2.15819017762041,1.704030512558002,0.8116495660537829,0.9124742150306702,0.2576904296875,-2.945057153701782,-0.1544926762580872,0.02765439637005329,0.06042108684778214,XTrueNorthZVertical,-0.7322890199890369,-0.09731383273071473,0.3930385173828476,-0.5475431891174281,0.6822026371955872,-0.7254235744476318,0.09143438190221786,40.71145629882812,-17.5649242401123,-12.36030101776123,2,192.168.1.8,10.71.35.210,1,0
2015-03-09 08:06:58.362,81,1425913618.339077,37.77937577575238,-122.4389714376279,62.94742,0.38,214.1015625,4,10,-9999,1425913618.300338,41.84138488769531,-16.94305419921875,-9.603150367736816,6.038978576660156,352.2637939453125,10,348453.8880281667,0.854644775390625,-0.6133880615234375,0.276031494140625,348453.8690685834,0.838792412724665,-0.8964519808537526,-3.058917480709373,348453.8690685834,-2.192480331891083,1.711523785365744,0.6598291042795339,0.8285421133041382,-0.8830915093421936,-3.023751020431519,0.1078199073672295,0.07662013918161392,-0.02338884770870209,XTrueNorthZVertical,-0.7324674734550408,-0.1374854702475468,0.4399654447800358,-0.5010185267366283,0.7822862863540649,-0.6129818558692932,0.1108217090368271,42.68697738647461,-12.71057605743408,-11.61850357055664,2,192.168.1.8,10.71.35.210,1,0
2015-03-09 08:06:58.385,82,1425913618.339077,37.77937577575238,-122.4389714376279,62.94742,0.38,214.1015625,4,10,-9999,1425913618.353483,43.66530609130859,-11.0133056640625,-9.952733039855957,15.08985137939453,1.314666748046875,10,348453.9370787084,0.991119384765625,-0.5979156494140625,0.1490020751953125,348453.9208474584,0.9196438528905986,-0.2454230776240342,-2.888346273947542,348453.8690685834,-2.192480331891083,1.711523785365744,0.6598291042795339,0.8285421133041382,-0.8830915093421936,-3.023751020431519,0.1078199073672295,0.07662013918161392,-0.02338884770870209,XTrueNorthZVertical,-0.7324674734550408,-0.1374854702475468,0.4399654447800358,-0.5010185267366283,0.7822862863540649,-0.6129818558692932,0.1108217090368271,42.68697738647461,-12.71057605743408,-11.61850357055664,2,192.168.1.8,10.71.35.210,1,0
2015-03-09 08:06:58.450,83,1425913618.339077,37.77937577575238,-122.4389714376279,62.94742,0.38,214.1015625,4,10,-9999,1425913618.42586,44.75624847412109,-1.362518310546875,-11.15130519866943,33.22039794921875,19.44521331787109,10,348453.9861190417,1.02325439453125,-0.229766845703125,0.111083984375,348453.97262625,0.6797665419205454,0.2277261058643486,-2.790994686615805,348453.97262625,-2.247415135981688,1.709839613439037,0.3660883559186068,0.6695164442062378,0.2410862892866135,-2.755828857421875,0.2901204526424408,-0.1728570163249969,-0.06625548750162125,XTrueNorthZVertical,-0.7206373233796796,-0.2130437906549512,0.522509010692113,-0.4028381015913547,0.9247233271598816,-0.3579657375812531,0.1294116228818893,44.08763122558594,-0.5762348175048828,-13.21647071838379,2,192.168.1.8,10.71.35.210,1,0
2015-03-09 08:06:58.479,84,1425913618.339077,37.77937577575238,-122.4389714376279,62.94742,0.38,214.1015625,4,10,-9999,1425913618.42586,44.75624847412109,-1.362518310546875,-11.15130519866943,33.22039794921875,19.44521331787109,10,348454.0351638334,0.9945220947265625,-0.1097564697265625,0.3314971923828125,348454.0244049167,-0.01300394928674791,-0.3105951568721263,-2.31134179742934,348453.97262625,-2.247415135981688,1.709839613439037,0.3660883559186068,0.6695164442062378,0.2410862892866135,-2.755828857421875,0.2901204526424408,-0.1728570163249969,-0.06625548750162125,XTrueNorthZVertical,-0.7206373233796796,-0.2130437906549512,0.522509010692113,-0.4028381015913547,0.9247233271598816,-0.3579657375812531,0.1294116228818893,44.08763122558594,-0.5762348175048828,-13.21647071838379,2,192.168.1.8,10.71.35.210,1,0
2015-03-09 08:06:58.553,85,1425913618.339077,37.77937577575238,-122.4389714376279,62.94742,0.38,214.1015625,4,10,-9999,1425913618.533764,43.03460311889648,10.81982421875,-10.56866550445557,48.24924850463867,34.47406387329102,10,348454.0842260417,1.339248657226562,0.19036865234375,0.4175567626953125,348454.076183625,0.8609887951460394,0.2300888623834669,-1.63789280624668,348454.076183625,-2.246450646241711,1.700762076663369,0.1315577879979383,0.8507388830184937,0.2434487640857697,-1.602727651596069,0.289295107126236,0.306318998336792,0.3158861696720123,XTrueNorthZVertical,-0.694807908633823,-0.285450709778779,0.5720522956359114,-0.3294177353710711,0.9829979538917542,-0.1311786323785782,0.1284802705049515,43.07265090942383,9.344886779785156,-13.27200889587402,2,192.168.1.8,10.71.35.210,4,0
2015-03-09 08:06:58.577,86,1425913618.339077,37.77937577575238,-122.4389714376279,62.94742,0.38,214.1015625,4,10,-9999,1425913618.533764,43.03460311889648,10.81982421875,-10.56866550445557,48.24924850463867,34.47406387329102,10,348454.1333064167,1.423416137695312,0.1046295166015625,0.292266845703125,348454.127962625,0.6663553953031244,-0.3669401886871507,-0.5399306109832098,348454.076183625,-2.246450646241711,1.700762076663369,0.1315577879979383,0.8507388830184937,0.2434487640857697,-1.602727651596069,0.289295107126236,0.306318998336792,0.3158861696720123,XTrueNorthZVertical,-0.694807908633823,-0.285450709778779,0.5720522956359114,-0.3294177353710711,0.9829979538917542,-0.1311786323785782,0.1284802705049515,43.07265090942383,9.344886779785156,-13.27200889587402,2,192.168.1.8,10.71.35.210,4,0
2015-03-09 08:06:58.652,87,1425913618.339077,37.77937577575238,-122.4389714376279,62.94742,0.38,214.1015625,4,10,-9999,1425913618.584752,42.16526031494141,14.81265258789062,-10.98483753204346,53.45477294921875,39.67958831787109,10,348454.1823265417,1.286788940429688,0.1408843994140625,0.2294921875,348454.1797409584,0.2843544980193575,0.1174760304250303,0.2374959123233043,348454.127962625,-2.279456506466738,1.706735666665505,0.07756839841997887,0.6561055779457092,-0.3535804152488708,-0.5047657489776611,0.4826179146766663,0.1502292901277542,0.1889678686857224,XTrueNorthZVertical,-0.6947056775452916,-0.2914460400567428,0.5846487054162393,-0.301046723133359,0.9877952933311462,-0.07749063521623611,0.1351135522127151,42.03030395507812,12.96424007415771,-13.56864738464355,2,192.168.1.8,10.71.35.210,4,0
2015-03-09 08:06:58.675,88,1425913618.339077,37.77937577575238,-122.4389714376279,62.94742,0.38,214.1015625,4,10,-9999,1425913618.660328,41.68796920776367,16.8515625,-11.85047054290771,57.99190902709961,44.21672439575195,10,348454.2313748333,1.1820068359375,0.0556182861328125,0.282989501953125,348454.1797409584,0.2843544980193575,0.1174760304250303,0.2374959123233043,348454.1797409584,-2.300145821905216,1.70023140909359,0.07195671770592206,0.2741048336029053,0.1308356821537018,0.2726604044437408,0.3048611879348755,0.1397809833288193,0.09530483931303024,XTrueNorthZVertical,-0.695084526683911,-0.2850043515149305,0.5909210264756217,-0.2940108361672943,0.989068865776062,-0.07189463824033737,0.1287399530410767,41.55728912353516,13.55772399902344,-14.4189567565918,2,192.168.1.8,10.71.35.210,4,0
2015-03-09 08:06:58.746,89,1425913618.339077,37.77937577575238,-122.4389714376279,62.94742,0.38,214.1015625,4,10,-9999,1425913618.71075,42.21639251708984,15.67916870117188,-11.23453807830811,55.40032958984375,41.62514495849609,10,348454.2804389167,1.141571044921875,-0.090240478515625,0.2334136962890625,348454.2832987084,-0.3546116170528469,0.4938145145990707,1.48415544073524,348454.2315199584,-2.302908643366929,1.704919154266006,0.1056118498598179,-0.1463932991027832,0.07841547578573227,0.9939854741096497,0.196509525179863,0.1610339134931564,0.1500134915113449,XTrueNorthZVertical,-0.7008528407286951,-0.2743962468317908,0.5840926301992245,-0.3038878175359011,0.9854972958564758,-0.1054156273603439,0.1329760104417801,41.6961784362793,12.97980690002441,-14.54920387268066,2,192.168.1.8,10.71.35.210,4,0
2015-03-09 08:06:58.774,90,1425913618.339077,37.77937577575238,-122.4389714376279,62.94742,0.38,214.1015625,4,10,-9999,1425913618.763489,43.3414306640625,13.02862548828125,-10.10255146026611,51.75930404663086,37.9841194152832,10,348454.3295972084,1.137039184570312,-0.06005859375,0.34881591796875,348454.2832987084,-0.3546116170528469,0.4938145145990707,1.48415544073524,348454.2832987084,-2.298325537618896,1.722639732236913,0.1721149625212005,-0.3648610711097717,0.5071738958358765,1.519319176673889,0.1676823496818542,0.08102596551179886,0.08438802510499954,XTrueNorthZVertical,-0.7126099812955887,-0.2582631423670704,0.565497365622468,-0.3251152168989819,0.9738886952400208,-0.1712664365768433,0.1490256786346436,42.49861145019531,10.72872352600098,-14.05307960510254,2,192.168.1.8,10.71.35.210,4,0
2015-03-09 08:06:58.856,91,1425913618.339077,37.77937577575238,-122.4389714376279,62.94742,0.38,214.1015625,4,10,-9999,1425913618.822373,44.39828109741211,9.59649658203125,-9.13703441619873,47.0032958984375,33.22811126708984,10,348454.3785499583,1.105026245117188,-0.33380126953125,0.3171234130859375,348454.335077375,-0.6777199026228194,0.343556569051819,1.818795213825255,348454.335077375,-2.283656962763867,1.742502388845429,0.2601591517562856,-0.6879692673683167,0.3569158017635345,1.853958606719971,0.1849005818367004,0.1971757560968399,0.1837020665407181,XTrueNorthZVertical,-0.7246699498991662,-0.2396046526976775,0.5393049695699673,-0.355799430646731,0.9521386027336121,-0.2572343647480011,0.1651138514280319,43.43616104125977,8.043058395385742,-12.93582725524902,2,192.168.1.8,10.71.35.210,4,0
2015-03-09 08:06:58.871,92,1425913618.339077,37.77937577575238,-122.4389714376279,62.94742,0.38,214.1015625,4,10,-9999,1425913618.822373,44.39828109741211,9.59649658203125,-9.13703441619873,47.0032958984375,33.22811126708984,10,348454.4275864583,0.914031982421875,-0.621307373046875,0.2057952880859375,348454.3868560834,-0.6020959813606024,0.4864833647503006,2.405861379257887,348454.3868560834,-2.270171728994395,1.759025199736991,0.3728942618488756,-0.6123452186584473,0.499842494726181,2.441024541854858,0.1901983618736267,0.0305110439658165,0.1428634971380234,XTrueNorthZVertical,-0.7362200543364397,-0.2123911215497099,0.5076711913287741,-0.3938781734333155,0.9148278832435608,-0.3643123209476471,0.1742599159479141,44.18875122070312,4.807106971740723,-11.95709991455078,2,192.168.1.8,10.71.35.210,4,0
2015-03-09 08:06:58.951,93,1425913618.339077,37.77937577575238,-122.4389714376279,62.94742,0.38,214.1015625,4,10,-9999,1425913618.893362,45.54036331176758,1.695770263671875,-7.222647666931152,33.35107421875,19.57588768005371,10,348454.4766691667,0.89923095703125,-0.67974853515625,0.3014984130859375,348454.49041375,-1.219573315913066,0.2680378426526601,2.690153292991627,348454.438635,-2.262316228223704,1.789206907887952,0.506067665098978,-0.7994388341903687,0.7868314981460571,2.635944843292236,0.03807424008846283,-0.1225582435727119,0.00881450530141592,XTrueNorthZVertical,-0.7499980898804043,-0.1796176005555265,0.4651786566486287,-0.4345678440446702,0.8538782596588135,-0.4847415685653687,0.1895192414522171,44.79332733154297,-1.109189987182617,-10.53820514678955,2,192.168.1.8,10.71.35.210,4,0
2015-03-09 08:06:58.969,94,1425913618.339077,37.77937577575238,-122.4389714376279,62.94742,0.38,214.1015625,4,10,-9999,1425913618.944988,45.74491882324219,-4.4888916015625,-6.190544128417969,20.8341007232666,7.058915615081787,10,348454.5257182083,0.63446044921875,-0.7194976806640625,0.28094482421875,348454.49041375,-1.219573315913066,0.2680378426526601,2.690153292991627,348454.49041375,-2.241389192766154,1.804778189057904,0.6478106990564549,-1.229822278022766,0.2813966572284698,2.725315809249878,0.07240527123212814,-0.1050540059804916,0.07000187784433365,XTrueNorthZVertical,-0.7557117651103452,-0.146082843584599,0.4203263029677718,-0.4805052974214992,0.7756782174110413,-0.6034420728683472,0.1848809421062469,44.47992324829102,-7.755655288696289,-8.950565338134766,2,192.168.1.8,10.71.35.210,4,0
2015-03-09 08:06:59.051,95,1425913618.339077,37.77937577575238,-122.4389714376279,62.94742,0.38,214.1015625,4,10,-9999,1425913619.00017,45.28467559814453,-11.09829711914062,-5.641195297241211,6.572853088378906,352.7976684570312,10,348454.5747867083,0.4700469970703125,-0.6048583984375,0.228851318359375,348454.5421924167,-1.136415844559233,0.5339464880138017,2.766468837188938,348454.5421924167,-2.203827808481493,1.794593012520855,0.7984463694630123,-1.14666485786438,0.547305166721344,2.801630735397339,-0.1013470143079758,0.01688620448112488,0.1162638962268829,XTrueNorthZVertical,-0.7520094389806719,-0.1091630251424693,0.3753586749482796,-0.5307269671869196,0.680418074131012,-0.71627277135849,0.1548695266246796,43.29986572265625,-12.74734497070312,-9.01959228515625,2,192.168.1.8,10.71.35.210,4,0
2015-03-09 08:06:59.068,96,1425913618.339077,37.77937577575238,-122.4389714376279,62.94742,0.38,214.1015625,4,10,-9999,1425913619.00017,45.28467559814453,-11.09829711914062,-5.641195297241211,6.572853088378906,352.7976684570312,10,348454.6238310834,0.3631744384765625,-0.4128875732421875,0.1444854736328125,348454.5939711667,-0.9127870120319715,0.9006067784703852,2.59779460007157,348454.5939711667,-2.180413103319359,1.81486887941032,0.9427939981955378,-0.9230358600616455,0.9139653444290161,2.632956266403198,-0.1123830005526543,0.2027422487735748,0.03299224749207497,XTrueNorthZVertical,-0.7517495252402741,-0.07656889237346431,0.3210430073090285,-0.5709126504224026,0.5701161623001099,-0.8092027902603149,0.1419802904129028,41.60382843017578,-17.66976165771484,-8.6964111328125,2,192.168.1.8,10.71.35.210,4,0
2015-03-09 08:06:59.154,97,1425913618.339077,37.77937577575238,-122.4389714376279,62.94742,0.38,214.1015625,4,10,-9999,1425913619.12671,39.26743698120117,-25.2176513671875,-4.825502395629883,339.0494995117188,325.2743225097656,10,348454.67289725,0.5031890869140625,-0.3750152587890625,0.1128082275390625,348454.64575025,-0.5328934741187844,0.8262324123916333,2.495017354651014,348454.64575025,-2.172884597618976,1.848892169606128,1.078808569432596,-0.5431422591209412,0.839590847492218,2.530178546905518,-0.108862578868866,0.5205710530281067,-0.02668304741382599,XTrueNorthZVertical,-0.7501995930717623,-0.04517197152775469,0.2664018372035695,-0.6034816779409748,0.454230010509491,-0.8813956379890442,0.129679873585701,38.72389221191406,-23.63346290588379,-7.787539005279541,2,192.168.1.8,10.71.35.210,4,0
2015-03-09 08:06:59.168,98,1425913618.339077,37.77937577575238,-122.4389714376279,62.94742,0.38,214.1015625,4,10,-9999,1425913619.12671,39.26743698120117,-25.2176513671875,-4.825502395629883,339.0494995117188,325.2743225097656,10,348454.7219404583,0.623382568359375,-0.5833282470703125,0.142059326171875,348454.6975285833,-0.1612879598340329,-0.03705256024627244,0.9932472338337726,348454.6975285833,-2.209659970393069,1.906629904793138,1.170859824798925,-0.1715366244316101,-0.02369425632059574,1.028408169746399,0.2779601812362671,0.5521129369735718,0.0499219112098217,XTrueNorthZVertical,-0.7508512249136925,-0.01950484782348239,0.2287070060038594,-0.6193021195623138,0.3676086664199829,-0.9210857152938843,0.1283160001039505,36.32033538818359,-27.39564895629883,-7.00271463394165,2,192.168.1.8,10.71.35.210,4,0
2015-03-09 08:06:59.249,99,1425913619.174003,37.7793713333437,-122.4389709347137,62.77524,0.4,214.1015625,3,10,-9999,1425913619.232813,36.65939712524414,-30.05999755859375,-5.508021354675293,333.4420776367188,319.6669006347656,10,348454.771012875,0.230743408203125,-0.6198883056640625,0.0709991455078125,348454.749307625,0.1994856793490394,-0.5282518506548853,-0.4286014226701914,348454.749307625,-2.218058336004397,1.894332721517227,1.177960979710816,0.189237117767334,-0.514893651008606,-0.3934407830238342,0.08842216432094574,0.2132255733013153,0.007843811064958572,XTrueNorthZVertical,-0.7488295626231795,-0.01029271667846583,0.2338207920011657,-0.6200614439598191,0.362948089838028,-0.9238273501396179,0.1217033043503761,35.19252777099609,-28.74590873718262,-7.340643405914307,2,192.168.1.8,10.71.35.210,4,0
2015-03-09 08:06:59.269,100,1425913619.174003,37.7793713333437,-122.4389709347137,62.77524,0.4,214.1015625,3,10,-9999,1425913619.232813,36.65939712524414,-30.05999755859375,-5.508021354675293,333.4420776367188,319.6669006347656,10,348454.8201627083,0.31854248046875,-0.5013580322265625,0.1374053955078125,348454.8010864167,0.5358341365944499,-0.9877637851492994,-1.301985368477786,348454.8010864167,-2.219086503261744,1.851363762620365,1.124713202738433,0.5256773829460144,-0.9742319583892822,-1.266782283782959,-0.03642220422625542,0.2536453604698181,0.02447131834924221,XTrueNorthZVertical,-0.748026004920944,-0.01376646862664881,0.2659185351764605,-0.6079102926302554,0.4145655035972595,-0.9021438956260681,0.1194648370146751,35.87710189819336,-27.57812881469727,-8.426548004150391,2,192.168.1.8,10.71.35.210,4,0
2015-03-09 08:06:59.352,101,1425913619.174003,37.7793713333437,-122.4389709347137,62.77524,0.4,214.1015625,3,10,-9999,1425913619.307161,38.14240264892578,-27.664306640625,-5.557958602905273,343.1516418457031,329.37646484375,10,348454.869119875,0.46087646484375,-0.3812255859375,0.021484375,348454.8528649167,0.5174729724588986,0.292537060468626,-2.426599947298552,348454.8528649167,-2.220242688552511,1.84515076850258,1.029693809379587,0.5073162913322449,0.3060687482357025,-2.39139723777771,-0.0007307825144380331,0.2613313794136047,0.08799035102128983,XTrueNorthZVertical,-0.7536570245762159,-0.04213602574108607,0.2962223327486049,-0.5852161866825626,0.4958174526691437,-0.8571413159370422,0.1395487040281296,37.36154937744141,-25.40189743041992,-8.808198928833008,2,192.168.1.8,10.71.35.210,4,0
2015-03-09 08:06:59.362,102,1425913619.174003,37.7793713333437,-122.4389709347137,62.77524,0.4,214.1015625,3,10,-9999,1425913619.307161,38.14240264892578,-27.664306640625,-5.557958602905273,343.1516418457031,329.37646484375,10,348454.9181559167,0.343017578125,-0.7816162109375,0.0916595458984375,348454.904643875,0.6103911955239812,-0.6620594501487176,-2.653425904714453,348454.8528649167,-2.220242688552511,1.84515076850258,1.029693809379587,0.5073162913322449,0.3060687482357025,-2.39139723777771,-0.0007307825144380331,0.2613313794136047,0.08799035102128983,XTrueNorthZVertical,-0.7536570245762159,-0.04213602574108607,0.2962223327486049,-0.5852161866825626,0.4958174526691437,-0.8571413159370422,0.1395487040281296,37.36154937744141,-25.40189743041992,-8.808198928833008,2,192.168.1.8,10.71.35.210,4,0
2015-03-09 08:06:59.452,103,1425913619.174003,37.7793713333437,-122.4389709347137,62.77524,0.4,214.1015625,3,10,-9999,1425913619.411408,42.81300354003906,-18.455322265625,-6.65665340423584,3.918373107910156,350.1431884765625,10,348454.9672242917,0.57037353515625,-0.4001617431640625,0.160247802734375,348454.9564229167,0.9616799864847363,-0.8958232085203848,-2.933163280351941,348454.9564229167,-2.227736525544668,1.78583596166262,0.7560606808756954,0.95152348279953,-0.8822917342185974,-2.897961139678955,-0.05574287846684456,0.1033733710646629,0.1103008314967155,XTrueNorthZVertical,-0.7517688558140535,-0.1116580667053396,0.3962298043840566,-0.515148538402333,0.7107874155044556,-0.6860607266426086,0.1552478671073914,42.42162322998047,-15.25243854522705,-9.300270080566406,2,192.168.1.8,10.71.35.210,4,0
2015-03-09 08:06:59.460,104,1425913619.174003,37.7793713333437,-122.4389709347137,62.77524,0.4,214.1015625,3,10,-9999,1425913619.411408,42.81300354003906,-18.455322265625,-6.65665340423584,3.918373107910156,350.1431884765625,10,348455.0162535,0.8373260498046875,-0.53955078125,0.1594696044921875,348455.0082015,1.107514155145257,-0.2491296652292065,-2.987669932066483,348454.9564229167,-2.227736525544668,1.78583596166262,0.7560606808756954,0.95152348279953,-0.8822917342185974,-2.897961139678955,-0.05574287846684456,0.1033733710646629,0.1103008314967155,XTrueNorthZVertical,-0.7517688558140535,-0.1116580667053396,0.3962298043840566,-0.515148538402333,0.7107874155044556,-0.6860607266426086,0.1552478671073914,42.42162322998047,-15.25243854522705,-9.300270080566406,2,192.168.1.8,10.71.35.210,4,0
2015-03-09 08:06:59.551,105,1425913619.174003,37.7793713333437,-122.4389709347137,62.77524,0.4,214.1015625,3,10,-9999,1425913619.519421,45.94947052001953,-5.4063720703125,-8.321337699890137,22.95702743530273,9.181841850280762,10,348455.065321,1.019760131835938,-0.596923828125,0.2374420166015625,348455.05998025,0.6860233725855776,-0.1968470193409889,-2.843894653244702,348455.0082015,-2.250887264487746,1.763566016709114,0.5978673666323129,1.097357749938965,-0.2355983853340149,-2.952468156814575,0.01694248989224434,-0.01637309789657593,0.07441107183694839,XTrueNorthZVertical,-0.7463486181103004,-0.1487850386978063,0.4503927228017422,-0.4668759564214069,0.8112282752990723,-0.5628810524940491,0.158346489071846,43.69392013549805,-9.882619857788086,-10.57834434509277,2,192.168.1.8,10.71.35.210,4,0
2015-03-09 08:06:59.558,106,1425913619.174003,37.7793713333437,-122.4389709347137,62.77524,0.4,214.1015625,3,10,-9999,1425913619.519421,45.94947052001953,-5.4063720703125,-8.321337699890137,22.95702743530273,9.181841850280762,10,348455.11444575,0.917694091796875,-0.19970703125,0.30859375,348455.1117592084,0.3544512947552241,-0.3845503413952997,-2.668535082842909,348455.05998025,-2.273118215393546,1.769308568798876,0.4490026010033867,0.6758670806884766,-0.1833158731460571,-2.808693408966064,0.1060391291975975,-0.2063746750354767,0.09467531740665436,XTrueNorthZVertical,-0.7436156953426625,-0.1893871019353539,0.4878692656953246,-0.4161151448615084,0.8831881880760193,-0.4340672194957733,0.1776635497808456,44.5223274230957,-4.567939758300781,-10.7527961730957,2,192.168.1.8,10.71.35.210,4,0
2015-03-09 08:06:59.648,107,1425913619.174003,37.7793713333437,-122.4389709347137,62.77524,0.4,214.1015625,3,10,-9999,1425913619.592895,45.57445526123047,4.7200927734375,-9.087094306945801,39.60017395019531,25.82498741149902,10,348455.1633870417,1.209991455078125,-0.07269287109375,0.39447021484375,348455.16353775,0.7438278166779654,0.05745450472515147,-2.161750707419043,348455.1117592084,-2.272296769657791,1.754737350209904,0.3126265857415783,0.3442951142787933,-0.3710193037986755,-2.633333921432495,0.06786446273326874,-0.07507042586803436,0.1620501726865768,XTrueNorthZVertical,-0.7309475058395821,-0.2296425532786024,0.5222617218197959,-0.3744632776188244,0.9354771971702576,-0.3075589537620544,0.1740399152040482,44.56995391845703,2.333804130554199,-11.260498046875,2,192.168.1.8,10.71.35.210,4,0
2015-03-09 08:06:59.658,108,1425913619.174003,37.7793713333437,-122.4389709347137,62.77524,0.4,214.1015625,3,10,-9999,1425913619.644209,44.44942092895508,10.63284301757812,-9.453326225280762,50.93753433227539,37.16234970092773,10,348455.2125290417,1.433624267578125,0.0672607421875,0.3197479248046875,348455.16353775,0.7438278166779654,0.05745450472515147,-2.161750707419043,348455.16353775,-2.280419647356388,1.748151263930155,0.1867842388617992,0.7336717247962952,0.07098538428544998,-2.126550197601318,0.2427983283996582,0.1130071580410004,0.2211122661828995,XTrueNorthZVertical,-0.7188858319550845,-0.2643522892058745,0.5507366364020481,-0.3316778498227614,0.9671931266784668,-0.1857000291347504,0.1733579486608505,43.85322570800781,7.263613700866699,-11.95243549346924,2,192.168.1.8,10.71.35.210,4,0
2015-03-09 08:06:59.750,109,1425913619.174003,37.7793713333437,-122.4389709347137,62.77524,0.4,214.1015625,3,10,-9999,1425913619.70032,43.40961456298828,14.93154907226562,-9.736321449279785,56.17729187011719,42.40210723876953,10,348455.2614511667,1.416366577148438,0.223846435546875,0.3015899658203125,348455.2670955834,0.1045839339040657,-0.4876945704140686,-0.5689012762694188,348455.2153168333,-2.302049069404638,1.751865644150529,0.09421405152141639,0.7054654955863953,-0.05953867360949516,-1.352583169937134,0.4543349146842957,0.1613354831933975,0.1404650509357452,XTrueNorthZVertical,-0.7129623872738879,-0.285177266251152,0.5693023325477222,-0.2936893362629854,0.9792893528938293,-0.09407473355531693,0.1792828738689423,43.01790618896484,10.93564605712891,-12.1900634765625,2,192.168.1.8,10.71.35.210,4,0
2015-03-09 08:06:59.754,110,1425913619.174003,37.7793713333437,-122.4389709347137,62.77524,0.4,214.1015625,3,10,-9999,1425913619.70032,43.40961456298828,14.93154907226562,-9.736321449279785,56.17729187011719,42.40210723876953,10,348455.3104771667,1.285186767578125,0.304901123046875,0.3130035400390625,348455.2670955834,0.1045839339040657,-0.4876945704140686,-0.5689012762694188,348455.2670955834,-2.308554106894925,1.738654515919508,0.04749710008393163,0.09442805498838425,-0.4741639494895935,-0.5337013602256775,0.4315336346626282,0.2713256776332855,0.1347073614597321,XTrueNorthZVertical,-0.7045869902208932,-0.2949550444160495,0.5826603607322223,-0.2776069342596075,0.9848329424858093,-0.04747924208641052,0.1668826043605804,42.01529693603516,13.67697906494141,-12.89888191223145,2,192.168.1.8,10.71.35.210,4,0
2015-03-09 08:06:59.853,111,1425913619.174003,37.7793713333437,-122.4389709347137,62.77524,0.4,214.1015625,3,10,-9999,1425913619.825876,42.28458023071289,17.17434692382812,-10.7018404006958,60.32084655761719,46.54566192626953,10,348455.359537125,1.196868896484375,0.1463165283203125,0.2982635498046875,348455.318874375,0.02853364055132697,0.1965615284721324,0.4365648069617463,348455.318874375,-2.313526347573108,1.730421682900457,0.04826961967871243,0.01837786659598351,0.2100920230150223,0.4717643857002258,0.2990497946739197,0.3531520068645477,0.1542403399944305,XTrueNorthZVertical,-0.7030051273462375,-0.2918311029125094,0.5861234092590896,-0.2776288139745284,0.9861369729042053,-0.04825087636709213,0.158763200044632,41.5796012878418,14.22632503509521,-13.69214534759521,2,192.168.1.8,10.71.35.210,4,0
2015-03-09 08:06:59.855,112,1425913619.174003,37.7793713333437,-122.4389709347137,62.77524,0.4,214.1015625,3,10,-9999,1425913619.825876,42.28458023071289,17.17434692382812,-10.7018404006958,60.32084655761719,46.54566192626953,10,348455.4085657084,1.1534423828125,0.0471038818359375,0.2927398681640625,348455.3706531667,-0.1972755219603826,0.04054955707365549,1.166272277224003,348455.3706531667,-2.314361651975147,1.734470057823765,0.09401622915702652,-0.2074311822652817,0.05407989397644997,1.201471447944641,0.1934573799371719,0.2546443939208984,0.1241068467497826,XTrueNorthZVertical,-0.7096877810172023,-0.2783081343472079,0.5773272787090897,-0.2925424072199544,0.9822781085968018,-0.09387778490781784,0.1622243225574493,42.00436401367188,13.18221473693848,-13.43833160400391,2,192.168.1.8,10.71.35.210,4,0
2015-03-09 08:06:59.913,113,1425913619.174003,37.7793713333437,-122.4389709347137,62.77524,0.4,214.1015625,3,10,-9999,1425913619.87815,43.54598236083984,14.31988525390625,-10.10255527496338,55.77420425415039,41.99901962280273,10,348455.4576265417,1.07696533203125,-0.0008392333984375,0.348663330078125,348455.42243225,-0.2270914745765827,0.3467126812596719,1.678460739131857,348455.42243225,-2.314542742819052,1.747282587118739,0.1698432590158283,-0.237247034907341,0.3602428734302521,1.713659524917603,0.1748248785734177,0.1726747155189514,0.1287735849618912,XTrueNorthZVertical,-0.72140235783215,-0.257101665429717,0.5596718625943746,-0.3166145746807243,0.9703014492988586,-0.1690278649330139,0.1730452626943588,43.00090789794922,10.10721588134766,-12.94187450408936,2,192.168.1.8,10.71.35.210,4,0
2015-03-09 08:06:59.950,114,1425913619.174003,37.7793713333437,-122.4389709347137,62.77524,0.4,214.1015625,3,10,-9999,1425913619.933186,44.80738830566406,10.5819091796875,-9.303507804870605,48.58758926391602,34.81240463256836,10,348455.506666,1.073532104492188,-0.2086639404296875,0.3313751220703125,348455.4742106667,-0.2839917754788887,0.0451610868172367,2.010325764682119,348455.4742106667,-2.318186534779001,1.756779508615003,0.2653949729738141,-0.294147253036499,0.05869116634130478,2.045524120330811,0.1741956472396851,0.240531399846077,0.1925023049116135,XTrueNorthZVertical,-0.7329940924701046,-0.2279014974164335,0.5391513173893698,-0.3465493266033194,0.9483476877212524,-0.2622904479503632,0.1784388571977615,43.83738708496094,6.780952453613281,-12.28936767578125,2,192.168.1.8,10.71.35.210,4,0
2015-03-09 08:07:00.018,115,1425913619.174003,37.7793713333437,-122.4389709347137,62.77524,0.4,214.1015625,3,10,-9999,1425913620.006466,46.23925399780273,3.139984130859375,-8.304696083068848,40.10733795166016,26.33215141296387,10,348455.5557294167,1.066696166992188,-0.4604949951171875,0.3189544677734375,348455.5259895833,-0.4259891279569327,0.2096384483727485,2.422320247426794,348455.5259895833,-2.322408505368497,1.76398733980739,0.3801951889572542,-0.4361445009708405,0.2231683880090714,2.457518339157104,0.1562181562185287,0.1003955528140068,0.1500567942857742,XTrueNorthZVertical,-0.7432218755573812,-0.1917346058696775,0.5144421761907181,-0.3823719954360659,0.9113172292709351,-0.3711017370223999,0.1782818287611008,44.32621002197266,2.795392990112305,-12.08715057373047,2,192.168.1.8,10.71.35.210,4,0
2015-03-09 08:07:00.084,116,1425913619.174003,37.7793713333437,-122.4389709347137,62.77524,0.4,214.1015625,3,10,-9999,1425913620.064374,46.23925399780273,-2.6368408203125,-8.404574394226074,28.05743026733398,14.28224468231201,10,348455.6047635417,0.91705322265625,-0.5638427734375,0.280059814453125,348455.5777685834,-0.7420142039756215,0.1044017736855043,2.741132055210142,348455.5777685834,-2.317811072210936,1.773676099526371,0.5167947257820938,-0.7521694302558899,0.117931567132473,2.776329755783081,0.08848731219768524,0.04292411729693413,0.1118554323911667,XTrueNorthZVertical,-0.7513145196523131,-0.1520372232495388,0.4805065484059718,-0.4260570891063734,0.8515761494636536,-0.4940959811210632,0.1751776486635208,44.42720031738281,-3.557369232177734,-11.50198173522949,2,192.168.1.8,10.71.35.210,4,0
2015-03-09 08:07:00.111,117,1425913619.174003,37.7793713333437,-122.4389709347137,62.77524,0.4,214.1015625,3,10,-9999,1425913620.064374,46.23925399780273,-2.6368408203125,-8.404574394226074,28.05743026733398,14.28224468231201,10,348455.653826,0.6837310791015625,-0.6845550537109375,0.1698760986328125,348455.6295471667,-1.032187176344584,-0.03483867443208957,2.816114420965759,348455.6295471667,-2.297230900764141,1.764395103319684,0.6650788253010869,-1.0423424243927,-0.02130901254713535,2.851311922073364,0.05754385516047478,0.02135699987411499,0.1146348416805267,XTrueNorthZVertical,-0.7507543674563525,-0.1098240525969805,0.4446236116387451,-0.4760424478156741,0.7721680402755737,-0.617121160030365,0.1513868868350983,43.7077522277832,-8.701959609985352,-11.5167121887207,2,192.168.1.8,10.71.35.210,4,0
2015-03-09 08:07:00.152,118,1425913619.174003,37.7793713333437,-122.4389709347137,62.77524,0.4,214.1015625,3,10,-9999,1425913620.13687,44.63692855834961,-12.5594482421875,-8.804099082946777,16.00979232788086,2.234607696533203,10,348455.7028555833,0.4796295166015625,-0.779815673828125,0.1892547607421875,348455.681326125,-1.037484470068861,0.4281231189384131,2.815445168583822,348455.681326125,-2.266129691888766,1.752658791470683,0.8165448370856245,-1.047639489173889,0.4416526556015015,2.850642204284668,-0.08159305155277252,0.02645274251699448,0.03748736903071404,XTrueNorthZVertical,-0.7464495377033071,-0.06881127278999119,0.4026792552424905,-0.525288039773919,0.6734509468078613,-0.7287842631340027,0.1238438040018082,42.26564025878906,-13.75555229187012,-11.96355438232422,2,192.168.1.8,10.71.35.210,4,0
2015-03-09 08:07:00.209,119,1425913619.174003,37.7793713333437,-122.4389709347137,62.77524,0.4,214.1015625,3,10,-9999,1425913620.189815,42.94937515258789,-18.82907104492188,-8.920624732971191,2.194252014160156,348.4190673828125,10,348455.7519024584,0.296142578125,-0.85284423828125,0.0520172119140625,348455.7331050417,-1.109161053963362,1.085527363501672,2.659531734145678,348455.7331050417,-2.220664781628637,1.755207228630835,0.9628127669084052,-1.119315981864929,1.099056720733643,2.69472861289978,-0.03723631054162979,0.0138404443860054,-0.001165314577519894,XTrueNorthZVertical,-0.742249435474978,-0.03790465520539332,0.3491148850967966,-0.5707432177322126,0.5615283250808716,-0.8208014965057373,0.1047419756650925,39.74935913085938,-19.9798583984375,-11.81185531616211,2,192.168.1.8,10.71.35.210,4,0
2015-03-09 08:07:00.254,120,1425913619.174003,37.7793713333437,-122.4389709347137,62.77524,0.4,214.1015625,3,10,-9999,1425913620.189815,42.94937515258789,-18.82907104492188,-8.920624732971191,2.194252014160156,348.4190673828125,10,348455.80093475,0.3996124267578125,-0.4885101318359375,0.07745361328125,348455.7848836667,-1.149482910763816,0.6540574500213565,2.686398235854615,348455.7331050417,-2.220664781628637,1.755207228630835,0.9628127669084052,-1.119315981864929,1.099056720733643,2.69472861289978,-0.03723631054162979,0.0138404443860054,-0.001165314577519894,XTrueNorthZVertical,-0.742249435474978,-0.03790465520539332,0.3491148850967966,-0.5707432177322126,0.5615283250808716,-0.8208014965057373,0.1047419756650925,39.74935913085938,-19.9798583984375,-11.81185531616211,2,192.168.1.8,10.71.35.210,4,0
2015-03-09 08:07:00.345,121,1425913620.25601,37.77936772912534,-122.4389700127043,63.10428,0.41,214.1015625,4,10,-9999,1425913620.292708,37.23896408081055,-29.61820983886719,-9.103741645812988,338.6771240234375,324.9019470214844,10,348455.8499835834,0.4575042724609375,-0.3280792236328125,0.042083740234375,348455.8366628333,-0.5512607635248429,0.1959037276828828,2.283445717642977,348455.8366628333,-2.078797165100045,1.687124742886628,1.244546047488567,-0.5613321661949158,0.2095861881971359,2.318685054779053,-0.09191742539405823,0.6350864768028259,0.09153994172811508,XTrueNorthZVertical,-0.7196512974725335,0.02648093829469732,0.2450531696821356,-0.6491145699447077,0.3183273375034332,-0.9472507834434509,0.03719846159219742,34.71609497070312,-27.89025688171387,-11.64700126647949,2,192.168.1.8,10.71.35.210,4,0
2015-03-09 08:07:00.348,122,1425913620.25601,37.77936772912534,-122.4389700127043,63.10428,0.41,214.1015625,4,10,-9999,1425913620.343506,34.57978439331055,-33.18629455566406,-9.436676979064941,329.9161071777344,316.1409301757812,10,348455.8990176667,0.3732757568359375,-0.881622314453125,0.00799560546875,348455.888441625,-0.09001804063798635,0.03801795614142617,-0.2136369184333934,348455.8366628333,-2.078797165100045,1.687124742886628,1.244546047488567,-0.5613321661949158,0.2095861881971359,2.318685054779053,-0.09191742539405823,0.6350864768028259,0.09153994172811508,XTrueNorthZVertical,-0.7196512974725335,0.02648093829469732,0.2450531696821356,-0.6491145699447077,0.3183273375034332,-0.9472507834434509,0.03719846159219742,34.71609497070312,-27.89025688171387,-11.64700126647949,2,192.168.1.8,10.71.35.210,4,0
2015-03-09 08:07:00.409,123,1425913620.25601,37.77936772912534,-122.4389700127043,63.10428,0.41,214.1015625,4,10,-9999,1425913620.398837,33.65929794311523,-34.51155090332031,-9.669734001159668,327.2391662597656,313.4639892578125,10,348455.948067375,0.1544342041015625,-0.9370574951171875,0.03021240234375,348455.9402204167,0.187305978419671,-0.138840973954082,-0.3711338684556985,348455.888441625,-2.072637175819654,1.696332514833015,1.294063882349147,-0.100089356303215,0.05170027911663055,-0.1783978343009949,0.5034264326095581,0.4174434244632721,-0.06481734663248062,XTrueNorthZVertical,-0.7180827026561439,0.03822749557244742,0.2237647761876539,-0.6578945406359815,0.2710639238357544,-0.961953341960907,0.03420821949839592,31.55603790283203,-31.32833480834961,-11.89445114135742,2,192.168.1.8,10.71.35.210,4,0
2015-03-09 08:07:00.444,124,1425913620.25601,37.77936772912534,-122.4389700127043,63.10428,0.41,214.1015625,4,10,-9999,1425913620.398837,33.65929794311523,-34.51155090332031,-9.669734001159668,327.2391662597656,313.4639892578125,10,348455.99709375,0.6874847412109375,-0.5451202392578125,0.0538482666015625,348455.9919992083,0.5028495549132735,0.8419064469872947,-0.727948452362259,348455.9402204167,-2.046570238401512,1.658603271513133,1.272835694315545,0.1772347688674927,-0.1251588016748428,-0.3358951508998871,-0.3340815901756287,-0.03762361407279968,-0.0374327227473259,XTrueNorthZVertical,-0.7153442868596235,0.03398230465485618,0.2356147013822795,-0.6569729656940339,0.2924403548240662,-0.9559371471405029,0.02574449218809605,31.88983154296875,-30.84830093383789,-12.25345993041992,2,192.168.1.8,10.71.35.210,4,0
2015-03-09 08:07:00.545,125,1425913620.25601,37.77936772912534,-122.4389700127043,63.10428,0.41,214.1015625,4,10,-9999,1425913620.525742,36.42075347900391,-30.97752380371094,-8.471161842346191,330.8146057128906,317.0394287109375,10,348456.046153875,0.453765869140625,-0.7666168212890625,-0.0262451171875,348456.0437783333,0.3802490699187127,-0.7230570243881105,-2.031305881433654,348456.0437783333,-2.118546542954919,1.757304885945908,1.176622508288978,0.3701780438423157,-0.7093751430511475,-1.996067762374878,0.1196240112185478,0.175389364361763,-0.07609604299068451,XTrueNorthZVertical,-0.731836609022893,-0.00466836773857797,0.2538000626544344,-0.6324388691136641,0.3773852586746216,-0.9233141541481018,0.07121323049068451,34.39471054077148,-28.87990188598633,-10.0837287902832,2,192.168.1.8,10.71.35.210,4,0
2015-03-09 08:07:00.548,126,1425913620.25601,37.77936772912534,-122.4389700127043,63.10428,0.41,214.1015625,4,10,-9999,1425913620.525742,36.42075347900391,-30.97752380371094,-8.471161842346191,330.8146057128906,317.0394287109375,10,348456.0951896667,0.218780517578125,-0.7093505859375,0.1761016845703125,348456.0437783333,0.3802490699187127,-0.7230570243881105,-2.031305881433654,348456.0437783333,-2.118546542954919,1.757304885945908,1.176622508288978,0.3701780438423157,-0.7093751430511475,-1.996067762374878,0.1196240112185478,0.175389364361763,-0.07609604299068451,XTrueNorthZVertical,-0.731836609022893,-0.00466836773857797,0.2538000626544344,-0.6324388691136641,0.3773852586746216,-0.9233141541481018,0.07121323049068451,34.39471054077148,-28.87990188598633,-10.0837287902832,2,192.168.1.8,10.71.35.210,4,0
2015-03-09 08:07:00.609,127,1425913620.25601,37.77936772912534,-122.4389700127043,63.10428,0.41,214.1015625,4,10,-9999,1425913620.578329,38.84128570556641,-27.95315551757812,-8.337986946105957,340.739990234375,326.9648132324219,10,348456.1442535833,0.4869232177734375,-0.4223175048828125,0.2668914794921875,348456.147335875,1.346372540682246,-0.4724618216110333,-2.237525896231177,348456.0955567917,-2.135516115140975,1.736919603211444,1.07380989439893,0.5010099411010742,-0.4378198981285095,-2.231898784637451,-0.2514345049858093,0.1696727722883224,0.09726143628358841,XTrueNorthZVertical,-0.7339656216883446,-0.0267318368127925,0.2981199123970967,-0.6096756546273088,0.4702150225639343,-0.8790233731269836,0.07884024828672409,36.41983032226562,-26.02437019348145,-10.72632789611816,2,192.168.1.8,10.71.35.210,4,0
2015-03-09 08:07:00.644,128,1425913620.25601,37.77936772912534,-122.4389700127043,63.10428,0.41,214.1015625,4,10,-9999,1425913620.632994,41.48341751098633,-23.92636108398438,-8.587687492370605,347.8982238769531,334.123046875,10,348456.1932854167,0.6334228515625,-0.8058319091796875,0.041015625,348456.147335875,1.346372540682246,-0.4724618216110333,-2.237525896231177,348456.147335875,-2.178245347674169,1.760253478268223,0.9529483358545534,1.336301684379578,-0.4587801992893219,-2.202288627624512,-0.08199381828308105,0.3928094506263733,0.1577976793050766,XTrueNorthZVertical,-0.7423872267134813,-0.05837901422216372,0.33790688590958,-0.5755623716841103,0.5689170360565186,-0.8151269555091858,0.1090938076376915,38.73979949951172,-22.52507781982422,-10.51546764373779,2,192.168.1.8,10.71.35.210,4,0
2015-03-09 08:07:00.708,129,1425913620.25601,37.77936772912534,-122.4389700127043,63.10428,0.41,214.1015625,4,10,-9999,1425913620.68553,43.73348999023438,-18.96505737304688,-8.887330055236816,2.603645324707031,348.8284606933594,10,348456.242350625,0.5531158447265625,-0.5286712646484375,0.1531524658203125,348456.1991147083,1.092870497575348,-1.237375216219701,-2.704598545060326,348456.1991147083,-2.234096618646904,1.771948114222162,0.8132597981433506,1.082799792289734,-1.22369372844696,-2.669361352920532,-0.03985630348324776,-0.07930096238851547,-0.09627234190702438,XTrueNorthZVertical,-0.7490540597943525,-0.08695976368675301,0.3878907859734642,-0.529996947250326,0.6732791662216187,-0.7265309691429138,0.137287974357605,41.37827301025391,-17.40616989135742,-10.17792510986328,2,192.168.1.8,10.71.35.210,4,0
2015-03-09 08:07:00.743,130,1425913620.25601,37.77936772912534,-122.4389700127043,63.10428,0.41,214.1015625,4,10,-9999,1425913620.68553,43.73348999023438,-18.96505737304688,-8.887330055236816,2.603645324707031,348.8284606933594,10,348456.291382125,0.695587158203125,-0.419036865234375,0.20782470703125,348456.2508934584,1.054879173044822,-0.2672844343802767,-2.881921131501617,348456.2508934584,-2.258516759758124,1.74887690010554,0.6684267034984281,1.044808626174927,-0.25360307097435,-2.846684455871582,-0.2192706912755966,0.09108076989650726,0.01413274928927422,XTrueNorthZVertical,-0.7451413728704906,-0.1194746524072285,0.4402843044981479,-0.4864564564419595,0.7723865509033203,-0.619752049446106,0.139019712805748,42.68859100341797,-12.71715259552002,-11.60535430908203,2,192.168.1.8,10.71.35.210,4,0
2015-03-09 08:07:00.794,131,1425913620.25601,37.77936772912534,-122.4389700127043,63.10428,0.41,214.1015625,4,10,-9999,1425913620.759899,45.69377899169922,-9.09344482421875,-9.503266334533691,15.78480243682861,2.009617805480957,10,348456.34048775,0.9664154052734375,-0.224456787109375,0.3028564453125,348456.3026723334,0.5533896945002522,-0.4263537147101645,-3.130209770458576,348456.3026723334,-2.279182407306859,1.750470856862126,0.5135021250245136,0.5433191657066345,-0.4126725196838379,-3.094973564147949,-0.1787544339895248,0.01163170859217644,0.1588988155126572,XTrueNorthZVertical,-0.7425752893848341,-0.1625192294707243,0.4815929370502822,-0.4361624623499698,0.857007622718811,-0.491230696439743,0.1556611210107803,43.88869094848633,-7.629566192626953,-11.58873653411865,2,192.168.1.8,10.71.35.210,4,0
2015-03-09 08:07:00.842,132,1425913620.25601,37.77936772912534,-122.4389700127043,63.10428,0.41,214.1015625,4,10,-9999,1425913620.811238,46.11993026733398,-1.63446044921875,-9.686381340026855,28.96451187133789,15.18932723999023,10,348456.3895015417,1.127578735351562,0.0034027099609375,0.379119873046875,348456.3544514584,0.4312605890186355,-0.5097617895225741,-2.841654135819619,348456.3544514584,-2.287056086133485,1.747877182856111,0.3631576452413479,0.4211901724338531,-0.4960807263851166,-2.806418180465698,0.02478445321321487,0.1971161365509033,0.1762440055608749,XTrueNorthZVertical,-0.7344759893780478,-0.207072323580062,0.5171250735113256,-0.3876180376515407,0.9201618432998657,-0.3552277088165283,0.1646678596735001,44.50798034667969,-0.1550388336181641,-11.73635101318359,2,192.168.1.8,10.71.35.210,4,0
2015-03-09 08:07:00.891,133,1425913620.25601,37.77936772912534,-122.4389700127043,63.10428,0.41,214.1015625,4,10,-9999,1425913620.86351,45.54036712646484,5.22979736328125,-9.952733039855957,40.81717681884766,27.04199409484863,10,348456.438562875,1.347335815429688,-0.1342010498046875,0.276031494140625,348456.406229875,0.7547931161502577,0.04361991549440784,-2.447652502031737,348456.406229875,-2.297316315454246,1.733420881811474,0.2254519667001257,0.7447227835655212,0.0573008693754673,-2.412416934967041,0.3173572421073914,0.23082534968853,0.1673229783773422,XTrueNorthZVertical,-0.7207147468964598,-0.2438768142678693,0.5516349692094337,-0.3417502373758757,0.9618328213691711,-0.2235469073057175,0.1578112989664078,43.95318984985352,5.093467712402344,-12.68463325500488,2,192.168.1.8,10.71.35.210,4,0
2015-03-09 08:07:00.943,134,1425913620.25601,37.77936772912534,-122.4389700127043,63.10428,0.41,214.1015625,4,10,-9999,1425913620.919134,44.46646881103516,10.98971557617188,-10.46878337860107,47.79296112060547,34.01777648925781,10,348456.4875935,1.30523681640625,0.15850830078125,0.32464599609375,348456.4580088333,0.6354062676430955,-0.04090855118859817,-1.697923120378156,348456.4580088333,-2.314640198530124,1.745577127632276,0.1232190039964014,0.6253360509872437,-0.02722773514688015,-1.66268789768219,0.4799923002719879,-0.04704495519399643,0.1626312136650085,XTrueNorthZVertical,-0.7161308922062721,-0.2710045642786378,0.568463175268869,-0.3009363731154186,0.9772983193397522,-0.1229074373841286,0.1725738644599915,43.23102188110352,9.229608535766602,-12.83041191101074,2,192.168.1.8,10.71.35.210,4,0
2015-03-09 08:07:00.991,135,1425913620.25601,37.77936772912534,-122.4389700127043,63.10428,0.41,214.1015625,4,10,-9999,1425913620.919134,44.46646881103516,10.98971557617188,-10.46878337860107,47.79296112060547,34.01777648925781,10,348456.5366680417,1.263717651367188,0.3299407958984375,0.4029388427734375,348456.5097880417,0.1533022049893213,-0.248677460476111,-0.8490210818394412,348456.5097880417,-2.315978704280122,1.74281140192938,0.06325599708032535,0.1432321071624756,-0.2349967956542969,-0.8137862682342529,0.3034565150737762,0.1646237373352051,0.1858027130365372,XTrueNorthZVertical,-0.7087699963347306,-0.2881977475796157,0.5796722575506824,-0.2802984754586267,0.9832713603973389,-0.06321381777524948,0.1708257049322128,42.27889251708984,12.7589693069458,-12.97805690765381,2,192.168.1.8,10.71.35.210,4,0
2015-03-09 08:07:01.045,136,1425913620.25601,37.77936772912534,-122.4389700127043,63.10428,0.41,214.1015625,4,10,-9999,1425913620.993172,43.00051116943359,16.18893432617188,-10.53536891937256,55.92135238647461,42.14616775512695,10,348456.5856925417,1.328048706054688,0.24896240234375,0.3923492431640625,348456.5615665,0.07599383433762907,0.2394107251470713,0.1479439248760819,348456.5615665,-2.318496182926736,1.743544259796965,0.05002348390479053,0.06592382490634918,0.2530912756919861,0.1831784397363663,0.1869840621948242,0.2967677712440491,0.1658341437578201,XTrueNorthZVertical,-0.7077737402093319,-0.2913654713417503,0.5819003707092243,-0.2748717233201567,0.9838838577270508,-0.05000262334942818,0.1716750115156174,41.83217239379883,13.82983207702637,-13.32408428192139,2,192.168.1.8,10.71.35.210,4,0
2015-03-09 08:07:01.091,137,1425913620.25601,37.77936772912534,-122.4389700127043,63.10428,0.41,214.1015625,4,10,-9999,1425913621.044567,42.64254379272461,17.08938598632812,-10.55201816558838,56.39770126342773,42.62251663208008,10,348456.63486625,1.232040405273438,0.0927581787109375,0.31060791015625,348456.613345625,-0.1300501455118394,0.07651927602070172,0.9976632875533419,348456.613345625,-2.328180751794412,1.750353592949758,0.08203416765346479,-0.1401200443506241,0.09019967913627625,1.032897472381592,0.255256325006485,0.2116113752126694,0.08352700620889664,XTrueNorthZVertical,-0.7148407593476798,-0.2792836894233217,0.5756380011721698,-0.282213061597921,0.9806140065193176,-0.08194218575954437,0.1779933869838715,42.29241943359375,12.7153844833374,-12.97676086425781,2,192.168.1.8,10.71.35.210,4,0
2015-03-09 08:07:01.145,138,1425913620.25601,37.77936772912534,-122.4389700127043,63.10428,0.41,214.1015625,4,10,-9999,1425913621.096879,43.23915481567383,16.08694458007812,-10.30231380462646,54.49839019775391,40.72320556640625,10,348456.6837842917,1.139694213867188,0.015411376953125,0.31927490234375,348456.6651244167,-0.4930171641687009,0.03734630691450818,1.536293210660157,348456.6651244167,-2.322472275805388,1.754086851199454,0.1509861615554095,-0.5030869841575623,0.05102656409144402,1.571526885032654,0.1812267154455185,0.1651073545217514,0.1137224286794662,XTrueNorthZVertical,-0.7224599523282857,-0.2610513345430394,0.5617822233936565,-0.3070904792184576,0.9720630645751953,-0.1504131406545639,0.1801923662424088,42.97666549682617,10.57906723022461,-12.64182281494141,2,192.168.1.8,10.71.35.210,4,0
2015-03-09 08:07:01.186,139,1425913620.25601,37.77936772912534,-122.4389700127043,63.10428,0.41,214.1015625,4,10,-9999,1425913621.155589,44.41532516479492,13.41943359375,-9.719674110412598,50.68320083618164,36.90801620483398,10,348456.7328618334,1.147598266601562,-0.1398468017578125,0.356475830078125,348456.716903125,-0.6256894580898325,0.2788010081982153,1.902291439269747,348456.716903125,-2.30877963153633,1.758882306849269,0.2454755362774999,-0.6357591152191162,0.2924811244010925,1.937524795532227,0.05718682333827019,0.2239136248826981,0.1621169000864029,XTrueNorthZVertical,-0.7308250269981011,-0.2378689313274531,0.5405634302403999,-0.342205114283416,0.9529144763946533,-0.2430176287889481,0.1813737004995346,43.70354080200195,7.635587215423584,-12.26476669311523,2,192.168.1.8,10.71.35.210,4,0
2015-03-09 08:07:01.247,140,1425913620.25601,37.77936772912534,-122.4389700127043,63.10428,0.41,214.1015625,4,10,-9999,1425913621.226487,46.27334213256836,6.843994140625,-8.704216957092285,38.9110107421875,25.13582801818848,10,348456.7818866667,1.088348388671875,-0.233795166015625,0.385284423828125,348456.7686820417,-0.692559835165068,0.1993509233978814,2.217558845958308,348456.716903125,-2.30877963153633,1.758882306849269,0.2454755362774999,-0.6357591152191162,0.2924811244010925,1.937524795532227,0.05718682333827019,0.2239136248826981,0.1621169000864029,XTrueNorthZVertical,-0.7308250269981011,-0.2378689313274531,0.5405634302403999,-0.342205114283416,0.9529144763946533,-0.2430176287889481,0.1813737004995346,43.70354080200195,7.635587215423584,-12.26476669311523,2,192.168.1.8,10.71.35.210,4,0
2015-03-09 08:07:01.284,141,1425913620.25601,37.77936772912534,-122.4389700127043,63.10428,0.41,214.1015625,4,10,-9999,1425913621.226487,46.27334213256836,6.843994140625,-8.704216957092285,38.9110107421875,25.13582801818848,10,348456.8309341667,0.9404144287109375,-0.4461517333984375,0.276031494140625,348456.8204610834,-0.8092116172327188,0.02696370708872526,2.53648490335242,348456.8204610834,-2.279706455887744,1.77132422630176,0.4845602679713882,-0.8191389441490173,0.04074478521943092,2.571781635284424,0.1370936632156372,0.08579915016889572,0.1530283838510513,XTrueNorthZVertical,-0.7464073896037956,-0.1760799587291151,0.480528304402322,-0.4253991260917953,0.8671482801437378,-0.4658192992210388,0.1762562841176987,44.70018005371094,-1.691427230834961,-10.8516902923584,2,192.168.1.8,10.71.35.210,4,0
2015-03-09 08:07:01.356,142,1425913621.28758,37.77936865113469,-122.4389701803424,63.01401,0.4,214.1015625,4,10,-9999,1425913621.332307,46.97223281860352,-4.04705810546875,-8.221457481384277,19.99862480163574,6.223440170288086,10,348456.879959625,0.868133544921875,-0.5900726318359375,0.2783660888671875,348456.8722397084,-0.8141424599910005,0.04520316476245995,2.691381276570263,348456.8204610834,-2.279706455887744,1.77132422630176,0.4845602679713882,-0.8191389441490173,0.04074478521943092,2.571781635284424,0.1370936632156372,0.08579915016889572,0.1530283838510513,XTrueNorthZVertical,-0.7464073896037956,-0.1760799587291151,0.480528304402322,-0.4253991260917953,0.8671482801437378,-0.4658192992210388,0.1762562841176987,44.70018005371094,-1.691427230834961,-10.8516902923584,2,192.168.1.8,10.71.35.210,4,0
2015-03-09 08:07:01.386,143,1425913621.28758,37.77936865113469,-122.4389701803424,63.01401,0.4,214.1015625,4,10,-9999,1425913621.332307,46.97223281860352,-4.04705810546875,-8.221457481384277,19.99862480163574,6.223440170288086,10,348456.9290092083,0.6683502197265625,-0.7259368896484375,0.1704864501953125,348456.924018625,-0.9174909534653785,0.2761916429621556,2.700414186355593,348456.8722397084,-2.264288300147132,1.765580488267492,0.622319215173883,-0.8240696787834167,0.05898409336805344,2.726677417755127,0.09697113186120987,-0.00178038259036839,0.1832310557365417,XTrueNorthZVertical,-0.7483622195491602,-0.1363392828926219,0.4468209118293168,-0.4708679984628715,0.7971633672714233,-0.5829211473464966,0.1572688221931458,44.2420654296875,-6.513998985290527,-10.90567779541016,2,192.168.1.8,10.71.35.210,4,0
2015-03-09 08:07:01.456,144,1425913621.28758,37.77936865113469,-122.4389701803424,63.01401,0.4,214.1015625,4,10,-9999,1425913621.386276,46.40971374511719,-10.55453491210938,-8.337986946105957,12.28870391845703,358.5135192871094,10,348456.9780352917,0.4204864501953125,-0.77740478515625,0.1242828369140625,348456.9757977084,-1.21398866710717,0.7315802051408,2.411781320045024,348456.924018625,-2.243484606679904,1.761816715964067,0.7655163066199325,-0.9274181127548218,0.2899724543094635,2.735710144042969,0.004141382873058319,-0.01335894968360662,0.0208967924118042,XTrueNorthZVertical,-0.7477566113101115,-0.09647395154700991,0.4068070940902985,-0.5158108432801346,0.7079100012779236,-0.6929093599319458,0.1368943452835083,42.71865463256836,-13.10294914245605,-11.05240249633789,2,192.168.1.8,10.71.35.210,4,0
2015-03-09 08:07:01.486,145,1425913621.28758,37.77936865113469,-122.4389701803424,63.01401,0.4,214.1015625,4,10,-9999,1425913621.458721,43.35847473144531,-19.06689453125,-8.32133960723877,355.4041442871094,341.6289672851562,10,348457.0272024584,0.3675994873046875,-0.74395751953125,0.0868072509765625,348457.0275764583,-1.344541617432817,0.5742382510939376,2.237399129763289,348456.9757977084,-2.202163135107718,1.75676288571416,0.9034990276334957,-1.223915696144104,0.7453608512878418,2.447076797485352,-0.1293435096740723,0.08034272491931915,0.0003963504859711975,XTrueNorthZVertical,-0.7436368199378092,-0.06494073176301587,0.3600645491538231,-0.5595895931539048,0.6081948280334473,-0.7854971289634705,0.1144260391592979,41.06888580322266,-17.65853118896484,-10.9658145904541,2,192.168.1.8,10.71.35.210,4,0
2015-03-09 08:07:01.550,146,1425913621.28758,37.77936865113469,-122.4389701803424,63.01401,0.4,214.1015625,4,10,-9999,1425913621.510438,40.76748275756836,-23.82427978515625,-8.421221733093262,342.2206420898438,328.4454650878906,10,348457.07613375,0.1754608154296875,-0.5088958740234375,0.14178466796875,348457.0275764583,-1.344541617432817,0.5742382510939376,2.237399129763289,348457.0275764583,-2.122342623826916,1.732199612922278,1.027757767079265,-1.354468464851379,0.5880187749862671,2.27269434928894,-0.142424151301384,0.1121849715709686,0.003765396308153868,XTrueNorthZVertical,-0.7344619745732989,-0.04567860774969214,0.3097623308356146,-0.6021016376226354,0.5100236535072327,-0.856142520904541,0.08304185420274734,39.388427734375,-21.32349395751953,-10.61068916320801,2,192.168.1.8,10.71.35.210,4,0
