loggingTime,loggingSample,locationTimestamp_since1970,locationLatitude,locationLongitude,locationAltitude,locationSpeed,locationCourse,locationVerticalAccuracy,locationHorizontalAccuracy,locationFloor,locationHeadingTimestamp_since1970,locationHeadingX,locationHeadingY,locationHeadingZ,locationTrueHeading,locationMagneticHeading,locationHeadingAccuracy,accelerometerTimestamp_sinceReboot,accelerometerAccelerationX,accelerometerAccelerationY,accelerometerAccelerationZ,gyroTimestamp_sinceReboot,gyroRotationX,gyroRotationY,gyroRotationZ,motionTimestamp_sinceReboot,motionYaw,motionRoll,motionPitch,motionRotationRateX,motionRotationRateY,motionRotationRateZ,motionUserAccelerationX,motionUserAccelerationY,motionUserAccelerationZ,motionAttitudeReferenceFrame,motionQuaternionX,motionQuaternionY,motionQuaternionZ,motionQuaternionW,motionGravityX,motionGravityY,motionGravityZ,motionMagneticFieldX,motionMagneticFieldY,motionMagneticFieldZ,motionMagneticFieldCalibrationAccuracy,IP_en0,IP_pdp_ip0,deviceOrientation,state
2015-03-01 09:54:15.309,1,1425232407.228836,37.77937936490434,-122.4388172744405,56.19482,-1,-1,10,65,-9999,1425232455.241372,-14.78562164306641,-40.95564270019531,4.542068481445312,135.302001953125,121.5241928100586,10,177261.792119375,0.0475921630859375,-0.9888916015625,-0.1224365234375,177261.768287625,-0.02604864493817404,0.03835378075488516,-0.03639502577313188,177261.768287625,2.474532893565194,0.2025606739788431,1.450121256375301,-0.04389582201838493,0.05409322679042816,-0.004131786059588194,0.01244853995740414,-0.01906744763255119,0.003037729533389211,XTrueNorthZVertical,0.144495392679289,0.6481978905543241,0.7255411438797633,0.1804179239052024,0.02421833015978336,-0.9927275776863098,-0.1179211512207985,-15.19863700866699,-41.03633499145508,4.047179222106934,2,192.168.1.8,10.83.46.32,1,0
2015-03-01 09:54:15.339,2,1425232407.228836,37.77937936490434,-122.4388172744405,56.19482,-1,-1,10,65,-9999,1425232455.29334,-14.58100128173828,-40.85366821289062,3.77655029296875,135.2317047119141,121.4539031982422,10,177261.8411430417,0.0383453369140625,-0.9929962158203125,-0.1192169189453125,177261.8200610417,0.03467648792170375,-0.05272552957749777,-0.05744518366133619,177261.8200610417,2.455661927374325,0.2213907303051937,1.448544874723499,0.01682978495955467,-0.0369853675365448,-0.02519011870026588,0.02308775298297405,-0.004960964899510145,0.002332633826881647,XTrueNorthZVertical,0.1435321037595839,0.6480070419667935,0.7256595086541006,0.1813937397070795,0.02677796967327595,-0.9925366044044495,-0.1189708188176155,-15.10938167572021,-41.08171844482422,3.918934345245361,2,192.168.1.8,10.83.46.32,1,0
2015-03-01 09:54:15.387,3,1425232407.228836,37.77937936490434,-122.4388172744405,56.19482,-1,-1,10,65,-9999,1425232455.34477,-14.85383605957031,-40.6837158203125,3.277297973632812,135.1099548339844,121.332145690918,10,177261.8902963334,0.0295867919921875,-0.998077392578125,-0.1204376220703125,177261.8718322083,0.05938982388931205,-0.07718293576434945,-0.05687233771086015,177261.8718322083,2.434488748639814,0.2397855239349429,1.449427318853219,0.04155022278428078,-0.06150063499808311,-0.02449268475174904,0.008157273754477501,0.000135884023620747,-0.0008924579015001655,XTrueNorthZVertical,0.1438680947988572,0.6484584198963823,0.7247923688107846,0.1829745163440027,0.02875373698771,-0.9926438331604004,-0.1176072955131531,-15.00741481781006,-41.11249542236328,3.987397193908691,2,192.168.1.8,10.83.46.32,1,0
2015-03-01 09:54:15.436,4,1425232407.228836,37.77937936490434,-122.4388172744405,56.19482,-1,-1,10,65,-9999,1425232455.395756,-14.61510467529297,-40.5137939453125,3.443710327148438,134.9910583496094,121.2132568359375,10,177261.9392029583,0.030487060546875,-1.008102416992188,-0.1073455810546875,177261.92360575,0.1397294044937324,-0.1602669038720965,-0.05736582146085183,177261.8718322083,2.434488748639814,0.2397855239349429,1.449427318853219,0.04155022278428078,-0.06150063499808311,-0.02449268475174904,0.008157273754477501,0.000135884023620747,-0.0008924579015001655,XTrueNorthZVertical,0.1438680947988572,0.6484584198963823,0.7247923688107846,0.1829745163440027,0.02875373698771,-0.9926438331604004,-0.1176072955131531,-15.00741481781006,-41.11249542236328,3.987397193908691,2,192.168.1.8,10.83.46.32,1,0
2015-03-01 09:54:15.485,5,1425232407.228836,37.77937936490434,-122.4388172744405,56.19482,-1,-1,10,65,-9999,1425232455.448342,-14.83676910400391,-40.90463256835938,3.959609985351562,134.1041870117188,120.3263854980469,10,177261.9882479167,0.0214996337890625,-1.011978149414062,-0.1085662841796875,177261.9753790417,0.09813668722109291,-0.1866375249860611,-0.05295589301178962,177261.9753790417,2.382339995178205,0.2789788528773056,1.458524902607192,0.08029885590076447,-0.1709549278020859,-0.02057983912527561,0.009355167858302593,-0.0201050229370594,0.02056116610765457,XTrueNorthZVertical,0.1482279391879329,0.6512882795994983,0.7201812800331207,0.1875925940529529,0.03085174225270748,-0.9937041997909546,-0.1077041104435921,-14.80774784088135,-41.12952423095703,4.522358894348145,2,192.168.1.8,10.83.46.32,1,0
2015-03-01 09:54:15.524,6,1425232407.228836,37.77937936490434,-122.4388172744405,56.19482,-1,-1,10,65,-9999,1425232455.500925,-14.59804534912109,-41.10855102539062,4.691848754882812,135.2307586669922,121.4529495239258,10,177262.0372626667,0.0413665771484375,-1.0037841796875,-0.1051788330078125,177262.027150375,0.06683708756160964,-0.08734316163911075,-0.03094220344119464,177261.9753790417,2.382339995178205,0.2789788528773056,1.458524902607192,0.08029885590076447,-0.1709549278020859,-0.02057983912527561,0.009355167858302593,-0.0201050229370594,0.02056116610765457,XTrueNorthZVertical,0.1482279391879329,0.6512882795994983,0.7201812800331207,0.1875925940529529,0.03085174225270748,-0.9937041997909546,-0.1077041104435921,-14.80774784088135,-41.12952423095703,4.522358894348145,2,192.168.1.8,10.83.46.32,1,0
2015-03-01 09:54:15.583,7,1425232407.228836,37.77937936490434,-122.4388172744405,56.19482,-1,-1,10,65,-9999,1425232455.552255,-14.71739959716797,-40.81965637207031,4.675209045410156,134.9648132324219,121.18701171875,10,177262.086316875,0.0395660400390625,-1.00592041015625,-0.0948486328125,177262.078923625,0.04991509567913715,-0.1319955846881423,-0.03345409698135737,177262.078923625,2.370745994520365,0.2802964431362237,1.462856944074443,0.03207996115088463,-0.1163127198815346,-0.00108087295666337,0.01261696871370077,-0.01367807760834694,0.001856290851719677,XTrueNorthZVertical,0.152314904718746,0.6519489003112725,0.7179405561710157,0.1905889858872503,0.02980246394872665,-0.9941802024841309,-0.1035256013274193,-14.74663829803467,-41.10857391357422,4.897042751312256,2,192.168.1.8,10.83.46.32,1,0
2015-03-01 09:54:15.622,8,1425232407.228836,37.77937936490434,-122.4388172744405,56.19482,-1,-1,10,65,-9999,1425232455.60479,-14.52983093261719,-40.66671752929688,4.858268737792969,135.4317016601562,121.6538925170898,10,177262.1354277083,0.0356903076171875,-1.010345458984375,-0.105712890625,177262.130697125,0.0412893832244795,-0.127110281984501,-0.03111530891204979,177262.078923625,2.370745994520365,0.2802964431362237,1.462856944074443,0.03207996115088463,-0.1163127198815346,-0.00108087295666337,0.01261696871370077,-0.01367807760834694,0.001856290851719677,XTrueNorthZVertical,0.152314904718746,0.6519489003112725,0.7179405561710157,0.1905889858872503,0.02980246394872665,-0.9941802024841309,-0.1035256013274193,-14.74663829803467,-41.10857391357422,4.897042751312256,2,192.168.1.8,10.83.46.32,1,0
2015-03-01 09:54:15.681,9,1425232407.228836,37.77937936490434,-122.4388172744405,56.19482,-1,-1,10,65,-9999,1425232455.656312,-14.47867584228516,-40.58175659179688,5.008041381835938,135.8255462646484,122.0477447509766,10,177262.1843742084,0.0454559326171875,-1.017684936523438,-0.1120758056640625,177262.1824684167,0.04268168384237293,-0.1537924929460049,-0.03044419231734982,177262.130697125,2.364294533653234,0.2810536451450282,1.463728003565419,0.02345435135066509,-0.111427366733551,0.001255091046914458,0.003852405352517962,-0.01150942035019398,-0.006292057223618031,XTrueNorthZVertical,0.1543048371160383,0.6518086679110701,0.7171310239929494,0.1925060379797183,0.02964063733816147,-0.9942736625671387,-0.1026709526777267,-14.68734455108643,-41.10844421386719,5.073123931884766,2,192.168.1.8,10.83.46.32,1,0
2015-03-01 09:54:15.722,10,1425232407.228836,37.77937936490434,-122.4388172744405,56.19482,-1,-1,10,65,-9999,1425232455.708258,-14.06942749023438,-40.61575317382812,5.474014282226562,135.8716735839844,122.093864440918,10,177262.2334974583,0.064544677734375,-1.014450073242188,-0.1139068603515625,177262.1824684167,0.04268168384237293,-0.1537924929460049,-0.03044419231734982,177262.1824684167,2.355710745178672,0.2841095980979974,1.464414935675427,0.02484620548784733,-0.138109490275383,0.001922569237649441,0.01618141122162342,-0.02405526489019394,-0.01158587820827961,XTrueNorthZVertical,0.1561330940038528,0.6516596736098464,0.716341330454333,0.1944665204698323,0.02976280264556408,-0.9943468570709229,-0.101924255490303,-14.64771270751953,-41.10921096801758,5.18037223815918,2,192.168.1.8,10.83.46.32,1,0
2015-03-01 09:54:15.780,11,1425232407.228836,37.77937936490434,-122.4388172744405,56.19482,-1,-1,10,65,-9999,1425232455.759691,-14.20584869384766,-40.64973449707031,5.440719604492188,135.9251861572266,122.1473770141602,10,177262.2824300417,0.0729522705078125,-1.004623413085938,-0.1053619384765625,177262.286015,0.01737845769331207,-0.2377132262682548,-0.07476238864957643,177262.23424175,2.335521635187249,0.2982003934001415,1.464405027210533,0.01372364070266485,-0.1302272826433182,-0.03129040449857712,0.0333457887172699,-0.02010429091751575,-0.01240267511457205,XTrueNorthZVertical,0.1576645417953287,0.6514520701685753,0.7154731820830543,0.1971045935708509,0.0311988890171051,-0.9943457841873169,-0.1015041843056679,-14.58090305328369,-41.11821365356445,5.296107769012451,2,192.168.1.8,10.83.46.32,1,0
2015-03-01 09:54:15.818,12,1425232407.228836,37.77937936490434,-122.4388172744405,56.19482,-1,-1,10,65,-9999,1425232455.812292,-14.20584869384766,-40.921630859375,5.740272521972656,137.5011901855469,123.7233810424805,10,177262.331535125,0.092071533203125,-0.9840545654296875,-0.0898895263671875,177262.286015,0.01737845769331207,-0.2377132262682548,-0.07476238864957643,177262.286015,2.293310330104963,0.3312837656718036,1.462680893987622,-0.0004592868499457836,-0.2220287621021271,-0.04241778329014778,0.03785540163516998,-0.01046219561249018,-0.003324257675558329,XTrueNorthZVertical,0.1592442321664579,0.6508628381602917,0.7143658525033979,0.2017430835344135,0.03509686887264252,-0.9941611886024475,-0.1020376831293106,-14.35102081298828,-41.18408966064453,5.410901069641113,2,192.168.1.8,10.83.46.32,1,0
2015-03-01 09:54:15.877,13,1425232407.228836,37.77937936490434,-122.4388172744405,56.19482,-1,-1,10,65,-9999,1425232455.863749,-14.20584869384766,-41.02359008789062,6.006546020507812,138.7161102294922,124.9383010864258,10,177262.380453625,0.108978271484375,-0.9774932861328125,-0.0862884521484375,177262.3377864583,-0.004021639562128657,-0.3568611892256369,-0.115751633619204,177262.3377864583,2.236076187955518,0.3741518291172778,1.460234527217441,-0.02185650169849396,-0.341174304485321,-0.08342432230710983,0.05174532532691956,0.009839702397584915,0.01281386241316795,XTrueNorthZVertical,0.1620528062501831,0.6499132201337157,0.7125960807106413,0.208706786164064,0.04032620787620544,-0.9938942790031433,-0.1027033850550652,-14.06410884857178,-41.2626953125,5.563248634338379,2,192.168.1.8,10.83.46.32,1,0
2015-03-01 09:54:15.917,14,1425232407.228836,37.77937936490434,-122.4388172744405,56.19482,-1,-1,10,65,-9999,1425232455.863749,-14.20584869384766,-41.02359008789062,6.006546020507812,138.7161102294922,124.9383010864258,10,177262.4296087083,0.084808349609375,-0.9732208251953125,-0.076202392578125,177262.389559625,0.005695968939461475,-0.5419660650043574,-0.140453251678016,177262.389559625,2.183126272983869,0.4054573342515948,1.457003897347306,-0.01213631499558687,-0.5262777805328369,-0.1081355288624763,0.06419088691473007,0.01603933796286583,0.01805242337286472,XTrueNorthZVertical,0.1673789325161481,0.64793043975606,0.7103635179755197,0.218069055736826,0.04478738456964493,-0.9935325980186462,-0.1043408736586571,-13.61565589904785,-41.37507629394531,5.837454319000244,2,192.168.1.8,10.83.46.32,1,0
2015-03-01 09:54:15.975,15,1425232407.228836,37.77937936490434,-122.4388172744405,56.19482,-1,-1,10,65,-9999,1425232455.967431,-12.56887054443359,-41.431396484375,7.171463012695312,144.0801391601562,130.3023376464844,10,177262.4785020417,0.0817413330078125,-0.98297119140625,-0.0574493408203125,177262.4413332083,0.06202395652350943,-0.7198164899737021,-0.1898857825676308,177262.4413332083,2.119256114780437,0.4369761645161321,1.455388354773221,0.04419433698058128,-0.704127311706543,-0.1575721651315689,0.03230691701173782,0.01162791717797518,0.02971629984676838,XTrueNorthZVertical,0.1764898538689854,0.6455117680267622,0.7063072484138611,0.230859182645053,0.04873251169919968,-0.9933478832244873,-0.1043317764997482,-13.17876052856445,-41.46062088012695,6.220645904541016,2,192.168.1.8,10.83.46.32,1,0
2015-03-01 09:54:16.014,16,1425232407.228836,37.77937936490434,-122.4388172744405,56.19482,-1,-1,10,65,-9999,1425232455.967431,-12.56887054443359,-41.431396484375,7.171463012695312,144.0801391601562,130.3023376464844,10,177262.5276239583,0.1097869873046875,-0.9832611083984375,-0.0487060546875,177262.493104375,0.1258125235853053,-0.7081449201803207,-0.1964110598705429,177262.493104375,2.028225436803703,0.4922116719968324,1.455766388628432,0.1079869568347931,-0.6924543976783752,-0.1641012132167816,0.03442820906639099,0.01435692515224218,0.04467853903770447,XTrueNorthZVertical,0.1865036327406147,0.6439260333207969,0.7004009585401897,0.2449778733182154,0.05424061417579651,-0.9933913350105286,-0.101151317358017,-12.63367080688477,-41.54418182373047,6.769803047180176,2,192.168.1.8,10.83.46.32,1,0
2015-03-01 09:54:16.073,17,1425232407.228836,37.77937936490434,-122.4388172744405,56.19482,-1,-1,10,65,-9999,1425232456.01959,-11.51165008544922,-41.15950012207031,7.803840637207031,147.1732330322266,133.3954315185547,10,177262.57656725,0.1070098876953125,-0.955108642578125,-0.046875,177262.544877625,0.2050796492187508,-0.8166588809050164,-0.1974832485254088,177262.544877625,1.915652780238948,0.5679158070979428,1.458392165047052,0.1872611492872238,-0.8009660243988037,-0.1651803106069565,0.05404758453369141,0.01393771357834339,0.04048284143209457,XTrueNorthZVertical,0.1970735635685539,0.6433366272587639,0.6929082154265505,0.259148995979796,0.06033229827880859,-0.9936892986297607,-0.09455998986959457,-11.84866714477539,-41.61867523193359,7.671636581420898,2,192.168.1.8,10.83.46.32,1,0
2015-03-01 09:54:16.112,18,1425232407.228836,37.77937936490434,-122.4388172744405,56.19482,-1,-1,10,65,-9999,1425232456.071736,-10.81253051757812,-41.24446105957031,8.58599853515625,149.9036407470703,136.1258392333984,10,177262.6256631667,0.0933990478515625,-0.9725189208984375,-0.010101318359375,177262.5966510417,0.2988138648418338,-1.088893066487314,-0.276403364268817,177262.5966510417,1.774270623035787,0.6606563969407165,1.462674196721372,0.2809964418411255,-1.073200106620789,-0.2441019415855408,0.03221607953310013,0.0461166724562645,0.05413899198174477,XTrueNorthZVertical,0.2118835007321975,0.6422635276963222,0.6826480811643939,0.2767571913146074,0.06621836870908737,-0.9941604733467102,-0.08520588278770447,-11.16688442230225,-41.63454818725586,8.557106018066406,2,192.168.1.8,10.83.46.32,1,0
2015-03-01 09:54:16.174,19,1425232407.228836,37.77937936490434,-122.4388172744405,56.19482,-1,-1,10,65,-9999,1425232456.123419,-9.772369384765625,-41.26144409179688,9.501296997070312,153.0001220703125,139.2223205566406,10,177262.6746297083,0.093109130859375,-1.001113891601562,0.005401611328125,177262.6484222917,0.3164245501822007,-1.164220311604097,-0.3515958534344412,177262.6484222917,1.581183457589711,0.7963123212032612,1.463722028106939,0.2986074686050415,-1.148527503013611,-0.319294810295105,0.01095267292112112,0.0006511958781629801,0.07481542974710464,XTrueNorthZVertical,0.2282853192701628,0.6407154158181165,0.6696572545192412,0.2982092100551639,0.0763886347413063,-0.9942730069160461,-0.07473913580179214,-10.21905326843262,-41.64613723754883,9.61921501159668,2,192.168.1.8,10.83.46.32,1,0
2015-03-01 09:54:16.210,20,1425232407.228836,37.77937936490434,-122.4388172744405,56.19482,-1,-1,10,65,-9999,1425232456.174722,-8.374122619628906,-41.66928100585938,10.39994049072266,156.7821960449219,143.00439453125,10,177262.72375625,0.1134796142578125,-0.963165283203125,0.009979248046875,177262.700195875,0.4008126682757596,-1.312988484837558,-0.4164914965613831,177262.700195875,1.348656210713599,0.966912622356878,1.461503778834167,0.3829984068870544,-1.297295093536377,-0.384190559387207,0.01246543508023024,0.00178497692104429,0.0726035013794899,XTrueNorthZVertical,0.245467533579916,0.6393566200671033,0.6540107817147314,0.3213077999188365,0.08978371322154999,-0.9940335154533386,-0.0619376040995121,-8.653223037719727,-41.63075637817383,11.10678577423096,2,192.168.1.8,10.83.46.32,1,0
2015-03-01 09:54:16.269,21,1425232407.228836,37.77937936490434,-122.4388172744405,56.19482,-1,-1,10,65,-9999,1425232456.227168,-6.293800354003906,-41.70327758789062,11.53157043457031,162.5009155273438,148.7231140136719,10,177262.7726775834,0.114898681640625,-0.96588134765625,0.0628509521484375,177262.7519690834,0.3788304040060275,-1.545930391696827,-0.5426784605959536,177262.7519690834,1.104066660678769,1.138024158818083,1.451156911708443,0.3610164225101471,-1.530237078666687,-0.5103778839111328,0.004106716718524694,0.05229998007416725,0.0844033882021904,XTrueNorthZVertical,0.2645910239186414,0.6363675547252987,0.6349321144206025,0.3491262493500674,0.1083505600690842,-0.992851734161377,-0.0500558502972126,-7.128315448760986,-41.57474136352539,12.33235645294189,2,192.168.1.8,10.83.46.32,1,0
2015-03-01 09:54:16.308,22,1425232407.228836,37.77937936490434,-122.4388172744405,56.19482,-1,-1,10,65,-9999,1425232456.279789,-4.128219604492188,-41.72026062011719,12.34702301025391,168.0905914306641,154.3127899169922,10,177262.8216955417,0.16693115234375,-0.971649169921875,0.0673675537109375,177262.8037405,0.3482040514701163,-1.564171979899434,-0.5996535963248908,177262.7519690834,1.104066660678769,1.138024158818083,1.451156911708443,0.3610164225101471,-1.530237078666687,-0.5103778839111328,0.004106716718524694,0.05229998007416725,0.0844033882021904,XTrueNorthZVertical,0.2645910239186414,0.6363675547252987,0.6349321144206025,0.3491262493500674,0.1083505600690842,-0.992851734161377,-0.0500558502972126,-7.128315448760986,-41.57474136352539,12.33235645294189,2,192.168.1.8,10.83.46.32,1,0
2015-03-01 09:54:16.376,23,1425232407.228836,37.77937936490434,-122.4388172744405,56.19482,-1,-1,10,65,-9999,1425232456.330331,-1.399932861328125,-41.61831665039062,13.8780517578125,175.7920837402344,162.0142822265625,10,177262.870726625,0.20355224609375,-0.9482421875,0.0363616943359375,177262.85551375,0.4122157914312609,-1.583625572714135,-0.5527952769449466,177262.85551375,0.7333222818986026,1.351329905887997,1.409949771052213,0.3944031596183777,-1.567932367324829,-0.5204951763153076,0.03822188451886177,0.02470497228205204,0.08638060092926025,XTrueNorthZVertical,0.3012639129041761,0.6259445593312009,0.5913936936014015,0.4094959891709059,0.156312420964241,-0.9870920777320862,-0.03486692532896996,-2.572789192199707,-41.34522247314453,14.67352104187012,2,192.168.1.8,10.83.46.32,1,0
2015-03-01 09:54:16.407,24,1425232407.228836,37.77937936490434,-122.4388172744405,56.19482,-1,-1,10,65,-9999,1425232456.382689,1.635292053222656,-41.51632690429688,14.90982818603516,183.6956024169922,169.9178009033203,10,177262.9197414583,0.152587890625,-0.896942138671875,-0.0148468017578125,177262.9072873333,0.423883632799116,-1.888401456288329,-0.5977206740057113,177262.9072873333,0.5881845406721862,1.407840902888549,1.387902734460611,0.4060772657394409,-1.872761726379395,-0.5652931928634644,0.001380958943627775,0.06628356873989105,0.04087443277239799,XTrueNorthZVertical,0.3224065767382994,0.617495491961486,0.5660373872815161,0.4408571145347226,0.1794662028551102,-0.9833215475082397,-0.02950663305819035,-0.4830975532531738,-41.10742950439453,15.53399181365967,2,192.168.1.8,10.83.46.32,1,0
2015-03-01 09:54:16.477,25,1425232407.228836,37.77937936490434,-122.4388172744405,56.19482,-1,-1,10,65,-9999,1425232456.434329,4.176010131835938,-41.09147644042969,15.62541961669922,190.5373687744141,176.7595672607422,10,177262.968787375,0.0662384033203125,-0.832855224609375,-0.050262451171875,177262.9590584167,0.4204335076069183,-1.94068330322822,-0.7407332234912933,177262.9072873333,0.5881845406721862,1.407840902888549,1.387902734460611,0.4060772657394409,-1.872761726379395,-0.5652931928634644,0.001380958943627775,0.06628356873989105,0.04087443277239799,XTrueNorthZVertical,0.3224065767382994,0.617495491961486,0.5660373872815161,0.4408571145347226,0.1794662028551102,-0.9833215475082397,-0.02950663305819035,-0.4830975532531738,-41.10742950439453,15.53399181365967,2,192.168.1.8,10.83.46.32,1,0
2015-03-01 09:54:16.505,26,1425232407.228836,37.77937936490434,-122.4388172744405,56.19482,-1,-1,10,65,-9999,1425232456.486044,7.34765625,-40.61567687988281,16.19123077392578,198.3406829833984,184.5628814697266,10,177263.0178841667,0.07403564453125,-0.7670135498046875,-0.0537567138671875,177263.0108320417,0.4357999470966755,-1.663670607701993,-0.9520300222748341,177262.9590584167,0.4561885914737058,1.440726697673762,1.358863766994622,0.4026273488998413,-1.925043702125549,-0.7083060741424561,-0.122192770242691,0.1231645569205284,-0.001952823833562434,XTrueNorthZVertical,0.3439775499392701,0.6066613034706136,0.5359664307719471,0.4757956448391741,0.2085727751255035,-0.9776262044906616,-0.02728301659226418,1.983747959136963,-40.78330993652344,16.25254440307617,2,192.168.1.8,10.83.46.32,1,0
2015-03-01 09:54:16.572,27,1425232407.228836,37.77937936490434,-122.4388172744405,56.19482,-1,-1,10,65,-9999,1425232456.53886,10.70685958862305,-39.47712707519531,16.07472991943359,206.5347137451172,192.7569122314453,10,177263.06685825,0.21575927734375,-0.791107177734375,-0.0738983154296875,177263.06260525,0.3538781824886391,-0.905780501520082,-0.7838644489256716,177263.06260525,0.2562899794812687,1.480367354300804,1.277597544856709,0.3360723555088043,-0.8901412487030029,-0.7514379620552063,-0.1014337167143822,0.171771302819252,-0.04358707740902901,XTrueNorthZVertical,0.3674222884197533,0.5932545454316069,0.4745660373508317,0.5365044128835205,0.2878350913524628,-0.9573242664337158,-0.02609981223940849,8.503706932067871,-39.58480834960938,17.09061622619629,2,192.168.1.8,10.83.46.32,1,0
2015-03-01 09:54:16.603,28,1425232407.228836,37.77937936490434,-122.4388172744405,56.19482,-1,-1,10,65,-9999,1425232456.591292,14.15132904052734,-38.59347534179688,16.14128875732422,214.4086303710938,200.6308288574219,10,177263.1159833334,0.251556396484375,-0.7617034912109375,-0.120635986328125,177263.06260525,0.3538781824886391,-0.905780501520082,-0.7838644489256716,177263.06260525,0.2562899794812687,1.480367354300804,1.277597544856709,0.3360723555088043,-0.8901412487030029,-0.7514379620552063,-0.1014337167143822,0.171771302819252,-0.04358707740902901,XTrueNorthZVertical,0.3674222884197533,0.5932545454316069,0.4745660373508317,0.5365044128835205,0.2878350913524628,-0.9573242664337158,-0.02609981223940849,8.503706932067871,-39.58480834960938,17.09061622619629,2,192.168.1.8,10.83.46.32,1,0
2015-03-01 09:54:16.673,29,1425232407.228836,37.77937936490434,-122.4388172744405,56.19482,-1,-1,10,65,-9999,1425232456.644572,16.24870300292969,-37.726806640625,16.02480316162109,219.4810791015625,205.7032775878906,10,177263.1649207917,0.1840667724609375,-0.783050537109375,-0.1263427734375,177263.1661499167,0.3353385865600525,-1.068470881984151,-0.5974660758054997,177263.114376625,0.1937401878165822,1.502445257708329,1.252485256157075,0.3725956678390503,-0.804755687713623,-0.417276531457901,-0.05132211744785309,0.1874057203531265,-0.09337139874696732,XTrueNorthZVertical,0.3728625468885637,0.5918497883066066,0.4554334960853052,0.5506974508801975,0.3122321665287018,-0.9497653245925903,-0.02137469872832298,10.30107879638672,-39.04914093017578,17.33237838745117,2,192.168.1.8,10.83.46.32,1,0
2015-03-01 09:54:16.701,30,1425232407.228836,37.77937936490434,-122.4388172744405,56.19482,-1,-1,10,65,-9999,1425232456.644572,16.24870300292969,-37.726806640625,16.02480316162109,219.4810791015625,205.7032775878906,10,177263.2139405,0.1333770751953125,-0.66680908203125,-0.1269683837890625,177263.2179234583,0.3045729506991301,-0.8648090997297581,-0.6637124742373297,177263.1661499167,0.1384176105709489,1.50704799323072,1.229247903372685,0.3175331652164459,-1.052831888198853,-0.5650402307510376,-0.1501993536949158,0.1591866165399551,-0.1050049513578415,XTrueNorthZVertical,0.3808782834445721,0.5867391436739339,0.4348106248611034,0.5671054871381729,0.3342661261558533,-0.9422371387481689,-0.02133782021701336,12.2815637588501,-38.38495635986328,17.52476119995117,2,192.168.1.8,10.83.46.32,1,0
2015-03-01 09:54:16.769,31,1425232407.228836,37.77937936490434,-122.4388172744405,56.19482,-1,-1,10,65,-9999,1425232456.720568,19.18161010742188,-36.60527038574219,16.15794372558594,226.2236633300781,212.4458618164062,10,177263.2629633333,0.165283203125,-0.6539306640625,-0.072052001953125,177263.2179234583,0.3045729506991301,-0.8648090997297581,-0.6637124742373297,177263.2179234583,0.08827947139514331,1.505581032145599,1.200961172369186,0.2867676913738251,-0.8491703867912292,-0.6312869191169739,-0.227316290140152,0.2655778527259827,-0.1034122556447983,XTrueNorthZVertical,0.3870645927133592,0.5817241072000517,0.4124971695025509,0.5844862289870997,0.3606933653354645,-0.9323869347572327,-0.02355612814426422,14.06062316894531,-37.79489135742188,17.47009086608887,2,192.168.1.8,10.83.46.32,1,0
2015-03-01 09:54:16.799,32,1425232407.228836,37.77937936490434,-122.4388172744405,56.19482,-1,-1,10,65,-9999,1425232456.771943,21.31309127807617,-35.70462036132812,15.50891876220703,231.3118286132812,217.5340270996094,10,177263.312025875,0.2622528076171875,-0.72198486328125,-0.0674285888671875,177263.2696945417,0.08866382322368105,-0.5116270675500657,-0.735848187103761,177263.2696945417,0.05902043143251155,1.499750741026102,1.166846790530352,0.07085873186588287,-0.4959884881973267,-0.7034229636192322,-0.2267783135175705,0.2655851244926453,-0.04415080323815346,XTrueNorthZVertical,0.3861639771481195,0.5804539455510818,0.3933103648448829,0.5993809801004252,0.3920615315437317,-0.9195157885551453,-0.02790120057761669,15.78925228118896,-37.15881729125977,17.35744285583496,2,192.168.1.8,10.83.46.32,1,0
2015-03-01 09:54:16.871,33,1425232407.228836,37.77937936490434,-122.4388172744405,56.19482,-1,-1,10,65,-9999,1425232456.823505,23.22289657592773,-34.7869873046875,15.40907287597656,240.4449768066406,226.6671752929688,10,177263.3610348333,0.3697357177734375,-0.7412109375,-0.0328216552734375,177263.3732414584,-0.2298257420677671,-0.005218730472119276,-0.3174906135665594,177263.3214681667,0.05502568293229859,1.491059805466972,1.137836685607782,-0.0334794819355011,-0.0797131136059761,-0.4519777297973633,-0.1559733301401138,0.185743123292923,-0.03400983661413193,XTrueNorthZVertical,0.3799421166160892,0.5821809101096498,0.3823374184745158,0.6087096819606712,0.4182261228561401,-0.9077279567718506,-0.03341875225305557,17.59781837463379,-36.48075485229492,17.05374717712402,2,192.168.1.8,10.83.46.32,1,0
2015-03-01 09:54:16.897,34,1425232407.228836,37.77937936490434,-122.4388172744405,56.19482,-1,-1,10,65,-9999,1425232456.875035,24.33126831054688,-34.15824890136719,15.25929260253906,243.2942810058594,229.5164794921875,10,177263.4100667083,0.4481658935546875,-0.8740997314453125,-0.0698394775390625,177263.3732414584,-0.2298257420677671,-0.005218730472119276,-0.3174906135665594,177263.3732414584,0.0665337788994759,1.481155077402235,1.120857473343413,-0.2476304471492767,0.01041953638195992,-0.2850660681724548,-0.04783407598733902,0.1518317312002182,-0.001654651365242898,XTrueNorthZVertical,0.3730998142267308,0.5842342551319775,0.379239267100272,0.6128983966342569,0.4331642687320709,-0.9004737138748169,-0.03893372789025307,24.16095352172852,-34.22651672363281,15.35903167724609,2,192.168.1.8,10.83.46.32,1,0
2015-03-01 09:54:16.968,35,1425232407.228836,37.77937936490434,-122.4388172744405,56.19482,-1,-1,10,65,-9999,1425232456.927222,25.33732223510742,-34.039306640625,15.27593231201172,244.2082824707031,230.4304809570312,10,177263.4591211667,0.4190673828125,-1.0159912109375,-0.053070068359375,177263.4250127917,-0.3138340933898807,-0.318214460750843,-0.2482779863125991,177263.4250127917,0.1004399638248811,1.443008200904149,1.105996170203815,-0.3316386342048645,-0.3025763332843781,-0.2158537805080414,0.00992426835000515,-0.00983639620244503,-0.02750073000788689,XTrueNorthZVertical,0.3656453444920781,0.5811550782560942,0.3785643129201389,0.6206861691748555,0.4445892870426178,-0.8939111828804016,-0.05712451413273811,24.62400245666504,-34.11591339111328,14.86166286468506,2,192.168.1.8,10.83.46.32,1,0
2015-03-01 09:54:16.996,36,1425232407.228836,37.77937936490434,-122.4388172744405,56.19482,-1,-1,10,65,-9999,1425232456.981512,25.93413543701172,-34.05630493164062,14.32735443115234,245.2213287353516,231.4435272216797,10,177263.508256,0.5747222900390625,-1.074417114257812,-0.080474853515625,177263.476786125,-0.4188665036215157,-0.1901880513513547,-0.006679474330027737,177263.476786125,0.1367754529190755,1.397519653705966,1.09926060322748,-0.4366708993911743,-0.1745500862598419,0.02574443630874157,-0.005771637428551912,-0.1429570019245148,0.02776612713932991,XTrueNorthZVertical,0.3615310483804061,0.5745746721048578,0.379853931655562,0.6283870148177817,0.4474525451660156,-0.8908717036247253,-0.07831849157810211,25.17404937744141,-34.17037582397461,13.77529907226562,2,192.168.1.8,10.83.46.32,1,0
2015-03-01 09:54:17.068,37,1425232407.228836,37.77937936490434,-122.4388172744405,56.19482,-1,-1,10,65,-9999,1425232457.057204,26.10465621948242,-34.73603820800781,12.39692687988281,245.3970794677734,231.6192779541016,10,177263.5572004583,0.5880889892578125,-1.1832275390625,-0.1099395751953125,177263.52855975,-0.5382996911316452,-0.5113570230155317,0.296436194620611,177263.52855975,0.1988477182540827,1.325621560614418,1.103111464647441,-0.5561038851737976,-0.4957192242145538,0.3288597464561462,0.1405722349882126,-0.2075595557689667,0.01772059127688408,XTrueNorthZVertical,0.3590005773543941,0.5624994481358515,0.3874917370374321,0.6360527592794635,0.4373391270637512,-0.8926143646240234,-0.1094259098172188,25.14419174194336,-34.60065078735352,12.71496963500977,2,192.168.1.8,10.83.46.32,1,0
2015-03-01 09:54:17.093,38,1425232407.228836,37.77937936490434,-122.4388172744405,56.19482,-1,-1,10,65,-9999,1425232457.057204,26.10465621948242,-34.73603820800781,12.39692687988281,245.3970794677734,231.6192779541016,10,177263.6063240417,0.5948638916015625,-1.190155029296875,-0.1884918212890625,177263.5803307917,-0.536275955019294,-0.6096183461756403,0.6145015183504096,177263.5803307917,0.2740199200134182,1.228804714842611,1.118605104164726,-0.5540799498558044,-0.5939807295799255,0.6469247937202454,0.1902795433998108,-0.3039688467979431,0.02305902540683746,XTrueNorthZVertical,0.362757912212096,0.5432680040153109,0.3976038114927261,0.6443429091566305,0.4116339087486267,-0.8994918465614319,-0.1465331465005875,24.83573913574219,-35.32907867431641,11.2315731048584,2,192.168.1.8,10.83.46.32,1,0
2015-03-01 09:54:17.171,39,1425232407.228836,37.77937936490434,-122.4388172744405,56.19482,-1,-1,10,65,-9999,1425232457.160646,25.18385314941406,-36.87715148925781,9.135169982910156,244.2103729248047,230.4325714111328,10,177263.6552473333,0.5009918212890625,-1.141021728515625,-0.3107757568359375,177263.632104375,-0.527837462789269,-0.9830891384878833,0.625137384795859,177263.632104375,0.3677159620167346,1.108004130561347,1.13929918690913,-0.545641303062439,-0.9674516320228577,0.6575603485107422,0.2415159642696381,-0.2644499242305756,-0.08554396033287048,XTrueNorthZVertical,0.3699411393234545,0.5194075914979951,0.4098867625659651,0.6521902726633844,0.3742372095584869,-0.9083406329154968,-0.186718612909317,23.79657363891602,-36.64447784423828,9.056015014648438,2,192.168.1.8,10.83.46.32,1,0
2015-03-01 09:54:17.190,40,1425232407.228836,37.77937936490434,-122.4388172744405,56.19482,-1,-1,10,65,-9999,1425232457.160646,25.18385314941406,-36.87715148925781,9.135169982910156,244.2103729248047,230.4325714111328,10,177263.7042591667,0.3371429443359375,-0.9806365966796875,-0.3856048583984375,177263.6838777083,-0.5036684769484728,-1.333654881212682,0.4785964131820309,177263.6838777083,0.4539238891898384,0.9655398077022074,1.150557696666036,-0.521472156047821,-1.318017482757568,0.5110190510749817,0.06398685276508331,-0.2231930792331696,-0.1185335516929626,XTrueNorthZVertical,0.3818829682600011,0.4879560023797908,0.4133201136645291,0.6672561910451162,0.335503488779068,-0.9129915833473206,-0.2321286797523499,23.23454475402832,-37.45350646972656,6.963974952697754,2,192.168.1.8,10.83.46.32,1,0
2015-03-01 09:54:17.269,41,1425232407.228836,37.77937936490434,-122.4388172744405,56.19482,-1,-1,10,65,-9999,1425232457.263848,25.1327018737793,-38.28759765625,5.224380493164062,245.8563079833984,232.0785064697266,10,177263.7532914167,0.5782470703125,-0.902679443359375,-0.284912109375,177263.7356490833,-0.4353216433648973,-0.7173820944212606,-0.07162625014989912,177263.7356490833,0.5168734646144397,0.85936702957233,1.14258715651878,-0.4531250894069672,-0.7017449140548706,-0.03920399025082588,0.1854221969842911,-0.001467752503231168,-0.03610166534781456,XTrueNorthZVertical,0.3856838568279238,0.4644228312626312,0.413217460724758,0.6817702905596232,0.3145167827606201,-0.9097108244895935,-0.2711187899112701,22.90338516235352,-37.98799133300781,4.842872619628906,2,192.168.1.8,10.83.46.32,1,0
2015-03-01 09:54:17.290,42,1425232407.228836,37.77937936490434,-122.4388172744405,56.19482,-1,-1,10,65,-9999,1425232457.263848,25.1327018737793,-38.28759765625,5.224380493164062,245.8563079833984,232.0785064697266,10,177263.8023022917,0.4344940185546875,-0.91241455078125,-0.234710693359375,177263.787422375,-0.03452095931404311,-0.7977685466608664,-0.1889675246237714,177263.7356490833,0.5168734646144397,0.85936702957233,1.14258715651878,-0.4531250894069672,-0.7017449140548706,-0.03920399025082588,0.1854221969842911,-0.001467752503231168,-0.03610166534781456,XTrueNorthZVertical,0.3856838568279238,0.4644228312626312,0.413217460724758,0.6817702905596232,0.3145167827606201,-0.9097108244895935,-0.2711187899112701,22.90338516235352,-37.98799133300781,4.842872619628906,2,192.168.1.8,10.83.46.32,1,0
2015-03-01 09:54:17.369,43,1425232407.228836,37.77937936490434,-122.4388172744405,56.19482,-1,-1,10,65,-9999,1425232457.315912,25.42258453369141,-38.50851440429688,4.17596435546875,246.9119873046875,233.1341857910156,10,177263.8513385833,0.2946929931640625,-0.94879150390625,-0.277557373046875,177263.8391958333,0.5556861383082276,-0.295056410859841,-0.03513801373861448,177263.8391958333,0.4960039248208679,0.8153121287100239,1.135934809198659,0.5378829836845398,-0.2794195413589478,-0.002716373186558485,0.1188824474811554,-0.05149140954017639,0.02533094584941864,XTrueNorthZVertical,0.3966910463984241,0.4452090485531701,0.3967090039393634,0.697887588040061,0.3066699206829071,-0.9069284200668335,-0.2888502478599548,23.5621337890625,-37.80566024780273,2.581485748291016,2,192.168.1.8,10.83.46.32,1,0
2015-03-01 09:54:17.387,44,1425232407.228836,37.77937936490434,-122.4388172744405,56.19482,-1,-1,10,65,-9999,1425232457.367724,25.98529815673828,-38.11767578125,3.959617614746094,249.0054931640625,235.2276916503906,10,177263.90045925,0.261505126953125,-1.09710693359375,-0.21148681640625,177263.8909672083,1.234535753865459,-0.2312239016400587,0.08312950816238739,177263.8391958333,0.4960039248208679,0.8153121287100239,1.135934809198659,0.5378829836845398,-0.2794195413589478,-0.002716373186558485,0.1188824474811554,-0.05149140954017639,0.02533094584941864,XTrueNorthZVertical,0.3966910463984241,0.4452090485531701,0.3967090039393634,0.697887588040061,0.3066699206829071,-0.9069284200668335,-0.2888502478599548,23.5621337890625,-37.80566024780273,2.581485748291016,2,192.168.1.8,10.83.46.32,1,0
2015-03-01 09:54:17.469,45,1425232407.228836,37.77937936490434,-122.4388172744405,56.19482,-1,-1,10,65,-9999,1425232457.419652,25.96824645996094,-37.93074035644531,4.874900817871094,251.5037841796875,237.7259826660156,10,177263.9493749583,0.877838134765625,-2.543991088867188,-1.0364990234375,177263.9427405,0.9214979456415118,-0.3074345172904203,-0.4550428838691521,177263.9427405,0.2675250817844244,1.010358158808858,1.214272740514803,0.9037023186683655,-0.2918454110622406,-0.4225019812583923,0.7727786898612976,-1.97296416759491,-0.5124441385269165,XTrueNorthZVertical,0.4417850017966963,0.4605044161467871,0.3694920378391264,0.6754534265391818,0.2956264913082123,-0.9371157884597778,-0.1855233907699585,23.24185371398926,-37.55145263671875,6.388336181640625,2,192.168.1.8,10.83.46.32,1,0
2015-03-01 09:54:17.485,46,1425232407.228836,37.77937936490434,-122.4388172744405,56.19482,-1,-1,10,65,-9999,1425232457.472555,26.08760833740234,-37.67582702636719,5.856765747070312,254.1312103271484,240.3534088134766,10,177263.9983894167,-0.118255615234375,-0.72283935546875,0.0540924072265625,177263.994514,0.2846700826085319,-0.10519752621922,0.5305709313321263,177263.9427405,0.2675250817844244,1.010358158808858,1.214272740514803,0.9037023186683655,-0.2918454110622406,-0.4225019812583923,0.7727786898612976,-1.97296416759491,-0.5124441385269165,XTrueNorthZVertical,0.4417850017966963,0.4605044161467871,0.3694920378391264,0.6754534265391818,0.2956264913082123,-0.9371157884597778,-0.1855233907699585,23.24185371398926,-37.55145263671875,6.388336181640625,2,192.168.1.8,10.83.46.32,1,0
2015-03-01 09:54:17.567,47,1425232407.228836,37.77937936490434,-122.4388172744405,56.19482,-1,-1,10,65,-9999,1425232457.525107,26.68442153930664,-37.45492553710938,6.738777160644531,254.2559509277344,240.4781494140625,10,177264.0474150417,0.06988525390625,-0.9420013427734375,0.119354248046875,177264.04628525,0.6543184398081843,-0.5324548514872484,0.2153197699262145,177263.994514,0.2467252474505211,0.9968578450947423,1.209537968051622,0.2668745815753937,-0.08960855752229691,0.5631114840507507,-0.3606758117675781,0.191464751958847,0.01250675413757563,XTrueNorthZVertical,0.4472111446374,0.4517189653800964,0.358647572382523,0.6836110661812003,0.2968177795410156,-0.9354528188705444,-0.1919043362140656,24.09528541564941,-37.06380081176758,6.066115856170654,2,192.168.1.8,10.83.46.32,1,0
2015-03-01 09:54:17.584,48,1425232407.228836,37.77937936490434,-122.4388172744405,56.19482,-1,-1,10,65,-9999,1425232457.575172,26.51390838623047,-37.35298156738281,6.971763610839844,255.0558013916016,241.2779998779297,10,177264.096438,0.1919403076171875,-0.9423065185546875,0.041534423828125,177264.04628525,0.6543184398081843,-0.5324548514872484,0.2153197699262145,177264.04628525,0.2366869961087052,0.9820706337040427,1.234664474164891,0.6365231275558472,-0.5168660283088684,0.2478600293397903,-0.005357935559004545,-0.09269031882286072,0.2779929339885712,XTrueNorthZVertical,0.4614985617225201,0.4420851783602058,0.3559466868467187,0.6818223605004068,0.2743093371391296,-0.9440376162528992,-0.1831595450639725,23.436767578125,-37.48092269897461,6.083125114440918,2,192.168.1.8,10.83.46.32,1,0
2015-03-01 09:54:17.668,49,1425232407.228836,37.77937936490434,-122.4388172744405,56.19482,-1,-1,10,65,-9999,1425232457.626922,25.86594009399414,-37.14907836914062,8.802345275878906,253.8756408691406,240.0978393554688,10,177264.145466875,0.1396636962890625,-0.9141082763671875,0.011322021484375,177264.149832125,0.1398194193385771,1.963142539649185,-0.7042276765329232,177264.0980588333,0.1523232181729979,1.123153913310977,1.249925497100993,0.428613543510437,2.298438787460327,-0.2032569050788879,-0.09237710386514664,0.006654605735093355,0.1780496090650558,XTrueNorthZVertical,0.4609148982296291,0.468294629828361,0.3628868329130996,0.6607350038520901,0.2843174040317535,-0.9489611387252808,-0.1365151852369308,22.98752593994141,-37.38455963134766,8.06688117980957,2,192.168.1.8,10.83.46.32,1,0
2015-03-01 09:54:17.681,50,1425232407.228836,37.77937936490434,-122.4388172744405,56.19482,-1,-1,10,65,-9999,1425232457.626922,25.86594009399414,-37.14907836914062,8.802345275878906,253.8756408691406,240.0978393554688,10,177264.194487,0.2986907958984375,-0.9788360595703125,0.0186767578125,177264.149832125,0.1398194193385771,1.963142539649185,-0.7042276765329232,177264.149832125,0.09975255167394947,1.275234705453976,1.229411878989392,0.1220244765281677,1.978731036186218,-0.6716880798339844,-0.1806112676858902,0.02818378992378712,0.1088392809033394,XTrueNorthZVertical,0.4385809689038995,0.5088104807145728,0.3756100375223221,0.6384948948081213,0.3202749490737915,-0.9422920942306519,-0.09751725941896439,22.71868133544922,-36.88858795166016,10.68643569946289,2,192.168.1.8,10.83.46.32,1,0
2015-03-01 09:54:17.768,51,1425232407.228836,37.77937936490434,-122.4388172744405,56.19482,-1,-1,10,65,-9999,1425232457.730637,23.47867965698242,-35.61967468261719,13.76154327392578,245.0091094970703,231.2313079833984,10,177264.2435330834,0.37530517578125,-0.8800811767578125,0.0832366943359375,177264.201603625,0.02050341091641105,2.637164909414539,-0.2647717418917869,177264.201603625,0.07768158833913606,1.418918812536938,1.209267657079324,0.002708634361624718,2.652753114700317,-0.2322324514389038,-0.05094213411211967,-0.0434788390994072,0.07219023257493973,XTrueNorthZVertical,0.4101631752266753,0.552276590101056,0.3942679940634796,0.6093516957592831,0.3496329188346863,-0.9353572130203247,-0.05351347476243973,22.47597885131836,-36.26042556762695,13.08121299743652,2,192.168.1.8,10.83.46.32,1,0
2015-03-01 09:54:17.779,52,1425232407.228836,37.77937936490434,-122.4388172744405,56.19482,-1,-1,10,65,-9999,1425232457.730637,23.47867965698242,-35.61967468261719,13.76154327392578,245.0091094970703,231.2313079833984,10,177264.2925520834,0.3842926025390625,-1.033203125,0.10491943359375,177264.253376875,-0.1484419359999267,2.552122452641147,-0.2354106571897723,177264.253376875,0.09047857596450992,1.539867992793922,1.199011269281419,-0.1662365198135376,2.567710638046265,-0.2028717398643494,0.03385201469063759,0.02549139223992825,0.07902862876653671,XTrueNorthZVertical,0.3786911821069954,0.5924323380817202,0.4191615528741586,0.5743870720470554,0.3631053864955902,-0.9316803812980652,-0.01123382709920406,20.60529136657715,-36.01861572265625,16.40693092346191,2,192.168.1.8,10.83.46.32,1,0
2015-03-01 09:54:17.870,53,1425232407.228836,37.77937936490434,-122.4388172744405,56.19482,-1,-1,10,65,-9999,1425232457.83407,19.0111083984375,-33.98832702636719,18.78730773925781,231.2365875244141,217.4587860107422,10,177264.34159925,0.5978851318359375,-0.902557373046875,0.0359954833984375,177264.3051504584,-0.2081140549647871,2.282708554653243,-0.0988421585938549,177264.3051504584,0.1125947278593676,1.632934035390008,1.187742287439667,-0.2259084582328796,2.298296689987183,-0.0663035586476326,0.03530685231089592,-0.08471004664897919,0.0960381031036377,XTrueNorthZVertical,0.3486056120151167,0.6245628817733214,0.4390671858762139,0.5437051984509114,0.3730336129665375,-0.9275274872779846,0.02320933155715466,19.18654632568359,-35.90384292602539,18.27283096313477,2,192.168.1.8,10.83.46.32,1,0
2015-03-01 09:54:17.877,54,1425232407.228836,37.77937936490434,-122.4388172744405,56.19482,-1,-1,10,65,-9999,1425232457.83407,19.0111083984375,-33.98832702636719,18.78730773925781,231.2365875244141,217.4587860107422,10,177264.3906219167,0.504241943359375,-0.9278411865234375,0.111572265625,177264.356921625,-0.09957612579028073,1.406880359597174,-0.1001681465006053,177264.356921625,0.1380055217063254,1.710608118372812,1.187495696085282,-0.1173703670501709,1.422468304634094,-0.06762983649969101,0.2662928104400635,0.0147308399900794,0.06381914019584656,XTrueNorthZVertical,0.3230004184822288,0.6494068835081426,0.4587556762190558,0.5133075699837051,0.3703343868255615,-0.9274352788925171,0.05211714282631874,17.3017635345459,-36.05297088623047,19.79743957519531,2,192.168.1.8,10.83.46.32,1,0
2015-03-01 09:54:17.968,55,1425232407.228836,37.77937936490434,-122.4388172744405,56.19482,-1,-1,10,65,-9999,1425232457.93867,16.04409790039062,-34.22622680664062,20.78431701660156,222.3952484130859,208.6174468994141,10,177264.4396500417,0.4171142578125,-0.965301513671875,0.3236541748046875,177264.4086952083,-0.1520265508271733,0.5376054050354616,-0.2004502762958661,177264.4086952083,0.1589709083303719,1.740446635553708,1.181033225034222,-0.1698206067085266,0.5531931519508362,-0.1679122895002365,0.1030246466398239,0.001048904610797763,0.01708465442061424,XTrueNorthZVertical,0.3073837217290389,0.6615072312077482,0.4668256299784944,0.4999972644167943,0.3745144009590149,-0.9249991178512573,0.06415314227342606,16.02511978149414,-36.09487533569336,20.77165412902832,2,192.168.1.8,10.83.46.32,1,0
2015-03-01 09:54:17.975,56,1425232407.228836,37.77937936490434,-122.4388172744405,56.19482,-1,-1,10,65,-9999,1425232457.93867,16.04409790039062,-34.22622680664062,20.78431701660156,222.3952484130859,208.6174468994141,10,177264.4886710834,0.1686553955078125,-0.9113922119140625,0.206512451171875,177264.4604685833,-0.3701495641168052,-0.1375059312996253,-0.1487660427045893,177264.4604685833,0.1999675593739781,1.710560780145116,1.174740895667101,-0.3879434168338776,-0.1219183802604675,-0.1162284165620804,-0.05777104943990707,0.05055011808872223,0.2184735387563705,XTrueNorthZVertical,0.2990153734424199,0.6614086755732063,0.4706829863239005,0.5015833921293992,0.3820203244686127,-0.922589898109436,0.05374325811862946,16.01569557189941,-36.17192077636719,20.64450263977051,2,192.168.1.8,10.83.46.32,1,0
2015-03-01 09:54:18.038,57,1425232407.228836,37.77937936490434,-122.4388172744405,56.19482,-1,-1,10,65,-9999,1425232457.989889,15.75421524047852,-34.61703491210938,20.63454437255859,220.8314819335938,207.0536804199219,10,177264.537717375,0.3662109375,-0.892608642578125,0.124969482421875,177264.51224,-0.5529542676620243,-0.1822481028773925,-0.2879771960501923,177264.51224,0.2624086397915332,1.646829587557502,1.166295332403996,-0.570747971534729,-0.1666607111692429,-0.2554398775100708,-0.1101354360580444,-0.003751026466488838,0.1741609573364258,XTrueNorthZVertical,0.2909739370737808,0.655958523361403,0.4746475648956766,0.5096687897695402,0.3924230337142944,-0.9192988872528076,0.02989483252167702,16.3669261932373,-36.43420028686523,19.89419174194336,2,192.168.1.8,10.83.46.32,1,0
2015-03-01 09:54:18.074,58,1425232407.228836,37.77937936490434,-122.4388172744405,56.19482,-1,-1,10,65,-9999,1425232458.041414,16.1123046875,-35.21182250976562,19.88567352294922,221.0631408691406,207.2853393554688,10,177264.5867390833,0.4853973388671875,-0.8992462158203125,0.0273590087890625,177264.5640133334,-0.5964103987493923,-0.1044806032537707,-0.2776305488991255,177264.5640133334,0.3429708464780568,1.567141538590239,1.158040724262368,-0.614203929901123,-0.0888933464884758,-0.2450935244560242,-0.0005891462787985802,0.03618189692497253,0.0610058568418026,XTrueNorthZVertical,0.2811407047546706,0.6482490832688332,0.4817400596340513,0.5183237865158977,0.401132345199585,-0.9160189628601074,-0.001466060290113091,16.98164367675781,-36.91203689575195,18.44536972045898,2,192.168.1.8,10.83.46.32,1,0
2015-03-01 09:54:18.137,59,1425232407.228836,37.77937936490434,-122.4388172744405,56.19482,-1,-1,10,65,-9999,1425232458.09354,16.3851318359375,-35.72163391113281,18.58762359619141,220.9510803222656,207.1732788085938,10,177264.6357798333,0.52081298828125,-0.872650146484375,-0.048309326171875,177264.6157869167,-0.6100311361446025,-0.2746736411408105,-0.1571049327098454,177264.6157869167,0.4177973433148156,1.4851809728013,1.144489392242785,-0.6278244853019714,-0.259086549282074,-0.1245682463049889,0.0900481641292572,0.0177836250513792,0.1084034889936447,XTrueNorthZVertical,0.2723842716826899,0.6388481635823425,0.4866573345802186,0.5299476140901749,0.4119965136051178,-0.910499095916748,-0.03535966575145721,17.60142135620117,-37.19727325439453,17.25279235839844,2,192.168.1.8,10.83.46.32,1,0
2015-03-01 09:54:18.172,60,1425232407.228836,37.77937936490434,-122.4388172744405,56.19482,-1,-1,10,65,-9999,1425232458.145563,17.32297897338867,-35.90853881835938,17.27293395996094,221.7576599121094,207.9798583984375,10,177264.684809875,0.4432525634765625,-0.9461669921875,-0.23846435546875,177264.6675580833,-0.596334498658325,-0.1082540362023039,-0.1906873940557446,177264.6157869167,0.4177973433148156,1.4851809728013,1.144489392242785,-0.6278244853019714,-0.259086549282074,-0.1245682463049889,0.0900481641292572,0.0177836250513792,0.1084034889936447,XTrueNorthZVertical,0.2723842716826899,0.6388481635823425,0.4866573345802186,0.5299476140901749,0.4119965136051178,-0.910499095916748,-0.03535966575145721,17.60142135620117,-37.19727325439453,17.25279235839844,2,192.168.1.8,10.83.46.32,1,0
2015-03-01 09:54:18.235,61,1425232407.228836,37.77937936490434,-122.4388172744405,56.19482,-1,-1,10,65,-9999,1425232458.197668,17.90274047851562,-36.486328125,15.94160461425781,222.1492614746094,208.3714599609375,10,177264.733869,0.591094970703125,-0.88616943359375,-0.1763916015625,177264.7193317084,-0.6830534153379212,0.6209271934285527,-0.1220920875424647,177264.7193317084,0.565147391245005,1.355466918239233,1.121994022251702,-0.7008464336395264,0.6365140080451965,-0.08955608308315277,0.06693233549594879,0.01592713035643101,-0.05777392163872719,XTrueNorthZVertical,0.2499772447681322,0.6254256542986496,0.5042822539288832,0.5404197803271809,0.4238665997982025,-0.9009674191474915,-0.09270825237035751,18.24944305419922,-38.01865768432617,14.58237457275391,2,192.168.1.8,10.83.46.32,1,0
2015-03-01 09:54:18.270,62,1425232407.228836,37.77937936490434,-122.4388172744405,56.19482,-1,-1,10,65,-9999,1425232458.249972,17.81747817993164,-37.14907836914062,15.22599792480469,220.8245391845703,207.0467376708984,10,177264.782885125,0.8896636962890625,-0.8087615966796875,-0.2979888916015625,177264.7711050417,-0.3390289288825753,0.6320043456666283,0.2231790246191473,177264.7711050417,0.6306677993483142,1.34271785219312,1.118017718817807,-0.356821745634079,0.6475909352302551,0.2557147443294525,0.5232499241828918,0.06656291335821152,-0.2510923743247986,XTrueNorthZVertical,0.2312210932196984,0.6301427937581879,0.5195004170129037,0.5287496428382397,0.4261366426944733,-0.8992350101470947,-0.09891372919082642,17.73431587219238,-38.41498947143555,14.17351913452148,2,192.168.1.8,10.83.46.32,1,0
2015-03-01 09:54:18.338,63,1425232407.228836,37.77937936490434,-122.4388172744405,56.19482,-1,-1,10,65,-9999,1425232458.300892,17.06719970703125,-38.06669616699219,14.22750091552734,217.3269348144531,203.5491333007812,10,177264.831925625,0.5077667236328125,-0.890594482421875,-0.1495513916015625,177264.8228764583,0.002496979838058294,0.2482636052427127,0.5551809366494396,177264.7711050417,0.6306677993483142,1.34271785219312,1.118017718817807,-0.356821745634079,0.6475909352302551,0.2557147443294525,0.5232499241828918,0.06656291335821152,-0.2510923743247986,XTrueNorthZVertical,0.2312210932196984,0.6301427937581879,0.5195004170129037,0.5287496428382397,0.4261366426944733,-0.8992350101470947,-0.09891372919082642,17.73431587219238,-38.41498947143555,14.17351913452148,2,192.168.1.8,10.83.46.32,1,0
2015-03-01 09:54:18.373,64,1425232407.228836,37.77937936490434,-122.4388172744405,56.19482,-1,-1,10,65,-9999,1425232458.353019,16.06114196777344,-38.59347534179688,14.11100769042969,215.2427825927734,201.4649810791016,10,177264.8809407083,0.384521484375,-0.9075775146484375,-0.13720703125,177264.8746498333,-0.001763811589959479,0.1553288705788716,0.6896412769264502,177264.8228764583,0.6572389827356894,1.328081177428042,1.137673381034141,-0.01529564335942268,0.263850063085556,0.587716281414032,0.1486248970031738,0.01134292595088482,-0.0211219247430563,XTrueNorthZVertical,0.2339120118636021,0.628370212596801,0.52834435421253,0.5208534271289297,0.4074053764343262,-0.9076594710350037,-0.1008720919489861,16.93188858032227,-38.83372497558594,14.01282119750977,2,192.168.1.8,10.83.46.32,1,0
2015-03-01 09:54:18.436,65,1425232407.228836,37.77937936490434,-122.4388172744405,56.19482,-1,-1,10,65,-9999,1425232458.405391,14.42417526245117,-39.13725280761719,14.37727355957031,212.2242736816406,198.4464721679688,10,177264.9300220417,0.154296875,-0.9275970458984375,-0.083953857421875,177264.9264234584,-0.01096450052396523,0.2389273614092219,0.5395391263029682,177264.9264234584,0.7131459639775257,1.29726650029547,1.203479779171688,-0.02874888107180595,0.2544712424278259,0.5721868276596069,-0.1331915110349655,0.04225737974047661,-0.009361403062939644,XTrueNorthZVertical,0.2489068517722495,0.6241326551221533,0.5497687935738392,0.4962439764033381,0.3457617163658142,-0.9332943558692932,-0.09700761735439301,13.84380340576172,-39.98004531860352,14.17924499511719,2,192.168.1.8,10.83.46.32,1,0
2015-03-01 09:54:18.473,66,1425232407.228836,37.77937936490434,-122.4388172744405,56.19482,-1,-1,10,65,-9999,1425232458.457202,12.8213005065918,-39.37515258789062,14.64354705810547,209.8111419677734,196.0333404541016,10,177264.9789983333,0.2782135009765625,-0.9149169921875,0.0609283447265625,177264.9264234584,-0.01096450052396523,0.2389273614092219,0.5395391263029682,177264.9264234584,0.7131459639775257,1.29726650029547,1.203479779171688,-0.02874888107180595,0.2544712424278259,0.5721868276596069,-0.1331915110349655,0.04225737974047661,-0.009361403062939644,XTrueNorthZVertical,0.2489068517722495,0.6241326551221533,0.5497687935738392,0.4962439764033381,0.3457617163658142,-0.9332943558692932,-0.09700761735439301,13.84380340576172,-39.98004531860352,14.17924499511719,2,192.168.1.8,10.83.46.32,1,0
2015-03-01 09:54:18.535,67,1425232407.228836,37.77937936490434,-122.4388172744405,56.19482,-1,-1,10,65,-9999,1425232458.509297,11.03085708618164,-39.528076171875,14.85988616943359,206.4542236328125,192.6764221191406,10,177265.028034625,0.35797119140625,-0.97369384765625,-0.018798828125,177265.0299682917,0.1399565721347162,0.6440373064199333,0.3541223943605993,177264.978194625,0.749027546459622,1.297175877246043,1.22751222326816,-0.1563394218683243,1.032382249832153,0.5686788558959961,-0.14042067527771,-0.01504117902368307,0.1431815177202225,XTrueNorthZVertical,0.2465279794945303,0.6274939176677814,0.5621174511811167,0.4790608648670458,0.3240602016448975,-0.9416543841362,-0.09095067530870438,12.60517692565918,-40.34586715698242,14.29777717590332,2,192.168.1.8,10.83.46.32,1,0
2015-03-01 09:54:18.573,68,1425232407.228836,37.77937936490434,-122.4388172744405,56.19482,-1,-1,10,65,-9999,1425232458.560926,9.342723846435547,-39.71501159667969,14.71011352539062,202.5724487304688,188.7946472167969,10,177265.077049,0.3065032958984375,-0.95147705078125,-0.049285888671875,177265.0299682917,0.1399565721347162,0.6440373064199333,0.3541223943605993,177265.0299682917,0.7673361310041453,1.323850608059667,1.252468215732053,0.1221725568175316,0.6595808863639832,0.3867694139480591,0.05448675528168678,-0.02393383532762527,0.05770687386393547,XTrueNorthZVertical,0.2422933756323203,0.6348551555486502,0.5732875377359808,0.4578146494246816,0.3034844398498535,-0.9497600197792053,-0.07650570571422577,10.46265411376953,-40.77738189697266,14.79338073730469,2,192.168.1.8,10.83.46.32,1,0
2015-03-01 09:54:18.622,69,1425232407.228836,37.77937936490434,-122.4388172744405,56.19482,-1,-1,10,65,-9999,1425232458.61288,8.268455505371094,-40.10586547851562,15.15943908691406,199.8899078369141,186.1121063232422,10,177265.1260809583,0.1918792724609375,-0.9620208740234375,-0.170166015625,177265.0817415833,0.03523521911840237,0.4960904520666524,0.3409203058887496,177265.0817415833,0.7790622035716188,1.342258417616081,1.270604989713166,0.01745139062404633,0.5116338729858398,0.3735669851303101,0.01848896406590939,0.00380287691950798,0.01770671829581261,XTrueNorthZVertical,0.2398243980148011,0.6395216610130117,0.5807556789900798,0.4429663046846805,0.2880143225193024,-0.9552799463272095,-0.06699260324239731,9.34654712677002,-40.91549301147461,15.15488910675049,2,192.168.1.8,10.83.46.32,1,0
2015-03-01 09:54:18.667,70,1425232407.228836,37.77937936490434,-122.4388172744405,56.19482,-1,-1,10,65,-9999,1425232458.61288,8.268455505371094,-40.10586547851562,15.15943908691406,199.8899078369141,186.1121063232422,10,177265.1750985417,0.154083251953125,-0.940826416015625,0.01043701171875,177265.1335130833,-0.0006761766007711186,0.3364190310142976,0.2642835844639753,177265.1335130833,0.795505703867314,1.351075611235742,1.288682313322907,-0.01845984533429146,0.3519622683525085,0.2969299554824829,-0.07981457561254501,-0.001551802386529744,-0.1094896644353867,XTrueNorthZVertical,0.2385035249853224,0.6424779315903517,0.5879552197421428,0.4297055248890349,0.2716938555240631,-0.9604690670967102,-0.06067635118961334,8.273626327514648,-41.06391525268555,15.37557029724121,2,192.168.1.8,10.83.46.32,1,0
2015-03-01 09:54:18.722,71,1425232407.228836,37.77937936490434,-122.4388172744405,56.19482,-1,-1,10,65,-9999,1425232458.66446,6.870208740234375,-40.13984680175781,14.89317321777344,197.0449829101562,183.2671813964844,10,177265.224124125,0.270233154296875,-0.9909820556640625,0.0591888427734375,177265.23706,-0.06636038172648545,0.03487888816454977,0.2879156770290115,177265.1852865833,0.8229826033843334,1.348438979488784,1.297622234415611,-0.1298540830612183,0.4891266524791718,0.2655333578586578,-0.04941720515489578,0.008268533274531364,0.1242700442671776,XTrueNorthZVertical,0.2336641161757866,0.6447114368448851,0.594699673903168,0.4196195234088748,0.2631470561027527,-0.9629194140434265,-0.05949648842215538,7.24278450012207,-41.25211334228516,15.39192390441895,2,192.168.1.8,10.83.46.32,1,0
2015-03-01 09:54:18.772,72,1425232407.228836,37.77937936490434,-122.4388172744405,56.19482,-1,-1,10,65,-9999,1425232458.716579,5.830047607421875,-40.12284851074219,15.07622528076172,194.7102203369141,180.9324188232422,10,177265.27314075,0.163848876953125,-0.9696502685546875,0.0443267822265625,177265.23706,-0.06636038172648545,0.03487888816454977,0.2879156770290115,177265.23706,0.843506621054434,1.339322605486933,1.312808482886628,-0.08414367586374283,0.0504218265414238,0.3205613791942596,0.001470747869461775,0.01971597597002983,0.08648529648780823,XTrueNorthZVertical,0.2352508098093577,0.6445086951347535,0.5998699412310323,0.4116086181561923,0.2483308911323547,-0.9669052958488464,-0.05853119492530823,6.458488464355469,-41.38214874267578,15.39193916320801,2,192.168.1.8,10.83.46.32,1,0
2015-03-01 09:54:18.819,73,1425232407.228836,37.77937936490434,-122.4388172744405,56.19482,-1,-1,10,65,-9999,1425232458.768375,4.380645751953125,-40.173828125,14.99302673339844,191.5604858398438,177.7826843261719,10,177265.3222808334,0.1113128662109375,-0.987548828125,-0.0668487548828125,177265.2888313333,-0.01456243115666228,-0.02787157870433328,0.008068579154613068,177265.2888313333,0.8655013004789193,1.31817567121902,1.319040171893081,-0.03234556689858437,-0.01232877839356661,0.04071399569511414,-0.05089111626148224,0.005936775356531143,0.1295073926448822,XTrueNorthZVertical,0.2367848308948123,0.6424966833570412,0.6026530346648377,0.4098051708993101,0.2411987334489822,-0.9684764742851257,-0.062261912971735,5.978793144226074,-41.51572036743164,15.22514915466309,2,192.168.1.8,10.83.46.32,1,0
2015-03-01 09:54:18.869,74,1425232407.228836,37.77937936490434,-122.4388172744405,56.19482,-1,-1,10,65,-9999,1425232458.822671,3.954345703125,-40.39474487304688,14.74339294433594,190.2896575927734,176.5118560791016,10,177265.3712048334,0.1766204833984375,-0.9835968017578125,-0.0199127197265625,177265.3406048334,-0.1014730954347442,0.1234404460023718,-0.01149686642587207,177265.3406048334,0.8901248465570254,1.296978856512066,1.320449525151581,-0.1192560493946075,0.1389830857515335,0.02114822342991829,-0.1188358962535858,-0.02525302581489086,-0.04337579011917114,XTrueNorthZVertical,0.2357968104392011,0.6410182119506944,0.6053483481593419,0.4087161558688671,0.2385105788707733,-0.9688265919685364,-0.06699103116989136,5.800124168395996,-41.61183166503906,15.0306339263916,2,192.168.1.8,10.83.46.32,1,0
2015-03-01 09:54:18.917,75,1425232407.228836,37.77937936490434,-122.4388172744405,56.19482,-1,-1,10,65,-9999,1425232458.898621,3.834976196289062,-40.44575500488281,14.42720031738281,190.0034942626953,176.2256927490234,10,177265.4203592083,0.3056793212890625,-0.9164276123046875,-0.0661773681640625,177265.3923781667,-0.1898519604217868,0.5156465765833222,-0.01390010299355958,177265.3923781667,0.9256415443518355,1.280478071119902,1.31694654346119,-0.2076347172260284,0.5311890244483948,0.01874462701380253,-0.02880054339766502,0.007732455618679523,0.06515927612781525,XTrueNorthZVertical,0.228142986633746,0.6418773840571993,0.6102828000026824,0.404350229454418,0.2406230568885803,-0.9679527878761292,-0.07188840210437775,5.650022506713867,-41.72087478637695,14.78350162506104,2,192.168.1.8,10.83.46.32,1,0
2015-03-01 09:54:18.967,76,1425232407.228836,37.77937936490434,-122.4388172744405,56.19482,-1,-1,10,65,-9999,1425232458.94945,3.408676147460938,-40.32681274414062,14.44384002685547,188.8489685058594,175.0711669921875,10,177265.4692756667,0.502105712890625,-0.8026885986328125,-0.0931854248046875,177265.4441494583,-0.1985975151254979,0.5231910456354077,-0.1828779404751963,177265.4441494583,0.9632877228195172,1.27318328571697,1.313490682170662,-0.2163801044225693,0.5387333631515503,-0.1502335369586945,0.161786213517189,0.09862515330314636,-0.03875055909156799,XTrueNorthZVertical,0.2170075953502923,0.6446678073642321,0.6166662760913206,0.3962749401531391,0.2432888597249985,-0.9670791625976562,-0.07462224364280701,5.14352560043335,-41.90055084228516,14.45663261413574,2,192.168.1.8,10.83.46.32,1,0
2015-03-01 09:54:19.015,77,1425232407.228836,37.77937936490434,-122.4388172744405,56.19482,-1,-1,10,65,-9999,1425232459.001551,3.630355834960938,-40.479736328125,13.79482269287109,187.5534362792969,173.775634765625,10,177265.518428625,0.8552703857421875,-0.6584320068359375,-0.0376434326171875,177265.4959231667,0.1232590847321374,0.05100725804217864,-0.7782475758705856,177265.4959231667,0.9509689280406728,1.303015090402324,1.288907572336355,0.1054766550660133,0.06654943525791168,-0.7456035017967224,0.3912894427776337,0.2103486508131027,-0.005270916502922773,XTrueNorthZVertical,0.202807432133465,0.6496678101095195,0.6148782846862453,0.3984037895822105,0.2682564556598663,-0.9605317711830139,-0.07360176742076874,5.619840145111084,-41.88330078125,14.32873725891113,2,192.168.1.8,10.83.46.32,1,0
2015-03-01 09:54:19.069,78,1425232407.228836,37.77937936490434,-122.4388172744405,56.19482,-1,-1,10,65,-9999,1425232459.054744,5.369640350341797,-41.09147644042969,13.82810211181641,188.6328735351562,174.8550720214844,10,177265.5673553333,0.6884002685546875,-0.8238677978515625,-0.06878662109375,177265.5476966667,0.5660285244015503,-1.468777017020577,-0.9327194412106696,177265.5476966667,0.8585444761988603,1.354828243791932,1.247686379855505,0.5482462644577026,-1.453235030174255,-0.9000756144523621,0.5551849007606506,0.2884014844894409,0.06425755470991135,XTrueNorthZVertical,0.2021420204308741,0.6520105341887668,0.5961405563208413,0.4226550680468833,0.310140997171402,-0.9482525587081909,-0.06804173439741135,7.500239849090576,-41.47317886352539,14.65700912475586,2,192.168.1.8,10.83.46.32,1,0
2015-03-01 09:54:19.113,79,1425232407.228836,37.77937936490434,-122.4388172744405,56.19482,-1,-1,10,65,-9999,1425232459.105336,8.097930908203125,-40.98953247070312,14.0943603515625,194.5339660644531,180.7561645507812,10,177265.61651675,-0.150726318359375,-0.924652099609375,-0.112701416015625,177265.5994679584,0.5439447936942863,-2.822883910140631,-0.4177743412584742,177265.5994679584,0.754759128734302,1.334866482394454,1.22541994218139,0.5261627435684204,-2.807342052459717,-0.385130912065506,-0.1311588287353516,0.02302511967718601,-0.03310834616422653,XTrueNorthZVertical,0.233304793847786,0.6371822497488777,0.5676816489129768,0.4661600602939722,0.3291721343994141,-0.9409480690956116,-0.07913530617952347,11.03507995605469,-40.60504150390625,14.85139274597168,2,192.168.1.8,10.83.46.32,1,0
2015-03-01 09:54:19.171,80,1425232407.228836,37.77937936490434,-122.4388172744405,56.19482,-1,-1,10,65,-9999,1425232459.156774,10.65570068359375,-40.649658203125,14.19420623779297,203.6741943359375,189.8963928222656,10,177265.6654405833,-0.0650787353515625,-1.122146606445312,-0.217193603515625,177265.651241375,0.003769970839116169,-1.565092634688274,0.5092155751829989,177265.5994679584,0.754759128734302,1.334866482394454,1.22541994218139,0.5261627435684204,-2.807342052459717,-0.385130912065506,-0.1311588287353516,0.02302511967718601,-0.03310834616422653,XTrueNorthZVertical,0.233304793847786,0.6371822497488777,0.5676816489129768,0.4661600602939722,0.3291721343994141,-0.9409480690956116,-0.07913530617952347,11.03507995605469,-40.60504150390625,14.85139274597168,2,192.168.1.8,10.83.46.32,1,0
2015-03-01 09:54:19.211,81,1425232407.228836,37.77937936490434,-122.4388172744405,56.19482,-1,-1,10,65,-9999,1425232459.156774,10.65570068359375,-40.649658203125,14.19420623779297,203.6741943359375,189.8963928222656,10,177265.7144821667,-0.05523681640625,-1.232711791992188,-0.1415863037109375,177265.7030149583,-1.01638504370049,-0.9192060292073896,1.698379852505105,177265.7030149583,0.8905216307929097,1.034012889720177,1.274068806788139,-1.034166812896729,-0.9036644697189331,1.731022715568542,-0.193866103887558,-0.2850803136825562,-0.07374463975429535,XTrueNorthZVertical,0.2955291256124251,0.5812930016036159,0.5663075027846395,0.5040404716334542,0.251269668340683,-0.9562984704971313,-0.1495219618082047,11.93935585021973,-41.05865478515625,12.75714111328125,2,192.168.1.8,10.83.46.32,1,0
2015-03-01 09:54:19.271,82,1425232407.228836,37.77937936490434,-122.4388172744405,56.19482,-1,-1,10,65,-9999,1425232459.209333,11.15020751953125,-41.21041870117188,13.47862243652344,207.5671691894531,193.7893676757812,10,177265.7635051667,-0.4037322998046875,-0.9775390625,-0.1008758544921875,177265.7547861667,-0.6418441932622531,0.5563790928238662,2.374811584108653,177265.7030149583,0.8905216307929097,1.034012889720177,1.274068806788139,-1.034166812896729,-0.9036644697189331,1.731022715568542,-0.193866103887558,-0.2850803136825562,-0.07374463975429535,XTrueNorthZVertical,0.2955291256124251,0.5812930016036159,0.5663075027846395,0.5040404716334542,0.251269668340683,-0.9562984704971313,-0.1495219618082047,11.93935585021973,-41.05865478515625,12.75714111328125,2,192.168.1.8,10.83.46.32,1,0
2015-03-01 09:54:19.310,83,1425232407.228836,37.77937936490434,-122.4388172744405,56.19482,-1,-1,10,65,-9999,1425232459.260874,8.080883026123047,-42.29800415039062,11.38179016113281,204.4171142578125,190.6393127441406,10,177265.812658875,-0.110504150390625,-1.084625244140625,-0.04351806640625,177265.806559875,-0.09624557653102764,2.486859825915992,2.145285713979629,177265.7547861667,1.310915770940031,0.6173194024715631,1.32370389961826,-0.6596257090568542,0.5719204545021057,2.407454013824463,-0.5316392183303833,-0.02194947749376297,0.07734246551990509,XTrueNorthZVertical,0.318127847498291,0.5468756928584801,0.6061102788182251,0.4820290257554933,0.1415787935256958,-0.9696276783943176,-0.1994432955980301,7.050263404846191,-42.93117141723633,9.91536808013916,2,192.168.1.8,10.83.46.32,1,0
2015-03-01 09:54:19.372,84,1425232407.228836,37.77937936490434,-122.4388172744405,56.19482,-1,-1,10,65,-9999,1425232459.31263,2.811866760253906,-43.40255737304688,10.26679229736328,197.2032775878906,183.4254760742188,10,177265.8615817083,0.10986328125,-1.06195068359375,-0.1376800537109375,177265.8583331667,-0.486466320519324,2.640480811287796,2.222839628083826,177265.806559875,1.791580776622392,0.2346850669067406,1.360043218593107,-0.1140269190073013,2.502401113510132,2.177927732467651,-0.2461403459310532,-0.06555286794900894,0.1629039794206619,XTrueNorthZVertical,0.3191737138791825,0.5444237495700068,0.6488718172985238,0.4250838605988834,0.04864584282040596,-0.9778736233711243,-0.2034618407487869,1.949849605560303,-43.53816223144531,9.57771110534668,2,192.168.1.8,10.83.46.32,1,0
2015-03-01 09:54:19.407,85,1425232407.228836,37.77937936490434,-122.4388172744405,56.19482,-1,-1,10,65,-9999,1425232459.364584,-3.497314453125,-43.13069152832031,8.735763549804688,183.8488006591797,170.0709991455078,10,177265.910628375,0.1592864990234375,-1.0877685546875,-0.0797119140625,177265.9101046667,-0.4952307836667748,1.862147747946219,2.172781254338043,177265.8583331667,2.316902571301921,-0.1429517679228036,1.347895872757077,-0.5042474865913391,2.6560218334198,2.255481481552124,0.123992070555687,-0.1128438711166382,0.09430794417858124,XTrueNorthZVertical,0.3005893594889273,0.5479451022570437,0.6961837729763262,0.3531718543035907,-0.03149329498410225,-0.9752603769302368,-0.2188044041395187,-3.489922046661377,-43.56284332275391,9.011401176452637,2,192.168.1.8,10.83.46.32,1,0
2015-03-01 09:54:19.472,86,1425232407.228836,37.77937936490434,-122.4388172744405,56.19482,-1,-1,10,65,-9999,1425232459.416836,-9.908805847167969,-42.48493957519531,7.071609497070312,170.843017578125,157.0652160644531,10,177265.959638625,0.12158203125,-1.053878784179688,-0.12091064453125,177265.9101046667,-0.4952307836667748,1.862147747946219,2.172781254338043,177265.9101046667,2.726448207458307,-0.4281045478732149,1.290363251611043,-0.5130031704902649,1.877650737762451,2.205529928207397,0.2680229842662811,-0.1233386248350143,0.1570525467395782,XTrueNorthZVertical,0.2871790033116335,0.5400287383852929,0.7376715900368467,0.2858982503980591,-0.1149010434746742,-0.960935652256012,-0.2517943680286407,-10.51383209228516,-42.8436279296875,6.707365036010742,2,192.168.1.8,10.83.46.32,1,0
2015-03-01 09:54:19.505,87,1425232407.228836,37.77937936490434,-122.4388172744405,56.19482,-1,-1,10,65,-9999,1425232459.468636,-15.92810821533203,-40.63265991210938,4.592002868652344,158.8032989501953,145.0254974365234,10,177266.00878575,0.0732421875,-0.91937255859375,-0.10308837890625,177266.0136517083,-0.05628164858108057,0.7505954416400747,1.873457660463568,177265.9618780417,2.993013158530444,-0.6050786027900967,1.217707376236099,-0.3535704016685486,1.307752847671509,2.140122175216675,0.3182810842990875,-0.1155697479844093,0.163493350148201,XTrueNorthZVertical,0.2842528742115942,0.5263062852598298,0.7682410372846266,0.2280519870194564,-0.1966990530490875,-0.9383090138435364,-0.2844040095806122,-15.05074691772461,-41.71974563598633,4.903437614440918,2,192.168.1.8,10.83.46.32,1,0
2015-03-01 09:54:19.569,88,1425232407.228836,37.77937936490434,-122.4388172744405,56.19482,-1,-1,10,65,-9999,1425232459.526957,-21.06070709228516,-38.64445495605469,2.744773864746094,148.3917083740234,134.6139068603516,10,177266.057716,-0.075439453125,-0.8960418701171875,-0.1328125,177266.0136517083,-0.05628164858108057,0.7505954416400747,1.873457660463568,177266.0136517083,-3.096910502690115,-0.7328164071871777,1.146763389016054,-0.07405363023281097,0.7660982012748718,1.906205654144287,0.348481148481369,-0.007935511879622936,0.2027318775653839,XTrueNorthZVertical,0.2895784446243179,0.5130635389324214,0.7884534118771193,0.176780511594648,-0.275238960981369,-0.9114370346069336,-0.3058202564716339,-19.10858535766602,-40.17004776000977,3.512146949768066,2,192.168.1.8,10.83.46.32,1,0
2015-03-01 09:54:19.603,89,1425232407.228836,37.77937936490434,-122.4388172744405,56.19482,-1,-1,10,65,-9999,1425232459.598033,-26.63665008544922,-34.7869873046875,1.363510131835938,137.1016235351562,123.3238143920898,10,177266.1067854583,-0.1940155029296875,-0.901153564453125,-0.1457672119140625,177266.0654229167,0.08260380016320575,0.09078156892251206,1.444617085927487,177266.0654229167,-2.957281699032347,-0.8387472775939687,1.087970433191078,0.06483197212219238,0.1062842011451721,1.477364778518677,0.2698978781700134,-0.01035542599856853,0.1775125861167908,XTrueNorthZVertical,0.3034331866339907,0.5027581491758527,0.7975828504753265,0.1379280387278118,-0.3453373312950134,-0.885686457157135,-0.3103250861167908,-23.3636646270752,-37.91007995605469,2.840993881225586,2,192.168.1.8,10.83.46.32,1,0
2015-03-01 09:54:19.669,90,1425232407.228836,37.77937936490434,-122.4388172744405,56.19482,-1,-1,10,65,-9999,1425232459.649717,-29.12621307373047,-32.71382141113281,1.563209533691406,132.29052734375,118.5127182006836,10,177266.1558092083,-0.3627166748046875,-0.880218505859375,-0.235260009765625,177266.1171965833,0.3331297607519407,-0.1441795466752548,1.063564273991789,177266.1171965833,-2.856058115133418,-0.9313942560400363,1.047275823517762,0.3153581321239471,-0.128677099943161,1.096311688423157,0.1726105511188507,-0.04607535526156425,0.1324238628149033,XTrueNorthZVertical,0.3213501168776473,0.4975694842647499,0.7978592552383496,0.1121575770733948,-0.4011719524860382,-0.8660645484924316,-0.2983174324035645,-25.53659820556641,-36.44851684570312,3.239418983459473,2,192.168.1.8,10.83.46.32,1,0
2015-03-01 09:54:19.702,91,1425232407.228836,37.77937936490434,-122.4388172744405,56.19482,-1,-1,10,65,-9999,1425232459.649717,-29.12621307373047,-32.71382141113281,1.563209533691406,132.29052734375,118.5127182006836,10,177266.2049647917,-0.449676513671875,-0.8587493896484375,-0.278289794921875,177266.1689699167,0.2657203598720731,-0.3791947244431503,0.939958179369614,177266.1689699167,-2.777194409559818,-1.011919665769265,1.013772252179223,0.2479489147663116,-0.3636924028396606,0.9727051854133606,0.0704805850982666,-0.01896572485566139,0.04066034033894539,XTrueNorthZVertical,0.3397538794827581,0.4943782567200847,0.7946962503013033,0.09281871023187695,-0.4482271671295166,-0.8488321304321289,-0.2803148925304413,-27.18639945983887,-35.16072845458984,3.965976715087891,2,192.168.1.8,10.83.46.32,1,0
2015-03-01 09:54:19.769,92,1425232407.228836,37.77937936490434,-122.4388172744405,56.19482,-1,-1,10,65,-9999,1425232459.753243,-32.21259307861328,-28.72041320800781,3.1441650390625,126.5140151977539,112.736213684082,10,177266.2538875834,-0.5555419921875,-0.821807861328125,-0.2245941162109375,177266.2207414167,-0.08292737423565037,-0.6039460793698804,0.9352486452979178,177266.2207414167,-2.7273498498021,-1.076789185506818,0.9730130021711237,-0.1006986647844315,-0.58844393491745,0.9679953455924988,0.03916192427277565,-0.02584703639149666,-0.007628889288753271,XTrueNorthZVertical,0.3610310169931679,0.4860307305950004,0.7919984088690685,0.07854461527226235,-0.4955217838287354,-0.8265852332115173,-0.2668614685535431,-29.09006118774414,-33.47369384765625,4.93824291229248,2,192.168.1.8,10.83.46.32,1,0
2015-03-01 09:54:19.799,93,1425232407.228836,37.77937936490434,-122.4388172744405,56.19482,-1,-1,10,65,-9999,1425232459.753243,-32.21259307861328,-28.72041320800781,3.1441650390625,126.5140151977539,112.736213684082,10,177266.3030383333,-0.559967041015625,-0.7534027099609375,-0.2161102294921875,177266.2725148333,-0.245852645507864,-0.2738552517378292,0.9161990540205811,177266.2725148333,-2.707461281054492,-1.115908546842711,0.9266234445485076,-0.2636237740516663,-0.2583532333374023,0.9489454627037048,-0.03893080353736877,-0.01368144247680902,0.03715313971042633,XTrueNorthZVertical,0.380868803580997,0.4722419618366465,0.7920564395279092,0.06762457463867626,-0.5394688248634338,-0.7995967268943787,-0.2638529539108276,-30.35205841064453,-32.27096557617188,5.33323860168457,2,192.168.1.8,10.83.46.32,1,0
2015-03-01 09:54:19.869,94,1425232407.228836,37.77937936490434,-122.4388172744405,56.19482,-1,-1,10,65,-9999,1425232459.856903,-34.49752044677734,-25.08389282226562,3.97625732421875,123.4349212646484,109.6571197509766,10,177266.3519535,-0.6060943603515625,-0.7012939453125,-0.224517822265625,177266.3242885,-0.2925652899761808,-0.2589487401683286,0.9966385031658794,177266.3242885,-2.694604110991037,-1.134639717467784,0.8755514322831307,-0.3103359043598175,-0.2434468269348145,1.02938437461853,0.02411628514528275,0.01515026949346066,0.05522298812866211,XTrueNorthZVertical,0.3953538223659833,0.4564946083098305,0.7953080336877917,0.05285037208529842,-0.5806043148040771,-0.767896831035614,-0.2706160545349121,-31.69023895263672,-30.98298454284668,5.185504913330078,2,192.168.1.8,10.83.46.32,1,0
2015-03-01 09:54:19.897,95,1425232407.228836,37.77937936490434,-122.4388172744405,56.19482,-1,-1,10,65,-9999,1425232459.856903,-34.49752044677734,-25.08389282226562,3.97625732421875,123.4349212646484,109.6571197509766,10,177266.4010054583,-0.70086669921875,-0.647369384765625,-0.218414306640625,177266.3760596667,-0.2473828978702235,-0.4043016756198723,1.123771155703537,177266.3760596667,-2.680475170417599,-1.16389475566973,0.8193539765086492,-0.2651530802249908,-0.3887998461723328,1.156516909599304,-0.01960816979408264,0.06017271801829338,0.04911735653877258,XTrueNorthZVertical,0.4147868615657695,0.4391565935097383,0.7960194040711737,0.03803231185123972,-0.6269525289535522,-0.7307049632072449,-0.2701866924762726,-33.52259826660156,-28.96897125244141,5.304757118225098,2,192.168.1.8,10.83.46.32,1,0
2015-03-01 09:54:19.969,96,1425232407.228836,37.77937936490434,-122.4388172744405,56.19482,-1,-1,10,65,-9999,1425232459.961495,-38.28304290771484,-20.66561889648438,4.242523193359375,117.6008071899414,103.8230056762695,10,177266.450012375,-0.65435791015625,-0.628021240234375,-0.20220947265625,177266.4278332917,-0.274859529784898,-0.1112724629817997,1.309689893511386,177266.4278332917,-2.663877052303088,-1.188231647495596,0.7566345082608048,-0.2926289141178131,-0.09577067196369171,1.342435956001282,-0.01459349878132343,0.03959701582789421,0.05869267880916595,XTrueNorthZVertical,0.4330112570071071,0.4204500722152287,0.7971030840388446,0.01869930609224027,-0.6745849847793579,-0.6864781379699707,-0.2714459896087646,-34.99252700805664,-27.14971923828125,5.433388710021973,2,192.168.1.8,10.83.46.32,1,0
2015-03-01 09:54:19.996,97,1425232407.228836,37.77937936490434,-122.4388172744405,56.19482,-1,-1,10,65,-9999,1425232459.961495,-38.28304290771484,-20.66561889648438,4.242523193359375,117.6008071899414,103.8230056762695,10,177266.4991647083,-0.6949005126953125,-0.5623779296875,-0.2622222900390625,177266.4796067083,-0.4053155410468655,-0.04879177433134172,1.494274387613105,177266.4796067083,-2.650415069601273,-1.197773519232613,0.6824341469517446,-0.4230843484401703,-0.0332900695502758,1.52702009677887,0.05894477292895317,0.04361723363399506,0.04940007254481316,XTrueNorthZVertical,0.4480844833199113,0.3972573612796744,0.8008543849002678,-0.006256313314291957,-0.7226715683937073,-0.6306838989257812,-0.2828137576580048,-36.63362884521484,-24.96035385131836,5.105299949645996,2,192.168.1.8,10.83.46.32,1,0
2015-03-01 09:54:20.036,98,1425232407.228836,37.77937936490434,-122.4388172744405,56.19482,-1,-1,10,65,-9999,1425232460.012911,-39.52783203125,-17.75979614257812,4.425582885742188,114.7148895263672,100.9370880126953,10,177266.5480795417,-0.742279052734375,-0.5059814453125,-0.2649383544921875,177266.53137825,-0.4280104672243028,-0.1538936930674279,1.485959732373768,177266.4796067083,-2.650415069601273,-1.197773519232613,0.6824341469517446,-0.4230843484401703,-0.0332900695502758,1.52702009677887,0.05894477292895317,0.04361723363399506,0.04940007254481316,XTrueNorthZVertical,0.4480844833199113,0.3972573612796744,0.8008543849002678,-0.006256313314291957,-0.7226715683937073,-0.6306838989257812,-0.2828137576580048,-36.63362884521484,-24.96035385131836,5.105299949645996,2,192.168.1.8,10.83.46.32,1,0
2015-03-01 09:54:20.094,99,1425232407.228836,37.77937936490434,-122.4388172744405,56.19482,-1,-1,10,65,-9999,1425232460.064804,-41.02839660644531,-14.3951416015625,4.059463500976562,110.5322647094727,96.75446319580078,10,177266.5971310833,-0.7777099609375,-0.3933563232421875,-0.27099609375,177266.58315175,-0.556541279334252,-0.02626196414148938,1.453611646193121,177266.58315175,-2.639598896603321,-1.213173526516103,0.5238258336446122,-0.5743096470832825,-0.01076054852455854,1.486356854438782,0.05940275639295578,0.05653207376599312,0.05060864239931107,XTrueNorthZVertical,0.4805344612209689,0.3428280772817956,0.8053735813138885,-0.05411966445956793,-0.8111270070075989,-0.500196635723114,-0.3031110763549805,-40.10197448730469,-19.06938552856445,4.392763137817383,2,192.168.1.8,10.83.46.32,1,0
2015-03-01 09:54:20.138,100,1425232407.228836,37.77937936490434,-122.4388172744405,56.19482,-1,-1,10,65,-9999,1425232460.117239,-42.35843658447266,-11.30233764648438,4.026191711425781,106.984375,93.20657348632812,10,177266.6461491667,-0.87884521484375,-0.267333984375,-0.293304443359375,177266.63492525,-0.5636583110313798,-0.2715513510788016,1.412111074294198,177266.58315175,-2.639598896603321,-1.213173526516103,0.5238258336446122,-0.5743096470832825,-0.01076054852455854,1.486356854438782,0.05940275639295578,0.05653207376599312,0.05060864239931107,XTrueNorthZVertical,0.4805344612209689,0.3428280772817956,0.8053735813138885,-0.05411966445956793,-0.8111270070075989,-0.500196635723114,-0.3031110763549805,-40.10197448730469,-19.06938552856445,4.392763137817383,2,192.168.1.8,10.83.46.32,1,0
2015-03-01 09:54:20.192,101,1425232407.228836,37.77937936490434,-122.4388172744405,56.19482,-1,-1,10,65,-9999,1425232460.168597,-43.97837066650391,-8.056640625,3.942977905273438,103.2820129394531,89.50421142578125,10,177266.6952981667,-0.8845977783203125,-0.1927032470703125,-0.283111572265625,177266.6866964583,-0.5257455497530117,-0.2431609885941209,1.435790571126638,177266.63492525,-2.641858555082665,-1.218512548549537,0.4445897807174471,-0.5814264416694641,-0.2560500800609589,1.4448561668396,0.02271371334791183,0.1241030767560005,0.0173102468252182,XTrueNorthZVertical,0.4961352820962471,0.3132090865906289,0.8062521027269866,-0.07554733177213284,-0.8473444581031799,-0.4300875663757324,-0.311499685049057,-41.274169921875,-16.46769714355469,4.045185089111328,2,192.168.1.8,10.83.46.32,1,0
2015-03-01 09:54:20.266,102,1425232407.228836,37.77937936490434,-122.4388172744405,56.19482,-1,-1,10,65,-9999,1425232460.22037,-44.47286224365234,-4.91290283203125,4.425582885742188,101.2868041992188,87.50900268554688,10,177266.7442147083,-0.821563720703125,-0.308990478515625,-0.239410400390625,177266.738470125,-0.5021286372061891,-0.2422451274952426,1.910330723652369,177266.6866964583,-2.644503487701314,-1.232592915626779,0.3656655072900048,-0.5435125231742859,-0.2276599109172821,1.468539953231812,-0.03939614444971085,0.1460230350494385,0.02393747493624687,XTrueNorthZVertical,0.5144202074793178,0.2836256658401379,0.8036185553898316,-0.09552775408261839,-0.8809834718704224,-0.3575708866119385,-0.309856653213501,-42.48458862304688,-12.9630069732666,4.257487297058105,2,192.168.1.8,10.83.46.32,1,0
2015-03-01 09:54:20.289,103,1425232407.228836,37.77937936490434,-122.4388172744405,56.19482,-1,-1,10,65,-9999,1425232460.273421,-44.88210296630859,-0.970489501953125,5.157814025878906,96.94951629638672,83.17171478271484,10,177266.7932737083,-1.564102172851562,-0.4824066162109375,-0.58013916015625,177266.7902436667,-0.3513316678543053,-1.414298861129698,1.764729048955012,177266.7902436667,-2.633203588545245,-1.278994035574333,0.1756754739534141,-0.369098037481308,-1.398797988891602,1.797475934028625,-0.2516853213310242,-0.2224282771348953,-0.1340768337249756,XTrueNorthZVertical,0.5576871571779584,0.2176224054866047,0.7867830446828784,-0.1503262003170624,-0.9429863095283508,-0.1747732609510422,-0.2832510471343994,-43.92389297485352,-6.086931705474854,4.974609375,2,192.168.1.8,10.83.46.32,1,0
2015-03-01 09:54:20.366,104,1425232407.228836,37.77937936490434,-122.4388172744405,56.19482,-1,-1,10,65,-9999,1425232460.324118,-44.47286224365234,1.85040283203125,7.188095092773438,93.98899841308594,80.21119689941406,10,177266.8521122083,-0.9459991455078125,0.1156005859375,-0.216552734375,177266.8420147917,-0.05003147581877361,-0.5962745775337982,-1.451486177327129,177266.7902436667,-2.633203588545245,-1.278994035574333,0.1756754739534141,-0.369098037481308,-1.398797988891602,1.797475934028625,-0.2516853213310242,-0.2224282771348953,-0.1340768337249756,XTrueNorthZVertical,0.5576871571779584,0.2176224054866047,0.7867830446828784,-0.1503262003170624,-0.9429863095283508,-0.1747732609510422,-0.2832510471343994,-43.92389297485352,-6.086931705474854,4.974609375,2,192.168.1.8,10.83.46.32,1,0
2015-03-01 09:54:20.398,105,1425232407.228836,37.77937936490434,-122.4388172744405,56.19482,-1,-1,10,65,-9999,1425232460.37563,-43.89310455322266,3.48175048828125,8.752418518066406,90.15611267089844,76.37831115722656,10,177266.901151375,-0.7192535400390625,0.1042022705078125,-0.237823486328125,177266.8937885417,-1.016726194636129,1.265070493659871,0.9557951994239882,177266.8937885417,-2.642975144935597,-1.326489498184082,0.1682761346162069,-1.034483075141907,1.280537247657776,0.9886425137519836,0.230983167886734,0.2894771099090576,0.1291074305772781,XTrueNorthZVertical,0.5781922076730017,0.215546244552835,0.7737011125134952,-0.1435972788530654,-0.9565995931625366,-0.1674830764532089,-0.2384671717882156,-43.51596832275391,-5.097178936004639,8.454883575439453,2,192.168.1.8,10.83.46.32,1,0
2015-03-01 09:54:20.470,106,1425232407.228836,37.77937936490434,-122.4388172744405,56.19482,-1,-1,10,65,-9999,1425232460.428779,-43.62027740478516,3.82159423828125,9.384803771972656,92.37442016601562,78.59661865234375,10,177266.9501739584,-1.072402954101562,-0.121917724609375,-0.1665802001953125,177266.9455620417,-0.5829550436578759,-0.8132380504848097,0.5646809648899702,177266.8937885417,-2.642975144935597,-1.326489498184082,0.1682761346162069,-1.034483075141907,1.280537247657776,0.9886425137519836,0.230983167886734,0.2894771099090576,0.1291074305772781,XTrueNorthZVertical,0.5781922076730017,0.215546244552835,0.7737011125134952,-0.1435972788530654,-0.9565995931625366,-0.1674830764532089,-0.2384671717882156,-43.51596832275391,-5.097178936004639,8.454883575439453,2,192.168.1.8,10.83.46.32,1,0
2015-03-01 09:54:20.496,107,1425232407.228836,37.77937936490434,-122.4388172744405,56.19482,-1,-1,10,65,-9999,1425232460.479663,-43.68849182128906,4.535308837890625,9.051963806152344,91.78684234619141,78.00904083251953,10,177266.9993232917,-0.95172119140625,0.0591278076171875,-0.119659423828125,177266.99733325,-0.4674191260869683,-0.4255438474226714,0.5840432112792823,177266.9455620417,-2.67611848675655,-1.316019473782926,0.1134736783521955,-0.6007118225097656,-0.7977713346481323,0.5975279808044434,-0.07736820727586746,0.02648410014808178,0.02866788953542709,XTrueNorthZVertical,0.5837497339590295,0.1844774846000306,0.7766383753793765,-0.1484491233376818,-0.9614959359169006,-0.1132303178310394,-0.2504086196422577,-43.93155670166016,-3.50223445892334,6.989903450012207,2,192.168.1.8,10.83.46.32,1,0
2015-03-01 09:54:20.535,108,1425232407.228836,37.77937936490434,-122.4388172744405,56.19482,-1,-1,10,65,-9999,1425232460.530911,-43.24514007568359,5.826751708984375,10.05046081542969,81.24838256835938,67.4705810546875,10,177267.0482374583,-0.9640655517578125,0.1553802490234375,-0.1561126708984375,177266.99733325,-0.4674191260869683,-0.4255438474226714,0.5840432112792823,177266.99733325,-2.691012309422864,-1.350207314904283,0.08097369656512218,-0.4851729273796082,-0.4100772738456726,0.6168935894966125,-0.002739720279350877,0.1097396090626717,0.09838227182626724,XTrueNorthZVertical,0.6016269505829486,0.1702976125914135,0.7659422274918488,-0.1495869050952888,-0.9725715517997742,-0.08088523894548416,-0.2180874645709991,-43.44852066040039,5.034626960754395,9.840033531188965,2,192.168.1.8,10.83.46.32,1,0
2015-03-01 09:54:20.594,109,1425232407.228836,37.77937936490434,-122.4388172744405,56.19482,-1,-1,10,65,-9999,1425232460.584876,-42.90411376953125,6.67645263671875,10.84926605224609,81.33895874023438,67.5611572265625,10,177267.0973997083,-0.9602203369140625,0.091400146484375,-0.1074371337890625,177267.1008804167,-0.4965546410446532,-0.339692854942332,-0.01255147821754345,177267.0491067083,-2.715172661012188,-1.35658054033843,0.04544605147213675,-0.6565068960189819,-0.1301401257514954,0.3985224664211273,0.01206895895302296,0.2008106559514999,0.05624904483556747,XTrueNorthZVertical,0.6093530078322421,0.1500268433345409,0.7638357525375122,-0.1507839640796058,-0.9761345386505127,-0.04543041065335274,-0.2123617231845856,-43.20415878295898,5.987183570861816,10.36831760406494,2,192.168.1.8,10.83.46.32,1,0
2015-03-01 09:54:20.637,110,1425232407.228836,37.77937936490434,-122.4388172744405,56.19482,-1,-1,10,65,-9999,1425232460.634921,-42.80181121826172,6.948333740234375,11.68135070800781,81.66163635253906,67.88383483886719,10,177267.14630525,-0.95758056640625,0.0496978759765625,-0.1133880615234375,177267.1008804167,-0.4965546410446532,-0.339692854942332,-0.01255147821754345,177267.1008804167,-2.742514023013803,-1.36949625647269,0.0315621812371988,-0.5143072009086609,-0.3242266774177551,0.02030211873352528,0.01909914240241051,0.1229570880532265,0.09240660071372986,XTrueNorthZVertical,0.6174282627708921,0.1373334315992238,0.7610930227837297,-0.1437333716297627,-0.9793194532394409,-0.03155694156885147,-0.1998437345027924,-43.0244140625,6.185600280761719,10.98115730285645,2,192.168.1.8,10.83.46.32,3,0
2015-03-01 09:54:20.692,111,1425232407.228836,37.77937936490434,-122.4388172744405,56.19482,-1,-1,10,65,-9999,1425232460.634921,-42.80181121826172,6.948333740234375,11.68135070800781,81.66163635253906,67.88383483886719,10,177267.1953608333,-0.9838409423828125,0.0145111083984375,-0.130859375,177267.204425375,-0.1079182115888449,-0.2697366731120216,-0.4406921740191511,177267.1526516667,-2.763686926043593,-1.384727424570369,0.03183369731705578,-0.3033282160758972,-0.3000559508800507,-0.1702843606472015,0.02466060034930706,0.08152619749307632,0.07151529937982559,XTrueNorthZVertical,0.6246159658526349,0.1319212410623594,0.7578516682334714,-0.1345828104459336,-0.982241153717041,-0.03182832151651382,-0.1849033683538437,-42.8195686340332,5.751483917236328,11.97300148010254,2,192.168.1.8,10.83.46.32,3,0
2015-03-01 09:54:20.735,112,1425232407.228836,37.77937936490434,-122.4388172744405,56.19482,-1,-1,10,65,-9999,1425232460.6885,-42.59718322753906,6.13262939453125,12.18060302734375,83.31507110595703,69.53726959228516,10,177267.2443832083,-0.9365081787109375,-0.049530029296875,-0.1166534423828125,177267.204425375,-0.1079182115888449,-0.2697366731120216,-0.4406921740191511,177267.204425375,-2.775529963287461,-1.397280336830576,0.04498681012925777,-0.1256704330444336,-0.2542707920074463,-0.4078391790390015,0.0001463489170419052,0.05948274582624435,0.04161255434155464,XTrueNorthZVertical,0.6291391046867765,0.1339702279641361,0.7553698377341656,-0.1251094551496968,-0.9839872717857361,-0.04497163742780685,-0.1724719256162643,-42.73822021484375,5.122978210449219,12.53583526611328,2,192.168.1.8,10.83.46.32,3,0
2015-03-01 09:54:20.790,113,1425232407.228836,37.77937936490434,-122.4388172744405,56.19482,-1,-1,10,65,-9999,1425232460.739139,-42.63127899169922,4.73919677734375,12.513427734375,85.50056457519531,71.72276306152344,10,177267.2934351667,-0.970977783203125,-0.084136962890625,-0.11627197265625,177267.2561987083,0.03441469918654896,-0.06158693178862742,-0.5795320827087971,177267.2561987083,-2.782485417230873,-1.405854876019193,0.06937749716071073,0.01666266657412052,-0.04612120240926743,-0.5466794967651367,0.05079691112041473,0.0001690234639681876,0.06017714366316795,XTrueNorthZVertical,0.6309529856414073,0.1414161907856429,0.7542398205117145,-0.1141143575610179,-0.9840549826622009,-0.06932185590267181,-0.1637995839118958,-42.70585632324219,4.17364501953125,12.9899320602417,2,192.168.1.8,10.83.46.32,3,0
2015-03-01 09:54:20.835,114,1425232407.228836,37.77937936490434,-122.4388172744405,56.19482,-1,-1,10,65,-9999,1425232460.790813,-42.66536712646484,3.68560791015625,12.91282653808594,87.23891448974609,73.46111297607422,10,177267.3424599583,-0.948516845703125,-0.1238555908203125,-0.114898681640625,177267.30797025,0.1865067637765382,-0.0425967290035994,-0.7160606338883633,177267.30797025,-2.782438001217416,-1.405791708103993,0.09990607196066464,0.168754905462265,-0.02713115327060223,-0.6832083463668823,0.01088729314506054,0.01966183260083199,0.04295442998409271,XTrueNorthZVertical,0.6284367635070572,0.1528015738796749,0.7555330765220408,-0.1043488673970352,-0.9814988374710083,-0.09973995387554169,-0.1634378284215927,-42.81137084960938,2.739229917526245,13.02424430847168,2,192.168.1.8,10.83.46.32,3,0
2015-03-01 09:54:20.889,115,1425232407.228836,37.77937936490434,-122.4388172744405,56.19482,-1,-1,10,65,-9999,1425232460.842313,-42.56306457519531,2.394134521484375,13.27894592285156,88.84077453613281,75.06297302246094,10,177267.39161175,-0.945159912109375,-0.226318359375,-0.1135101318359375,177267.359743625,0.3175830252563852,-0.02146827417934676,-1.056881603868453,177267.359743625,-2.777559954323831,-1.407066249979853,0.1444273902946654,0.2998313307762146,-0.006002838723361492,-1.024029612541199,0.04329418018460274,0.008351464755833149,0.03907955065369606,XTrueNorthZVertical,0.6246119125034604,0.1709056265736249,0.7564586196074148,-0.09176919384589609,-0.9763538837432861,-0.1439258009195328,-0.1613024473190308,-42.87486267089844,1.30446195602417,13.0380973815918,2,192.168.1.8,10.83.46.32,3,0
2015-03-01 09:54:20.934,116,1425232407.228836,37.77937936490434,-122.4388172744405,56.19482,-1,-1,10,65,-9999,1425232460.894511,-42.27318572998047,0.711822509765625,13.26230621337891,90.36359405517578,76.58579254150391,10,177267.4405251667,-0.8778228759765625,-0.29522705078125,-0.1298828125,177267.411517125,0.3158011041710131,0.04945330354611741,-1.253159239368383,177267.411517125,-2.772581665006167,-1.407381460665459,0.2049735401372412,0.2980496287345886,0.06491857022047043,-1.22030770778656,0.04817606136202812,-0.05044129118323326,0.0282098613679409,XTrueNorthZVertical,0.6184056673271873,0.1947639621848423,0.7577298083305863,-0.07407408299942299,-0.9660227298736572,-0.2035412490367889,-0.1592828631401062,-42.88592529296875,-0.6888084411621094,13.04878330230713,2,192.168.1.8,10.83.46.32,3,0
2015-03-01 09:54:20.987,117,1425232407.228836,37.77937936490434,-122.4388172744405,56.19482,-1,-1,10,65,-9999,1425232460.946085,-41.52288818359375,-1.123443603515625,12.99604034423828,92.51600646972656,78.73820495605469,10,177267.489617,-0.9659423828125,-0.4031524658203125,-0.1063995361328125,177267.4632885,0.1554417886090909,-0.2395872927273436,-1.27982440609891,177267.4632885,-2.77035614568759,-1.410960805722043,0.2677240380044301,0.137690469622612,-0.2241221815347672,-1.246973037719727,0.0913805216550827,-0.07269725203514099,0.0367257222533226,XTrueNorthZVertical,0.6128089595084452,0.2184540947496024,0.7574998636772479,-0.0541936040090938,-0.9520830512046814,-0.2645372450351715,-0.153485968708992,-42.71205520629883,-3.641777992248535,13.12881565093994,2,192.168.1.8,10.83.46.32,3,0
2015-03-01 09:54:21.025,118,1425232407.228836,37.77937936490434,-122.4388172744405,56.19482,-1,-1,10,65,-9999,1425232460.99845,-40.58503723144531,-3.655426025390625,13.14581298828125,96.08259582519531,82.30479431152344,10,177267.5385973333,-1.286270141601562,-0.11572265625,-0.007781982421875,177267.5150621667,-0.9979615615954308,-0.9246247630773737,-0.383419296880343,177267.5150621667,-2.797608661690146,-1.427969386226909,0.3127517457527185,-1.015712738037109,-0.909159779548645,-0.3505682945251465,-0.3017282485961914,-0.3296663165092468,-0.07852183282375336,XTrueNorthZVertical,0.6171721360952855,0.2266717909285267,0.7529767482615407,-0.02728502804740125,-0.9418020248413086,-0.3076780438423157,-0.1354369074106216,-42.23712539672852,-5.872526168823242,13.83786296844482,2,192.168.1.8,10.83.46.32,3,0
2015-03-01 09:54:21.085,119,1425232407.228836,37.77937936490434,-122.4388172744405,56.19482,-1,-1,10,65,-9999,1425232461.049417,-40.20989227294922,-5.354766845703125,13.81148529052734,99.1766357421875,85.39883422851562,10,177267.5876972083,-0.7496490478515625,-0.26171875,-0.0927276611328125,177267.5668355417,-0.1758352109724817,-0.1207437290825575,0.4596203251507803,177267.5668355417,-2.812570275767892,-1.455400145791009,0.276975211950975,-0.1935861855745316,-0.1052789092063904,0.4924710094928741,0.06143146008253098,0.09624708443880081,0.1046636402606964,XTrueNorthZVertical,0.6330098855953814,0.2095770391117484,0.7446096456816754,-0.03053567629380506,-0.9554896950721741,-0.2734473943710327,-0.1107518970966339,-41.7949104309082,-5.456716537475586,15.27604579925537,2,192.168.1.8,10.83.46.32,3,0
2015-03-01 09:54:21.124,120,1425232407.228836,37.77937936490434,-122.4388172744405,56.19482,-1,-1,10,65,-9999,1425232461.101794,-39.74948883056641,-6.18743896484375,14.9930419921875,102.413330078125,88.63552856445312,10,177267.6366600833,-1.023666381835938,-0.2209930419921875,0.02294921875,177267.6186070417,-0.3643526613720298,-0.483809284699752,-0.169391160082817,177267.5668355417,-2.812570275767892,-1.455400145791009,0.276975211950975,-0.1935861855745316,-0.1052789092063904,0.4924710094928741,0.06143146008253098,0.09624708443880081,0.1046636402606964,XTrueNorthZVertical,0.6330098855953814,0.2095770391117484,0.7446096456816754,-0.03053567629380506,-0.9554896950721741,-0.2734473943710327,-0.1107518970966339,-41.7949104309082,-5.456716537475586,15.27604579925537,2,192.168.1.8,10.83.46.32,3,0
2015-03-01 09:54:21.182,121,1425232407.228836,37.77937936490434,-122.4388172744405,56.19482,-1,-1,10,65,-9999,1425232461.15641,-39.54487609863281,-5.91552734375,15.69199371337891,102.8838882446289,89.10608673095703,10,177267.6856919584,-1.087692260742188,-0.201690673828125,0.018280029296875,177267.6703804584,0.05992618453285401,-0.1456120610256084,0.1356744754179778,177267.6703804584,-2.844171032071387,-1.482220945970957,0.2733831107746767,0.04217644780874252,-0.1301475316286087,0.1685212999582291,-0.1540555655956268,0.04734945669770241,0.1048888340592384,XTrueNorthZVertical,0.646534285483893,0.1985098918891412,0.7364019304522545,-0.01730433169531429,-0.9590883255004883,-0.2699904441833496,-0.08517447859048843,-41.26482772827148,-5.614594459533691,16.60235214233398,2,192.168.1.8,10.83.46.32,3,0
2015-03-01 09:54:21.222,122,1425232407.228836,37.77937936490434,-122.4388172744405,56.19482,-1,-1,10,65,-9999,1425232461.15641,-39.54487609863281,-5.91552734375,15.69199371337891,102.8838882446289,89.10608673095703,10,177267.7347143333,-0.9296875,-0.2583465576171875,-0.07586669921875,177267.7221541667,0.1002288665734592,0.2737223599994342,-0.04623300915599359,177267.7221541667,-2.834665650049822,-1.481476327679207,0.2655530658961558,0.08249170333147049,0.2891844511032104,-0.01337391790002584,-0.03828879445791245,0.03514806553721428,0.03967257589101791,XTrueNorthZVertical,0.6460977102813878,0.1987975671773272,0.7365350106948293,-0.02352565891801478,-0.9611008763313293,-0.2624429762363434,-0.08607455343008041,-41.27330780029297,-5.095811367034912,16.74797630310059,2,192.168.1.8,10.83.46.32,3,0
2015-03-01 09:54:21.280,123,1425232407.228836,37.77937936490434,-122.4388172744405,56.19482,-1,-1,10,65,-9999,1425232461.230578,-38.96511077880859,-5.54168701171875,16.12467956542969,102.8940734863281,89.11627197265625,10,177267.7837537917,-0.921600341796875,-0.2852325439453125,-0.0464324951171875,177267.773925375,-0.03536944243734236,-0.03977857193807755,0.005960154519597335,177267.7221541667,-2.834665650049822,-1.481476327679207,0.2655530658961558,0.08249170333147049,0.2891844511032104,-0.01337391790002584,-0.03828879445791245,0.03514806553721428,0.03967257589101791,XTrueNorthZVertical,0.6460977102813878,0.1987975671773272,0.7365350106948293,-0.02352565891801478,-0.9611008763313293,-0.2624429762363434,-0.08607455343008041,-41.27330780029297,-5.095811367034912,16.74797630310059,2,192.168.1.8,10.83.46.32,3,0
2015-03-01 09:54:21.320,124,1425232407.228836,37.77937936490434,-122.4388172744405,56.19482,-1,-1,10,65,-9999,1425232461.282863,-39.40846252441406,-5.337738037109375,16.12467956542969,102.4224472045898,88.64464569091797,10,177267.8328783333,-0.9622650146484375,-0.303985595703125,-0.052520751953125,177267.825699,-0.06434649931016753,-0.1155265965070923,0.06174512355737813,177267.773925375,-2.834072397962757,-1.481941779290467,0.2688704129275263,-0.05308680236339569,-0.02431995049118996,0.03881398588418961,0.05598673224449158,-0.01966623403131962,0.03444778546690941,XTrueNorthZVertical,0.6458769629362873,0.2001704622986126,0.7363864796632092,-0.02257631267101479,-0.9602683186531067,-0.2656426131725311,-0.08554946631193161,-41.3259162902832,-5.177392959594727,16.59249687194824,2,192.168.1.8,10.83.46.32,3,0
2015-03-01 09:54:21.378,125,1425232407.228836,37.77937936490434,-122.4388172744405,56.19482,-1,-1,10,65,-9999,1425232461.334492,-39.54487609863281,-5.167816162109375,15.95826721191406,101.9233245849609,88.14552307128906,10,177267.881822,-0.964019775390625,-0.2696685791015625,-0.052520751953125,177267.8774724167,-0.10338284825244,-0.1598378686204847,0.04947860357647316,177267.8774724167,-2.84088155701085,-1.493189233407594,0.2668929714388137,-0.1210814937949181,-0.1443825215101242,0.0823078379034996,0.009238021448254585,-0.01066311355680227,0.01896764151751995,XTrueNorthZVertical,0.6508825049730856,0.1973824183650078,0.7328075411467033,-0.01962793499332717,-0.9616916179656982,-0.2637356817722321,-0.0747842937707901,-41.14060592651367,-5.245503425598145,17.02594947814941,2,192.168.1.8,10.83.46.32,3,0
2015-03-01 09:54:21.418,126,1425232407.228836,37.77937936490434,-122.4388172744405,56.19482,-1,-1,10,65,-9999,1425232461.388466,-39.63014221191406,-5.32073974609375,15.77519989013672,102.1598129272461,88.38201141357422,10,177267.930852875,-0.9889373779296875,-0.2556304931640625,-0.025421142578125,177267.8774724167,-0.10338284825244,-0.1598378686204847,0.04947860357647316,177267.8774724167,-2.84088155701085,-1.493189233407594,0.2668929714388137,-0.1210814937949181,-0.1443825215101242,0.0823078379034996,0.009238021448254585,-0.01066311355680227,0.01896764151751995,XTrueNorthZVertical,0.6508825049730856,0.1973824183650078,0.7328075411467033,-0.01962793499332717,-0.9616916179656982,-0.2637356817722321,-0.0747842937707901,-41.14060592651367,-5.245503425598145,17.02594947814941,2,192.168.1.8,10.83.46.32,3,0
2015-03-01 09:54:21.477,127,1425232407.228836,37.77937936490434,-122.4388172744405,56.19482,-1,-1,10,65,-9999,1425232461.439178,-39.45963287353516,-5.660614013671875,15.77519989013672,103.1711044311523,89.39330291748047,10,177267.979898375,-0.9514007568359375,-0.2498931884765625,-0.0497589111328125,177267.9810172917,-0.0940327559812808,-0.0823702409356058,0.04995291256661627,177267.9292439167,-2.845850684211185,-1.503591791618938,0.2617245759077232,-0.1285091042518616,-0.1321711391210556,0.07844334840774536,-0.03681514412164688,0.002368607791140676,0.0328388437628746,XTrueNorthZVertical,0.6556795649215763,0.1940381054484719,0.7294444518457508,-0.01855575390300834,-0.9637646675109863,-0.2587467730045319,-0.0648670420050621,-40.94418716430664,-5.124982833862305,17.52872085571289,2,192.168.1.8,10.83.46.32,3,0
2015-03-01 09:54:21.517,128,1425232407.228836,37.77937936490434,-122.4388172744405,56.19482,-1,-1,10,65,-9999,1425232461.490255,-39.45963287353516,-5.96649169921875,15.87505340576172,104.1043548583984,90.32655334472656,10,177268.0290317083,-0.970001220703125,-0.2745361328125,-0.0483245849609375,177268.032791,-0.2114256957803007,-0.1629484407736973,0.07543883156645656,177267.9810172917,-2.851059390624764,-1.507762989642608,0.2567504302513197,-0.1117087751626968,-0.06694815307855606,0.08288562297821045,0.01389867626130581,0.004045660141855478,0.01116784662008286,XTrueNorthZVertical,0.658180666000304,0.1906169776695716,0.728107722424458,-0.01795900405422411,-0.9652994275093079,-0.2539388537406921,-0.06092675775289536,-40.86794281005859,-5.039036273956299,17.73039627075195,2,192.168.1.8,10.83.46.32,3,0
2015-03-01 09:54:21.575,129,1425232407.228836,37.77937936490434,-122.4388172744405,56.19482,-1,-1,10,65,-9999,1425232461.548743,-39.57900238037109,-5.915496826171875,16.32437896728516,104.2670745849609,90.48927307128906,10,177268.07797575,-0.936920166015625,-0.2599029541015625,-0.05780029296875,177268.032791,-0.2114256957803007,-0.1629484407736973,0.07543883156645656,177268.032791,-2.859522044085609,-1.51141693835137,0.2525013753386369,-0.2291010767221451,-0.1475266218185425,0.1083677038550377,-0.003417229279875755,-0.02470933645963669,0.009138133376836777,XTrueNorthZVertical,0.6607093411294115,0.1863647160210805,0.7269632570086187,-0.01599326981510963,-0.9665839672088623,-0.2498268038034439,-0.05746271833777428,-40.80838775634766,-5.026374816894531,17.87060737609863,2,192.168.1.8,10.83.46.32,3,0
2015-03-01 09:54:21.614,130,1425232407.228836,37.77937936490434,-122.4388172744405,56.19482,-1,-1,10,65,-9999,1425232461.548743,-39.57900238037109,-5.915496826171875,16.32437896728516,104.2670745849609,90.48927307128906,10,177268.1271037917,-1.036636352539062,-0.2540283203125,-0.0214996337890625,177268.0845621667,-0.2935748943454299,-0.1800334181148826,0.1286155006326138,177268.0845621667,-2.873634123761403,-1.515071149885929,0.2488606216437703,-0.3112446069717407,-0.164613276720047,0.1615302562713623,0.03076908923685551,-0.01360311266034842,-0.003819751320406795,XTrueNorthZVertical,0.6636654353711506,0.180438130828654,0.7258453170545083,-0.01178342479757263,-0.9676892757415771,-0.2462998479604721,-0.05398054048418999,-40.67254638671875,-5.161671161651611,18.13970947265625,2,192.168.1.8,10.83.46.32,3,0
2015-03-01 09:54:21.673,131,1425232407.228836,37.77937936490434,-122.4388172744405,56.19482,-1,-1,10,65,-9999,1425232461.619711,-39.49375152587891,-5.626617431640625,16.70713043212891,104.4344863891602,90.65668487548828,10,177268.1760470833,-1.0869140625,-0.24285888671875,-0.0043487548828125,177268.1881094583,-0.4687704140240745,0.3603539249952757,0.2302696910214833,177268.1363359583,-2.892138848470247,-1.524452592883339,0.2407186901387121,-0.4189479053020477,-0.2233216911554337,0.1778796166181564,-0.06651218235492706,-0.0156276635825634,0.02349175699055195,XTrueNorthZVertical,0.669408370024565,0.1714547714024331,0.7228041332771593,-0.007062788053288382,-0.9701241850852966,-0.2384006530046463,-0.0449913926422596,-40.47970581054688,-5.196776866912842,18.5562572479248,2,192.168.1.8,10.83.46.32,3,0
2015-03-01 09:54:21.712,132,1425232407.228836,37.77937936490434,-122.4388172744405,56.19482,-1,-1,10,65,-9999,1425232461.673562,-39.34028625488281,-5.371673583984375,16.45750427246094,104.3535385131836,90.57573699951172,10,177268.2250620833,-0.9647674560546875,-0.181060791015625,-0.037506103515625,177268.1881094583,-0.4687704140240745,0.3603539249952757,0.2302696910214833,177268.1881094583,-2.915855414301335,-1.514449387463806,0.228444846981343,-0.4864354133605957,0.3757724463939667,0.263179749250412,-0.08569257706403732,0.002372472081333399,0.03022630885243416,XTrueNorthZVertical,0.6687597278587728,0.1591647855652172,0.7262331271547966,-0.0035277480693228,-0.9724739193916321,-0.2264630496501923,-0.05485399439930916,-40.47832107543945,-5.207816123962402,18.55618667602539,2,192.168.1.8,10.83.46.32,3,0
2015-03-01 09:54:21.771,133,1425232407.228836,37.77937936490434,-122.4388172744405,56.19482,-1,-1,10,65,-9999,1425232461.750934,-39.66426849365234,-4.980865478515625,15.47563934326172,104.9102096557617,91.13240814208984,10,177268.2742137084,-0.9358367919921875,-0.14825439453125,-0.0499267578125,177268.239880625,-0.3079386536847722,0.5907589046001351,0.4431188464044313,177268.239880625,-2.93475126230227,-1.482780606443656,0.2075715844207661,-0.3256025910377502,0.6061769127845764,0.4760306179523468,0.003799202153459191,0.01965233683586121,0.0616164356470108,XTrueNorthZVertical,0.6602031861511143,0.1453414347838766,0.7368649130746382,-0.006141885998925784,-0.9747464656829834,-0.2060842216014862,-0.0860152393579483,-41.11288452148438,-4.824172973632812,17.21643829345703,2,192.168.1.8,10.83.46.32,3,0
2015-03-01 09:54:21.811,134,1425232407.228836,37.77937936490434,-122.4388172744405,56.19482,-1,-1,10,65,-9999,1425232461.801432,-40.22698211669922,-4.725982666015625,14.92646026611328,104.9980239868164,91.22022247314453,10,177268.323241125,-0.914886474609375,-0.105010986328125,-0.069549560546875,177268.2916541667,-0.1618727900094143,0.1978718037284514,0.3793824773000009,177268.2916541667,-2.94546798171945,-1.46059012312634,0.183197630489933,-0.1795359998941422,0.2132893204689026,0.4122952818870544,0.04955152049660683,0.04762262105941772,0.05200573429465294,XTrueNorthZVertical,0.654429820599024,0.1328540593866327,0.7442645179708512,-0.0119054045742282,-0.9773011803627014,-0.1821746230125427,-0.1081428155303001,-41.55037689208984,-4.143120288848877,16.32018852233887,2,192.168.1.8,10.83.46.32,3,0
2015-03-01 09:54:21.869,135,1425232407.228836,37.77937936490434,-122.4388172744405,56.19482,-1,-1,10,65,-9999,1425232461.853121,-40.56800842285156,-4.28411865234375,14.19422912597656,104.5375213623047,90.75971984863281,10,177268.3722840417,-0.875823974609375,-0.125274658203125,-0.087249755859375,177268.3434279167,0.01271313209571126,-0.05678791550430463,0.1384100744897072,177268.3434279167,-2.947619007564485,-1.459397734066825,0.165735512936056,-0.004949229769408703,-0.04137136787176132,0.1713322699069977,0.07224008440971375,0.06173684448003769,0.04085840284824371,XTrueNorthZVertical,0.6552609873673282,0.1257399150865698,0.7446698486651928,-0.01700973928701941,-0.9801837801933289,-0.1649778038263321,-0.1096450239419937,-41.67959594726562,-3.473759174346924,16.14595985412598,2,192.168.1.8,10.83.46.32,3,0
2015-03-01 09:54:21.908,136,1425232407.228836,37.77937936490434,-122.4388172744405,56.19482,-1,-1,10,65,-9999,1425232461.853121,-40.56800842285156,-4.28411865234375,14.19422912597656,104.5375213623047,90.75971984863281,10,177268.4211978333,-0.8626556396484375,-0.1781463623046875,-0.0897216796875,177268.3951992917,0.2098320601839972,-0.1943676163661251,-0.2413353916668716,177268.3951992917,-2.942311514203623,-1.467082217754692,0.1658150239661131,0.1921704113483429,-0.1789520382881165,-0.2084046900272369,0.1169554442167282,0.01527595706284046,0.02058058604598045,XTrueNorthZVertical,0.6577760551890319,0.127579438175857,0.742100422464565,-0.01846926381423978,-0.9809843897819519,-0.1650562286376953,-0.1021082997322083,-41.5913200378418,-3.219909191131592,16.42382431030273,2,192.168.1.8,10.83.46.32,3,0
2015-03-01 09:54:21.966,137,1425232407.228836,37.77937936490434,-122.4388172744405,56.19482,-1,-1,10,65,-9999,1425232461.956943,-40.38044738769531,-4.36907958984375,14.6435546875,104.2813568115234,90.50355529785156,10,177268.47025625,-0.9753265380859375,-0.235321044921875,-0.1025848388671875,177268.446972625,0.2397135265630133,-0.2957206032357067,-0.5984541085699191,177268.446972625,-2.932325989591651,-1.481099499181898,0.1871344715455549,0.2220520377159119,-0.2803051769733429,-0.5655237436294556,0.1006313040852547,-0.01607375778257847,-0.01295469049364328,XTrueNorthZVertical,0.6608662482165415,0.138742364745253,0.7374338616060426,-0.01405917860778515,-0.9785915017127991,-0.1860441565513611,-0.08801271766424179,-41.36386489868164,-3.702988862991333,16.88982772827148,2,192.168.1.8,10.83.46.32,3,0
2015-03-01 09:54:22.006,138,1425232407.228836,37.77937936490434,-122.4388172744405,56.19482,-1,-1,10,65,-9999,1425232461.956943,-40.38044738769531,-4.36907958984375,14.6435546875,104.2813568115234,90.50355529785156,10,177268.5193744167,-1.157196044921875,-0.309906005859375,-0.1699981689453125,177268.498746375,-0.2662860152876059,0.1048526468580547,-0.5966492842991724,177268.498746375,-2.936493196888206,-1.483484150906172,0.2184096992715682,-0.2839475572109222,0.1202682331204414,-0.5637205839157104,-0.06986443698406219,-0.03829698637127876,-0.04382236301898956,XTrueNorthZVertical,0.659794903012523,0.1486803742743204,0.7365878427139918,-0.001784596180926617,-0.9725244641304016,-0.2166773825883865,-0.08512966334819794,-41.11811065673828,-4.782556533813477,17.21557235717773,2,192.168.1.8,10.83.46.32,3,0
2015-03-01 09:54:22.065,139,1425232407.228836,37.77937936490434,-122.4388172744405,56.19482,-1,-1,10,65,-9999,1425232462.060223,-39.66426086425781,-6.408294677734375,15.54219818115234,107.9460220336914,94.16822052001953,10,177268.5683129167,-0.91986083984375,-0.163665771484375,0.0369720458984375,177268.550517625,-0.02594478165566095,-0.5398017139864499,0.3622879125788913,177268.550517625,-2.954193654229519,-1.492764866699187,0.2212502501795923,-0.04360613971948624,-0.5243862867355347,0.3952162563800812,-0.1559001803398132,-0.003344011027365923,0.07455676048994064,XTrueNorthZVertical,0.6642934549563931,0.1438337443239465,0.7334750066856423,0.006362139308951289,-0.9726551175117493,-0.2194495648145676,-0.07605212181806564,-40.88047790527344,-5.75595235824585,17.48150825500488,2,192.168.1.8,10.83.46.32,3,0
2015-03-01 09:54:22.106,140,1425232407.228836,37.77937936490434,-122.4388172744405,56.19482,-1,-1,10,65,-9999,1425232462.060223,-39.66426086425781,-6.408294677734375,15.54219818115234,107.9460220336914,94.16822052001953,10,177268.6174337083,-0.9933929443359375,-0.13720703125,-0.009735107421875,177268.6022912917,-0.05347174731493797,-0.2927791418117142,-0.001075650764283004,177268.550517625,-2.954193654229519,-1.492764866699187,0.2212502501795923,-0.04360613971948624,-0.5243862867355347,0.3952162563800812,-0.1559001803398132,-0.003344011027365923,0.07455676048994064,XTrueNorthZVertical,0.6642934549563931,0.1438337443239465,0.7334750066856423,0.006362139308951289,-0.9726551175117493,-0.2194495648145676,-0.07605212181806564,-40.88047790527344,-5.75595235824585,17.48150825500488,2,192.168.1.8,10.83.46.32,3,0
2015-03-01 09:54:22.168,141,1425232407.228836,37.77937936490434,-122.4388172744405,56.19482,-1,-1,10,65,-9999,1425232462.112658,-39.18680572509766,-6.68023681640625,16.20786285400391,109.8233489990234,96.04554748535156,10,177268.6663774583,-1.017913818359375,-0.2536163330078125,-0.0651702880859375,177268.6540646667,0.1448618485465331,0.2044114621012499,-0.05557244878279247,177268.6540646667,-2.952139532508551,-1.51085762671021,0.2074514149237315,0.1272046118974686,0.2198217213153839,-0.02262774854898453,-0.07677187025547028,-0.003170332405716181,0.007577792275696993,XTrueNorthZVertical,0.6717295261108861,0.1395357408573411,0.7275331315339603,0.002183082193345831,-0.9768017530441284,-0.2059666365385056,-0.05861844122409821,-40.54850387573242,-5.092674255371094,18.43451309204102,2,192.168.1.8,10.83.46.32,3,0
2015-03-01 09:54:22.203,142,1425232407.228836,37.77937936490434,-122.4388172744405,56.19482,-1,-1,10,65,-9999,1425232462.163698,-38.98219299316406,-6.44232177734375,16.50740814208984,109.4918823242188,95.71408081054688,10,177268.7154983333,-0.95355224609375,-0.2294158935546875,-0.0242156982421875,177268.7058362083,0.09259997531481817,-0.0722438372066885,0.07504974373119599,177268.6540646667,-2.952139532508551,-1.51085762671021,0.2074514149237315,0.1272046118974686,0.2198217213153839,-0.02262774854898453,-0.07677187025547028,-0.003170332405716181,0.007577792275696993,XTrueNorthZVertical,0.6717295261108861,0.1395357408573411,0.7275331315339603,0.002183082193345831,-0.9768017530441284,-0.2059666365385056,-0.05861844122409821,-40.54850387573242,-5.092674255371094,18.43451309204102,2,192.168.1.8,10.83.46.32,3,0
2015-03-01 09:54:22.280,143,1425232407.228836,37.77937936490434,-122.4388172744405,56.19482,-1,-1,10,65,-9999,1425232462.267429,-39.68132781982422,-6.085479736328125,15.99153137207031,108.2378158569336,94.46001434326172,10,177268.7644307917,-1.015457153320312,-0.162261962890625,-0.02056884765625,177268.7576096667,-0.04759521605356912,-0.05243897344420524,-0.03039465752107435,177268.7576096667,-2.945106696924226,-1.515503648161156,0.203616971733774,-0.06524357199668884,-0.03703587129712105,0.002541666384786367,-0.02702264301478863,0.03593787178397179,0.03334036096930504,XTrueNorthZVertical,0.6731933711504532,0.1405320928450568,0.7259886761374433,-0.001364035599041982,-0.9778448939323425,-0.2022128999233246,-0.05412283167243004,-40.57401275634766,-4.79170560836792,18.45905876159668,2,192.168.1.8,10.83.46.32,3,0
2015-03-01 09:54:22.301,144,1425232407.228836,37.77937936490434,-122.4388172744405,56.19482,-1,-1,10,65,-9999,1425232462.267429,-39.68132781982422,-6.085479736328125,15.99153137207031,108.2378158569336,94.46001434326172,10,177268.8134605833,-0.96844482421875,-0.201690673828125,-0.0491943359375,177268.809383375,0.01663516943307095,0.08240859045530294,-0.08773517895157042,177268.7576096667,-2.945106696924226,-1.515503648161156,0.203616971733774,-0.06524357199668884,-0.03703587129712105,0.002541666384786367,-0.02702264301478863,0.03593787178397179,0.03334036096930504,XTrueNorthZVertical,0.6731933711504532,0.1405320928450568,0.7259886761374433,-0.001364035599041982,-0.9778448939323425,-0.2022128999233246,-0.05412283167243004,-40.57401275634766,-4.79170560836792,18.45905876159668,2,192.168.1.8,10.83.46.32,3,0
2015-03-01 09:54:22.366,145,1425232407.228836,37.77937936490434,-122.4388172744405,56.19482,-1,-1,10,65,-9999,1425232462.320434,-39.74953460693359,-6.18743896484375,16.05809020996094,108.3926544189453,94.61485290527344,10,177268.8624879583,-0.9733734130859375,-0.22113037109375,-0.0535736083984375,177268.8611545833,0.003328418730381032,0.05287706344352328,-0.05149275230890009,177268.809383375,-2.94688596953781,-1.513242060562961,0.2041942695243091,-0.00101201212964952,0.09780968725681305,-0.05479288101196289,-0.005139010027050972,0.01132620871067047,0.01117669232189655,XTrueNorthZVertical,0.6724563853631719,0.1401380935008016,0.7267484208521496,-0.0006781418739136766,-0.9776033163070679,-0.202778235077858,-0.0563274472951889,-40.57453536987305,-4.821928977966309,18.45004272460938,2,192.168.1.8,10.83.46.32,3,0
2015-03-01 09:54:22.399,146,1425232407.228836,37.77937936490434,-122.4388172744405,56.19482,-1,-1,10,65,-9999,1425232462.37131,-39.95416259765625,-6.1195068359375,15.79182434082031,108.0447311401367,94.26692962646484,10,177268.9115429167,-0.9810943603515625,-0.21026611328125,-0.0528106689453125,177268.8611545833,0.003328418730381032,0.05287706344352328,-0.05149275230890009,177268.8611545833,-2.947237078775011,-1.508901043573523,0.2061543574317998,-0.01431823987513781,0.06827788054943085,-0.01855244487524033,0.009803163819015026,-0.02297918125987053,0.01164157688617706,XTrueNorthZVertical,0.6707646447096642,0.1407188455788237,0.7281984393223168,-0.0001828339662473192,-0.976951003074646,-0.2046972066164017,-0.06054599583148956,-40.66009902954102,-4.938294410705566,18.22957801818848,2,192.168.1.8,10.83.46.32,3,0
2015-03-01 09:54:22.466,147,1425232407.228836,37.77937936490434,-122.4388172744405,56.19482,-1,-1,10,65,-9999,1425232462.423086,-39.68132781982422,-6.32342529296875,16.02481842041016,108.1835708618164,94.40576934814453,10,177268.9605458333,-0.96710205078125,-0.2088470458984375,-0.063568115234375,177268.9647016667,0.00106340022326864,0.02143445203350275,-0.05436443891233253,177268.9129282917,-2.947634988133534,-1.506255068868232,0.2077297576268456,-0.004414106253534555,0.05717894807457924,-0.01331052090972662,-0.004630012437701225,-0.004027116112411022,0.01029922254383564,XTrueNorthZVertical,0.6697179163961707,0.1411487400013036,0.729078081485323,0.0003151268532472921,-0.9764643311500549,-0.2062389999628067,-0.06310988962650299,-40.69478607177734,-5.007040500640869,18.13316535949707,2,192.168.1.8,10.83.46.32,3,0
2015-03-01 09:54:22.496,148,1425232407.228836,37.77937936490434,-122.4388172744405,56.19482,-1,-1,10,65,-9999,1425232462.474978,-39.49375152587891,-6.510345458984375,15.64205932617188,108.266227722168,94.48842620849609,10,177269.009561625,-0.9760589599609375,-0.2058258056640625,-0.0586395263671875,177268.9647016667,0.00106340022326864,0.02143445203350275,-0.05436443891233253,177268.9647016667,-2.948474965747625,-1.503945071218654,0.2090091013876865,-0.01657420210540295,0.03680644184350967,-0.02133801393210888,0.008949847891926765,-0.001356377732008696,0.001779556972905993,XTrueNorthZVertical,0.6688445822350292,0.1413261784920857,0.7298445286927692,0.0008958672552716881,-0.976051926612854,-0.2074906677007675,-0.06534767150878906,-40.72901153564453,-5.056596755981445,18.0423469543457,2,192.168.1.8,10.83.46.32,3,0
