loggingTime,loggingSample,locationTimestamp_since1970,locationLatitude,locationLongitude,locationAltitude,locationSpeed,locationCourse,locationVerticalAccuracy,locationHorizontalAccuracy,locationFloor,locationHeadingTimestamp_since1970,locationHeadingX,locationHeadingY,locationHeadingZ,locationTrueHeading,locationMagneticHeading,locationHeadingAccuracy,accelerometerTimestamp_sinceReboot,accelerometerAccelerationX,accelerometerAccelerationY,accelerometerAccelerationZ,gyroTimestamp_sinceReboot,gyroRotationX,gyroRotationY,gyroRotationZ,motionTimestamp_sinceReboot,motionYaw,motionRoll,motionPitch,motionRotationRateX,motionRotationRateY,motionRotationRateZ,motionUserAccelerationX,motionUserAccelerationY,motionUserAccelerationZ,motionAttitudeReferenceFrame,motionQuaternionX,motionQuaternionY,motionQuaternionZ,motionQuaternionW,motionGravityX,motionGravityY,motionGravityZ,motionMagneticFieldX,motionMagneticFieldY,motionMagneticFieldZ,motionMagneticFieldCalibrationAccuracy,IP_en0,IP_pdp_ip0,deviceOrientation,state
2015-02-27 20:24:47.136,1,1425097487.0736,37.78762164063544,-122.3967719079203,16.19745,0,-1,10,200,-9999,1425097487.054392,18.6517448425293,-14.05349731445312,-21.18964385986328,312.8336791992188,299.0603942871094,10,139514.429348375,0.0692901611328125,-0.8271484375,-0.5723419189453125,139514.408076,0.02105202210096737,-0.03018346884663106,-0.01884745735059978,139514.408076,1.392296673287605,0.09124822689775437,0.9584325514268037,0.0143016716465354,-0.01929118670523167,0.01500928122550249,0.03165312483906746,0.01966183818876743,0.003137090243399143,XTrueNorthZVertical,0.3274771138327481,0.3264241774380887,0.5845764612138216,0.6666905866158153,0.05237702652812004,-0.8182916045188904,-0.5724120140075684,19.22601318359375,-14.83396911621094,-21.99505996704102,2,10.3.35.51,10.83.46.32,1,0
2015-02-27 20:24:47.195,2,1425097487.0736,37.78762164063544,-122.3967719079203,16.19745,0,-1,10,200,-9999,1425097487.179699,18.12334442138672,-14.51226806640625,-21.90531158447266,312.8987121582031,299.1254272460938,10,139514.4783990833,0.05047607421875,-0.822052001953125,-0.570220947265625,139514.459858,-0.001853293802586142,-0.1002613571387581,-0.01948368653501971,139514.459858,1.391710791629422,0.08946581571782256,0.9572503340272138,-0.008608292788267136,-0.08936585485935211,0.01436668541282415,0.001962692011147738,0.01884439587593079,-0.003421468194574118,XTrueNorthZVertical,0.3276833535278406,0.32540718312009,0.5842454058571185,0.6673762594797782,0.05144307017326355,-0.8176114559173584,-0.5734675526618958,19.24585723876953,-14.78156852722168,-22.01297569274902,2,10.3.35.51,10.83.46.32,1,0
2015-02-27 20:24:47.228,3,1425097487.0736,37.78762164063544,-122.3967719079203,16.19745,0,-1,10,200,-9999,1425097487.179699,18.12334442138672,-14.51226806640625,-21.90531158447266,312.8987121582031,299.1254272460938,10,139514.5275330417,0.051788330078125,-0.7989959716796875,-0.5700531005859375,139514.5116396667,0.003089000548382908,-0.1061938147830186,-0.03035178062752407,139514.459858,1.391710791629422,0.08946581571782256,0.9572503340272138,-0.008608292788267136,-0.08936585485935211,0.01436668541282415,0.001962692011147738,0.01884439587593079,-0.003421468194574118,XTrueNorthZVertical,0.3276833535278406,0.32540718312009,0.5842454058571185,0.6673762594797782,0.05144307017326355,-0.8176114559173584,-0.5734675526618958,19.24585723876953,-14.78156852722168,-22.01297569274902,2,10.3.35.51,10.83.46.32,1,0
2015-02-27 20:24:47.290,4,1425097487.0736,37.78762164063544,-122.3967719079203,16.19745,0,-1,10,200,-9999,1425097487.283302,18.12334442138672,-15.0220947265625,-21.63902282714844,312.94287109375,299.1695861816406,10,139514.576456125,0.0666351318359375,-0.8037567138671875,-0.576416015625,139514.563421,0.009240902666465949,-0.1064934204056525,-0.01445324155196903,139514.563421,1.39101208985745,0.08378024494377018,0.9562964905419403,0.002481479663401842,-0.09559383988380432,0.01938957720994949,0.02359137311577797,0.01032974105328321,0.004672923125326633,XTrueNorthZVertical,0.3291252604066789,0.3231295918380756,0.5832049528301044,0.6686821321248253,0.04824700579047203,-0.8170619010925293,-0.5745276808738708,19.12407875061035,-14.76666641235352,-22.12880516052246,2,10.3.35.51,10.83.46.32,1,0
2015-02-27 20:24:47.327,5,1425097487.0736,37.78762164063544,-122.3967719079203,16.19745,0,-1,10,200,-9999,1425097487.283302,18.12334442138672,-15.0220947265625,-21.63902282714844,312.94287109375,299.1695861816406,10,139514.6256015417,0.043304443359375,-0.806182861328125,-0.57293701171875,139514.615203125,0.0437562693422199,-0.1242164911440209,0.0152889415020359,139514.563421,1.39101208985745,0.08378024494377018,0.9562964905419403,0.002481479663401842,-0.09559383988380432,0.01938957720994949,0.02359137311577797,0.01032974105328321,0.004672923125326633,XTrueNorthZVertical,0.3291252604066789,0.3231295918380756,0.5832049528301044,0.6686821321248253,0.04824700579047203,-0.8170619010925293,-0.5745276808738708,19.12407875061035,-14.76666641235352,-22.12880516052246,2,10.3.35.51,10.83.46.32,1,0
2015-02-27 20:24:47.393,6,1425097487.0736,37.78762164063544,-122.3967719079203,16.19745,0,-1,10,200,-9999,1425097487.335241,18.03811264038086,-15.20901489257812,-21.55580139160156,312.9329833984375,299.1596984863281,10,139514.6745184167,0.0070037841796875,-0.81170654296875,-0.568817138671875,139514.6669845,0.02884070302501311,-0.1002770697891896,-0.03544001620622946,139514.6669845,1.397497917528576,0.06662881940287013,0.9579013636332386,0.02207710593938828,-0.08938023447990417,-0.001596282236278057,-0.0241999477148056,0.01235261000692844,-0.002317176666110754,XTrueNorthZVertical,0.3336364738031339,0.3189137005882198,0.5823159903427703,0.6692449650944187,0.0382990688085556,-0.8179861307144165,-0.5739614963531494,18.86783981323242,-14.82305908203125,-22.3103199005127,2,10.3.35.51,10.83.46.32,1,0
2015-02-27 20:24:47.424,7,1425097487.0736,37.78762164063544,-122.3967719079203,16.19745,0,-1,10,200,-9999,1425097487.389974,17.90175628662109,-15.14105224609375,-21.55580139160156,312.8755187988281,299.1022338867188,10,139514.7236295833,0.0281829833984375,-0.8085174560546875,-0.5755767822265625,139514.7187661667,0.06507700439717626,-0.00330178711948024,-0.05752454586182056,139514.6669845,1.397497917528576,0.06662881940287013,0.9579013636332386,0.02207710593938828,-0.08938023447990417,-0.001596282236278057,-0.0241999477148056,0.01235261000692844,-0.002317176666110754,XTrueNorthZVertical,0.3336364738031339,0.3189137005882198,0.5823159903427703,0.6692449650944187,0.0382990688085556,-0.8179861307144165,-0.5739614963531494,18.86783981323242,-14.82305908203125,-22.3103199005127,2,10.3.35.51,10.83.46.32,1,0
2015-02-27 20:24:47.494,8,1425097487.0736,37.78762164063544,-122.3967719079203,16.19745,0,-1,10,200,-9999,1425097487.464565,17.57789611816406,-14.81817626953125,-21.63902282714844,312.8927307128906,299.1194458007812,10,139514.772565625,0.0604095458984375,-0.8074798583984375,-0.56939697265625,139514.7705480417,0.05184801799831665,-0.05025811082753935,-0.06977082581844092,139514.7187661667,1.398008541210984,0.06403983445173694,0.9603150022219216,0.05831426754593849,0.007591408677399158,-0.02367661520838737,-0.01521739270538092,0.008581171743571758,0.0004772985703311861,XTrueNorthZVertical,0.3351394316772429,0.3188074081759388,0.5817227072360185,0.669060588213777,0.03668650984764099,-0.8193721771240234,-0.5720868110656738,18.73979759216309,-14.86549091339111,-22.38986396789551,2,10.3.35.51,10.83.46.32,1,0
2015-02-27 20:24:47.522,9,1425097487.0736,37.78762164063544,-122.3967719079203,16.19745,0,-1,10,200,-9999,1425097487.516625,17.71425628662109,-14.7841796875,-21.70559692382812,312.9238586425781,299.1505737304688,10,139514.82159825,0.03125,-0.82025146484375,-0.5627288818359375,139514.7705480417,0.05184801799831665,-0.05025811082753935,-0.06977082581844092,139514.7705480417,1.393915713857943,0.06718543501813055,0.9617185387078521,0.04508163407444954,-0.03936389461159706,-0.03592541068792343,0.01551592350006104,0.009980051778256893,-0.002833597594872117,XTrueNorthZVertical,0.3353618507116308,0.3195655496490023,0.5806876593935081,0.6694864537693522,0.03840863704681396,-0.8201759457588196,-0.5708205699920654,18.74246025085449,-14.90841102600098,-22.35907745361328,2,10.3.35.51,10.83.46.32,1,0
2015-02-27 20:24:47.592,10,1425097487.0736,37.78762164063544,-122.3967719079203,16.19745,0,-1,10,200,-9999,1425097487.568259,17.74834823608398,-14.81817626953125,-21.67230987548828,312.9501953125,299.1769104003906,10,139514.8706321667,0.0277557373046875,-0.8199462890625,-0.57025146484375,139514.8741110417,0.05430771358111384,-0.05035531620732724,-0.0648799304765104,139514.8223295,1.389737352061183,0.06833592797928276,0.9641937146310197,0.06002418324351311,-0.07123532891273499,-0.02047338709235191,-0.007676597218960524,0.001338071888312697,0.006020040716975927,XTrueNorthZVertical,0.3365500650575043,0.3199368570835928,0.5791429593483139,0.6700506509319367,0.03892659768462181,-0.8215895295143127,-0.568748950958252,18.7585620880127,-14.89815711975098,-22.35240936279297,2,10.3.35.51,10.83.46.32,1,0
2015-02-27 20:24:47.620,11,1425097487.0736,37.78762164063544,-122.3967719079203,16.19745,0,-1,10,200,-9999,1425097487.568259,17.74834823608398,-14.81817626953125,-21.67230987548828,312.9501953125,299.1769104003906,10,139514.9196494583,0.0419158935546875,-0.825714111328125,-0.56439208984375,139514.8741110417,0.05430771358111384,-0.05035531620732724,-0.0648799304765104,139514.8741110417,1.388891217676111,0.06594046146352761,0.966183191882496,0.04753907769918442,-0.03946152701973915,-0.03103543445467949,-0.009700552560389042,0.002775781089439988,-0.003043033182621002,XTrueNorthZVertical,0.3380649084355858,0.3195432706823204,0.5781828073713383,0.6703050336183186,0.03745628893375397,-0.8227220773696899,-0.5672084093093872,18.70691680908203,-14.93809223175049,-22.3690299987793,2,10.3.35.51,10.83.46.32,1,0
2015-02-27 20:24:47.690,12,1425097487.0736,37.78762164063544,-122.3967719079203,16.19745,0,-1,10,200,-9999,1425097487.672193,17.61199188232422,-14.98809814453125,-21.40602111816406,312.9848022460938,299.2115173339844,10,139514.9686918333,0.0367584228515625,-0.82513427734375,-0.5691070556640625,139514.9258931667,0.04315945494193314,-0.03455717830486819,-0.06158879600139048,139514.9258931667,1.386746661204438,0.06612811496100565,0.9683350357346172,0.03639249503612518,-0.02366498298943043,-0.02774244733154774,0.004470238462090492,-0.001770744449459016,0.001041491166688502,XTrueNorthZVertical,0.3390959241376634,0.3198392779897565,0.5772001046643361,0.6704899780395435,0.03744565695524216,-0.8239433765411377,-0.5654335618019104,18.64522743225098,-14.98686790466309,-22.38790130615234,2,10.3.35.51,10.83.46.32,1,0
2015-02-27 20:24:47.718,13,1425097487.0736,37.78762164063544,-122.3967719079203,16.19745,0,-1,10,200,-9999,1425097487.672193,17.61199188232422,-14.98809814453125,-21.40602111816406,312.9848022460938,299.2115173339844,10,139515.0177079584,0.0291900634765625,-0.8218994140625,-0.5594482421875,139514.9776745417,0.01881336888864676,-0.06850129692680015,-0.04723302614531835,139514.9776745417,1.384533278485244,0.0657114896453327,0.9690749547124941,0.01204478088766336,-0.05760905146598816,-0.01338750962167978,-0.0004116126510780305,-0.0007718445267528296,-0.004266413394361734,XTrueNorthZVertical,0.3398252689862995,0.3195285047865759,0.5762853856943293,0.6710554793831544,0.03717003390192986,-0.8243624567985535,-0.5648406147956848,18.6402759552002,-14.98615741729736,-22.39250183105469,2,10.3.35.51,10.83.46.32,1,0
2015-02-27 20:24:47.794,14,1425097487.0736,37.78762164063544,-122.3967719079203,16.19745,0,-1,10,200,-9999,1425097487.775236,17.39040374755859,-14.90313720703125,-21.98854827880859,313.0587158203125,299.2854309082031,10,139515.0667467917,0.0169677734375,-0.817840576171875,-0.56884765625,139515.0294562083,0.02962713449491351,-0.02976322202661656,-0.05067675975089981,139515.0294562083,1.384401859036285,0.06334563851062788,0.9705538433591405,0.02277306281030178,-0.01869808323681355,-0.01687563583254814,0.005976398941129446,-0.002392268273979425,-0.006801176350563765,XTrueNorthZVertical,0.3410380220247984,0.3191210172038083,0.575634950129115,0.6711923934982007,0.03575639054179192,-0.8251986503601074,-0.5637096762657166,18.58490180969238,-14.99299049377441,-22.43391418457031,2,10.3.35.51,10.83.46.32,1,0
2015-02-27 20:24:47.816,15,1425097487.0736,37.78762164063544,-122.3967719079203,16.19745,0,-1,10,200,-9999,1425097487.775236,17.39040374755859,-14.90313720703125,-21.98854827880859,313.0587158203125,299.2854309082031,10,139515.1157657084,0.026092529296875,-0.820159912109375,-0.5622711181640625,139515.0812380417,0.01630227429681105,-0.05889554119099334,-0.04013170709862206,139515.0812380417,1.384268419520961,0.06031357449645466,0.9701448449941222,0.009446286596357822,-0.04783306643366814,-0.006327895447611809,-0.02480527944862843,0.006058894097805023,0.01054823026061058,XTrueNorthZVertical,0.3417904906658434,0.3179671089842125,0.5751290858519986,0.6717906621034867,0.03406736627221107,-0.8249675631523132,-0.5641523599624634,18.51045227050781,-14.99803924560547,-22.49201965332031,2,10.3.35.51,10.83.46.32,1,0
2015-02-27 20:24:47.891,16,1425097487.0736,37.78762164063544,-122.3967719079203,16.19745,0,-1,10,200,-9999,1425097487.878693,17.04949951171875,-14.35934448242188,-21.92197418212891,313.2015686035156,299.4282836914062,10,139515.1647985,0.0187835693359375,-0.81671142578125,-0.55426025390625,139515.13301975,0.0208410997426331,0.001716673638665077,-0.04411632872159861,139515.13301975,1.384351670952404,0.05953493765459433,0.9710954767808962,0.01398568321019411,0.01277588121592999,-0.010308638215065,-0.007351548410952091,0.0008127182954922318,-0.0050248047336936,XTrueNorthZVertical,0.3423288893676873,0.3179829064360138,0.5748921325622259,0.6717118575882214,0.03358140587806702,-0.82550448179245,-0.563395619392395,18.46681022644043,-15.02663993835449,-22.50879287719727,2,10.3.35.51,10.83.46.32,1,0
2015-02-27 20:24:47.914,17,1425097487.0736,37.78762164063544,-122.3967719079203,16.19745,0,-1,10,200,-9999,1425097487.878693,17.04949951171875,-14.35934448242188,-21.92197418212891,313.2015686035156,299.4282836914062,10,139515.2138164583,0.0330810546875,-0.8188934326171875,-0.5558929443359375,139515.1848010417,0.03794738237253906,0.01505751280330801,-0.05426963037752571,139515.1848010417,1.383975438519671,0.05953816247067992,0.9724076479497923,0.03109133988618851,0.02611356973648071,-0.02045841701328754,-0.001124331960454583,0.006893167272210121,0.009457282721996307,XTrueNorthZVertical,0.3428401019542619,0.3182825792570189,0.5745842052105222,0.6715726590204926,0.03351874276995659,-0.8262443542480469,-0.5623137354850769,18.46931457519531,-15.0317440032959,-22.50333023071289,2,10.3.35.51,10.83.46.32,1,0
2015-02-27 20:24:47.990,18,1425097487.0736,37.78762164063544,-122.3967719079203,16.19745,0,-1,10,200,-9999,1425097487.982531,17.23699188232422,-14.78421020507812,-21.87205505371094,313.3209228515625,299.5476379394531,10,139515.2628496667,0.03765869140625,-0.8149261474609375,-0.5504302978515625,139515.23658325,0.04173839218426686,-0.002003762404175619,-0.05017635178207392,139515.23658325,1.382636744145343,0.06066172492472048,0.9736582983564588,0.03488300740718842,0.009051221422851086,-0.01636415719985962,-0.01939362846314907,0.005796489771455526,0.001307307975366712,XTrueNorthZVertical,0.3431617864729296,0.3187758971085655,0.5741537899655818,0.6715424946965504,0.03408784046769142,-0.8269482254981995,-0.5612438321113586,18.48042297363281,-15.06652736663818,-22.47092819213867,2,10.3.35.51,10.83.46.32,1,0
2015-02-27 20:24:48.013,19,1425097487.0736,37.78762164063544,-122.3967719079203,16.19745,0,-1,10,200,-9999,1425097487.982531,17.23699188232422,-14.78421020507812,-21.87205505371094,313.3209228515625,299.5476379394531,10,139515.311858,0.0128021240234375,-0.829681396484375,-0.5654144287109375,139515.288364625,0.02346591131301519,-0.02613067029974848,-0.04708788386590903,139515.288364625,1.381438361303548,0.06249913021659801,0.9759712872894014,0.01661208458244801,-0.015075390227139,-0.01327649224549532,0.01276055350899696,-0.008041898719966412,-0.002146862214431167,XTrueNorthZVertical,0.3436234850231656,0.319824981309804,0.5737462109360502,0.6711558301132566,0.03499945625662804,-0.828246533870697,-0.5592697858810425,18.48151206970215,-15.10026931762695,-22.44736862182617,2,10.3.35.51,10.83.46.32,1,0
2015-02-27 20:24:48.094,20,1425097487.0736,37.78762164063544,-122.3967719079203,16.19745,0,-1,10,200,-9999,1425097488.034488,17.52675628662109,-15.31097412109375,-21.85541534423828,313.3610229492188,299.5877380371094,10,139515.36091825,0.02813720703125,-0.82666015625,-0.544921875,139515.3401462083,0.02685558274846805,0.02331517639531671,-0.03366395407525562,139515.3401462083,1.383101965533432,0.05951914920103969,0.9760991514015045,0.0200000237673521,0.03436611965298653,0.0001527550630271435,-0.03085446730256081,0.01049287896603346,0.00755382189527154,XTrueNorthZVertical,0.3442567067506563,0.3191463470774462,0.5737742306187159,0.6711304212073737,0.03332639113068581,-0.828318178653717,-0.5592658519744873,18.49054336547852,-15.11678886413574,-22.42881011962891,2,10.3.35.51,10.83.46.32,1,0
2015-02-27 20:24:48.113,21,1425097487.0736,37.78762164063544,-122.3967719079203,16.19745,0,-1,10,200,-9999,1425097488.088796,17.52675628662109,-15.0390625,-22.28814697265625,313.4121704101562,299.6388854980469,10,139515.4100512083,0.04754638671875,-0.8184356689453125,-0.5518646240234375,139515.391928125,0.02288081482152478,0.07060892261348886,-0.03362746876832153,139515.3401462083,1.383101965533432,0.05951914920103969,0.9760991514015045,0.0200000237673521,0.03436611965298653,0.0001527550630271435,-0.03085446730256081,0.01049287896603346,0.00755382189527154,XTrueNorthZVertical,0.3442567067506563,0.3191463470774462,0.5737742306187159,0.6711304212073737,0.03332639113068581,-0.828318178653717,-0.5592658519744873,18.49054336547852,-15.11678886413574,-22.42881011962891,2,10.3.35.51,10.83.46.32,1,0
2015-02-27 20:24:48.190,22,1425097487.0736,37.78762164063544,-122.3967719079203,16.19745,0,-1,10,200,-9999,1425097488.16318,17.21994400024414,-14.56326293945312,-21.68896484375,313.5007629394531,299.7274780273438,10,139515.4589399167,0.04766845703125,-0.823974609375,-0.519927978515625,139515.4437097917,0.02639245903490327,0.09954070574778268,-0.02580150358901468,139515.4437097917,1.383448899767763,0.06825050140391897,0.9790229462028007,0.01954074949026108,0.1105933785438538,0.008011768572032452,0.005093717481940985,0.01012851484119892,0.02320978417992592,XTrueNorthZVertical,0.3427010503789934,0.3229373010756296,0.5749841567273133,0.6690745026852203,0.03804288059473038,-0.8299527168273926,-0.556535005569458,18.59385299682617,-15.18277740478516,-22.29844665527344,2,10.3.35.51,10.83.46.32,1,0
2015-02-27 20:24:48.207,23,1425097487.0736,37.78762164063544,-122.3967719079203,16.19745,0,-1,10,200,-9999,1425097488.16318,17.21994400024414,-14.56326293945312,-21.68896484375,313.5007629394531,299.7274780273438,10,139515.50795,0.0970611572265625,-0.7899627685546875,-0.4657745361328125,139515.4954911667,-0.1092226278907658,0.1780051546286783,-0.08747631969361472,139515.4954911667,1.380977761103234,0.07851155242933082,0.9781318849413372,-0.1160698086023331,0.1890583336353302,-0.05366404727101326,0.03845073655247688,0.01405616942793131,0.07278254628181458,XTrueNorthZVertical,0.3398413952701084,0.3257017688242688,0.5760311160536844,0.6682920904599478,0.04380939528346062,-0.8294553160667419,-0.5568523406982422,18.69970512390137,-15.2278938293457,-22.1788444519043,2,10.3.35.51,10.83.46.32,1,0
2015-02-27 20:24:48.289,24,1425097487.0736,37.78762164063544,-122.3967719079203,16.19745,0,-1,10,200,-9999,1425097488.267129,17.86765670776367,-14.93707275390625,-21.22293853759766,314.1264343261719,300.3531494140625,10,139515.556987,0.1171722412109375,-0.743316650390625,-0.3871002197265625,139515.5472732917,-0.2364895037473634,0.3006445217751542,-0.1111385059789688,139515.4954911667,1.380977761103234,0.07851155242933082,0.9781318849413372,-0.1160698086023331,0.1890583336353302,-0.05366404727101326,0.03845073655247688,0.01405616942793131,0.07278254628181458,XTrueNorthZVertical,0.3398413952701084,0.3257017688242688,0.5760311160536844,0.6682920904599478,0.04380939528346062,-0.8294553160667419,-0.5568523406982422,18.69970512390137,-15.2278938293457,-22.1788444519043,2,10.3.35.51,10.83.46.32,1,0
2015-02-27 20:24:48.306,25,1425097487.0736,37.78762164063544,-122.3967719079203,16.19745,0,-1,10,200,-9999,1425097488.267129,17.86765670776367,-14.93707275390625,-21.22293853759766,314.1264343261719,300.3531494140625,10,139515.606004,0.150421142578125,-0.8424530029296875,-0.4488983154296875,139515.5990547917,0.1539602720946799,0.1168065117269844,-0.1157606883669103,139515.5472732917,1.377146996302385,0.09478376564822369,0.9667903882073235,-0.243331104516983,0.3117009103298187,-0.07733117789030075,0.06635060906410217,0.055961973965168,0.1325182914733887,XTrueNorthZVertical,0.3318305512258809,0.3274004370438818,0.5789995973716953,0.6689221825651989,0.05375131964683533,-0.8230670690536499,-0.5653948783874512,19.10955619812012,-14.92979717254639,-22.03167915344238,2,10.3.35.51,10.83.46.32,1,0
2015-02-27 20:24:48.389,26,1425097487.0736,37.78762164063544,-122.3967719079203,16.19745,0,-1,10,200,-9999,1425097488.370237,18.49832916259766,-15.5657958984375,-21.77217864990234,314.7656860351562,300.9924011230469,10,139515.6550256667,0.158172607421875,-0.8542938232421875,-0.4221649169921875,139515.6508363333,0.5444907417177525,-0.2918275943542289,-0.2370290601842134,139515.6508363333,1.353205265023851,0.1191674913233441,0.9837527391394021,0.5376690030097961,-0.2807615995407104,-0.2032355517148972,0.07799360901117325,0.0004590752068907022,0.1234752610325813,XTrueNorthZVertical,0.3347200392822551,0.336118515521999,0.5728654636872975,0.6684399601522047,0.06585099548101425,-0.8325818777084351,-0.5499736666679382,19.50415229797363,-14.80622482299805,-21.7677001953125,2,10.3.35.51,10.83.46.32,1,0
2015-02-27 20:24:48.404,27,1425097487.0736,37.78762164063544,-122.3967719079203,16.19745,0,-1,10,200,-9999,1425097488.370237,18.49832916259766,-15.5657958984375,-21.77217864990234,314.7656860351562,300.9924011230469,10,139515.7040385417,0.11309814453125,-0.980255126953125,-0.52166748046875,139515.6508363333,0.5444907417177525,-0.2918275943542289,-0.2370290601842134,139515.6508363333,1.353205265023851,0.1191674913233441,0.9837527391394021,0.5376690030097961,-0.2807615995407104,-0.2032355517148972,0.07799360901117325,0.0004590752068907022,0.1234752610325813,XTrueNorthZVertical,0.3347200392822551,0.336118515521999,0.5728654636872975,0.6684399601522047,0.06585099548101425,-0.8325818777084351,-0.5499736666679382,19.50415229797363,-14.80622482299805,-21.7677001953125,2,10.3.35.51,10.83.46.32,1,0
2015-02-27 20:24:48.489,28,1425097487.0736,37.78762164063544,-122.3967719079203,16.19745,0,-1,10,200,-9999,1425097488.474151,18.36197280883789,-17.06118774414062,-21.57244110107422,318.2750244140625,304.5017395019531,10,139515.7530772084,-0.0699462890625,-0.880340576171875,-0.5144805908203125,139515.7543997084,0.9421590156944555,-0.0870859002778091,-0.6098742759563969,139515.7026182083,1.313461750673957,0.1286443529636217,1.021038448947256,0.9516929984092712,-0.5224146246910095,-0.3997084200382233,0.0754576101899147,-0.08724457770586014,0.04103630036115646,XTrueNorthZVertical,0.3519515162369466,0.3421234309941366,0.5564561610518082,0.6704015289351364,0.0670289620757103,-0.852651059627533,-0.5181633830070496,19.25336647033691,-15.44153022766113,-21.54845428466797,2,10.3.35.51,10.83.46.32,1,0
2015-02-27 20:24:48.504,29,1425097487.0736,37.78762164063544,-122.3967719079203,16.19745,0,-1,10,200,-9999,1425097488.474151,18.36197280883789,-17.06118774414062,-21.57244110107422,318.2750244140625,304.5017395019531,10,139515.8020923334,0.0494842529296875,-1.030654907226562,-0.4060516357421875,139515.8061814167,1.084171015558495,0.5752499859920587,-0.7332691819041283,139515.7543997084,1.25379869375982,0.1642773745538001,1.061158568854009,0.9353378415107727,-0.07601996511220932,-0.5760816931724548,-0.1497308313846588,-0.007419287227094173,-0.03318771719932556,XTrueNorthZVertical,0.366915386658031,0.3531666204577166,0.5378998513814085,0.6717962251305754,0.07978454232215881,-0.8729212880134583,-0.4812928736209869,19.14607048034668,-15.78715515136719,-21.3930492401123,2,10.3.35.51,10.83.46.32,1,0
2015-02-27 20:24:48.562,30,1425097487.0736,37.78762164063544,-122.3967719079203,16.19745,0,-1,10,200,-9999,1425097488.526301,18.83922958374023,-17.46902465820312,-21.10642242431641,321.8582763671875,308.0849914550781,10,139515.851130625,0.1818695068359375,-0.88214111328125,-0.587799072265625,139515.8061814167,1.084171015558495,0.5752499859920587,-0.7332691819041283,139515.8061814167,1.15818390110491,0.2660257208132529,1.105597432746066,1.077349901199341,0.5863158106803894,-0.6994768977165222,-0.06845240294933319,-0.1369225531816483,0.02676864340901375,XTrueNorthZVertical,0.3738129427124597,0.3792805616390342,0.5199217322804383,0.6679008255075805,0.1179366558790207,-0.8937323689460754,-0.4328202903270721,19.42407417297363,-16.17652130126953,-20.84452438354492,2,10.3.35.51,10.83.46.32,1,0
2015-02-27 20:24:48.600,31,1425097487.0736,37.78762164063544,-122.3967719079203,16.19745,0,-1,10,200,-9999,1425097488.578053,19.75966262817383,-17.8768310546875,-20.27423858642578,323.8220825195312,310.0487976074219,10,139515.9002505417,0.16082763671875,-0.9034576416015625,-0.56146240234375,139515.8579632917,0.6874897090817752,0.376896416422412,-0.6945231175206744,139515.8579632917,1.049584648668995,0.3944093282309987,1.134257792871702,0.6806686520576477,0.387962132692337,-0.6607311367988586,0.01940116845071316,0.02407950162887573,-0.1974553614854813,XTrueNorthZVertical,0.3731092760759273,0.4069614385431238,0.5054953208462579,0.6630583060601203,0.1624683439731598,-0.9062206149101257,-0.3903437256813049,21.13474082946777,-16.55267143249512,-18.78298568725586,2,10.3.35.51,10.83.46.32,1,0
2015-02-27 20:24:48.690,32,1425097487.0736,37.78762164063544,-122.3967719079203,16.19745,0,-1,10,200,-9999,1425097488.68111,21.99256134033203,-17.35009765625,-18.39349365234375,325.7073059082031,311.9340209960938,10,139515.9491747083,0.2246856689453125,-0.81524658203125,-0.6265106201171875,139515.9615263334,0.2885966473197448,0.1532302996398891,-0.5071257926756138,139515.9097450417,0.9503580554849829,0.4965659267317051,1.148794701887684,0.520504891872406,0.2715339362621307,-0.6440492272377014,-0.03430343791842461,0.008813286200165749,-0.2013435363769531,XTrueNorthZVertical,0.3739356741930689,0.4243968447474243,0.4910262448829819,0.662535008552825,0.1951310783624649,-0.9122709035873413,-0.3601188659667969,21.62473106384277,-16.52033424377441,-18.24605178833008,2,10.3.35.51,10.83.46.32,1,0
2015-02-27 20:24:48.699,33,1425097487.0736,37.78762164063544,-122.3967719079203,16.19745,0,-1,10,200,-9999,1425097488.68111,21.99256134033203,-17.35009765625,-18.39349365234375,325.7073059082031,311.9340209960938,10,139515.998192375,0.2252960205078125,-0.8427734375,-0.544189453125,139515.9615263334,0.2885966473197448,0.1532302996398891,-0.5071257926756138,139515.9615263334,0.8696503013028374,0.581329116614786,1.148964958798021,0.2817757427692413,0.1642957925796509,-0.4733345806598663,-0.01032543741166592,0.08275080472230911,-0.2731804549694061,XTrueNorthZVertical,0.3708146110068725,0.4375026005290915,0.4800370027878737,0.6638165829024665,0.2248334884643555,-0.9123406410217285,-0.3421759903430939,22.28154945373535,-16.33593940734863,-17.61075210571289,2,10.3.35.51,10.83.46.32,1,0
2015-02-27 20:24:48.762,34,1425097487.0736,37.78762164063544,-122.3967719079203,16.19745,0,-1,10,200,-9999,1425097488.733351,22.57209777832031,-17.18017578125,-17.66117858886719,325.58544921875,311.8121643066406,10,139516.0472204583,0.2312774658203125,-0.8009796142578125,-0.535186767578125,139516.0133085417,0.1761212344735562,0.09449801022371764,-0.2522370415891109,139516.0133085417,0.8187582131548046,0.6350334553475091,1.149512400607758,0.1692239493131638,0.1057211011648178,-0.2184745669364929,0.004016757011413574,0.07798518240451813,-0.2268642485141754,XTrueNorthZVertical,0.3694763118359047,0.4459611557477265,0.4730861833127165,0.6639242025281681,0.2425805330276489,-0.9125646352767944,-0.3292118012905121,23.04290008544922,-15.947829246521,-16.97529029846191,2,10.3.35.51,10.83.46.32,1,0
2015-02-27 20:24:48.797,35,1425097487.0736,37.78762164063544,-122.3967719079203,16.19745,0,-1,10,200,-9999,1425097488.785582,22.57209777832031,-17.35012817382812,-17.62788391113281,326.8931884765625,313.1199035644531,10,139516.0963450834,0.15020751953125,-0.7740325927734375,-0.4742431640625,139516.0650899167,0.0449160759969494,-0.1101536690078574,0.04551209144890914,139516.0650899167,0.8071880324048033,0.6441333482521386,1.150593961903623,0.03801886364817619,-0.09893068671226501,0.07927423715591431,-0.03624842315912247,0.1272092908620834,-0.2004405111074448,XTrueNorthZVertical,0.3703436427248784,0.4469283146489994,0.4709479095591853,0.6643107069194911,0.2449734061956406,-0.9130064249038696,-0.3262013494968414,23.15856742858887,-15.89291763305664,-16.86904907226562,2,10.3.35.51,10.83.46.32,1,0
2015-02-27 20:24:48.863,36,1425097487.0736,37.78762164063544,-122.3967719079203,16.19745,0,-1,10,200,-9999,1425097488.836778,22.19710922241211,-17.85989379882812,-17.22843170166016,324.5108032226562,310.7375183105469,10,139516.14525425,0.09771728515625,-0.75958251953125,-0.41546630859375,139516.116871625,0.1269454323130251,-0.04328196035207679,0.2981043987274366,139516.116871625,0.8247696575001742,0.6243038700561585,1.160241186306029,0.1200482994318008,-0.03205910697579384,0.3318661749362946,-0.1000426858663559,0.1576525717973709,-0.1270644515752792,XTrueNorthZVertical,0.3749568756931795,0.4443995523521054,0.4732455044397698,0.6617817259149528,0.2332976907491684,-0.9168993830680847,-0.3238327503204346,23.06473731994629,-15.97414493560791,-16.92079925537109,2,10.3.35.51,10.83.46.32,1,0
2015-02-27 20:24:48.894,37,1425097487.0736,37.78762164063544,-122.3967719079203,16.19745,0,-1,10,200,-9999,1425097488.888712,21.87325286865234,-17.910888671875,-17.14521789550781,323.8624877929688,310.0892028808594,10,139516.1942685833,0.0550537109375,-0.7967681884765625,-0.3290557861328125,139516.1686535417,0.27042163814439,0.2180497763596547,0.5579093451862257,139516.1686535417,0.8605321162687386,0.5961934385033696,1.181210440477397,0.2635245621204376,0.2292725145816803,0.5916708111763,-0.1375911086797714,0.1580071002244949,-0.0730786919593811,XTrueNorthZVertical,0.3820331573058881,0.4437456518708607,0.4798204365985933,0.6533856386351805,0.2132594436407089,-0.9250664114952087,-0.3142809271812439,22.63221740722656,-16.75167274475098,-16.75210952758789,2,10.3.35.51,10.83.46.32,1,0
2015-02-27 20:24:48.962,38,1425097487.0736,37.78762164063544,-122.3967719079203,16.19745,0,-1,10,200,-9999,1425097488.940415,21.95847702026367,-18.67556762695312,-16.42954254150391,320.9331359863281,307.1598510742188,10,139516.243291625,0.00787353515625,-0.87890625,-0.2138671875,139516.2204350417,0.3894723957219842,0.6566013014946002,0.8120611995991036,139516.2204350417,0.9191406532493416,0.5641780642184278,1.215604374584192,0.3825753927230835,0.6678239703178406,0.8458223342895508,-0.1489118933677673,0.101077675819397,0.01219853479415178,XTrueNorthZVertical,0.3902255939530684,0.4480916151219739,0.4922011899145977,0.6361413835899832,0.1859602332115173,-0.9375797510147095,-0.2938757836818695,22.45115089416504,-17.32202911376953,-16.41225051879883,2,10.3.35.51,10.83.46.32,1,0
2015-02-27 20:24:48.995,39,1425097487.0736,37.78762164063544,-122.3967719079203,16.19745,0,-1,10,200,-9999,1425097488.940415,21.95847702026367,-18.67556762695312,-16.42954254150391,320.9331359863281,307.1598510742188,10,139516.2923006667,0.0133056640625,-1.0706787109375,-0.087158203125,139516.272216625,0.3321039111000422,1.214541006717253,0.966881939041988,139516.272216625,1.012642845796295,0.5242556783012278,1.255965685020064,0.3252069652080536,1.225763440132141,1.000642776489258,-0.1432240456342697,-0.005388957913964987,0.1095898896455765,XTrueNorthZVertical,0.3945545571212112,0.4585769987531381,0.5121784166773553,0.6096778560412828,0.1550038307905197,-0.9508488178253174,-0.2680676877498627,22.2342357635498,-18.4127025604248,-15.49451446533203,2,10.3.35.51,10.83.46.32,1,0
2015-02-27 20:24:49.063,40,1425097487.0736,37.78762164063544,-122.3967719079203,16.19745,0,-1,10,200,-9999,1425097489.043964,22.45278549194336,-21.30950927734375,-14.51549530029297,313.4530639648438,299.6797790527344,10,139516.3413268334,0.061981201171875,-1.123764038085938,-0.0954437255859375,139516.3239987917,0.1578586072983378,1.391489419025388,0.9835224347972392,139516.3239987917,1.14775470767245,0.4638353966650025,1.289095047106796,0.1509617567062378,1.402711749076843,1.017282843589783,-0.07793520390987396,-0.1874416172504425,0.1760173439979553,XTrueNorthZVertical,0.3913289391786467,0.4717545235435064,0.5383300011110843,0.5783684999799539,0.1243676990270615,-0.9605838656425476,-0.2486186623573303,22.09790420532227,-20.3709602355957,-13.04513168334961,2,10.3.35.51,10.83.46.32,1,0
2015-02-27 20:24:49.095,41,1425097487.0736,37.78762164063544,-122.3967719079203,16.19745,0,-1,10,200,-9999,1425097489.043964,22.45278549194336,-21.30950927734375,-14.51549530029297,313.4530639648438,299.6797790527344,10,139516.3903342084,0.0241546630859375,-1.114227294921875,-0.0935516357421875,139516.3757802083,0.2911018829571823,1.078744025889131,0.8382770910537346,139516.3239987917,1.14775470767245,0.4638353966650025,1.289095047106796,0.1509617567062378,1.402711749076843,1.017282843589783,-0.07793520390987396,-0.1874416172504425,0.1760173439979553,XTrueNorthZVertical,0.3913289391786467,0.4717545235435064,0.5383300011110843,0.5783684999799539,0.1243676990270615,-0.9605838656425476,-0.2486186623573303,22.09790420532227,-20.3709602355957,-13.04513168334961,2,10.3.35.51,10.83.46.32,1,0
2015-02-27 20:24:49.149,42,1425097487.0736,37.78762164063544,-122.3967719079203,16.19745,0,-1,10,200,-9999,1425097489.095183,22.41869354248047,-22.12518310546875,-13.15070343017578,308.3661499023438,294.5928649902344,10,139516.4393625833,-0.0700225830078125,-1.1927490234375,-0.0813751220703125,139516.4275619583,0.3256156517362822,0.8233740415936512,0.4862612571153879,139516.4275619583,1.40688170786305,0.323069736607475,1.344609910484539,0.3187189102172852,0.8345962166786194,0.5200210213661194,-0.1295787990093231,-0.2460828423500061,0.1588427424430847,XTrueNorthZVertical,0.3873751493841432,0.4935688888460106,0.575884299540544,0.5241063824581731,0.07119867950677872,-0.9745287299156189,-0.2126604914665222,21.71660614013672,-22.096923828125,-10.65756797790527,2,10.3.35.51,10.83.46.32,1,0
2015-02-27 20:24:49.194,43,1425097487.0736,37.78762164063544,-122.3967719079203,16.19745,0,-1,10,200,-9999,1425097489.147621,22.52096939086914,-23.45066833496094,-11.68605804443359,303.3885803222656,289.6152954101562,10,139516.4883733334,-0.0166778564453125,-1.10601806640625,-0.1285858154296875,139516.4793438333,0.3099749066542468,0.7262408334713002,0.03860038947182649,139516.4275619583,1.40688170786305,0.323069736607475,1.344609910484539,0.3187189102172852,0.8345962166786194,0.5200210213661194,-0.1295787990093231,-0.2460828423500061,0.1588427424430847,XTrueNorthZVertical,0.3873751493841432,0.4935688888460106,0.575884299540544,0.5241063824581731,0.07119867950677872,-0.9745287299156189,-0.2126604914665222,21.71660614013672,-22.096923828125,-10.65756797790527,2,10.3.35.51,10.83.46.32,1,0
2015-02-27 20:24:49.248,44,1425097487.0736,37.78762164063544,-122.3967719079203,16.19745,0,-1,10,200,-9999,1425097489.199656,22.50392150878906,-24.4532470703125,-10.83722686767578,300.8759460449219,287.1026611328125,10,139516.5375338334,-0.0630645751953125,-1.024017333984375,-0.077301025390625,139516.5311255417,0.0995146067690999,0.7680404783606388,-0.2739953340111673,139516.4793438333,1.447875215127203,0.3201195014486638,1.365643981449845,0.3030782639980316,0.7374628782272339,0.07235980033874512,-0.08667317032814026,-0.1552626490592957,0.08170319348573685,XTrueNorthZVertical,0.3847990217070533,0.5052189708859109,0.5826154021628612,0.5071910670552587,0.06410542130470276,-0.9790299534797668,-0.1933670043945312,21.50275421142578,-23.11119842529297,-8.773423194885254,2,10.3.35.51,10.83.46.32,1,0
2015-02-27 20:24:49.297,45,1425097487.0736,37.78762164063544,-122.3967719079203,16.19745,0,-1,10,200,-9999,1425097489.253514,22.98118591308594,-24.65718078613281,-9.672164916992188,299.1767272949219,285.4034423828125,10,139516.5863940417,0.034881591796875,-1.007843017578125,-0.0161285400390625,139516.5829069584,-0.142536642598785,0.776347676748923,-0.3630652893010854,139516.5311255417,1.408190386937734,0.3956806687724249,1.372718057971348,0.09261904656887054,0.7792623043060303,-0.2402356564998627,-0.1303526610136032,-0.05988242104649544,0.08795279264450073,XTrueNorthZVertical,0.3751761250360485,0.5181240348463841,0.5859300691492416,0.4974698933322212,0.07584827393293381,-0.9804465770721436,-0.1815807223320007,21.66788101196289,-23.19856834411621,-8.111608505249023,2,10.3.35.51,10.83.46.32,1,0
2015-02-27 20:24:49.345,46,1425097487.0736,37.78762164063544,-122.3967719079203,16.19745,0,-1,10,200,-9999,1425097489.307047,23.64594650268555,-24.53823852539062,-8.856613159179688,298.1908874511719,284.4176025390625,10,139516.635520875,0.119842529296875,-0.924896240234375,-0.0313262939453125,139516.634689,-0.2772726200486188,0.5055028623073194,-0.4831996871262328,139516.5829069584,1.345037460865025,0.49686953162821,1.36646290460446,-0.1494199335575104,0.7875694036483765,-0.3293020725250244,-0.09275713562965393,-0.02589997462928295,0.149523451924324,XTrueNorthZVertical,0.3598832068015105,0.5303726682035445,0.5897230577804073,0.4913406215598379,0.09672442078590393,-0.9791964888572693,-0.1783778220415115,22.12971305847168,-23.04866600036621,-7.245943546295166,2,10.3.35.51,10.83.46.32,1,0
2015-02-27 20:24:49.394,47,1425097487.0736,37.78762164063544,-122.3967719079203,16.19745,0,-1,10,200,-9999,1425097489.380353,24.77091979980469,-23.72257995605469,-7.791412353515625,297.3685607910156,283.5952758789062,10,139516.684428375,0.0952606201171875,-0.9417572021484375,-0.063934326171875,139516.634689,-0.2772726200486188,0.5055028623073194,-0.4831996871262328,139516.634689,1.293856158088824,0.5819590118558552,1.345739747651709,-0.2841549515724182,0.516724705696106,-0.4494370222091675,-0.01020598504692316,0.04573485255241394,0.1590519994497299,XTrueNorthZVertical,0.3411673165771567,0.5388800659966089,0.5942197962082614,0.4900162766204936,0.1226632595062256,-0.9747814536094666,-0.1864262670278549,23.09861755371094,-22.39645195007324,-6.190459251403809,2,10.3.35.51,10.83.46.32,1,0
2015-02-27 20:24:49.443,48,1425097487.0736,37.78762164063544,-122.3967719079203,16.19745,0,-1,10,200,-9999,1425097489.43263,25.16296005249023,-22.99186706542969,-7.641624450683594,297.7679748535156,283.9946899414062,10,139516.7335580417,0.0521087646484375,-0.953765869140625,-0.0866851806640625,139516.7382522917,-0.1449830223761318,-0.04785221109876177,-0.5844496096616284,139516.6864705833,1.244858928495934,0.6400856513803833,1.319407120718254,-0.2995561957359314,0.01746093295514584,-0.5187613368034363,-0.0533086434006691,0.02681059017777443,0.1355740129947662,XTrueNorthZVertical,0.3277274356088812,0.5411474470443137,0.5939446797757828,0.4969747145081506,0.148569256067276,-0.9685677886009216,-0.1995083391666412,23.48452758789062,-22.02008628845215,-6.087821006774902,2,10.3.35.51,10.83.46.32,1,0
2015-02-27 20:24:49.493,49,1425097487.0736,37.78762164063544,-122.3967719079203,16.19745,0,-1,10,200,-9999,1425097489.483386,25.50386047363281,-22.58403015136719,-7.907920837402344,299.2925415039062,285.5192565917969,10,139516.7824480833,0.0930633544921875,-0.7581787109375,-0.17120361328125,139516.7382522917,-0.1449830223761318,-0.04785221109876177,-0.5844496096616284,139516.7382522917,1.191528375474808,0.6898779448292202,1.294079785281922,-0.1518651992082596,-0.03663064166903496,-0.5506876111030579,-0.1217665374279022,0.008191789500415325,0.124039314687252,XTrueNorthZVertical,0.3181893879736933,0.5416578855246569,0.59006858071707,0.5071304560645066,0.1738753020763397,-0.9619576334953308,-0.2107245028018951,24.0018310546875,-21.39203262329102,-6.305700302124023,2,10.3.35.51,10.83.46.32,1,0
2015-02-27 20:24:49.544,50,1425097487.0736,37.78762164063544,-122.3967719079203,16.19745,0,-1,10,200,-9999,1425097489.536633,26.35611343383789,-21.76837158203125,-7.808052062988281,300.4058532714844,286.632568359375,10,139516.831460625,0.1102142333984375,-0.5560302734375,-0.18450927734375,139516.7900342083,-0.0171342458213518,-0.07870013863736761,-0.6976589897042428,139516.7900342083,1.117601464825589,0.758834287538326,1.27112650656226,-0.02401636354625225,-0.06747867166996002,-0.6638972759246826,-0.1100599244236946,0.1972552984952927,0.04300831630825996,XTrueNorthZVertical,0.3095164630705901,0.5450629262050558,0.582729207293441,0.5172355532250069,0.2031232863664627,-0.9554340243339539,-0.2142119258642197,24.8813362121582,-20.27427864074707,-6.58343505859375,2,10.3.35.51,10.83.46.32,1,0
2015-02-27 20:24:49.593,51,1425097487.0736,37.78762164063544,-122.3967719079203,16.19745,0,-1,10,200,-9999,1425097489.536633,26.35611343383789,-21.76837158203125,-7.808052062988281,300.4058532714844,286.632568359375,10,139516.8804703333,0.144866943359375,-0.4014129638671875,-0.181182861328125,139516.8418159167,0.05183736535395634,0.09445992702012951,-0.6495561751469046,139516.8418159167,1.040366104583593,0.8313727305197622,1.247571584640705,0.04495532438158989,0.1056812703609467,-0.6157948970794678,-0.1304778903722763,0.4282575845718384,0.03425702452659607,XTrueNorthZVertical,0.300773354364413,0.5500157727650263,0.5737518645366723,0.5270927982267735,0.2346801608800888,-0.9482160806655884,-0.2140360772609711,25.27425003051758,-19.76182556152344,-6.6446533203125,2,10.3.35.51,10.83.46.32,1,0
2015-02-27 20:24:49.640,52,1425097487.0736,37.78762164063544,-122.3967719079203,16.19745,0,-1,10,200,-9999,1425097489.588876,27.24246215820312,-21.12261962890625,-8.007789611816406,302.0531921386719,288.2799072265625,10,139516.9295065,0.2033538818359375,-0.4549560546875,-0.1511383056640625,139516.8935973333,0.06731965235113199,0.6044914947611287,-0.3370856202351444,139516.8935973333,0.9877523828809618,0.9005586906244093,1.232244759139976,0.06043767929077148,0.6157127022743225,-0.3033246695995331,-0.1029261276125908,0.5566095113754272,0.02031507529318333,XTrueNorthZVertical,0.2897277116479522,0.5593796788758985,0.5697633568171556,0.5277517656817006,0.2602747678756714,-0.9432367086410522,-0.2063044607639313,25.84395790100098,-19.05276298522949,-6.5231032371521,2,10.3.35.51,10.83.46.32,1,0
2015-02-27 20:24:49.695,53,1425097487.0736,37.78762164063544,-122.3967719079203,16.19745,0,-1,10,200,-9999,1425097489.640548,28.26516723632812,-20.748779296875,-7.674911499023438,303.5483703613281,289.7750854492188,10,139516.9785152917,0.22711181640625,-0.726226806640625,-0.130523681640625,139516.9453795833,-0.1409547249112779,0.9548646909391145,0.001834385358846579,139516.9453795833,0.980897487599152,0.9476510843926345,1.227915452279567,-0.1478366255760193,0.9660857915878296,0.03559502959251404,-0.09199647605419159,0.4734520018100739,0.04422707855701447,XTrueNorthZVertical,0.2765343606222009,0.5704616016553836,0.574472053791896,0.5177684316679941,0.2730115056037903,-0.9417900443077087,-0.1962046176195145,26.48674392700195,-18.56224060058594,-5.231103897094727,2,10.3.35.51,10.83.46.32,1,0
2015-02-27 20:24:49.737,54,1425097487.0736,37.78762164063544,-122.3967719079203,16.19745,0,-1,10,200,-9999,1425097489.691702,28.84469985961914,-20.408935546875,-6.809432983398438,302.7133483886719,288.9400634765625,10,139517.027540125,0.2936248779296875,-0.9177703857421875,-0.14215087890625,139516.997161,-0.4975322874808213,1.052519079686794,0.3094811565881461,139516.997161,1.039880403794315,0.9441650938104853,1.22434256010469,-0.5044141411781311,1.063740134239197,0.3432414531707764,-0.03516630828380585,0.1598363369703293,0.05575554445385933,XTrueNorthZVertical,0.25925832818902,0.5772534589082827,0.5889146163232014,0.5027356354106235,0.2750497460365295,-0.940582811832428,-0.199127122759819,26.59576034545898,-18.58296585083008,-4.561566352844238,2,10.3.35.51,10.83.46.32,1,0
2015-02-27 20:24:49.798,55,1425097487.0736,37.78762164063544,-122.3967719079203,16.19745,0,-1,10,200,-9999,1425097489.744473,29.73104095458984,-20.44291687011719,-5.311492919921875,299.1765747070312,285.4032897949219,10,139517.0765386667,0.3603363037109375,-1.017532348632812,-0.2191619873046875,139517.0489427084,-0.5981289366008203,1.066494283823094,0.6359058766635944,139517.0489427084,1.15440492856176,0.8879961925101754,1.230020245061266,-0.605072021484375,1.07784628868103,0.6696560978889465,0.05903906747698784,-0.07053543627262115,0.07912155240774155,XTrueNorthZVertical,0.2451651311394182,0.5783195137054428,0.6101676478684674,0.4828416106999507,0.2592898011207581,-0.942495584487915,-0.2108812034130096,26.53615379333496,-18.86007118225098,-3.687710285186768,2,10.3.35.51,10.83.46.32,1,0
2015-02-27 20:24:49.836,56,1425097487.0736,37.78762164063544,-122.3967719079203,16.19745,0,-1,10,200,-9999,1425097489.795693,30.0889892578125,-21.10563659667969,-4.396095275878906,294.6004943847656,280.8272094726562,10,139517.1255725417,0.4054718017578125,-1.234878540039062,-0.2108154296875,139517.1007248333,-0.7552543756510595,1.278461400253008,0.8852645737465477,139517.1007248333,1.317957950537198,0.7949020534474357,1.236210825863622,-0.7621974349021912,1.289813280105591,0.9190144538879395,0.1537434905767441,-0.1313201934099197,-0.01660121418535709,XTrueNorthZVertical,0.2292888260011933,0.576572827410509,0.637459248536581,0.4567670045064459,0.2343943268060684,-0.9445465207099915,-0.2299808114767075,25.76067733764648,-20.09987258911133,-2.41899299621582,2,10.3.35.51,10.83.46.32,1,0
2015-02-27 20:24:49.892,57,1425097487.0736,37.78762164063544,-122.3967719079203,16.19745,0,-1,10,200,-9999,1425097489.846332,29.86740112304688,-22.14222717285156,-3.480697631835938,290.0487060546875,276.2754211425781,10,139517.1745672083,0.404388427734375,-1.355072021484375,-0.2528228759765625,139517.1525063333,-1.141154939719029,1.157265732733464,1.255979793278886,139517.1525063333,1.538826337807825,0.6499233590492802,1.237805688558209,-1.14809787273407,1.168617606163025,1.289729356765747,0.2060107737779617,-0.357405960559845,0.04493019729852676,XTrueNorthZVertical,0.2139946655074745,0.569289406208542,0.6700612997406099,0.4255980388709081,0.1977978199720383,-0.9450690150260925,-0.2602317035198212,25.25748634338379,-20.78183937072754,-1.908730983734131,2,10.3.35.51,10.83.46.32,1,0
2015-02-27 20:24:49.933,58,1425097487.0736,37.78762164063544,-122.3967719079203,16.19745,0,-1,10,200,-9999,1425097489.899191,28.94697189331055,-24.181396484375,-3.247688293457031,283.4739379882812,269.7006530761719,10,139517.223691625,0.2900543212890625,-1.366455078125,-0.44073486328125,139517.2042879167,-1.700313041140393,0.4655450596278796,1.785747248910135,139517.2042879167,1.853713131435262,0.3938695699990169,1.212596598308086,-1.707255840301514,0.476896733045578,1.819496512413025,0.1982201337814331,-0.4689728319644928,-0.02975584752857685,XTrueNorthZVertical,0.2068957641212585,0.5434352617010016,0.7114273763271729,0.3946432925169871,0.1345435380935669,-0.9365295171737671,-0.3237445056438446,24.13747215270996,-22.0930233001709,-1.658174514770508,2,10.3.35.51,10.83.46.32,1,0
2015-02-27 20:24:49.995,59,1425097487.0736,37.78762164063544,-122.3967719079203,16.19745,0,-1,10,200,-9999,1425097489.951002,27.63450241088867,-25.9656982421875,-3.597198486328125,275.059326171875,261.2860412597656,10,139517.2725957917,0.0675811767578125,-1.255859375,-0.5564727783203125,139517.2560698334,-1.77940253392913,-0.2088408316262697,2.260394460511688,139517.2042879167,1.853713131435262,0.3938695699990169,1.212596598308086,-1.707255840301514,0.476896733045578,1.819496512413025,0.1982201337814331,-0.4689728319644928,-0.02975584752857685,XTrueNorthZVertical,0.2068957641212585,0.5434352617010016,0.7114273763271729,0.3946432925169871,0.1345435380935669,-0.9365295171737671,-0.3237445056438446,24.13747215270996,-22.0930233001709,-1.658174514770508,2,10.3.35.51,10.83.46.32,1,0
2015-02-27 20:24:50.031,60,1425097487.0736,37.78762164063544,-122.3967719079203,16.19745,0,-1,10,200,-9999,1425097490.002826,25.43568801879883,-28.39572143554688,-5.477943420410156,269.4817504882812,255.7084503173828,10,139517.3216192083,-0.07489013671875,-1.020553588867188,-0.674896240234375,139517.3078514167,-1.810190540343209,-0.3711256126563193,2.505518731461415,139517.3078514167,2.443644354548774,-0.1559031497966723,1.056338069756961,-1.81713330745697,-0.3597741723060608,2.539267301559448,0.03012391924858093,-0.2622683346271515,-0.1606636494398117,XTrueNorthZVertical,0.2350020940854868,0.4491395334057418,0.7957852571575329,0.3313208426676434,-0.07640382647514343,-0.8705593943595886,-0.4860953986644745,19.08370780944824,-26.07080268859863,-5.440060138702393,2,10.3.35.51,10.83.46.32,1,0
2015-02-27 20:24:50.092,61,1425097487.0736,37.78762164063544,-122.3967719079203,16.19745,0,-1,10,200,-9999,1425097490.055099,21.92440032958984,-31.18258666992188,-8.04107666015625,263.3257751464844,249.552490234375,10,139517.3706231667,-0.162078857421875,-0.9127044677734375,-0.6352386474609375,139517.359633,-1.573805432510577,-0.2548432110318625,2.612247841623539,139517.3078514167,2.443644354548774,-0.1559031497966723,1.056338069756961,-1.81713330745697,-0.3597741723060608,2.539267301559448,0.03012391924858093,-0.2622683346271515,-0.1606636494398117,XTrueNorthZVertical,0.2350020940854868,0.4491395334057418,0.7957852571575329,0.3313208426676434,-0.07640382647514343,-0.8705593943595886,-0.4860953986644745,19.08370780944824,-26.07080268859863,-5.440060138702393,2,10.3.35.51,10.83.46.32,1,0
2015-02-27 20:24:50.130,62,1425097487.0736,37.78762164063544,-122.3967719079203,16.19745,0,-1,10,200,-9999,1425097490.106442,17.9188117980957,-33.17079162597656,-10.48770141601562,254.9288482666016,241.1555480957031,10,139517.41975025,-0.2838134765625,-0.806671142578125,-0.591888427734375,139517.4114152917,-1.240236782810991,0.03309137444088858,2.692451867328475,139517.359633,2.638541068688839,-0.3366300268759332,0.9422959391878442,-1.580748200416565,-0.2434918731451035,2.645995855331421,0.0817263126373291,-0.1161692589521408,-0.09042166173458099,XTrueNorthZVertical,0.2559461129698763,0.3962635552746222,0.8318893479902347,0.2922787636912402,-0.1941988468170166,-0.808910071849823,-0.5549335479736328,15.95341873168945,-27.5083179473877,-7.889846801757812,2,10.3.35.51,10.83.46.32,1,0
2015-02-27 20:24:50.191,63,1425097487.0736,37.78762164063544,-122.3967719079203,16.19745,0,-1,10,200,-9999,1425097490.157434,13.60640716552734,-34.44526672363281,-12.46830749511719,248.8273468017578,235.0540466308594,10,139517.4686505834,-0.251251220703125,-0.689727783203125,-0.67584228515625,139517.4631967084,-0.9136701162494418,0.440653558183345,2.564148755491727,139517.4114152917,2.792102637993368,-0.4605559371611004,0.8249744532862393,-1.247179388999939,0.04444258287549019,2.726199865341187,0.02513165026903152,-0.09776020050048828,0.0247267559170723,XTrueNorthZVertical,0.273777337918705,0.3480086503594253,0.8624517382849216,0.2451793805242304,-0.3015903830528259,-0.7345304489135742,-0.6078718900680542,10.14380645751953,-29.004150390625,-11.37239265441895,2,10.3.35.51,10.83.46.32,1,0
2015-02-27 20:24:50.228,64,1425097487.0736,37.78762164063544,-122.3967719079203,16.19745,0,-1,10,200,-9999,1425097490.211919,9.515594482421875,-35.60078430175781,-13.76651763916016,240.16357421875,226.3902740478516,10,139517.5176780417,-0.265533447265625,-0.5710296630859375,-0.717071533203125,139517.5149785,-0.5547252697869269,0.7574810446384747,2.252150112725129,139517.5149785,3.029804047154527,-0.569513974865953,0.6212761620497319,-0.561667799949646,0.7688320279121399,2.285897254943848,0.1736758649349213,-0.03068912401795387,-0.00156216963659972,XTrueNorthZVertical,0.2834495780936065,0.2779561585582611,0.9075718875510812,0.1367843577052147,-0.4384616315364838,-0.5820733308792114,-0.6847934126853943,4.611987113952637,-29.49329948425293,-13.50346946716309,2,10.3.35.51,10.83.46.32,1,0
2015-02-27 20:24:50.292,65,1425097487.0736,37.78762164063544,-122.3967719079203,16.19745,0,-1,10,200,-9999,1425097490.262061,5.578178405761719,-36.22955322265625,-15.04808807373047,232.5365295410156,218.7632293701172,10,139517.5666914583,-0.4137725830078125,-0.866424560546875,-0.5486297607421875,139517.5149785,-0.5547252697869269,0.7574810446384747,2.252150112725129,139517.5149785,3.029804047154527,-0.569513974865953,0.6212761620497319,-0.561667799949646,0.7688320279121399,2.285897254943848,0.1736758649349213,-0.03068912401795387,-0.00156216963659972,XTrueNorthZVertical,0.2834495780936065,0.2779561585582611,0.9075718875510812,0.1367843577052147,-0.4384616315364838,-0.5820733308792114,-0.6847934126853943,4.611987113952637,-29.49329948425293,-13.50346946716309,2,10.3.35.51,10.83.46.32,1,0
2015-02-27 20:24:50.327,66,1425097487.0736,37.78762164063544,-122.3967719079203,16.19745,0,-1,10,200,-9999,1425097490.314703,2.475975036621094,-36.80732727050781,-15.31439208984375,227.2110443115234,213.437744140625,10,139517.6157448333,-0.3469085693359375,-0.7762908935546875,-0.6707763671875,139517.618542,0.3591435182798348,0.7730956907418273,0.5841039313521361,139517.5667604583,3.124023873819303,-0.5923492283392848,0.5566769159330378,0.07080397754907608,0.3103562295436859,1.650480389595032,0.06024263799190521,-0.3380568027496338,0.1557402163743973,XTrueNorthZVertical,0.282928298417901,0.2603201705781368,0.9189090527723698,0.08826732388192361,-0.4740152060985565,-0.5283677577972412,-0.7043699622154236,1.135046005249023,-29.44881057739258,-14.31600666046143,2,10.3.35.51,10.83.46.32,1,0
2015-02-27 20:24:50.395,67,1425097487.0736,37.78762164063544,-122.3967719079203,16.19745,0,-1,10,200,-9999,1425097490.366282,1.129409790039062,-37.36810302734375,-14.99816131591797,223.5140380859375,209.7407379150391,10,139517.6647246667,-0.21490478515625,-0.565948486328125,-0.7745208740234375,139517.618542,0.3591435182798348,0.7730956907418273,0.5841039313521361,139517.618542,-3.102981516628105,-0.5890070786465756,0.5398202625456903,0.352201372385025,0.7844467163085938,0.6178497672080994,0.1296305358409882,-0.2623090744018555,0.04247895255684853,XTrueNorthZVertical,0.274777798595178,0.2605177549081284,0.9236222238142282,0.05957876669624657,-0.4765391051769257,-0.513981819152832,-0.7132553458213806,-0.6995887756347656,-29.50550270080566,-14.22690582275391,2,10.3.35.51,10.83.46.32,1,0
2015-02-27 20:24:50.424,68,1425097487.0736,37.78762164063544,-122.3967719079203,16.19745,0,-1,10,200,-9999,1425097490.41764,0.754425048828125,-37.60601806640625,-14.39899444580078,221.736083984375,207.9627838134766,10,139517.7138515833,-0.4801177978515625,-0.4919891357421875,-0.6886749267578125,139517.6703235417,0.2214293277829653,0.1829967174598138,0.4231059897608129,139517.6703235417,-3.069779208879971,-0.5781173099971886,0.5417059814293793,0.2144834250211716,0.1943486481904984,0.4568478465080261,0.2533085644245148,-0.05035000666975975,-0.05693154036998749,XTrueNorthZVertical,0.2652745420765563,0.2661479870538781,0.9257107161495737,0.04306178476161245,-0.4682133495807648,-0.515598475933075,-0.7175893187522888,-1.187385559082031,-29.75863456726074,-13.65586471557617,2,10.3.35.51,10.83.46.32,1,0
2015-02-27 20:24:50.494,69,1425097487.0736,37.78762164063544,-122.3967719079203,16.19745,0,-1,10,200,-9999,1425097490.476496,0.9930572509765625,-37.53805541992188,-14.33242797851562,221.3328399658203,207.5595397949219,10,139517.7627487917,-0.511627197265625,-0.5316009521484375,-0.718414306640625,139517.7221059167,0.06845016423387063,0.2799869138316275,0.2704772982111726,139517.7221059167,-3.050202188425058,-0.5759053214833272,0.5375844559401953,0.06147534027695656,0.2913408577442169,0.3042072951793671,-0.01233955845236778,0.02007352560758591,0.03172450512647629,XTrueNorthZVertical,0.2618751051541461,0.2668739663825255,0.926878187564963,0.03311377012396625,-0.4677782356739044,-0.512062668800354,-0.7203994393348694,-1.491279602050781,-29.85546493530273,-13.4125394821167,2,10.3.35.51,10.83.46.32,1,0
2015-02-27 20:24:50.523,70,1425097487.0736,37.78762164063544,-122.3967719079203,16.19745,0,-1,10,200,-9999,1425097490.476496,0.9930572509765625,-37.53805541992188,-14.33242797851562,221.3328399658203,207.5595397949219,10,139517.8117742084,-0.497467041015625,-0.4775238037109375,-0.7405548095703125,139517.8256690417,-0.081839472930353,0.2817563180598762,-0.4632233157895485,139517.7738873333,-3.043006373902394,-0.5632757480992925,0.5332925140062098,-0.08349073678255081,0.4657031893730164,-0.07545246928930283,-0.0288811232894659,-0.02342791669070721,0.005261824931949377,XTrueNorthZVertical,0.2553098462015435,0.2660193455547923,0.9291367564312795,0.02748561549747788,-0.4598121047019958,-0.5083714127540588,-0.7281011939048767,-1.820576667785645,-29.86405944824219,-13.35261535644531,2,10.3.35.51,10.83.46.32,1,0
2015-02-27 20:24:50.561,71,1425097487.0736,37.78762164063544,-122.3967719079203,16.19745,0,-1,10,200,-9999,1425097490.546947,1.725990295410156,-37.79293823242188,-14.21592712402344,220.9371490478516,207.1638488769531,10,139517.8607832917,-0.52117919921875,-0.5328369140625,-0.73443603515625,139517.8256690417,-0.081839472930353,0.2817563180598762,-0.4632233157895485,139517.8256690417,-3.057861751513378,-0.536217945042036,0.5369515964411787,-0.08878689259290695,0.2931086719036102,-0.4294865131378174,-0.07518330961465836,0.01882792450487614,-0.003913618624210358,XTrueNorthZVertical,0.2444892099439238,0.2662512372325427,0.9318561152553009,0.0312964269878394,-0.4389921128749847,-0.5115189552307129,-0.7386705875396729,-1.358234405517578,-29.83395767211914,-13.47438716888428,2,10.3.35.51,10.83.46.32,1,0
2015-02-27 20:24:50.620,72,1425097487.0736,37.78762164063544,-122.3967719079203,16.19745,0,-1,10,200,-9999,1425097490.599939,2.595283508300781,-37.50407409667969,-14.23257446289062,221.7431793212891,207.9698791503906,10,139517.909828125,-0.3902130126953125,-0.6028594970703125,-0.7988739013671875,139517.8774510417,-0.05462942344079541,0.419715253060924,-0.7786736816449982,139517.8774510417,-3.092218350647203,-0.5018747463392981,0.5497302263079584,-0.06157678365707397,0.4310675263404846,-0.7449371814727783,-0.09946707636117935,-0.02275457046926022,0.02029804885387421,XTrueNorthZVertical,0.2324280808734908,0.268735649216754,0.9336971455891855,0.04436168806405243,-0.4101917445659637,-0.5224572420120239,-0.7475166916847229,-0.15350341796875,-29.7991828918457,-13.6181526184082,2,10.3.35.51,10.83.46.32,1,0
2015-02-27 20:24:50.663,73,1425097487.0736,37.78762164063544,-122.3967719079203,16.19745,0,-1,10,200,-9999,1425097490.650582,4.146385192871094,-37.58903503417969,-14.54880523681641,223.5377197265625,209.7644195556641,10,139517.958844375,-0.221832275390625,-0.6748046875,-0.8409423828125,139517.92923275,-0.1221922223994516,0.4215818626689605,-0.7834924053213876,139517.92923275,-3.135066832537027,-0.4552997091932438,0.5638989600692055,-0.1291387230157852,0.4329341351985931,-0.7497565150260925,0.03069357946515083,-0.09451223909854889,-0.0629427433013916,XTrueNorthZVertical,0.2158917286880928,0.2717561211509095,0.9359329803918004,0.05973951208178827,-0.3716512322425842,-0.5344855785369873,-0.7590787410736084,0.7071456909179688,-29.76530838012695,-13.67461681365967,2,10.3.35.51,10.83.46.32,1,0
2015-02-27 20:24:50.718,74,1425097487.0736,37.78762164063544,-122.3967719079203,16.19745,0,-1,10,200,-9999,1425097490.702776,5.373630523681641,-37.38511657714844,-15.01482391357422,225.3167572021484,211.54345703125,10,139518.0079823333,-0.2583770751953125,-0.663482666015625,-0.775115966796875,139517.9810142083,-0.2543329493670033,-0.05967531475816855,-0.7772219925347961,139517.9810142083,3.104881824539125,-0.4252141925110705,0.5697397154439058,-0.2612794041633606,-0.04832318052649498,-0.7434864640235901,0.1477094739675522,-0.09706171602010727,-0.02490372397005558,XTrueNorthZVertical,0.2075129010495642,0.2709417332697122,0.9368433207384319,0.07650847303635197,-0.3473554849624634,-0.5394129157066345,-0.7670579552650452,2.331612586975098,-29.58661079406738,-13.88037872314453,2,10.3.35.51,10.83.46.32,1,0
2015-02-27 20:24:50.798,75,1425097487.0736,37.78762164063544,-122.3967719079203,16.19745,0,-1,10,200,-9999,1425097490.754361,6.822463989257812,-36.85835266113281,-15.13133239746094,227.2964019775391,213.5231018066406,10,139518.056884625,-0.34759521484375,-0.8328399658203125,-0.760772705078125,139518.0327965,-0.258221164558519,0.380427768027857,-0.7112629491845855,139518.0327965,3.057146183131375,-0.3911082222027529,0.5705663756390897,-0.2653083205223083,0.3919322490692139,-0.6775460839271545,-0.0328410267829895,-0.1742161512374878,0.001920909038744867,XTrueNorthZVertical,0.1979432091752764,0.2679487040435319,0.9381452777948257,0.09436840934244203,-0.3208271861076355,-0.5401087999343872,-0.7780439853668213,3.329337120056152,-29.31520843505859,-14.24790859222412,2,10.3.35.51,10.83.46.32,1,0
2015-02-27 20:24:50.817,76,1425097487.0736,37.78762164063544,-122.3967719079203,16.19745,0,-1,10,200,-9999,1425097490.806255,8.475833892822266,-36.29759216308594,-15.24784088134766,228.8582916259766,215.0849914550781,10,139518.1060294583,-0.2852783203125,-0.69134521484375,-0.7701873779296875,139518.0845779583,0.08540278246887903,0.8631550103767098,-0.3045050400913331,139518.0845779583,3.027928712496555,-0.3400652514303283,0.575475444790655,0.07831568270921707,0.8746593594551086,-0.2707885503768921,-0.01244169846177101,-0.2362685948610306,0.01697982288897038,XTrueNorthZVertical,0.1778827017118015,0.2700232800469946,0.9408070008600187,0.101623524761335,-0.2798251509666443,-0.5442337393760681,-0.7908903360366821,4.482991695404053,-29.03361320495605,-14.50589370727539,2,10.3.35.51,10.83.46.32,1,0
2015-02-27 20:24:50.861,77,1425097487.0736,37.78762164063544,-122.3967719079203,16.19745,0,-1,10,200,-9999,1425097490.857216,9.958755493164062,-36.51849365234375,-14.63201904296875,229.2061309814453,215.4328308105469,10,139518.1549295833,-0.213653564453125,-0.53082275390625,-0.7171478271484375,139518.1363596667,0.3470053626634716,0.6946133986816282,0.02587660473175492,139518.1363596667,3.030453086268888,-0.3040231619859866,0.5900525269427428,0.3399266004562378,0.7061196565628052,0.05958539247512817,-0.02364193089306355,-0.08025304228067398,0.09167961776256561,XTrueNorthZVertical,0.1606239134816148,0.2789213182461381,0.9418558538419792,0.09649035297402792,-0.2487427145242691,-0.5564046502113342,-0.7928057312965393,5.622705936431885,-29.03289794921875,-14.10478019714355,2,10.3.35.51,10.83.46.32,1,0
2015-02-27 20:24:50.913,78,1425097487.0736,37.78762164063544,-122.3967719079203,16.19745,0,-1,10,200,-9999,1425097490.857216,9.958755493164062,-36.51849365234375,-14.63201904296875,229.2061309814453,215.4328308105469,10,139518.2039597083,-0.1260833740234375,-0.298065185546875,-0.5765838623046875,139518.1881416667,0.6878670790082394,0.6166743914838052,0.3305888387558962,139518.1881416667,3.051104631392181,-0.2801798352480235,0.6127263593031634,0.6807883381843567,0.6281805038452148,0.3642973005771637,0.07281141728162766,0.2017631977796555,0.08534638583660126,XTrueNorthZVertical,0.1465011824277279,0.292311682988232,0.941225508281277,0.08476913992890434,-0.2262232750654221,-0.5751000046730042,-0.7861825823783875,5.952153205871582,-29.32307434082031,-13.34908390045166,2,10.3.35.51,10.83.46.32,1,0
2015-02-27 20:24:50.962,79,1425097487.0736,37.78762164063544,-122.3967719079203,16.19745,0,-1,10,200,-9999,1425097490.913199,10.41897583007812,-36.70542907714844,-13.74988555908203,228.5128021240234,214.739501953125,10,139518.252971625,-0.23040771484375,-0.3940887451171875,-0.502960205078125,139518.2399232083,0.8598929043574718,-0.1455366935667592,0.8596004892697811,139518.1881416667,3.051104631392181,-0.2801798352480235,0.6127263593031634,0.6807883381843567,0.6281805038452148,0.3642973005771637,0.07281141728162766,0.2017631977796555,0.08534638583660126,XTrueNorthZVertical,0.1465011824277279,0.292311682988232,0.941225508281277,0.08476913992890434,-0.2262232750654221,-0.5751000046730042,-0.7861825823783875,5.952153205871582,-29.32307434082031,-13.34908390045166,2,10.3.35.51,10.83.46.32,1,0
2015-02-27 20:24:51.013,80,1425097487.0736,37.78762164063544,-122.3967719079203,16.19745,0,-1,10,200,-9999,1425097490.987245,9.225814819335938,-37.41911315917969,-11.45304870605469,225.8435516357422,212.0702514648438,10,139518.3020260417,-0.2342681884765625,-0.6070098876953125,-0.4420013427734375,139518.2917048333,0.6134104212518041,-0.82632455776535,0.6680603510329931,139518.2917048333,-3.113141976987571,-0.3692373130406671,0.662677892194985,0.6063318252563477,-0.8148185610771179,0.701768159866333,0.01498672738671303,0.06725653260946274,0.2736215591430664,XTrueNorthZVertical,0.169020378903882,0.3222181307525762,0.9302936851089647,0.0464890112140097,-0.2845179736614227,-0.6152301430702209,-0.7352151870727539,4.122500896453857,-30.62861251831055,-10.87942886352539,2,10.3.35.51,10.83.46.32,1,0
2015-02-27 20:24:51.099,81,1425097487.0736,37.78762164063544,-122.3967719079203,16.19745,0,-1,10,200,-9999,1425097491.039717,8.049705505371094,-37.80992126464844,-10.13819122314453,224.4189910888672,210.6456909179688,10,139518.3510259583,-0.29931640625,-0.689788818359375,-0.4911346435546875,139518.3434871667,0.5070911715814427,-1.704200191067473,0.7613586071856301,139518.2917048333,-3.113141976987571,-0.3692373130406671,0.662677892194985,0.6063318252563477,-0.8148185610771179,0.701768159866333,0.01498672738671303,0.06725653260946274,0.2736215591430664,XTrueNorthZVertical,0.169020378903882,0.3222181307525762,0.9302936851089647,0.0464890112140097,-0.2845179736614227,-0.6152301430702209,-0.7352151870727539,4.122500896453857,-30.62861251831055,-10.87942886352539,2,10.3.35.51,10.83.46.32,1,0
2015-02-27 20:24:51.112,82,1425097487.0736,37.78762164063544,-122.3967719079203,16.19745,0,-1,10,200,-9999,1425097491.093419,6.379283905029297,-38.45567321777344,-10.07161712646484,224.4093780517578,210.6360778808594,10,139518.4001420834,-0.6534423828125,-0.7867889404296875,-0.4450225830078125,139518.3952685834,0.1121590293086871,-1.624111213921629,0.4261095028382042,139518.3434871667,-3.058017029208297,-0.4707940134752514,0.6701383277317965,0.5000126957893372,-1.692694306373596,0.7950660586357117,0.112425372004509,-0.03572016954421997,0.2062538713216782,XTrueNorthZVertical,0.2067079210719967,0.328688133558166,0.9207453033445112,0.0382624304107387,-0.3554978668689728,-0.6210944056510925,-0.6984719038009644,2.685917854309082,-31.01364517211914,-10.21804809570312,2,10.3.35.51,10.83.46.32,1,0
2015-02-27 20:24:51.161,83,1425097487.0736,37.78762164063544,-122.3967719079203,16.19745,0,-1,10,200,-9999,1425097491.093419,6.379283905029297,-38.45567321777344,-10.07161712646484,224.4093780517578,210.6360778808594,10,139518.4491670417,-0.6986083984375,-0.67242431640625,-0.54608154296875,139518.4470503333,-0.09979823342519334,-0.9334709852702899,0.1582972299298739,139518.3952685834,-3.01338458206921,-0.5845551571578328,0.6662416603179006,0.1050810366868973,-1.612605333328247,0.4598161280155182,-0.1876095086336136,-0.1388459801673889,0.1941594928503036,XTrueNorthZVertical,0.2516760311446165,0.3299261690330009,0.9091248700856159,0.03605343137739166,-0.4338199496269226,-0.6180357336997986,-0.6556158065795898,0.8654594421386719,-31.27877807617188,-9.713796615600586,2,10.3.35.51,10.83.46.32,1,0
2015-02-27 20:24:51.208,84,1425097487.0736,37.78762164063544,-122.3967719079203,16.19745,0,-1,10,200,-9999,1425097491.171209,4.12933349609375,-39.20341491699219,-9.77203369140625,224.6154479980469,210.8421478271484,10,139518.4980888334,-0.72698974609375,-0.6670379638671875,-0.5947418212890625,139518.4988325417,-0.4087331756737642,-0.6441550181401148,-0.04171895110830928,139518.4470503333,-2.996863457579477,-0.6544238620954085,0.6573585273145726,-0.1068761572241783,-0.9219652414321899,0.1920035481452942,-0.2065460979938507,-0.09804795682430267,0.1003211140632629,XTrueNorthZVertical,0.2813029387116511,0.3268606128592997,0.9014072339385684,0.0386752637278911,-0.4818541705608368,-0.6110279560089111,-0.6280615925788879,-0.8869724273681641,-31.34800338745117,-9.48603343963623,2,10.3.35.51,10.83.46.32,1,0
2015-02-27 20:24:51.248,85,1425097487.0736,37.78762164063544,-122.3967719079203,16.19745,0,-1,10,200,-9999,1425097491.221235,2.987319946289062,-38.94850158691406,-9.955108642578125,224.6277770996094,210.8544769287109,10,139518.5471455417,-0.827850341796875,-0.70037841796875,-0.6135101318359375,139518.4988325417,-0.4087331756737642,-0.6441550181401148,-0.04171895110830928,139518.4988325417,-3.007166250245424,-0.6860153584758181,0.6443375287442011,-0.4158110022544861,-0.6326494216918945,-0.008013004437088966,-0.2205406278371811,-0.06636903434991837,0.02389064058661461,XTrueNorthZVertical,0.2982707984092597,0.3189330649174473,0.8984303291537429,0.04625100607699863,-0.5064491033554077,-0.6006689071655273,-0.618632435798645,-1.588346481323242,-31.2202262878418,-9.81037425994873,2,10.3.35.51,10.83.46.32,1,0
2015-02-27 20:24:51.306,86,1425097487.0736,37.78762164063544,-122.3967719079203,16.19745,0,-1,10,200,-9999,1425097491.272274,2.714599609375,-38.74459838867188,-10.88716125488281,225.7734680175781,212.0001678466797,10,139518.5961175417,-0.86566162109375,-0.7698516845703125,-0.65289306640625,139518.6023956667,-0.5862120896710429,0.6305428028603928,-0.326784779454827,139518.5506140833,-3.027400710966673,-0.7014390412104646,0.630657317339047,-0.4620420932769775,-0.322700709104538,-0.1992365568876266,-0.3066659569740295,-0.1107026562094688,0.003457698971033096,XTrueNorthZVertical,0.309481119972641,0.3094148041576961,0.8974471840705768,0.05542966841049851,-0.5211843848228455,-0.5896757841110229,-0.6169678568840027,-1.766824722290039,-31.10002899169922,-10.15556144714355,2,10.3.35.51,10.83.46.32,1,0
2015-02-27 20:24:51.346,87,1425097487.0736,37.78762164063544,-122.3967719079203,16.19745,0,-1,10,200,-9999,1425097491.3245,2.595283508300781,-38.42169189453125,-11.66940307617188,226.3566589355469,212.5833587646484,10,139518.64523875,-0.7791748046875,-0.887451171875,-0.66864013671875,139518.6023956667,-0.5862120896710429,0.6305428028603928,-0.326784779454827,139518.6023956667,-3.059859027273341,-0.6722480929481468,0.6181803658165571,-0.5932897925376892,0.642048180103302,-0.2930794954299927,-0.3581640720367432,-0.1902984529733658,-0.0152691388502717,XTrueNorthZVertical,0.3022053235710598,0.2997665403865316,0.9026510122491962,0.06350665117350811,-0.5074975490570068,-0.5795532464981079,-0.6376239061355591,-1.59394359588623,-30.82138061523438,-10.99867057800293,2,10.3.35.51,10.83.46.32,1,0
2015-02-27 20:24:51.406,88,1425097487.0736,37.78762164063544,-122.3967719079203,16.19745,0,-1,10,200,-9999,1425097491.375844,3.583892822265625,-37.91191101074219,-12.86774444580078,226.4805908203125,212.7072906494141,10,139518.694162625,-0.5853729248046875,-0.8058013916015625,-0.5287628173828125,139518.654177625,-0.8642865875238845,1.300415701331294,-0.4691871987346719,139518.654177625,-3.105564631569515,-0.5924383221533441,0.6000580131135076,-0.8713642358779907,1.311920881271362,-0.4354822337627411,-0.3183376789093018,-0.3227608203887939,0.01601594127714634,XTrueNorthZVertical,0.2737289804749069,0.2876532749293363,0.9151262574477773,0.06979937383667469,-0.4608371257781982,-0.5646903514862061,-0.6846560835838318,-0.7829771041870117,-30.51900482177734,-11.89311599731445,2,10.3.35.51,10.83.46.32,1,0
2015-02-27 20:24:51.443,89,1425097487.0736,37.78762164063544,-122.3967719079203,16.19745,0,-1,10,200,-9999,1425097491.42797,5.134990692138672,-37.01127624511719,-14.11602783203125,227.4637603759766,213.6904602050781,10,139518.7432800833,-0.3922119140625,-0.6278839111328125,-0.421295166015625,139518.7059594583,-1.099984067163058,1.086174511646562,-0.4327753950466726,139518.7059594583,3.124140567309581,-0.5017149763267709,0.5675225276938297,-1.107061624526978,1.097679615020752,-0.3990707695484161,-0.1483112275600433,-0.2291179895401001,0.233256459236145,XTrueNorthZVertical,0.2406650438058817,0.2691156542294211,0.9293189802946437,0.07761001991032003,-0.4055370390415192,-0.5375446081161499,-0.7393141984939575,0.5128746032714844,-30.03511619567871,-13.0804271697998,2,10.3.35.51,10.83.46.32,1,0
2015-02-27 20:24:51.506,90,1425097487.0736,37.78762164063544,-122.3967719079203,16.19745,0,-1,10,200,-9999,1425097491.479776,6.277015686035156,-35.94073486328125,-15.59732818603516,228.4664306640625,214.6931304931641,10,139518.7923079167,-0.131011962890625,-0.6597747802734375,-0.23553466796875,139518.7577410417,-0.857814307126665,0.8490919219244374,-0.4382335437007899,139518.7577410417,3.078379355250633,-0.4300115737479608,0.5288164369285063,-0.8648918271064758,0.8605968952178955,-0.4045293033123016,0.01914753578603268,-0.08505728840827942,0.3615224063396454,XTrueNorthZVertical,0.2139041302724855,0.2486853714271697,0.9407896490392443,0.08553026563088924,-0.3599373400211334,-0.5045117735862732,-0.7848012447357178,2.111052513122559,-29.09549140930176,-14.91525077819824,2,10.3.35.51,10.83.46.32,1,0
2015-02-27 20:24:51.542,91,1425097487.0736,37.78762164063544,-122.3967719079203,16.19745,0,-1,10,200,-9999,1425097491.532284,8.441741943359375,-34.83616638183594,-16.11328125,229.8041687011719,216.0308685302734,10,139518.8413075834,0.0125579833984375,-0.6604461669921875,-0.6497650146484375,139518.8095232083,-0.2733407290152258,1.372127172636076,-1.434723975110061,139518.8095232083,3.017236145922902,-0.3475355838313064,0.5281272127855849,-0.2804181575775146,1.383632063865662,-1.401020050048828,0.2205241024494171,-0.1880542188882828,0.5148410797119141,XTrueNorthZVertical,0.182553265533278,0.2462070445021484,0.9461582106677867,0.1041202086741958,-0.2941782772541046,-0.5039166212081909,-0.8121128082275391,3.425314903259277,-28.52302551269531,-15.75351047515869,2,10.3.35.51,10.83.46.32,1,0
2015-02-27 20:24:51.600,92,1425097487.0736,37.78762164063544,-122.3967719079203,16.19745,0,-1,10,200,-9999,1425097491.583435,11.08372497558594,-34.00349426269531,-16.29635620117188,232.5492401123047,218.7759399414062,10,139518.8903325417,-0.3106689453125,-0.6778411865234375,-0.7026519775390625,139518.8613045833,0.2309264265462969,0.7775215981574299,-2.207142423986681,139518.8613045833,2.914338526970265,-0.2347448066374517,0.5524358621301932,0.2238490730524063,0.7890263795852661,-2.173438787460327,0.1138438209891319,-0.2125729024410248,0.08502807468175888,XTrueNorthZVertical,0.1426464925311425,0.2563218091621569,0.9456918158759318,0.1400645518661207,-0.1979960352182388,-0.5247623324394226,-0.8279021978378296,6.122536182403564,-28.04231262207031,-15.7991189956665,2,10.3.35.51,10.83.46.32,1,0
2015-02-27 20:24:51.639,93,1425097487.0736,37.78762164063544,-122.3967719079203,16.19745,0,-1,10,200,-9999,1425097491.583435,11.08372497558594,-34.00349426269531,-16.29635620117188,232.5492401123047,218.7759399414062,10,139518.9392344583,-0.5034942626953125,-0.34661865234375,-0.6065521240234375,139518.9130862083,0.4976310907572633,0.7073475697499511,-2.596053159034768,139518.9130862083,2.772252362565824,-0.1322406286460326,0.5940062449863518,0.4905537962913513,0.7188522219657898,-2.562349796295166,-0.2960956394672394,0.01804426498711109,0.2155431061983109,XTrueNorthZVertical,0.1157258331105689,0.2754500321570679,0.9343545842477093,0.1942068567754447,-0.1092693582177162,-0.5596855282783508,-0.8214696049690247,10.4985466003418,-27.12166786193848,-15.08856010437012,2,10.3.35.51,10.83.46.32,1,0
2015-02-27 20:24:51.698,94,1425097487.0736,37.78762164063544,-122.3967719079203,16.19745,0,-1,10,200,-9999,1425097491.686755,18.51537322998047,-31.38655090332031,-12.934326171875,242.5154724121094,228.7421722412109,10,139518.9883648333,-0.281829833984375,-0.096923828125,-0.5913848876953125,139518.964868375,1.426900140459626,2.658769004809479,-1.810308784695609,139518.964868375,2.640351096350618,0.03220133498192079,0.6486238030561849,1.419822931289673,2.670273542404175,-1.776605844497681,-0.47861447930336,0.391825258731842,0.176461860537529,XTrueNorthZVertical,0.0642343994901043,0.312446094778114,0.9194108045360264,0.2300763639973477,0.02565732039511204,-0.6040902733802795,-0.7965027689933777,14.08969306945801,-26.13967132568359,-13.84438705444336,2,10.3.35.51,10.83.46.32,1,0
2015-02-27 20:24:51.737,95,1425097487.0736,37.78762164063544,-122.3967719079203,16.19745,0,-1,10,200,-9999,1425097491.686755,18.51537322998047,-31.38655090332031,-12.934326171875,242.5154724121094,228.7421722412109,10,139519.0372699584,-0.225677490234375,-0.1594696044921875,-0.57220458984375,139519.0166499583,2.262005140338967,4.189430695028555,-0.5648551356252614,139519.0166499583,2.555414326761256,0.2612661241093819,0.7372537978334842,2.25492787361145,4.200935363769531,-0.5311525464057922,-0.4835242629051208,0.5233468413352966,0.1196585893630981,XTrueNorthZVertical,-0.01311179049064829,0.377135451397425,0.8989954518647664,0.2222703101262667,0.191226914525032,-0.6722573637962341,-0.7151938676834106,17.54129028320312,-25.68056869506836,-10.30924129486084,2,10.3.35.51,10.83.46.32,1,0
2015-02-27 20:24:51.796,96,1425097487.0736,37.78762164063544,-122.3967719079203,16.19745,0,-1,10,200,-9999,1425097491.790893,24.20843124389648,-30.57084655761719,-1.68316650390625,243.4395599365234,229.666259765625,10,139519.0862960417,0.38995361328125,-0.3880767822265625,-0.2436370849609375,139519.0684315833,1.841248591291822,5.394945449863203,0.3069721925251825,139519.0684315833,2.486118102713375,0.5639225026262678,0.8354984114625867,1.834140419960022,5.406536102294922,0.3406962454319,-0.1897273659706116,0.5378193259239197,0.1394685804843903,XTrueNorthZVertical,-0.1153365501193906,0.4508056154800092,0.8675205897932782,0.1757264480115114,0.3585506081581116,-0.7416309714317322,-0.5669435262680054,19.97132873535156,-25.89781188964844,-1.979442596435547,2,10.3.35.51,10.83.46.32,1,0
2015-02-27 20:24:51.836,97,1425097487.0736,37.78762164063544,-122.3967719079203,16.19745,0,-1,10,200,-9999,1425097491.790893,24.20843124389648,-30.57084655761719,-1.68316650390625,243.4395599365234,229.666259765625,10,139519.1354029167,0.7104949951171875,-0.57568359375,-0.0330657958984375,139519.120213875,0.698909876468253,3.941069351773836,1.545694435624246,139519.0684315833,2.486118102713375,0.5639225026262678,0.8354984114625867,1.834140419960022,5.406536102294922,0.3406962454319,-0.1897273659706116,0.5378193259239197,0.1394685804843903,XTrueNorthZVertical,-0.1153365501193906,0.4508056154800092,0.8675205897932782,0.1757264480115114,0.3585506081581116,-0.7416309714317322,-0.5669435262680054,19.97132873535156,-25.89781188964844,-1.979442596435547,2,10.3.35.51,10.83.46.32,1,0
2015-02-27 20:24:51.895,98,1425097487.0736,37.78762164063544,-122.3967719079203,16.19745,0,-1,10,200,-9999,1425097491.842648,23.20276641845703,-30.55384826660156,5.723297119140625,237.0824737548828,223.3091735839844,10,139519.18431325,0.4267120361328125,-0.452789306640625,-0.1161651611328125,139519.171995375,0.3502144717770171,2.153160415006884,1.849552593886798,139519.171995375,2.567048198435295,0.8634625970276247,0.9954233899429,0.3431063592433929,2.164750576019287,1.883276104927063,0.2332149595022202,0.3003541827201843,0.2386173456907272,XTrueNorthZVertical,-0.2297520674160148,0.5200171416387795,0.8219511145804002,0.03453268231271424,0.413605123758316,-0.8389894366264343,-0.3535923063755035,16.15765762329102,-27.19580459594727,8.53154182434082,2,10.3.35.51,10.83.46.32,1,0
2015-02-27 20:24:51.935,99,1425097487.0736,37.78762164063544,-122.3967719079203,16.19745,0,-1,10,200,-9999,1425097491.89476,20.01533508300781,-31.62443542480469,10.99934387207031,229.1037750244141,215.3304748535156,10,139519.2334222083,0.44610595703125,-0.763580322265625,0.4382781982421875,139519.2237770833,0.8786753805774736,2.898367482813402,1.872603851018088,139519.171995375,2.567048198435295,0.8634625970276247,0.9954233899429,0.3431063592433929,2.164750576019287,1.883276104927063,0.2332149595022202,0.3003541827201843,0.2386173456907272,XTrueNorthZVertical,-0.2297520674160148,0.5200171416387795,0.8219511145804002,0.03453268231271424,0.413605123758316,-0.8389894366264343,-0.3535923063755035,16.15765762329102,-27.19580459594727,8.53154182434082,2,10.3.35.51,10.83.46.32,1,0
2015-02-27 20:24:51.993,100,1425097487.0736,37.78762164063544,-122.3967719079203,16.19745,0,-1,10,200,-9999,1425097491.946328,15.63475036621094,-32.4910888671875,14.47787475585938,219.5704040527344,205.7971038818359,10,139519.2823270833,0.7028961181640625,-0.9888763427734375,0.2017669677734375,139519.275559125,0.5226112754660975,2.308263982157535,2.145014071548441,139519.2237770833,2.63231975129565,0.9325408281591704,1.088642631100063,0.8715673685073853,2.909957647323608,1.90632688999176,0.001236968440935016,0.2041746079921722,0.6440001726150513,XTrueNorthZVertical,-0.2556706687288532,0.5445189002981576,0.7981575566419669,-0.03280506261118669,0.3724049925804138,-0.8859983086585999,-0.2762633562088013,11.6674165725708,-28.47411727905273,11.25010681152344,2,10.3.35.51,10.83.46.32,1,0
2015-02-27 20:24:52.031,101,1425097487.0736,37.78762164063544,-122.3967719079203,16.19745,0,-1,10,200,-9999,1425097491.997892,10.45305252075195,-33.68060302734375,16.67484283447266,208.0616607666016,194.2883605957031,10,139519.331331875,0.971038818359375,-1.273406982421875,0.0939178466796875,139519.327340875,0.5568344933702697,0.4972143060466658,1.77600407406208,139519.275559125,2.698049543778995,1.01124859434728,1.199105895724226,0.5155032873153687,2.319854021072388,2.178736686706543,0.2973609864711761,-0.00898961815983057,0.4779390692710876,XTrueNorthZVertical,-0.2814972368573443,0.5695330558693463,0.7647110542989002,-0.1077422309711493,0.3078025877475739,-0.9317147135734558,-0.1927828043699265,7.504603862762451,-28.84365272521973,13.60857963562012,2,10.3.35.51,10.83.46.32,1,0
2015-02-27 20:24:52.095,102,1425097487.0736,37.78762164063544,-122.3967719079203,16.19745,0,-1,10,200,-9999,1425097492.04994,5.527023315429688,-34.34333801269531,18.22271728515625,199.1161041259766,185.3428039550781,10,139519.38035025,0.8084259033203125,-1.099563598632812,0.1009979248046875,139519.379122375,1.096066557199552,-0.07379140011613355,0.1662518257898316,139519.327340875,2.822478439025611,0.9624229641529094,1.291378341799563,0.5497265458106995,0.5088042616844177,1.809726476669312,0.766943097114563,-0.2827871739864349,0.2247501611709595,XTrueNorthZVertical,-0.2802296169727538,0.5853699588574415,0.7432411981652817,-0.1624988473071381,0.2263125032186508,-0.9612160921096802,-0.157626748085022,3.206096172332764,-29.02585983276367,14.85561084747314,2,10.3.35.51,10.83.46.32,1,0
2015-02-27 20:24:52.129,103,1425097487.0736,37.78762164063544,-122.3967719079203,16.19745,0,-1,10,200,-9999,1425097492.102159,1.981651306152344,-34.10542297363281,19.38777923583984,193.2897186279297,179.5164184570312,10,139519.4293731667,0.2817840576171875,-1.137893676757812,0.2243194580078125,139519.379122375,1.096066557199552,-0.07379140011613355,0.1662518257898316,139519.379122375,2.770158656878598,1.026837690314164,1.357239653670386,1.088958740234375,-0.06220154464244843,0.1999738961458206,0.6597627997398376,-0.1513025015592575,0.2528411746025085,XTrueNorthZVertical,-0.2747974407675646,0.6079841821956226,0.7233454541981619,-0.1778002689147103,0.1813474595546722,-0.9772832989692688,-0.1096832007169724,-0.2556858062744141,-28.59613037109375,15.98951721191406,2,10.3.35.51,10.83.46.32,1,0
2015-02-27 20:24:52.192,104,1425097487.0736,37.78762164063544,-122.3967719079203,16.19745,0,-1,10,200,-9999,1425097492.154751,0.92486572265625,-33.11984252929688,20.91900634765625,192.1047210693359,178.3314208984375,10,139519.4783917917,0.6885833740234375,-1.6060791015625,-0.0322418212890625,139519.482686125,1.05337395439671,0.01426122763737432,-0.4866418228351603,139519.430904625,2.424184941995145,1.366813550524887,1.378150741588383,1.495011806488037,0.1765062361955643,-0.1798600852489471,0.09429729729890823,-0.156392514705658,0.2631029486656189,XTrueNorthZVertical,-0.2832611790673369,0.6327490529005787,0.7013525402715034,-0.1658201909578054,0.1874867528676987,-0.9815011620521545,-0.0387834794819355,-0.4530754089355469,-27.68967819213867,17.50843048095703,2,10.3.35.51,10.83.46.32,1,0
2015-02-27 20:24:52.228,105,1425097487.0736,37.78762164063544,-122.3967719079203,16.19745,0,-1,10,200,-9999,1425097492.206514,1.146453857421875,-31.36952209472656,22.96617126464844,193.0616302490234,179.288330078125,10,139519.5274107083,1.085922241210938,-2.235977172851562,0.3284759521484375,139519.482686125,1.05337395439671,0.01426122763737432,-0.4866418228351603,139519.482686125,2.012418725624117,1.766340582226459,1.35804238238256,1.046266198158264,0.02585083805024624,-0.4529204666614532,0.4814550578594208,-0.6286259889602661,-0.0732688382267952,XTrueNorthZVertical,-0.2947396189088173,0.65851504554866,0.6769435358119472,-0.1457186403371971,0.2071283310651779,-0.9774531126022339,0.0410270169377327,-0.2899713516235352,-26.36076927185059,19.45493698120117,2,10.3.35.51,10.83.46.32,1,0
2015-02-27 20:24:52.293,106,1425097487.0736,37.78762164063544,-122.3967719079203,16.19745,0,-1,10,200,-9999,1425097492.257302,2.527107238769531,-29.82313537597656,24.38089752197266,196.763427734375,182.9901275634766,10,139519.5764149583,0.157928466796875,-1.117889404296875,0.8479156494140625,139519.534467875,-0.3581719971141739,-0.193691439765354,-1.220124323942604,139519.534467875,1.914677859548089,1.824676475563004,1.326770532269542,-0.3652796149253845,-0.1821019202470779,-1.186403274536133,0.8520560264587402,-1.265604019165039,0.2677925527095795,XTrueNorthZVertical,-0.2926354347414734,0.6668629605029263,0.6746060644362629,-0.1206852644548167,0.2338662147521973,-0.9703731536865234,0.06068341061472893,0.816988468170166,-24.89329719543457,21.28673362731934,2,10.3.35.51,10.83.46.32,1,0
2015-02-27 20:24:52.326,107,1425097487.0736,37.78762164063544,-122.3967719079203,16.19745,0,-1,10,200,-9999,1425097492.308355,3.9248046875,-29.55128479003906,24.846923828125,200.2279510498047,186.4546508789062,10,139519.625422375,0.648162841796875,-0.9756011962890625,0.1392364501953125,139519.586249875,0.04594245828106595,0.3455853651702414,0.2725311280438417,139519.586249875,1.983864383403419,1.738779146603011,1.3092184431435,0.03883492574095726,0.3571747541427612,0.3062518239021301,-0.02478605695068836,-0.1097004637122154,0.6596283912658691,XTrueNorthZVertical,-0.292351590180085,0.6604158825829732,0.6829606987347803,-0.1092981002707707,0.2549648880958557,-0.9659831523895264,0.04323717951774597,2.349844932556152,-24.96506500244141,21.08773612976074,2,10.3.35.51,10.83.46.32,1,0
2015-02-27 20:24:52.394,108,1425097487.0736,37.78762164063544,-122.3967719079203,16.19745,0,-1,10,200,-9999,1425097492.360102,3.6009521484375,-29.8741455078125,24.73041534423828,198.8052978515625,185.0319976806641,10,139519.6744260833,0.277191162109375,-1.075576782226562,0.3418426513671875,139519.6380316667,-0.3271690736001254,-0.06336672234512737,0.5942196824366931,139519.6380316667,2.009982429840226,1.743882672303412,1.337505883532175,-0.3342765271663666,-0.05177745595574379,0.6279400587081909,0.3369105458259583,-0.02974405139684677,0.1392625421285629,XTrueNorthZVertical,-0.2932238467629439,0.6587314149745511,0.6805651929951745,-0.1300911130184487,0.2277256846427917,-0.97291100025177,0.03981460258364677,1.964325428009033,-25.04325103759766,21.03439712524414,2,10.3.35.51,10.83.46.32,1,0
2015-02-27 20:24:52.424,109,1425097487.0736,37.78762164063544,-122.3967719079203,16.19745,0,-1,10,200,-9999,1425097492.413437,2.595298767089844,-30.23100280761719,24.0813102722168,196.9208679199219,183.1475677490234,10,139519.7234309167,0.3899078369140625,-1.295944213867188,0.38909912109375,139519.689813125,-0.4178459802917974,-0.2714331067264021,0.8552859019877437,139519.689813125,2.057915258823219,1.679377452532607,1.382454511593268,-0.4249533712863922,-0.2598439455032349,0.8890059590339661,0.06510839611291885,-0.07520958781242371,0.3630262911319733,XTrueNorthZVertical,-0.2718952129710199,0.6604679125940374,0.6854870680929274,-0.1412890302261711,0.186127558350563,-0.9823160767555237,0.02028974145650864,0.8647065162658691,-25.47117805480957,20.58980560302734,2,10.3.35.51,10.83.46.32,1,0
2015-02-27 20:24:52.492,110,1425097487.0736,37.78762164063544,-122.3967719079203,16.19745,0,-1,10,200,-9999,1425097492.464565,1.760093688964844,-30.99569702148438,23.36562347412109,194.7587738037109,180.9854736328125,10,139519.7724391667,0.415313720703125,-1.4508056640625,0.0908660888671875,139519.741595375,-0.9707190215405742,-0.270153990454837,0.5320950584239786,139519.741595375,2.25759112895177,1.480819833450534,1.422254906520383,-0.9778263568878174,-0.2585649490356445,0.5658147931098938,0.3319883942604065,-0.4402264952659607,0.3125077784061432,XTrueNorthZVertical,-0.2558775898090931,0.6541235162182549,0.6938629954061221,-0.1587551862383412,0.147396981716156,-0.9889879822731018,-0.01329816877841949,-0.006012916564941406,-25.91427612304688,20.04791831970215,2,10.3.35.51,10.83.46.32,1,0
2015-02-27 20:24:52.521,111,1425097487.0736,37.78762164063544,-122.3967719079203,16.19745,0,-1,10,200,-9999,1425097492.51632,1.487373352050781,-32.52510070800781,21.63467407226562,194.1409759521484,180.36767578125,10,139519.821433375,-0.1505584716796875,-1.265045166015625,-0.0855865478515625,139519.793376875,-1.965922080878901,-1.607727180579352,0.5199430543699471,139519.793376875,2.784033314155327,0.9029071850902001,1.418340246662416,-1.973029375076294,-1.59613823890686,0.5536624193191528,0.07763417810201645,-0.3760703802108765,0.1682129353284836,XTrueNorthZVertical,-0.2216113155140364,0.6355004437805551,0.7225088026498458,-0.1581411454116611,0.1192347183823586,-0.9884010553359985,-0.09405522048473358,-0.4357223510742188,-26.77176666259766,18.88257217407227,2,10.3.35.51,10.83.46.32,1,0
2015-02-27 20:24:52.594,112,1425097487.0736,37.78762164063544,-122.3967719079203,16.19745,0,-1,10,200,-9999,1425097492.571986,2.18621826171875,-34.58125305175781,18.68874359130859,196.0082244873047,182.2349243164062,10,139519.8704547083,0.259613037109375,-1.330917358398438,0.076416015625,139519.8451584583,-2.995407746613709,-1.319293252402211,0.931623550422102,139519.8451584583,-2.943801452709095,0.2855775422718976,1.325448592988368,-3.002515077590942,-1.307704448699951,0.9653425216674805,-0.1643732190132141,-0.1813447773456573,0.0557795837521553,XTrueNorthZVertical,-0.1717626583216982,0.5949533532905126,0.7678388656329633,-0.1641692846603569,0.06842595338821411,-0.9700528979301453,-0.2330561876296997,0.08988356590270996,-28.91570663452148,15.40592670440674,2,10.3.35.51,10.83.46.32,1,0
2015-02-27 20:24:52.621,113,1425097487.0736,37.78762164063544,-122.3967719079203,16.19745,0,-1,10,200,-9999,1425097492.571986,2.18621826171875,-34.58125305175781,18.68874359130859,196.0082244873047,182.2349243164062,10,139519.9194616667,0.203948974609375,-0.9997100830078125,-0.1109466552734375,139519.8969408333,-2.969197181481258,0.1621420355956213,0.4085637986284352,139519.8969408333,-2.758125394349381,0.09056921882030608,1.190368831429723,-2.976304292678833,0.173730731010437,0.442282497882843,0.08650270104408264,-0.2296818792819977,0.5887438654899597,XTrueNorthZVertical,-0.1435286899339,0.5426801565607572,0.8072015617254643,-0.1825469325318633,0.03358396887779236,-0.9285059571266174,-0.3697955310344696,-0.4357523918151855,-30.6750431060791,11.50307559967041,2,10.3.35.51,10.83.46.32,1,0
2015-02-27 20:24:52.694,114,1425097487.0736,37.78762164063544,-122.3967719079203,16.19745,0,-1,10,200,-9999,1425097492.645775,1.48736572265625,-38.20079040527344,11.81488800048828,195.0510864257812,181.2777862548828,10,139519.9684814167,0.2615966796875,-0.8012237548828125,-0.1117401123046875,139519.9487224583,-3.692178039462192,-0.1021189119990884,0.4238716485742106,139519.9487224583,-2.692940544179731,0.03785833657471325,1.023705957928008,-3.699289798736572,-0.09051994234323502,0.4575731754302979,0.2896215319633484,-0.06346924602985382,0.3234053254127502,XTrueNorthZVertical,-0.1250234615984546,0.4737649974326875,0.847779277459503,-0.2029436841972638,0.01968937180936337,-0.8540417551994324,-0.5198317170143127,-1.117559671401978,-31.93436813354492,7.23989200592041,2,10.3.35.51,10.83.46.32,1,0
2015-02-27 20:24:52.718,115,1425097487.0736,37.78762164063544,-122.3967719079203,16.19745,0,-1,10,200,-9999,1425097492.698199,0.05558013916015625,-39.90011596679688,5.723281860351562,192.9670257568359,179.1937255859375,10,139520.0176122084,0.155487060546875,-0.663726806640625,-0.08953857421875,139520.0005039167,-3.985490079808031,-0.1445350786807804,0.3520762876950915,139520.0005039167,-2.653102178488606,-0.001765727438868426,0.8297194597482838,-3.992602586746216,-0.1329350173473358,0.3857755362987518,0.1743487566709518,0.01867157779633999,0.5835289359092712,XTrueNorthZVertical,-0.09668594102247545,0.3912939855070351,0.8880963426398869,-0.2209654110761347,-0.001192011521197855,-0.737742006778717,-0.6750816702842712,-1.863716602325439,-32.71048355102539,0.1403980255126953,2,10.3.35.51,10.83.46.32,1,0
2015-02-27 20:24:52.800,116,1425097487.0736,37.78762164063544,-122.3967719079203,16.19745,0,-1,10,200,-9999,1425097492.749338,-0.5580520629882812,-40.23995971679688,-0.5014724731445312,192.0493927001953,178.2760925292969,10,139520.0665150833,0.191253662109375,-0.454345703125,-0.244720458984375,139520.052286,-3.912934386437694,0.002547047266551783,-0.02973845462847882,139520.052286,-2.639992201496956,-0.01226565052637125,0.6293796564918553,-3.920068025588989,0.01421619858592749,0.003994403406977654,0.17608343064785,0.0569966621696949,0.6600928902626038,XTrueNorthZVertical,-0.0711661999443251,0.3012795484128789,0.9215967037855968,-0.2341484619913391,-0.009915214963257313,-0.5886433720588684,-0.8083320260047913,-2.407235383987427,-32.1717643737793,-5.714158058166504,2,10.3.35.51,10.83.46.32,1,0
2015-02-27 20:24:52.815,117,1425097487.0736,37.78762164063544,-122.3967719079203,16.19745,0,-1,10,200,-9999,1425097492.800806,-0.7625808715820312,-39.05039978027344,-7.292106628417969,191.7774963378906,178.0041961669922,10,139520.1155241667,0.260650634765625,-0.41943359375,-0.4239349365234375,139520.1040676667,-3.551635305571549,-0.2751847017539967,-0.4490526356292369,139520.052286,-2.639992201496956,-0.01226565052637125,0.6293796564918553,-3.920068025588989,0.01421619858592749,0.003994403406977654,0.17608343064785,0.0569966621696949,0.6600928902626038,XTrueNorthZVertical,-0.0711661999443251,0.3012795484128789,0.9215967037855968,-0.2341484619913391,-0.009915214963257313,-0.5886433720588684,-0.8083320260047913,-2.407235383987427,-32.1717643737793,-5.714158058166504,2,10.3.35.51,10.83.46.32,1,0
2015-02-27 20:24:52.898,118,1425097487.0736,37.78762164063544,-122.3967719079203,16.19745,0,-1,10,200,-9999,1425097492.853446,-0.660308837890625,-36.80732727050781,-13.61671447753906,192.60693359375,178.8336334228516,10,139520.1645410417,0.1432952880859375,-0.2582550048828125,-0.4991302490234375,139520.1558492917,-3.073995233536966,-0.8866470206684078,-0.7451692509190383,139520.1558492917,-2.687883646613582,-0.02885800427046345,0.2763339805558021,-3.081128835678101,-0.8749780654907227,-0.7114370465278625,0.1850927174091339,-0.0354580245912075,0.4690010249614716,XTrueNorthZVertical,-0.01704880514994736,0.1373993113552667,0.9654394429317475,-0.2208108477893806,-0.02775933966040611,-0.2728305459022522,-0.9616615176200867,-2.027888059616089,-27.64649772644043,-17.46504020690918,2,10.3.35.51,10.83.46.32,1,0
2015-02-27 20:24:52.914,119,1425097487.0736,37.78762164063544,-122.3967719079203,16.19745,0,-1,10,200,-9999,1425097492.906291,-0.404632568359375,-33.9014892578125,-19.09249877929688,194.2938385009766,180.5205383300781,10,139520.2135417917,-0.0168304443359375,-0.0696563720703125,-0.5185089111328125,139520.1558492917,-3.073995233536966,-0.8866470206684078,-0.7451692509190383,139520.1558492917,-2.687883646613582,-0.02885800427046345,0.2763339805558021,-3.081128835678101,-0.8749780654907227,-0.7114370465278625,0.1850927174091339,-0.0354580245912075,0.4690010249614716,XTrueNorthZVertical,-0.01704880514994736,0.1373993113552667,0.9654394429317475,-0.2208108477893806,-0.02775933966040611,-0.2728305459022522,-0.9616615176200867,-2.027888059616089,-27.64649772644043,-17.46504020690918,2,10.3.35.51,10.83.46.32,1,0
2015-02-27 20:24:53.005,120,1425097487.0736,37.78762164063544,-122.3967719079203,16.19745,0,-1,10,200,-9999,1425097492.981891,0.8907928466796875,-29.51730346679688,-24.51834869384766,199.8600921630859,186.0867919921875,10,139520.262564125,-0.126800537109375,0.2706451416015625,-0.8744659423828125,139520.2594130417,-1.83236907958528,-0.7693845757628018,-1.648193647026997,139520.207631375,-2.743266869927993,-0.06539093701281913,0.1378505492708017,-2.658555030822754,-0.9334716200828552,-1.158413648605347,0.08796360343694687,0.03389874845743179,0.4661951661109924,XTrueNorthZVertical,0.01834866032480555,0.07392548651813484,0.9778278511408589,-0.1950667158393835,-0.06472446769475937,-0.1374143660068512,-0.9883967041969299,-1.906797051429749,-25.08696746826172,-20.9875431060791,2,10.3.35.51,10.83.46.32,1,0
2015-02-27 20:24:53.012,121,1425097487.0736,37.78762164063544,-122.3967719079203,16.19745,0,-1,10,200,-9999,1425097492.981891,0.8907928466796875,-29.51730346679688,-24.51834869384766,199.8600921630859,186.0867919921875,10,139520.3116841667,-0.375701904296875,0.4272918701171875,-0.8690948486328125,139520.3111946667,0.2826090622409196,-2.221591404480906,-2.006755797240868,139520.2594130417,-2.82213182979921,-0.09967675963785613,0.02499194836546245,-1.839502573013306,-0.7577158808708191,-1.61446213722229,-0.06503955274820328,0.1777756065130234,0.250722348690033,XTrueNorthZVertical,0.04719474999130659,0.02024426087291116,0.9860663467378519,-0.1582275775388239,-0.09948071092367172,-0.02498934604227543,-0.9947256445884705,-1.600272178649902,-22.48562240600586,-23.7761402130127,2,10.3.35.51,10.83.46.32,1,0
2015-02-27 20:24:53.095,122,1425097487.0736,37.78762164063544,-122.3967719079203,16.19745,0,-1,10,200,-9999,1425097493.086311,1.112380981445312,-28.31080627441406,-25.36717224121094,210.3473052978516,196.5740051269531,10,139520.3606063333,-0.778839111328125,-0.2195587158203125,-0.8832855224609375,139520.3629768333,1.186402579271693,-2.032814562191184,-2.333623933637814,139520.3111946667,-2.915619795268297,-0.1714455847887044,0.01038365051474899,0.27547287940979,-2.209924697875977,-1.973021388053894,-0.03196270391345024,0.5568617582321167,0.09412699192762375,XTrueNorthZVertical,0.08448757653308105,0.01479271078845433,0.9900120499545655,-0.1118889943275274,-0.170597717165947,-0.01038346346467733,-0.9852860569953918,-0.9585604667663574,-20.25123405456543,-25.73786163330078,2,10.3.35.51,10.83.46.32,1,0
2015-02-27 20:24:53.110,123,1425097487.0736,37.78762164063544,-122.3967719079203,16.19745,0,-1,10,200,-9999,1425097493.086311,1.112380981445312,-28.31080627441406,-25.36717224121094,210.3473052978516,196.5740051269531,10,139520.4096170834,-0.828033447265625,-0.4173583984375,-0.64434814453125,139520.3629768333,1.186402579271693,-2.032814562191184,-2.333623933637814,139520.3629768333,-3.0157805809247,-0.2807700033504483,0.07588963027021463,1.17926561832428,-2.0211501121521,-2.299886226654053,-0.5025410652160645,-0.1437419056892395,0.07479130476713181,XTrueNorthZVertical,0.1371857084043988,0.04627816018163148,0.9878260812033222,-0.05690366931969039,-0.2762980461120605,-0.075816810131073,-0.9580768346786499,-1.614628314971924,-20.76388549804688,-25.29274368286133,2,10.3.35.51,10.83.46.32,1,0
2015-02-27 20:24:53.193,124,1425097487.0736,37.78762164063544,-122.3967719079203,16.19745,0,-1,10,200,-9999,1425097493.140023,1.061248779296875,-29.17745971679688,-25.15079498291016,214.9673309326172,201.1940307617188,10,139520.4586285834,-1.29058837890625,-0.745513916015625,-0.7214202880859375,139520.4665400417,0.603794811819964,-0.2864693142409894,0.400021176799788,139520.4147584167,-3.07299570417468,-0.3739623569450121,0.1435058546277175,0.4991313517093658,-1.905698299407959,-0.6955063939094543,-0.4664817452430725,-0.2743445932865143,0.2769701480865479,XTrueNorthZVertical,0.1828905942315309,0.07675856843802575,0.9799222020240796,-0.02028821532395851,-0.3615517020225525,-0.1430138051509857,-0.9213182926177979,-1.794535636901855,-22.169677734375,-24.05730438232422,2,10.3.35.51,10.83.46.32,1,0
2015-02-27 20:24:53.209,125,1425097487.0736,37.78762164063544,-122.3967719079203,16.19745,0,-1,10,200,-9999,1425097493.140023,1.061248779296875,-29.17745971679688,-25.15079498291016,214.9673309326172,201.1940307617188,10,139520.5076331667,-0.616363525390625,-0.7767181396484375,-0.970306396484375,139520.4665400417,0.603794811819964,-0.2864693142409894,0.400021176799788,139520.4665400417,-3.060022033872022,-0.4297252854550394,0.1634436396936907,0.5966579914093018,-0.274805098772049,0.4337582886219025,-0.8795197010040283,-0.5827969908714294,0.1755444556474686,XTrueNorthZVertical,0.2090730609912858,0.08835206197481753,0.9736449412816328,-0.02231317137896826,-0.4110686779022217,-0.1627169102430344,-0.8969647288322449,-3.329071998596191,-23.0898609161377,-23.00531578063965,2,10.3.35.51,10.83.46.32,1,0
2015-02-27 20:24:53.293,126,1425097487.0736,37.78762164063544,-122.3967719079203,16.19745,0,-1,10,200,-9999,1425097493.267009,0.4817123413085938,-30.97872924804688,-24.05232238769531,216.5308074951172,202.7575073242188,10,139520.5566397917,-0.3159027099609375,-0.495452880859375,-1.096038818359375,139520.518322375,0.2996698048161852,1.004980322648335,0.04259113636531024,139520.518322375,-3.041325422987469,-0.4055896366073789,0.185242614222134,0.2925330400466919,1.016644358634949,0.07632787525653839,-0.09479465335607529,-0.495883971452713,-0.1388579308986664,XTrueNorthZVertical,0.1957525180215607,0.100529586105363,0.9750171377924061,-0.03027071199321893,-0.3878103196620941,-0.1841849982738495,-0.9031494855880737,-3.78874397277832,-23.65204238891602,-22.35386276245117,2,10.3.35.51,10.83.46.32,1,0
2015-02-27 20:24:53.306,127,1425097487.0736,37.78762164063544,-122.3967719079203,16.19745,0,-1,10,200,-9999,1425097493.267009,0.4817123413085938,-30.97872924804688,-24.05232238769531,216.5308074951172,202.7575073242188,10,139520.6056404167,-0.319915771484375,-0.3329620361328125,-0.9246673583984375,139520.570103875,-0.610350981791521,0.83701395374871,0.4374449817020175,139520.570103875,-3.032059749699646,-0.3575990710712348,0.1712835059326411,-0.6174876689910889,0.848677933216095,0.4711813926696777,0.02909304015338421,-0.3303157389163971,-0.1288474649190903,XTrueNorthZVertical,0.1723233104144442,0.09374683562250199,0.9798140342355603,-0.03847917360573865,-0.3449041843414307,-0.1704472154378891,-0.9230324029922485,-2.935123920440674,-23.92710876464844,-22.18890380859375,2,10.3.35.51,10.83.46.32,1,0
2015-02-27 20:24:53.391,128,1425097487.0736,37.78762164063544,-122.3967719079203,16.19745,0,-1,10,200,-9999,1425097493.371288,1.078300476074219,-29.19444274902344,-24.93442535400391,212.7131652832031,198.9398651123047,10,139520.6546504583,-0.309844970703125,-0.181427001953125,-0.76177978515625,139520.6218856667,-1.417707174692782,0.5694371042807427,1.025450177735011,139520.6218856667,-3.012580578660058,-0.3292078478833766,0.1056933774898338,-1.424843788146973,0.5811009407043457,1.059186220169067,-0.00214948900975287,-0.1793238520622253,0.04656310379505157,XTrueNorthZVertical,0.1599335821176901,0.06254773053662646,0.9836152621714173,-0.05486371958721985,-0.3214894235134125,-0.1054967045783997,-0.9410180449485779,-2.571393966674805,-22.94221687316895,-23.2489070892334,2,10.3.35.51,10.83.46.32,1,0
2015-02-27 20:24:53.406,129,1425097487.0736,37.78762164063544,-122.3967719079203,16.19745,0,-1,10,200,-9999,1425097493.371288,1.078300476074219,-29.19444274902344,-24.93442535400391,212.7131652832031,198.9398651123047,10,139520.7036529167,-0.197784423828125,-0.069732666015625,-0.740753173828125,139520.6736676667,-1.629843668168024,1.13527308213548,1.225608571575404,139520.6736676667,-2.978642346954487,-0.2881792073326095,0.01179721758512829,-1.636980295181274,1.146936893463135,1.259344339370728,-0.01462565455585718,-0.1529369354248047,0.2090471833944321,XTrueNorthZVertical,0.1426376269577936,0.0175040826439995,0.9864059161574028,-0.07969607282724189,-0.2841871976852417,-0.01179694384336472,-0.9586962461471558,-2.958401679992676,-21.24425315856934,-24.76688194274902,2,10.3.35.51,10.83.46.32,1,0
2015-02-27 20:24:53.463,130,1425097487.0736,37.78762164063544,-122.3967719079203,16.19745,0,-1,10,200,-9999,1425097493.424084,0.7203445434570312,-26.69644165039062,-26.11612701416016,210.3485412597656,196.5752410888672,10,139520.7526485417,0.2109832763671875,0.1548004150390625,-0.77667236328125,139520.7254494167,-1.504602392636541,1.32243178774687,1.043293623354651,139520.7254494167,-2.942940077367331,-0.2214628032205173,-0.07967660888932136,-1.511738896369934,1.334095478057861,1.07702898979187,0.1286585628986359,-0.09814701974391937,0.1831602603197098,XTrueNorthZVertical,0.1137986024825546,-0.02843940035083059,0.9877557869511727,-0.1028570119775098,-0.2189600765705109,0.07959233224391937,-0.9724821448326111,-2.788789033889771,-19.20999145507812,-26.39446449279785,2,10.3.35.51,10.83.46.32,1,0
2015-02-27 20:24:53.501,131,1425097487.0736,37.78762164063544,-122.3967719079203,16.19745,0,-1,10,200,-9999,1425097493.47644,1.146469116210938,-24.19847106933594,-27.76385498046875,207.3153839111328,193.5420837402344,10,139520.8016442083,0.221771240234375,0.1056060791015625,-0.8218994140625,139520.7772309167,-1.341336236744797,0.7628108289280503,1.328680628928632,139520.7772309167,-2.897067468216886,-0.1578496972406807,-0.1551217149973939,-1.348472714424133,0.7744743227958679,1.362415671348572,0.491107702255249,0.05893958732485771,0.1834885329008102,XTrueNorthZVertical,0.08743941961420972,-0.0670786877713878,0.9857258657366121,-0.1272764555995137,-0.1553075164556503,0.154500350356102,-0.9757096171379089,-1.831713676452637,-16.69304275512695,-28.1328296661377,2,10.3.35.51,10.83.46.32,1,0
2015-02-27 20:24:53.594,132,1425097487.0736,37.78762164063544,-122.3967719079203,16.19745,0,-1,10,200,-9999,1425097493.578456,1.470329284667969,-20.06913757324219,-30.60992431640625,203.2916870117188,189.5183868408203,10,139520.8506574583,0.1893768310546875,0.285675048828125,-0.7381134033203125,139520.8290132083,-1.279895778816124,-0.07074208066799283,1.049926758681711,139520.8290132083,-2.843336598721849,-0.1384483909829998,-0.2315690125946936,-1.287032127380371,-0.05907867476344109,1.083661556243896,0.2990261614322662,-0.08231865614652634,0.1368610560894012,XTrueNorthZVertical,0.08506649998747505,-0.1037621132144907,0.978739932886296,-0.1551297495731985,-0.13432277739048,0.2295049428939819,-0.9639942049980164,-1.951560020446777,-14.84535217285156,-29.14233779907227,2,10.3.35.51,10.83.46.32,1,0
2015-02-27 20:24:53.600,133,1425097487.0736,37.78762164063544,-122.3967719079203,16.19745,0,-1,10,200,-9999,1425097493.578456,1.470329284667969,-20.06913757324219,-30.60992431640625,203.2916870117188,189.5183868408203,10,139520.899766875,0.1445770263671875,0.1357421875,-0.732269287109375,139520.88079475,-1.441202913410006,-0.03513961163526853,0.7190508311603042,139520.88079475,-2.806921171698367,-0.1305239254362617,-0.3025281129829177,-1.448339104652405,-0.02347633801400661,0.7527852058410645,0.2961941659450531,-0.1055974215269089,0.2548618614673615,XTrueNorthZVertical,0.08861497062791776,-0.1375287451959075,0.9710610076769172,-0.1739934814374188,-0.1242428719997406,0.2979344725608826,-0.9464664459228516,-2.66629433631897,-13.00689125061035,-29.95297050476074,2,10.3.35.51,10.83.46.32,1,0
2015-02-27 20:24:53.662,134,1425097487.0736,37.78762164063544,-122.3967719079203,16.19745,0,-1,10,200,-9999,1425097493.630314,1.129432678222656,-17.96197509765625,-31.50869750976562,201.2843017578125,187.5110015869141,10,139520.9486583333,0.1384124755859375,0.1779937744140625,-0.7133941650390625,139520.9325765,-1.766148513816024,-0.3477827393856657,0.4302864046918845,139520.9325765,-2.786852222400479,-0.1326687778095372,-0.3866024069570561,-1.773284673690796,-0.3361195623874664,0.4640204608440399,0.2795452773571014,-0.2334280461072922,0.1783408373594284,XTrueNorthZVertical,0.09785046371065058,-0.1771922224314471,0.9616075029508705,-0.1853083762752711,-0.1225170716643333,0.377043753862381,-0.9180564284324646,-3.307585477828979,-10.21358776092529,-30.95498847961426,2,10.3.35.51,10.83.46.32,1,0
2015-02-27 20:24:53.698,135,1425097487.0736,37.78762164063544,-122.3967719079203,16.19745,0,-1,10,200,-9999,1425097493.681918,0.8226165771484375,-14.7332763671875,-32.40745544433594,200.3742980957031,186.6009979248047,10,139520.99766075,0.072509765625,0.3437652587890625,-0.675140380859375,139520.9843585417,-2.254049745530683,-0.5128814164234929,0.250625296497395,139520.9325765,-2.786852222400479,-0.1326687778095372,-0.3866024069570561,-1.773284673690796,-0.3361195623874664,0.4640204608440399,0.2795452773571014,-0.2334280461072922,0.1783408373594284,XTrueNorthZVertical,0.09785046371065058,-0.1771922224314471,0.9616075029508705,-0.1853083762752711,-0.1225170716643333,0.377043753862381,-0.9180564284324646,-3.307585477828979,-10.21358776092529,-30.95498847961426,2,10.3.35.51,10.83.46.32,1,0
2015-02-27 20:24:53.796,136,1425097487.0736,37.78762164063544,-122.3967719079203,16.19745,0,-1,10,200,-9999,1425097493.786287,-2.040962219238281,-6.20269775390625,-33.67237854003906,199.2661437988281,185.4928436279297,10,139521.0466719167,0.1492462158203125,0.8986968994140625,-1.018142700195312,139521.0361403333,-2.247686122105939,-0.9764671884374012,-0.02146747523101973,139521.0361403333,-2.798298121261077,-0.1961294456100914,-0.6080457321940879,-2.25483512878418,-0.9647492170333862,0.01230904273688793,0.2448614835739136,0.002618501195684075,-0.06633798778057098,XTrueNorthZVertical,0.1429316565053662,-0.2775884224737603,0.9305955214821279,-0.1910684842205478,-0.1599463224411011,0.5712645649909973,-0.8050304055213928,-4.81212043762207,-4.266863822937012,-32.12641143798828,2,10.3.35.51,10.83.46.32,1,0
2015-02-27 20:24:53.799,137,1425097487.0736,37.78762164063544,-122.3967719079203,16.19745,0,-1,10,200,-9999,1425097493.786287,-2.040962219238281,-6.20269775390625,-33.67237854003906,199.2661437988281,185.4928436279297,10,139521.0956895417,-0.212615966796875,1.024612426757812,-0.839935302734375,139521.0879218333,-2.381973623228203,-2.031005210546585,-1.256957439715054,139521.0361403333,-2.798298121261077,-0.1961294456100914,-0.6080457321940879,-2.25483512878418,-0.9647492170333862,0.01230904273688793,0.2448614835739136,0.002618501195684075,-0.06633798778057098,XTrueNorthZVertical,0.1429316565053662,-0.2775884224737603,0.9305955214821279,-0.1910684842205478,-0.1599463224411011,0.5712645649909973,-0.8050304055213928,-4.81212043762207,-4.266863822937012,-32.12641143798828,2,10.3.35.51,10.83.46.32,1,0
2015-02-27 20:24:53.862,138,1425097487.0736,37.78762164063544,-122.3967719079203,16.19745,0,-1,10,200,-9999,1425097493.838629,-4.410224914550781,-1.32568359375,-33.48929595947266,200.7758483886719,187.0025482177734,10,139521.1447316667,-0.4062042236328125,0.611663818359375,-0.0069122314453125,139521.139704125,-3.099654790639879,-1.966745796604062,-1.330684391332807,139521.0879218333,-2.870336048011992,-0.318121635934476,-0.704605439380659,-2.389122486114502,-2.019287347793579,-1.223181247711182,0.1603572070598602,0.5047478079795837,-0.2056048065423965,XTrueNorthZVertical,0.1933650296549319,-0.3174742006777418,0.9108318630663568,-0.1794586175735686,-0.2382991015911102,0.6477332711219788,-0.7236402034759521,-6.840853214263916,-0.008049964904785156,-32.04171752929688,2,10.3.35.51,10.83.46.32,1,0
2015-02-27 20:24:53.896,139,1425097487.0736,37.78762164063544,-122.3967719079203,16.19745,0,-1,10,200,-9999,1425097493.838629,-4.410224914550781,-1.32568359375,-33.48929595947266,200.7758483886719,187.0025482177734,10,139521.19373275,-0.4327545166015625,0.6116485595703125,0.1935577392578125,139521.191485625,-3.323304129507535,-1.714168935659858,-1.006392596974404,139521.139704125,-3.03596249562015,-0.5423219137169389,-0.8037015148610025,-3.10680365562439,-1.955027937889099,-1.296908617019653,-0.04092380404472351,-0.07898460328578949,0.5177232027053833,XTrueNorthZVertical,0.2660622333220142,-0.3632919632229492,0.8799431727583649,-0.1514259923561048,-0.3582156002521515,0.7199300527572632,-0.5944596529006958,-9.867059707641602,3.043485641479492,-31.09416770935059,2,10.3.35.51,10.83.46.32,1,0
2015-02-27 20:24:53.962,140,1425097487.0736,37.78762164063544,-122.3967719079203,16.19745,0,-1,10,200,-9999,1425097493.942194,-12.11459350585938,10.1956787109375,-30.49343872070312,206.7328338623047,192.9595336914062,10,139521.2427624167,-0.4942626953125,0.9920654296875,0.3135528564453125,139521.2432674583,-3.211682259790717,-2.273078830467626,-0.816340899470861,139521.191485625,3.026510182793187,-0.7908690820588614,-0.8994198944938044,-3.330452919006348,-1.702451229095459,-0.9726170897483826,0.04355357214808464,-0.1473308056592941,0.5792984962463379,XTrueNorthZVertical,0.3232645929468726,-0.4204445215027033,0.8393299336710599,-0.1193802777545804,-0.4422657191753387,0.7829661965370178,-0.4374528229236603,-12.84942245483398,6.587380409240723,-29.41033172607422,2,10.3.35.51,10.83.46.32,1,0
2015-02-27 20:24:53.997,141,1425097487.0736,37.78762164063544,-122.3967719079203,16.19745,0,-1,10,200,-9999,1425097493.942194,-12.11459350585938,10.1956787109375,-30.49343872070312,206.7328338623047,192.9595336914062,10,139521.2917734167,-0.795501708984375,1.69451904296875,0.3886871337890625,139521.2432674583,-3.211682259790717,-2.273078830467626,-0.816340899470861,139521.2432674583,2.754005809513322,-1.12060347338381,-0.9628153464957431,-3.218835353851318,-2.261367321014404,-0.7825580835342407,0.02003501355648041,0.1712624579668045,0.5621092915534973,XTrueNorthZVertical,0.3866864338064822,-0.4756000161877053,0.7841518617302421,-0.09687138506826931,-0.5142977237701416,0.8208029866218567,-0.248556450009346,-16.44350242614746,11.32830905914307,-25.9759407043457,2,10.3.35.51,10.83.46.32,1,0
2015-02-27 20:24:54.059,142,1425097487.0736,37.78762164063544,-122.3967719079203,16.19745,0,-1,10,200,-9999,1425097494.045449,-21.72801971435547,19.20205688476562,-23.4365234375,211.6817626953125,197.9084625244141,10,139521.340841875,-0.919189453125,1.170150756835938,0.6434326171875,139521.3468312083,-0.6001577327192428,-1.436961829374054,-1.713060794330275,139521.2950495,2.490170572507131,-1.473332529194386,-0.9405139307898571,-2.316512107849121,-3.102696180343628,-1.806336879730225,-0.2089258879423141,0.8866579532623291,0.4460387527942657,XTrueNorthZVertical,0.460014171648824,-0.5096186337122954,0.7229994518489319,-0.07712057876710986,-0.5865758061408997,0.8078610897064209,-0.05735161900520325,-19.55596542358398,14.11070728302002,-22.17929458618164,2,10.3.35.51,10.83.46.32,1,0
2015-02-27 20:24:54.100,143,1425097487.0736,37.78762164063544,-122.3967719079203,16.19745,0,-1,10,200,-9999,1425097494.045449,-21.72801971435547,19.20205688476562,-23.4365234375,211.6817626953125,197.9084625244141,10,139521.389805625,-0.7535858154296875,0.9113006591796875,0.57037353515625,139521.3468312083,-0.6001577327192428,-1.436961829374054,-1.713060794330275,139521.3468312083,2.388290737755079,-1.668964912140728,-0.8554998018950356,-0.6073107123374939,-1.425250291824341,-1.679278612136841,-0.2665058374404907,0.4152519702911377,0.5791529417037964,XTrueNorthZVertical,0.5244669271576915,-0.5070249168666285,0.6812715692135063,-0.06106722495164138,-0.6526836156845093,0.7548987865447998,0.06427964568138123,-23.29807281494141,14.53630065917969,-17.87077522277832,2,10.3.35.51,10.83.46.32,1,0
2015-02-27 20:24:54.149,144,1425097487.0736,37.78762164063544,-122.3967719079203,16.19745,0,-1,10,200,-9999,1425097494.097026,-26.24496459960938,20.17062377929688,-20.45729064941406,215.8214874267578,202.0481872558594,10,139521.4389408334,-0.7874755859375,0.6260986328125,0.279998779296875,139521.39861275,0.5387510969364137,-0.8786399605349755,-1.463762817320176,139521.39861275,2.40124923393632,-1.707791001234877,-0.7768685695914663,0.5315981507301331,-0.8669285774230957,-1.429980993270874,-0.0471547469496727,0.2102508544921875,0.472986251115799,XTrueNorthZVertical,0.5604005332477283,-0.4844015805014029,0.6702045655497382,-0.04617545286688945,-0.7064310908317566,0.7010498046875,0.09738729894161224,-26.13045883178711,12.65302848815918,-15.18449401855469,2,10.3.35.51,10.83.46.32,1,0
2015-02-27 20:24:54.194,145,1425097487.0736,37.78762164063544,-122.3967719079203,16.19745,0,-1,10,200,-9999,1425097494.149236,-29.26194763183594,18.52227783203125,-18.74298858642578,216.8800048828125,203.1067047119141,10,139521.4878499583,-1.014205932617188,0.573638916015625,0.143310546875,139521.4503949167,1.150458160355003,-1.264085923004869,-1.171345332784494,139521.4503949167,2.478179839314681,-1.707409060498687,-0.7223912379541086,1.14330530166626,-1.252374649047852,-1.137563943862915,-0.1031681001186371,-0.0317707397043705,0.1370705217123032,XTrueNorthZVertical,0.5910174574764805,-0.4492041656553121,0.6680182656691438,-0.0516290638701835,-0.7432369589805603,0.6611805558204651,0.1021720319986343,-27.45448303222656,10.57321357727051,-14.41969108581543,2,10.3.35.51,10.83.46.32,1,0
2015-02-27 20:24:54.247,146,1425097487.0736,37.78762164063544,-122.3967719079203,16.19745,0,-1,10,200,-9999,1425097494.200709,-31.88688659667969,15.56549072265625,-17.91081237792969,214.9082946777344,201.1349945068359,10,139521.5369792917,-1.150100708007812,0.519287109375,0.14288330078125,139521.50217675,1.185714152129908,-0.619795616281378,-1.322226724342934,139521.50217675,2.565536201181308,-1.702214277211095,-0.6707025746492945,1.178561329841614,-0.608084499835968,-1.288445711135864,-0.2850001454353333,-0.05767849460244179,0.02544274553656578,XTrueNorthZVertical,0.6192461049277704,-0.409709233470481,0.6670940172442943,-0.06048271393923985,-0.7766301035881042,0.6215365529060364,0.102654792368412,-28.69051933288574,8.396671295166016,-13.40965938568115,2,10.3.35.51,10.83.46.32,1,0
2015-02-27 20:24:54.293,147,1425097487.0736,37.78762164063544,-122.3967719079203,16.19745,0,-1,10,200,-9999,1425097494.252714,-33.08003997802734,12.30279541015625,-17.81094360351562,214.1033782958984,200.330078125,10,139521.5858854583,-1.2122802734375,0.452117919921875,0.12933349609375,139521.553958375,1.091875274275985,1.095447638562217,-0.9935034299306381,139521.553958375,2.643770759590009,-1.637372570023362,-0.6164002784085537,1.084722638130188,1.107158660888672,-0.959722638130188,-0.3691315352916718,-0.07720139622688293,0.0693582221865654,XTrueNorthZVertical,0.6233424843822816,-0.3722714319030433,0.685498013480097,-0.05431926597069723,-0.8141570687294006,0.5781016945838928,0.0542837418615818,-29.55944442749023,5.259939193725586,-13.11644554138184,2,10.3.35.51,10.83.46.32,1,0
2015-02-27 20:24:54.345,148,1425097487.0736,37.78762164063544,-122.3967719079203,16.19745,0,-1,10,200,-9999,1425097494.306882,-33.43799591064453,9.4649658203125,-19.02592468261719,215.2652893066406,201.4919891357422,10,139521.6349047917,-1.14202880859375,0.8105621337890625,0.0569000244140625,139521.605740375,0.8330506374144542,1.990802397046857,0.4876828525052723,139521.605740375,2.701359134452455,-1.522240976203704,-0.6080648827097682,0.8258979916572571,2.00251317024231,0.5214632749557495,-0.3763945400714874,-0.03063085861504078,0.1858630031347275,XTrueNorthZVertical,0.5948925181090222,-0.3552248536199931,0.7192717099938701,-0.05065948537862251,-0.8197876811027527,0.571280300617218,-0.03983639180660248,-28.96684455871582,3.551894187927246,-14.89210796356201,2,10.3.35.51,10.83.46.32,1,0
